ACCELEROMETER X (m/s²),ACCELEROMETER Y (m/s²),ACCELEROMETER Z (m/s²),GYROSCOPE X (rad/s),GYROSCOPE Y (rad/s),GYROSCOPE Z (rad/s),Time since start in ms ,YYYY-MO-DD HH-MI-SS_SSS
6.237398468017578,-5.217484161376953,-0.20110986328125,0.033444409732892214,-0.028509509815137335,-0.042496669048018076,0.0,2019-06-21 12:39:40:940
6.237398468017578,-5.222272491455078,-0.22624859619140625,0.033843883896404095,-0.027710561488113558,-0.042097194884506195,0.004992008209228516,2019-06-21 12:39:40:945
6.252960540771484,-5.2342433166503906,-0.25019024658203126,0.033044935569380325,-0.027311087324601673,-0.04183087877549827,0.009984016418457031,2019-06-21 12:39:40:950
6.260143035888672,-5.24381997680664,-0.25737274169921875,0.031580196969836744,-0.029441616196665066,-0.04143140461198638,0.014976024627685547,2019-06-21 12:39:40:955
6.2409897155761715,-5.267761627197266,-0.24779608154296875,0.031979671133348625,-0.03064003868720072,-0.04223035293901015,0.019968032836914062,2019-06-21 12:39:40:960
6.205077239990234,-5.227060821533203,-0.22505151367187498,0.03291177751487637,-0.029574774251169028,-0.04342877542954581,0.024960041046142578,2019-06-21 12:39:40:965
6.238595550537109,-5.223469573974609,-0.22026318359375,0.03291177751487637,-0.029308458142161105,-0.042762985157026,0.029952049255371094,2019-06-21 12:39:40:970
6.22063931274414,-5.231849151611328,-0.23821942138671875,0.0327786194603724,-0.028775825924145258,-0.042496669048018076,0.03494405746459961,2019-06-21 12:39:40:975
6.22901889038086,-5.253396636962891,-0.2370223388671875,0.031580196969836744,-0.02970793230567299,-0.04236351099351412,0.039936065673828125,2019-06-21 12:39:40:980
6.232610137939453,-5.271352874755859,-0.23343109130859374,0.031580196969836744,-0.030107406469184875,-0.04183087877549827,0.04505586624145508,2019-06-21 12:39:40:985
6.260143035888672,-5.279732452392578,-0.24779608154296875,0.03144703891533278,-0.02904214203315318,-0.04302930126603392,0.050047874450683594,2019-06-21 12:39:40:990
6.233807220458984,-5.296491607666016,-0.234628173828125,0.030914406697316935,-0.02904214203315318,-0.042896143211529965,0.05503988265991211,2019-06-21 12:39:40:995
6.203880157470703,-5.2773382873535155,-0.234628173828125,0.030914406697316935,-0.029441616196665066,-0.04302930126603392,0.060031890869140625,2019-06-21 12:39:41:000
6.203880157470703,-5.279732452392578,-0.268146484375,0.030648090588309012,-0.028509509815137335,-0.043695091538553735,0.06502389907836914,2019-06-21 12:39:41:005
6.219442230224609,-5.267761627197266,-0.25976690673828123,0.030914406697316935,-0.027577403433609596,-0.044494039865577505,0.07001590728759766,2019-06-21 12:39:41:010
6.237398468017578,-5.288112030029297,-0.2609639892578125,0.030914406697316935,-0.02890898397864922,-0.04382824959305769,0.07500791549682617,2019-06-21 12:39:41:015
6.250566375732422,-5.294097442626953,-0.2657523193359375,0.03184651307884467,-0.02824319370612941,-0.04489351402908939,0.07999992370605469,2019-06-21 12:39:41:020
6.245778045654297,-5.273747039794921,-0.30046771240234377,0.031979671133348625,-0.028509509815137335,-0.045292988192601275,0.0849919319152832,2019-06-21 12:39:41:025
6.25774887084961,-5.280929534912109,-0.31483270263671875,0.03211282918785259,-0.027311087324601673,-0.0455593043016092,0.08998394012451172,2019-06-21 12:39:41:030
6.276902191162109,-5.294097442626953,-0.2801173095703125,0.03184651307884467,-0.027577403433609596,-0.04702404290115278,0.09497594833374023,2019-06-21 12:39:41:035
6.264931365966797,-5.285717864990234,-0.22026318359375,0.031979671133348625,-0.027843719542617527,-0.04635825262863297,0.09996795654296875,2019-06-21 12:39:41:040
6.261340118408203,-5.295294525146485,-0.27892022705078123,0.03371072584190014,-0.029175300087657143,-0.048222465391688445,0.10495996475219727,2019-06-21 12:39:41:045
6.227821807861328,-5.303674102783203,-0.3052560424804687,0.03424335805991598,-0.02797687759712149,-0.04968720399123202,0.10995197296142578,2019-06-21 12:39:41:050
6.246975128173828,-5.314447845458984,-0.30765020751953126,0.03397704195090806,-0.02797687759712149,-0.04968720399123202,0.1149439811706543,2019-06-21 12:39:41:055
6.248172210693359,-5.30965951538086,-0.30884729003906247,0.03437651611441994,-0.028509509815137335,-0.04928772982772014,0.11993598937988281,2019-06-21 12:39:41:060
6.251763458251953,-5.303674102783203,-0.29089105224609374,0.03570809665945956,-0.02824319370612941,-0.05008667815474391,0.12505602836608887,2019-06-21 12:39:41:065
6.2254276428222655,-5.310856597900391,-0.2992706298828125,0.03597441276846748,-0.02811003565162545,-0.050619310372759754,0.13004803657531738,2019-06-21 12:39:41:070
6.2409897155761715,-5.300082855224609,-0.268146484375,0.03637388693197938,-0.027577403433609596,-0.05088562648176768,0.1350400447845459,2019-06-21 12:39:41:075
6.230215972900391,-5.308462432861328,-0.29567938232421875,0.03624072887747541,-0.02637898094307394,-0.05181773286329541,0.14003205299377441,2019-06-21 12:39:41:080
6.237398468017578,-5.279732452392578,-0.306453125,0.03677336109549126,-0.025580032616050172,-0.05168457480879145,0.14502406120300293,2019-06-21 12:39:41:085
6.2409897155761715,-5.285717864990234,-0.3232122802734375,0.03703967720449918,-0.02611266483406602,-0.052217207026807294,0.15001606941223145,2019-06-21 12:39:41:090
6.231413055419922,-5.237834564208984,-0.33638018798828123,0.03863757385854672,-0.023982135962002625,-0.05048615231825579,0.15500807762145996,2019-06-21 12:39:41:095
6.275705108642578,-5.258184967041015,-0.2657523193359375,0.0383712577495388,-0.025180558452538287,-0.05168457480879145,0.16000008583068848,2019-06-21 12:39:41:100
6.266128448486328,-5.255790802001953,-0.2801173095703125,0.03943652218557049,-0.025580032616050172,-0.05168457480879145,0.164992094039917,2019-06-21 12:39:41:105
6.251763458251953,-5.247411224365234,-0.26216107177734377,0.039569680240074456,-0.02637898094307394,-0.05195089091779937,0.1699838638305664,2019-06-21 12:39:41:110
6.262537200927734,-5.2330462341308595,-0.263358154296875,0.041167576894122,-0.025047400398034325,-0.052217207026807294,0.17497587203979492,2019-06-21 12:39:41:115
6.24936929321289,-5.255790802001953,-0.268146484375,0.03983599634908238,-0.023183187634978855,-0.051018784536271636,0.17996788024902344,2019-06-21 12:39:41:120
6.274508026123047,-5.245017059326171,-0.27652606201171875,0.04036862856709823,-0.022916871525970932,-0.049820362045735984,0.18495988845825195,2019-06-21 12:39:41:125
6.27809927368164,-5.198330841064453,-0.2549785766601562,0.04050178662160219,-0.022517397362459047,-0.04955404593672806,0.18995189666748047,2019-06-21 12:39:41:130
6.304435089111328,-5.225863739013672,-0.2549785766601562,0.040768102730610115,-0.022117923198947162,-0.04968720399123202,0.19494390487670898,2019-06-21 12:39:41:135
6.272113861083985,-5.213892913818359,-0.24779608154296875,0.03983599634908238,-0.022384239307955085,-0.04915457177321617,0.1999359130859375,2019-06-21 12:39:41:140
6.288873016357422,-5.223469573974609,-0.22624859619140625,0.03930336413106653,-0.022916871525970932,-0.04755667511916863,0.20505595207214355,2019-06-21 12:39:41:145
6.318800079345703,-5.199527923583984,-0.2465989990234375,0.038903889967554645,-0.022384239307955085,-0.04582562041061712,0.21004796028137207,2019-06-21 12:39:41:150
6.272113861083985,-5.193542510986328,-0.23103692626953123,0.03783862553152295,-0.022517397362459047,-0.044494039865577505,0.21503996849060059,2019-06-21 12:39:41:155
6.29725259399414,-5.197133758544922,-0.23582525634765625,0.03637388693197938,-0.022117923198947162,-0.042762985157026,0.2200319766998291,2019-06-21 12:39:41:160
6.2984496765136715,-5.177980438232422,-0.2418106689453125,0.03717283525900315,-0.02131897487192339,-0.04183087877549827,0.22502398490905762,2019-06-21 12:39:41:165
6.287675933837891,-5.199527923583984,-0.22146026611328123,0.03677336109549126,-0.020919500708411504,-0.040632456284962606,0.23001599311828613,2019-06-21 12:39:41:170
6.281690521240234,-5.18636001586914,-0.22026318359375,0.03677336109549126,-0.020786342653907542,-0.040632456284962606,0.23500800132751465,2019-06-21 12:39:41:175
6.314011749267578,-5.191148345947266,-0.2082923583984375,0.03637388693197938,-0.020253710435891695,-0.03890140157641111,0.24000000953674316,2019-06-21 12:39:41:180
6.27809927368164,-5.177980438232422,-0.20230694580078123,0.03517546444144371,-0.01972107821787585,-0.037569821031371485,0.24499201774597168,2019-06-21 12:39:41:185
6.291267181396484,-5.211498748779297,-0.20110986328125,0.034642832223427865,-0.020786342653907542,-0.03663771464984375,0.2499840259552002,2019-06-21 12:39:41:190
6.305632171630859,-5.192345428466797,-0.1987156982421875,0.03490914833243579,-0.02145213292642735,-0.0354392921593081,0.2549760341644287,2019-06-21 12:39:41:195
6.303238006591797,-5.216287078857421,-0.20110986328125,0.036107570822971446,-0.020919500708411504,-0.03384139550526055,0.2599680423736572,2019-06-21 12:39:41:200
6.272113861083985,-5.168403778076172,-0.2130806884765625,0.0355749386049556,-0.021185816817419427,-0.033308763287244705,0.26496005058288574,2019-06-21 12:39:41:205
6.282887603759765,-5.21508999633789,-0.21427777099609374,0.03477599027793183,-0.021585290980931315,-0.03211034079670905,0.26995205879211426,2019-06-21 12:39:41:210
6.293661346435547,-5.195936676025391,-0.17357696533203124,0.03331125167838825,-0.02065318459940358,-0.03131139246968528,0.2749440670013428,2019-06-21 12:39:41:215
6.299646759033203,-5.217484161376953,-0.2489931640625,0.03331125167838825,-0.020786342653907542,-0.03091191830617339,0.2799360752105713,2019-06-21 12:39:41:220
6.288873016357422,-5.207907501220703,-0.21906610107421876,0.03131388086082882,-0.020919500708411504,-0.030778760251669427,0.28505587577819824,2019-06-21 12:39:41:225
6.290070098876953,-5.199527923583984,-0.22385443115234374,0.03051493253380505,-0.0219847651444432,-0.029580337761133772,0.29004788398742676,2019-06-21 12:39:41:230
6.256551788330078,-5.219878326416016,-0.19991278076171876,0.031580196969836744,-0.0219847651444432,-0.029580337761133772,0.2950398921966553,2019-06-21 12:39:41:235
6.282887603759765,-5.242622894287109,-0.20230694580078123,0.03144703891533278,-0.021718449035435277,-0.029713495815637734,0.3000319004058838,2019-06-21 12:39:41:240
6.270916778564453,-5.224666656494141,-0.24540191650390625,0.030914406697316935,-0.02145213292642735,-0.02851507332510208,0.3050239086151123,2019-06-21 12:39:41:245
6.261340118408203,-5.229454986572265,-0.22026318359375,0.031580196969836744,-0.022251081253451124,-0.029047705543117926,0.3100159168243408,2019-06-21 12:39:41:250
6.242186798095703,-5.239031646728516,-0.20230694580078123,0.03144703891533278,-0.023982135962002625,-0.029846653870141696,0.31500792503356934,2019-06-21 12:39:41:255
6.244580963134766,-5.271352874755859,-0.2226573486328125,0.03144703891533278,-0.023183187634978855,-0.02944717970662981,0.31999993324279785,2019-06-21 12:39:41:260
6.236201385498047,-5.245017059326171,-0.2178690185546875,0.031979671133348625,-0.022916871525970932,-0.029979811924645657,0.32499194145202637,2019-06-21 12:39:41:265
6.227821807861328,-5.2486083068847655,-0.23582525634765625,0.031580196969836744,-0.023982135962002625,-0.02944717970662981,0.3299839496612549,2019-06-21 12:39:41:270
6.232610137939453,-5.288112030029297,-0.23103692626953123,0.030781248642812974,-0.025047400398034325,-0.028381915270598117,0.3349759578704834,2019-06-21 12:39:41:275
6.242186798095703,-5.285717864990234,-0.234628173828125,0.03131388086082882,-0.024115294016506587,-0.029047705543117926,0.3399679660797119,2019-06-21 12:39:41:280
6.2553547058105465,-5.292900360107422,-0.2549785766601562,0.03184651307884467,-0.023982135962002625,-0.03011296997914962,0.34495997428894043,2019-06-21 12:39:41:285
6.227821807861328,-5.288112030029297,-0.23941650390625,0.033044935569380325,-0.02531371650704225,-0.030512444142661504,0.34995198249816895,2019-06-21 12:39:41:290
6.244580963134766,-5.2773382873535155,-0.1843507080078125,0.0327786194603724,-0.02611266483406602,-0.029180863597621887,0.35494399070739746,2019-06-21 12:39:41:295
6.226624725341797,-5.278535369873047,-0.25976690673828123,0.03251230335136447,-0.02637898094307394,-0.03011296997914962,0.359935998916626,2019-06-21 12:39:41:300
6.245778045654297,-5.289309112548828,-0.24061358642578123,0.03131388086082882,-0.026645297052081865,-0.030379286088157542,0.36505603790283203,2019-06-21 12:39:41:305
6.22063931274414,-5.326418670654297,-0.23343109130859374,0.03211282918785259,-0.02637898094307394,-0.03011296997914962,0.37004804611206055,2019-06-21 12:39:41:310
6.233807220458984,-5.2917032775878905,-0.20589819335937498,0.03251230335136447,-0.025846348725058095,-0.03024612803365358,0.37504005432128906,2019-06-21 12:39:41:315
6.197894744873047,-5.285717864990234,-0.25258441162109374,0.03331125167838825,-0.025180558452538287,-0.030778760251669427,0.3800320625305176,2019-06-21 12:39:41:320
6.202683074951172,-5.271352874755859,-0.20948944091796876,0.03411020000541202,-0.027311087324601673,-0.03144455052418924,0.3850240707397461,2019-06-21 12:39:41:325
6.199091827392578,-5.270155792236328,-0.22146026611328123,0.03371072584190014,-0.027843719542617527,-0.03091191830617339,0.3900160789489746,2019-06-21 12:39:41:330
6.199091827392578,-5.259382049560546,-0.24061358642578123,0.03357756778739617,-0.028376351760633373,-0.031710866633197166,0.3950080871582031,2019-06-21 12:39:41:335
6.215850982666016,-5.265367462158203,-0.2465989990234375,0.033044935569380325,-0.029441616196665066,-0.03224349885121301,0.40000009536743164,2019-06-21 12:39:41:340
6.215850982666016,-5.282126617431641,-0.263358154296875,0.033044935569380325,-0.030373722578192798,-0.033308763287244705,0.40499186515808105,2019-06-21 12:39:41:345
6.22901889038086,-5.298885772705078,-0.215474853515625,0.03331125167838825,-0.02797687759712149,-0.03384139550526055,0.40998387336730957,2019-06-21 12:39:41:350
6.227821807861328,-5.303674102783203,-0.23941650390625,0.033843883896404095,-0.029175300087657143,-0.03424086966877244,0.4149758815765381,2019-06-21 12:39:41:355
6.202683074951172,-5.312053680419922,-0.23821942138671875,0.03211282918785259,-0.028509509815137335,-0.03477350188678829,0.4199678897857666,2019-06-21 12:39:41:360
6.242186798095703,-5.273747039794921,-0.22983984375,0.03317809362388429,-0.02890898397864922,-0.035306134104804134,0.4249598979949951,2019-06-21 12:39:41:365
6.232610137939453,-5.267761627197266,-0.268146484375,0.033444409732892214,-0.02890898397864922,-0.035306134104804134,0.42995190620422363,2019-06-21 12:39:41:370
6.245778045654297,-5.280929534912109,-0.2609639892578125,0.03504230638693975,-0.027577403433609596,-0.03583876632281998,0.43494391441345215,2019-06-21 12:39:41:375
6.266128448486328,-5.270155792236328,-0.23343109130859374,0.03437651611441994,-0.027577403433609596,-0.03637139854083583,0.43993592262268066,2019-06-21 12:39:41:380
6.230215972900391,-5.279732452392578,-0.2178690185546875,0.03291177751487637,-0.02824319370612941,-0.03637139854083583,0.4450559616088867,2019-06-21 12:39:41:385
6.250566375732422,-5.298885772705078,-0.24300775146484374,0.033444409732892214,-0.029441616196665066,-0.03650455659533979,0.45004796981811523,2019-06-21 12:39:41:390
6.248172210693359,-5.288112030029297,-0.22505151367187498,0.03251230335136447,-0.028376351760633373,-0.03730350492236356,0.45503997802734375,2019-06-21 12:39:41:395
6.242186798095703,-5.282126617431641,-0.20110986328125,0.03291177751487637,-0.02624582288856998,-0.03650455659533979,0.46003198623657227,2019-06-21 12:39:41:400
6.24936929321289,-5.279732452392578,-0.27772314453125,0.033444409732892214,-0.027311087324601673,-0.03690403075885167,0.4650239944458008,2019-06-21 12:39:41:405
6.236201385498047,-5.290506195068359,-0.2418106689453125,0.03237914529686051,-0.028642667869641297,-0.03663771464984375,0.4700160026550293,2019-06-21 12:39:41:410
6.207471405029297,-5.298885772705078,-0.22505151367187498,0.03251230335136447,-0.02797687759712149,-0.0361050824318279,0.4750080108642578,2019-06-21 12:39:41:415
6.226624725341797,-5.245017059326171,-0.23941650390625,0.031979671133348625,-0.028509509815137335,-0.0371703468678596,0.48000001907348633,2019-06-21 12:39:41:420
6.230215972900391,-5.2629732971191405,-0.234628173828125,0.0317133550243407,-0.02704477121559375,-0.0371703468678596,0.48499202728271484,2019-06-21 12:39:41:425
6.2254276428222655,-5.276141204833984,-0.20589819335937498,0.03118072280632486,-0.027311087324601673,-0.03637139854083583,0.48998403549194336,2019-06-21 12:39:41:430
6.251763458251953,-5.276141204833984,-0.20470111083984374,0.031047564751820897,-0.02811003565162545,-0.03583876632281998,0.4949760437011719,2019-06-21 12:39:41:435
6.25774887084961,-5.286914947509765,-0.2130806884765625,0.03131388086082882,-0.02717792927009771,-0.0354392921593081,0.4999680519104004,2019-06-21 12:39:41:440
6.25774887084961,-5.27254995727539,-0.24300775146484374,0.03251230335136447,-0.02717792927009771,-0.03663771464984375,0.5049600601196289,2019-06-21 12:39:41:445
6.244580963134766,-5.286914947509765,-0.24540191650390625,0.03264546140586844,-0.026645297052081865,-0.037569821031371485,0.5099520683288574,2019-06-21 12:39:41:450
6.243383880615235,-5.310856597900391,-0.292088134765625,0.03251230335136447,-0.02624582288856998,-0.03810245324938733,0.5149440765380859,2019-06-21 12:39:41:455
6.233807220458984,-5.283323699951172,-0.2932852172851562,0.03237914529686051,-0.023715819852994702,-0.03783613714037941,0.5199360847473145,2019-06-21 12:39:41:460
6.24936929321289,-5.282126617431641,-0.2896939697265625,0.03251230335136447,-0.025846348725058095,-0.036770872704347715,0.5250558853149414,2019-06-21 12:39:41:465
6.237398468017578,-5.274944122314453,-0.2705406494140625,0.03264546140586844,-0.02717792927009771,-0.03663771464984375,0.5300478935241699,2019-06-21 12:39:41:470
6.244580963134766,-5.290506195068359,-0.272934814453125,0.0317133550243407,-0.025979506779562057,-0.03650455659533979,0.5350399017333984,2019-06-21 12:39:41:475
6.237398468017578,-5.2629732971191405,-0.25258441162109374,0.0317133550243407,-0.024248452071010555,-0.03663771464984375,0.540031909942627,2019-06-21 12:39:41:480
6.227821807861328,-5.256987884521484,-0.24300775146484374,0.03144703891533278,-0.024781084289026402,-0.035971924377323945,0.5450239181518555,2019-06-21 12:39:41:485
6.2553547058105465,-5.2629732971191405,-0.23582525634765625,0.02971598420678128,-0.023848977907498663,-0.035971924377323945,0.550015926361084,2019-06-21 12:39:41:490
6.245778045654297,-5.274944122314453,-0.2489931640625,0.030115458370293165,-0.024115294016506587,-0.03650455659533979,0.5550079345703125,2019-06-21 12:39:41:495
6.262537200927734,-5.265367462158203,-0.2465989990234375,0.030781248642812974,-0.025580032616050172,-0.036770872704347715,0.559999942779541,2019-06-21 12:39:41:500
6.276902191162109,-5.249805389404297,-0.27892022705078123,0.03131388086082882,-0.02611266483406602,-0.03743666297686753,0.5649919509887695,2019-06-21 12:39:41:505
6.260143035888672,-5.268958709716797,-0.2465989990234375,0.03131388086082882,-0.024381610125514517,-0.03810245324938733,0.569983959197998,2019-06-21 12:39:41:510
6.251763458251953,-5.302477020263672,-0.2226573486328125,0.03224598724235655,-0.024248452071010555,-0.036770872704347715,0.5749759674072266,2019-06-21 12:39:41:515
6.2409897155761715,-5.30127993774414,-0.24779608154296875,0.031580196969836744,-0.024381610125514517,-0.03623824048633187,0.5799679756164551,2019-06-21 12:39:41:520
6.217048065185547,-5.303674102783203,-0.25976690673828123,0.03144703891533278,-0.025047400398034325,-0.03637139854083583,0.5849599838256836,2019-06-21 12:39:41:525
6.232610137939453,-5.274944122314453,-0.24779608154296875,0.030914406697316935,-0.02611266483406602,-0.036770872704347715,0.5899519920349121,2019-06-21 12:39:41:530
6.212259735107422,-5.3060682678222655,-0.24061358642578123,0.031580196969836744,-0.024914242343530364,-0.03690403075885167,0.5949440002441406,2019-06-21 12:39:41:535
6.221836395263672,-5.312053680419922,-0.2657523193359375,0.0317133550243407,-0.024914242343530364,-0.03783613714037941,0.5999360084533691,2019-06-21 12:39:41:540
6.22063931274414,-5.304871185302734,-0.2561756591796875,0.03211282918785259,-0.024381610125514517,-0.03850192741289922,0.6050560474395752,2019-06-21 12:39:41:545
6.246975128173828,-5.308462432861328,-0.26216107177734377,0.031580196969836744,-0.02464792623452244,-0.0382356113038913,0.6100480556488037,2019-06-21 12:39:41:550
6.223033477783203,-5.321630340576172,-0.26216107177734377,0.031979671133348625,-0.025846348725058095,-0.03836876935839526,0.6150400638580322,2019-06-21 12:39:41:555
6.2110626525878905,-5.313250762939453,-0.25856982421874997,0.03131388086082882,-0.025713190670554133,-0.0371703468678596,0.6200320720672607,2019-06-21 12:39:41:560
6.197894744873047,-5.324024505615235,-0.23821942138671875,0.0317133550243407,-0.024115294016506587,-0.03916771768541903,0.6250240802764893,2019-06-21 12:39:41:565
6.205077239990234,-5.3060682678222655,-0.2705406494140625,0.03237914529686051,-0.024914242343530364,-0.03956719184893091,0.6300160884857178,2019-06-21 12:39:41:570
6.194303497314453,-5.30965951538086,-0.2561756591796875,0.0327786194603724,-0.023982135962002625,-0.03916771768541903,0.6350080966949463,2019-06-21 12:39:41:575
6.223033477783203,-5.314447845458984,-0.21188360595703123,0.03357756778739617,-0.024781084289026402,-0.03970034990343488,0.6399998664855957,2019-06-21 12:39:41:580
6.1966976623535155,-5.318039093017578,-0.27173773193359374,0.03397704195090806,-0.024914242343530364,-0.041031930448474495,0.6449918746948242,2019-06-21 12:39:41:585
6.183529754638672,-5.304871185302734,-0.25856982421874997,0.03437651611441994,-0.024914242343530364,-0.041031930448474495,0.6499838829040527,2019-06-21 12:39:41:590
6.1966976623535155,-5.295294525146485,-0.22505151367187498,0.03371072584190014,-0.025713190670554133,-0.04129824655748242,0.6549758911132812,2019-06-21 12:39:41:595
6.230215972900391,-5.294097442626953,-0.22026318359375,0.03437651611441994,-0.02624582288856998,-0.04169772072099431,0.6599678993225098,2019-06-21 12:39:41:600
6.218245147705078,-5.295294525146485,-0.234628173828125,0.033843883896404095,-0.02637898094307394,-0.04156456266649034,0.6649599075317383,2019-06-21 12:39:41:605
6.233807220458984,-5.303674102783203,-0.24061358642578123,0.034642832223427865,-0.027577403433609596,-0.04076561433946657,0.6699519157409668,2019-06-21 12:39:41:610
6.246975128173828,-5.303674102783203,-0.24540191650390625,0.03490914833243579,-0.027444245379105635,-0.040632456284962606,0.6749439239501953,2019-06-21 12:39:41:615
6.2409897155761715,-5.296491607666016,-0.24061358642578123,0.03490914833243579,-0.027843719542617527,-0.042097194884506195,0.6800639629364014,2019-06-21 12:39:41:620
6.243383880615235,-5.2917032775878905,-0.263358154296875,0.03331125167838825,-0.02717792927009771,-0.042097194884506195,0.6850559711456299,2019-06-21 12:39:41:625
6.226624725341797,-5.300082855224609,-0.25856982421874997,0.03437651611441994,-0.026645297052081865,-0.04183087877549827,0.6900479793548584,2019-06-21 12:39:41:630
6.226624725341797,-5.295294525146485,-0.2130806884765625,0.03517546444144371,-0.027311087324601673,-0.04262982710252204,0.6950399875640869,2019-06-21 12:39:41:635
6.254157623291015,-5.288112030029297,-0.21667193603515625,0.03504230638693975,-0.027444245379105635,-0.044094565702065616,0.7000319957733154,2019-06-21 12:39:41:640
6.205077239990234,-5.282126617431641,-0.24540191650390625,0.03530862249594768,-0.027577403433609596,-0.04382824959305769,0.705024003982544,2019-06-21 12:39:41:645
6.22063931274414,-5.297688690185547,-0.2465989990234375,0.03584125471396352,-0.02904214203315318,-0.042762985157026,0.7100160121917725,2019-06-21 12:39:41:650
6.233807220458984,-5.273747039794921,-0.2561756591796875,0.03717283525900315,-0.02904214203315318,-0.04223035293901015,0.715008020401001,2019-06-21 12:39:41:655
6.2254276428222655,-5.292900360107422,-0.2465989990234375,0.036107570822971446,-0.028509509815137335,-0.04236351099351412,0.7200000286102295,2019-06-21 12:39:41:660
6.2110626525878905,-5.282126617431641,-0.2741318969726562,0.036507044986483335,-0.02811003565162545,-0.04143140461198638,0.724992036819458,2019-06-21 12:39:41:665
6.2397926330566404,-5.259382049560546,-0.28849688720703126,0.03584125471396352,-0.028775825924145258,-0.040632456284962606,0.7299840450286865,2019-06-21 12:39:41:670
6.209865570068359,-5.279732452392578,-0.2609639892578125,0.036507044986483335,-0.02811003565162545,-0.04076561433946657,0.734976053237915,2019-06-21 12:39:41:675
6.22063931274414,-5.294097442626953,-0.22864276123046876,0.03703967720449918,-0.029974248414680913,-0.04036614017595468,0.7399680614471436,2019-06-21 12:39:41:680
6.2254276428222655,-5.264170379638672,-0.2549785766601562,0.03703967720449918,-0.029175300087657143,-0.04076561433946657,0.7449600696563721,2019-06-21 12:39:41:685
6.25774887084961,-5.265367462158203,-0.25737274169921875,0.03584125471396352,-0.02890898397864922,-0.04156456266649034,0.7499520778656006,2019-06-21 12:39:41:690
6.272113861083985,-5.265367462158203,-0.25258441162109374,0.036507044986483335,-0.02904214203315318,-0.041031930448474495,0.7549440860748291,2019-06-21 12:39:41:695
6.264931365966797,-5.273747039794921,-0.2489931640625,0.0366402030409873,-0.02890898397864922,-0.04036614017595468,0.7599360942840576,2019-06-21 12:39:41:700
6.267325531005859,-5.274944122314453,-0.22385443115234374,0.03597441276846748,-0.030107406469184875,-0.04049929823045865,0.7650558948516846,2019-06-21 12:39:41:705
6.242186798095703,-5.260579132080078,-0.2465989990234375,0.03597441276846748,-0.029308458142161105,-0.04036614017595468,0.7700479030609131,2019-06-21 12:39:41:710
6.260143035888672,-5.240228729248047,-0.19751861572265625,0.03690651914999522,-0.02904214203315318,-0.03876824352190714,0.7750399112701416,2019-06-21 12:39:41:715
6.217048065185547,-5.251002471923828,-0.23343109130859374,0.03584125471396352,-0.028642667869641297,-0.03850192741289922,0.7800319194793701,2019-06-21 12:39:41:720
6.243383880615235,-5.252199554443359,-0.2418106689453125,0.03624072887747541,-0.028376351760633373,-0.03690403075885167,0.7850239276885986,2019-06-21 12:39:41:725
6.246975128173828,-5.259382049560546,-0.25976690673828123,0.03584125471396352,-0.028642667869641297,-0.03743666297686753,0.7900159358978271,2019-06-21 12:39:41:730
6.243383880615235,-5.264170379638672,-0.2322340087890625,0.0355749386049556,-0.02890898397864922,-0.03810245324938733,0.7950079441070557,2019-06-21 12:39:41:735
6.2697196960449215,-5.270155792236328,-0.22026318359375,0.036107570822971446,-0.02904214203315318,-0.03783613714037941,0.7999999523162842,2019-06-21 12:39:41:740
6.24936929321289,-5.254593719482422,-0.21427777099609374,0.03584125471396352,-0.029175300087657143,-0.0361050824318279,0.8049919605255127,2019-06-21 12:39:41:745
6.199091827392578,-5.271352874755859,-0.22624859619140625,0.03717283525900315,-0.028376351760633373,-0.036770872704347715,0.8099839687347412,2019-06-21 12:39:41:750
6.235004302978515,-5.268958709716797,-0.2370223388671875,0.03770546747701899,-0.029175300087657143,-0.0354392921593081,0.8149759769439697,2019-06-21 12:39:41:755
6.244580963134766,-5.267761627197266,-0.24540191650390625,0.036507044986483335,-0.028376351760633373,-0.03637139854083583,0.8199679851531982,2019-06-21 12:39:41:760
6.22063931274414,-5.278535369873047,-0.24061358642578123,0.03517546444144371,-0.028509509815137335,-0.03663771464984375,0.8249599933624268,2019-06-21 12:39:41:765
6.215850982666016,-5.2773382873535155,-0.29089105224609374,0.03411020000541202,-0.02811003565162545,-0.03583876632281998,0.8299520015716553,2019-06-21 12:39:41:770
6.260143035888672,-5.273747039794921,-0.23821942138671875,0.034642832223427865,-0.027444245379105635,-0.034507185777780364,0.8349440097808838,2019-06-21 12:39:41:775
6.226624725341797,-5.264170379638672,-0.19273028564453124,0.034642832223427865,-0.02704477121559375,-0.03650455659533979,0.8399360179901123,2019-06-21 12:39:41:780
6.232610137939453,-5.268958709716797,-0.20230694580078123,0.03517546444144371,-0.026512138997577903,-0.03557245021381206,0.8450560569763184,2019-06-21 12:39:41:785
6.232610137939453,-5.268958709716797,-0.20230694580078123,0.03517546444144371,-0.026512138997577903,-0.03557245021381206,0.8478720188140869,2019-06-21 12:39:41:788
6.238595550537109,-5.279732452392578,-0.2549785766601562,0.03450967416892391,-0.02704477121559375,-0.03370823745075659,0.8550400733947754,2019-06-21 12:39:41:795
6.238595550537109,-5.279732452392578,-0.2549785766601562,0.03450967416892391,-0.02704477121559375,-0.03370823745075659,0.857856035232544,2019-06-21 12:39:41:798
6.2397926330566404,-5.251002471923828,-0.272934814453125,0.03317809362388429,-0.028775825924145258,-0.03477350188678829,0.8650240898132324,2019-06-21 12:39:41:805
6.2397926330566404,-5.251002471923828,-0.272934814453125,0.03317809362388429,-0.028775825924145258,-0.03477350188678829,0.867840051651001,2019-06-21 12:39:41:808
6.218245147705078,-5.273747039794921,-0.2082923583984375,0.03357756778739617,-0.026778455106585827,-0.03384139550526055,0.8750078678131104,2019-06-21 12:39:41:815
6.218245147705078,-5.273747039794921,-0.2082923583984375,0.03357756778739617,-0.026778455106585827,-0.03384139550526055,0.877824068069458,2019-06-21 12:39:41:818
6.252960540771484,-5.303674102783203,-0.21667193603515625,0.03331125167838825,-0.028775825924145258,-0.0343740277232764,0.8849918842315674,2019-06-21 12:39:41:825
6.252960540771484,-5.303674102783203,-0.21667193603515625,0.03331125167838825,-0.028775825924145258,-0.0343740277232764,0.8879358768463135,2019-06-21 12:39:41:828
6.2110626525878905,-5.286914947509765,-0.2178690185546875,0.03331125167838825,-0.02637898094307394,-0.03477350188678829,0.8949759006500244,2019-06-21 12:39:41:835
6.187121002197266,-5.310856597900391,-0.2489931640625,0.03291177751487637,-0.02624582288856998,-0.035172976050300175,0.8999679088592529,2019-06-21 12:39:41:840
6.212259735107422,-5.322827423095703,-0.2513873291015625,0.031979671133348625,-0.026778455106585827,-0.035971924377323945,0.9049599170684814,2019-06-21 12:39:41:845
6.221836395263672,-5.315644927978515,-0.21188360595703123,0.031047564751820897,-0.02544687456154621,-0.03663771464984375,0.90995192527771,2019-06-21 12:39:41:850
6.22901889038086,-5.3204332580566405,-0.21188360595703123,0.03211282918785259,-0.02624582288856998,-0.03663771464984375,0.9149439334869385,2019-06-21 12:39:41:855
6.193106414794921,-5.34916323852539,-0.20110986328125,0.031047564751820897,-0.026911613161089788,-0.03650455659533979,0.919935941696167,2019-06-21 12:39:41:860
6.177544342041015,-5.346769073486328,-0.2561756591796875,0.03144703891533278,-0.02811003565162545,-0.0371703468678596,0.925055980682373,2019-06-21 12:39:41:865
6.178741424560546,-5.319236175537109,-0.26455523681640625,0.030914406697316935,-0.02624582288856998,-0.03796929519488337,0.9300479888916016,2019-06-21 12:39:41:870
6.165573516845703,-5.318039093017578,-0.25737274169921875,0.03118072280632486,-0.026645297052081865,-0.03796929519488337,0.9350399971008301,2019-06-21 12:39:41:875
6.184726837158203,-5.353951568603516,-0.25856982421874997,0.030914406697316935,-0.02797687759712149,-0.04076561433946657,0.9400320053100586,2019-06-21 12:39:41:880
6.200288909912109,-5.343177825927734,-0.23941650390625,0.03237914529686051,-0.02797687759712149,-0.04169772072099431,0.9450240135192871,2019-06-21 12:39:41:885
6.193106414794921,-5.331207000732422,-0.30286187744140625,0.03211282918785259,-0.026911613161089788,-0.04116508850297846,0.9500160217285156,2019-06-21 12:39:41:890
6.19190933227539,-5.331207000732422,-0.2561756591796875,0.03118072280632486,-0.02611266483406602,-0.04183087877549827,0.9550080299377441,2019-06-21 12:39:41:895
6.181135589599609,-5.361134063720703,-0.253781494140625,0.031979671133348625,-0.02637898094307394,-0.04316245932053789,0.9600000381469727,2019-06-21 12:39:41:900
6.151208526611328,-5.344374908447265,-0.2226573486328125,0.0327786194603724,-0.025846348725058095,-0.04302930126603392,0.9649920463562012,2019-06-21 12:39:41:905
6.171558929443359,-5.355148651123047,-0.25976690673828123,0.03264546140586844,-0.02717792927009771,-0.04462719792008147,0.9699840545654297,2019-06-21 12:39:41:910
6.202683074951172,-5.324024505615235,-0.25976690673828123,0.0327786194603724,-0.025047400398034325,-0.04662456873764089,0.9749760627746582,2019-06-21 12:39:41:915
6.199091827392578,-5.362331146240234,-0.25258441162109374,0.033044935569380325,-0.026778455106585827,-0.04715720095565674,0.9799680709838867,2019-06-21 12:39:41:920
6.199091827392578,-5.33838949584961,-0.234628173828125,0.03437651611441994,-0.027577403433609596,-0.04848878150069637,0.9849600791931152,2019-06-21 12:39:41:925
6.213456817626953,-5.33000991821289,-0.23343109130859374,0.03424335805991598,-0.02611266483406602,-0.049820362045735984,0.9899520874023438,2019-06-21 12:39:41:930
6.195500579833984,-5.352754486083985,-0.23343109130859374,0.034642832223427865,-0.026512138997577903,-0.05008667815474391,0.9949440956115723,2019-06-21 12:39:41:935
6.218245147705078,-5.33000991821289,-0.2549785766601562,0.034642832223427865,-0.02704477121559375,-0.051285100645279566,1.0000638961791992,2019-06-21 12:39:41:940
6.209865570068359,-5.346769073486328,-0.282511474609375,0.035441780550451635,-0.027311087324601673,-0.0511519425907756,1.0050559043884277,2019-06-21 12:39:41:945
6.202683074951172,-5.357542816162109,-0.27772314453125,0.03530862249594768,-0.02624582288856998,-0.05088562648176768,1.0100479125976562,2019-06-21 12:39:41:950
6.197894744873047,-5.351557403564453,-0.311241455078125,0.035441780550451635,-0.027843719542617527,-0.051285100645279566,1.0150399208068848,2019-06-21 12:39:41:955
6.207471405029297,-5.344374908447265,-0.282511474609375,0.03504230638693975,-0.027843719542617527,-0.05328247146283899,1.0200319290161133,2019-06-21 12:39:41:960
6.177544342041015,-5.3347982482910155,-0.28849688720703126,0.03570809665945956,-0.026645297052081865,-0.05434773589887068,1.0250239372253418,2019-06-21 12:39:41:965
6.213456817626953,-5.321630340576172,-0.2669494018554687,0.03504230638693975,-0.02624582288856998,-0.05461405200787862,1.0300159454345703,2019-06-21 12:39:41:970
6.236201385498047,-5.321630340576172,-0.2801173095703125,0.036107570822971446,-0.02717792927009771,-0.05408141978986276,1.0350079536437988,2019-06-21 12:39:41:975
6.215850982666016,-5.347966156005859,-0.28370855712890625,0.036507044986483335,-0.026645297052081865,-0.055546158389406346,1.0399999618530273,2019-06-21 12:39:41:980
6.201485992431641,-5.3204332580566405,-0.25258441162109374,0.03584125471396352,-0.027843719542617527,-0.05567931644391031,1.0449919700622559,2019-06-21 12:39:41:985
6.202683074951172,-5.302477020263672,-0.24300775146484374,0.03677336109549126,-0.027843719542617527,-0.055945632552918234,1.0499839782714844,2019-06-21 12:39:41:990
6.202683074951172,-5.307265350341797,-0.22983984375,0.03690651914999522,-0.025846348725058095,-0.05607879060742219,1.054975986480713,2019-06-21 12:39:41:995
6.22901889038086,-5.286914947509765,-0.23103692626953123,0.03783862553152295,-0.02624582288856998,-0.05701089698894993,1.0599679946899414,2019-06-21 12:39:42:000
6.227821807861328,-5.292900360107422,-0.26934356689453126,0.038903889967554645,-0.02704477121559375,-0.05727721309795785,1.0650880336761475,2019-06-21 12:39:42:005
6.203880157470703,-5.286914947509765,-0.282511474609375,0.03863757385854672,-0.025846348725058095,-0.05687773893444596,1.0699520111083984,2019-06-21 12:39:42:010
6.226624725341797,-5.282126617431641,-0.272934814453125,0.03823809969503484,-0.025180558452538287,-0.05701089698894993,1.074944019317627,2019-06-21 12:39:42:015
6.243383880615235,-5.279732452392578,-0.2561756591796875,0.03930336413106653,-0.026778455106585827,-0.056345106716430116,1.0799360275268555,2019-06-21 12:39:42:020
6.245778045654297,-5.279732452392578,-0.26455523681640625,0.03943652218557049,-0.025713190670554133,-0.05621194866192616,1.0850560665130615,2019-06-21 12:39:42:025
6.2397926330566404,-5.276141204833984,-0.2465989990234375,0.039969154403586345,-0.02531371650704225,-0.05767668726146973,1.09004807472229,2019-06-21 12:39:42:030
6.217048065185547,-5.252199554443359,-0.3136356201171875,0.03983599634908238,-0.026778455106585827,-0.05661142282543804,1.0950400829315186,2019-06-21 12:39:42:035
6.2254276428222655,-5.2629732971191405,-0.2669494018554687,0.04090126078511408,-0.02624582288856998,-0.055146684225894464,1.100032091140747,2019-06-21 12:39:42:040
6.218245147705078,-5.2629732971191405,-0.28370855712890625,0.04050178662160219,-0.02531371650704225,-0.05527984228039842,1.1050240993499756,2019-06-21 12:39:42:045
6.230215972900391,-5.282126617431641,-0.2741318969726562,0.03917020607656257,-0.025047400398034325,-0.05647826477093408,1.110015869140625,2019-06-21 12:39:42:050
6.237398468017578,-5.282126617431641,-0.23343109130859374,0.03757230942251503,-0.02531371650704225,-0.055945632552918234,1.1150078773498535,2019-06-21 12:39:42:055
6.250566375732422,-5.270155792236328,-0.20470111083984374,0.03903704802205861,-0.02637898094307394,-0.05421457784436672,1.119999885559082,2019-06-21 12:39:42:060
6.244580963134766,-5.259382049560546,-0.22146026611328123,0.04023547051259427,-0.026778455106585827,-0.05341562951734295,1.1249918937683105,2019-06-21 12:39:42:065
6.273310943603516,-5.265367462158203,-0.2465989990234375,0.03903704802205861,-0.025713190670554133,-0.05314931340833503,1.129983901977539,2019-06-21 12:39:42:070
6.251763458251953,-5.227060821533203,-0.26216107177734377,0.037971783586026917,-0.024914242343530364,-0.05181773286329541,1.1349759101867676,2019-06-21 12:39:42:075
6.22901889038086,-5.246214141845703,-0.2657523193359375,0.03823809969503484,-0.025580032616050172,-0.051285100645279566,1.139967918395996,2019-06-21 12:39:42:080
6.243383880615235,-5.223469573974609,-0.2549785766601562,0.03943652218557049,-0.025979506779562057,-0.050619310372759754,1.1449599266052246,2019-06-21 12:39:42:085
6.273310943603516,-5.258184967041015,-0.21427777099609374,0.03917020607656257,-0.026778455106585827,-0.04995352010023994,1.1499519348144531,2019-06-21 12:39:42:090
6.281690521240234,-5.228257904052734,-0.263358154296875,0.037971783586026917,-0.025979506779562057,-0.04995352010023994,1.1549439430236816,2019-06-21 12:39:42:095
6.251763458251953,-5.2186812438964845,-0.26216107177734377,0.03823809969503484,-0.024781084289026402,-0.04888825566420825,1.1599359512329102,2019-06-21 12:39:42:100
6.224230560302734,-5.2342433166503906,-0.2489931640625,0.0383712577495388,-0.02464792623452244,-0.04808930733718448,1.1650559902191162,2019-06-21 12:39:42:105
6.24936929321289,-5.2342433166503906,-0.253781494140625,0.03717283525900315,-0.024914242343530364,-0.04729035901016071,1.1700479984283447,2019-06-21 12:39:42:110
6.263734283447265,-5.236637481689453,-0.253781494140625,0.03637388693197938,-0.02531371650704225,-0.045958778465121086,1.1750400066375732,2019-06-21 12:39:42:115
6.258945953369141,-5.2186812438964845,-0.20709527587890625,0.035441780550451635,-0.024381610125514517,-0.04649141068313693,1.1800320148468018,2019-06-21 12:39:42:120
6.256551788330078,-5.247411224365234,-0.2322340087890625,0.035441780550451635,-0.025713190670554133,-0.04569246235611316,1.1850240230560303,2019-06-21 12:39:42:125
6.266128448486328,-5.239031646728516,-0.19751861572265625,0.03530862249594768,-0.025580032616050172,-0.04502667208359335,1.1900160312652588,2019-06-21 12:39:42:130
6.279296356201172,-5.249805389404297,-0.23103692626953123,0.03597441276846748,-0.025180558452538287,-0.04462719792008147,1.1950080394744873,2019-06-21 12:39:42:135
6.25774887084961,-5.254593719482422,-0.22385443115234374,0.03637388693197938,-0.02464792623452244,-0.04382824959305769,1.2000000476837158,2019-06-21 12:39:42:140
6.235004302978515,-5.264170379638672,-0.19273028564453124,0.03624072887747541,-0.024914242343530364,-0.043695091538553735,1.2049920558929443,2019-06-21 12:39:42:145
6.260143035888672,-5.259382049560546,-0.2082923583984375,0.035441780550451635,-0.024248452071010555,-0.04156456266649034,1.2099840641021729,2019-06-21 12:39:42:150
6.262537200927734,-5.27254995727539,-0.20470111083984374,0.03504230638693975,-0.023848977907498663,-0.040632456284962606,1.2149760723114014,2019-06-21 12:39:42:155
6.261340118408203,-5.282126617431641,-0.24540191650390625,0.03490914833243579,-0.024115294016506587,-0.040632456284962606,1.2199680805206299,2019-06-21 12:39:42:160
6.252960540771484,-5.245017059326171,-0.23582525634765625,0.03530862249594768,-0.02344950374398678,-0.0399666660124428,1.2249600887298584,2019-06-21 12:39:42:165
6.261340118408203,-5.259382049560546,-0.22505151367187498,0.0355749386049556,-0.024781084289026402,-0.04049929823045865,1.229952096939087,2019-06-21 12:39:42:170
6.2409897155761715,-5.274944122314453,-0.23941650390625,0.03397704195090806,-0.024914242343530364,-0.039833507957938837,1.2349438667297363,2019-06-21 12:39:42:175
6.258945953369141,-5.279732452392578,-0.22624859619140625,0.03450967416892391,-0.02531371650704225,-0.03930087573992299,1.2399358749389648,2019-06-21 12:39:42:180
6.248172210693359,-5.289309112548828,-0.24061358642578123,0.03371072584190014,-0.024781084289026402,-0.03930087573992299,1.245055913925171,2019-06-21 12:39:42:185
6.250566375732422,-5.271352874755859,-0.22505151367187498,0.03477599027793183,-0.02464792623452244,-0.03930087573992299,1.2500479221343994,2019-06-21 12:39:42:190
6.242186798095703,-5.284520782470703,-0.253781494140625,0.03357756778739617,-0.02544687456154621,-0.03970034990343488,1.255039930343628,2019-06-21 12:39:42:195
6.224230560302734,-5.280929534912109,-0.253781494140625,0.0327786194603724,-0.025580032616050172,-0.03916771768541903,1.2600319385528564,2019-06-21 12:39:42:200
6.252960540771484,-5.286914947509765,-0.24540191650390625,0.033044935569380325,-0.025979506779562057,-0.037569821031371485,1.265023946762085,2019-06-21 12:39:42:205
6.245778045654297,-5.255790802001953,-0.2322340087890625,0.03357756778739617,-0.025846348725058095,-0.0382356113038913,1.2700159549713135,2019-06-21 12:39:42:210
6.2110626525878905,-5.279732452392578,-0.22983984375,0.03437651611441994,-0.02624582288856998,-0.03876824352190714,1.275007963180542,2019-06-21 12:39:42:215
6.212259735107422,-5.285717864990234,-0.2082923583984375,0.03437651611441994,-0.02611266483406602,-0.03903455963091507,1.2799999713897705,2019-06-21 12:39:42:220
6.232610137939453,-5.292900360107422,-0.27173773193359374,0.03450967416892391,-0.02531371650704225,-0.03810245324938733,1.284991979598999,2019-06-21 12:39:42:225
6.227821807861328,-5.280929534912109,-0.22864276123046876,0.03371072584190014,-0.026911613161089788,-0.03850192741289922,1.2899839878082275,2019-06-21 12:39:42:230
6.2397926330566404,-5.279732452392578,-0.1843507080078125,0.033044935569380325,-0.026778455106585827,-0.03796929519488337,1.294975996017456,2019-06-21 12:39:42:235
6.238595550537109,-5.289309112548828,-0.2178690185546875,0.033444409732892214,-0.025846348725058095,-0.03796929519488337,1.2999680042266846,2019-06-21 12:39:42:240
6.221836395263672,-5.276141204833984,-0.196321533203125,0.03317809362388429,-0.025713190670554133,-0.03876824352190714,1.304960012435913,2019-06-21 12:39:42:245
6.235004302978515,-5.30965951538086,-0.2130806884765625,0.03357756778739617,-0.027311087324601673,-0.03903455963091507,1.3099520206451416,2019-06-21 12:39:42:250
6.214653900146485,-5.283323699951172,-0.23343109130859374,0.03437651611441994,-0.027577403433609596,-0.039434033794426955,1.3149440288543701,2019-06-21 12:39:42:255
6.212259735107422,-5.298885772705078,-0.22026318359375,0.03317809362388429,-0.02704477121559375,-0.03956719184893091,1.3199360370635986,2019-06-21 12:39:42:260
6.232610137939453,-5.297688690185547,-0.2669494018554687,0.034642832223427865,-0.026645297052081865,-0.03916771768541903,1.3250560760498047,2019-06-21 12:39:42:265
6.227821807861328,-5.3060682678222655,-0.25856982421874997,0.033444409732892214,-0.027311087324601673,-0.03876824352190714,1.3300480842590332,2019-06-21 12:39:42:270
6.230215972900391,-5.294097442626953,-0.263358154296875,0.033044935569380325,-0.026512138997577903,-0.0399666660124428,1.3350400924682617,2019-06-21 12:39:42:275
6.223033477783203,-5.294097442626953,-0.2549785766601562,0.03411020000541202,-0.025713190670554133,-0.0399666660124428,1.3400321006774902,2019-06-21 12:39:42:280
6.230215972900391,-5.298885772705078,-0.2561756591796875,0.03504230638693975,-0.02611266483406602,-0.03916771768541903,1.3450238704681396,2019-06-21 12:39:42:285
6.238595550537109,-5.316842010498047,-0.2561756591796875,0.03291177751487637,-0.027311087324601673,-0.03903455963091507,1.3500158786773682,2019-06-21 12:39:42:290
6.226624725341797,-5.310856597900391,-0.22385443115234374,0.03331125167838825,-0.02704477121559375,-0.040232982121450725,1.3550078868865967,2019-06-21 12:39:42:295
6.214653900146485,-5.292900360107422,-0.2322340087890625,0.03437651611441994,-0.026778455106585827,-0.04076561433946657,1.3599998950958252,2019-06-21 12:39:42:300
6.226624725341797,-5.308462432861328,-0.25976690673828123,0.03411020000541202,-0.026512138997577903,-0.04049929823045865,1.3649919033050537,2019-06-21 12:39:42:305
6.226624725341797,-5.295294525146485,-0.24420483398437498,0.03411020000541202,-0.025846348725058095,-0.04156456266649034,1.3699839115142822,2019-06-21 12:39:42:310
6.227821807861328,-5.289309112548828,-0.25258441162109374,0.03357756778739617,-0.024914242343530364,-0.04116508850297846,1.3749759197235107,2019-06-21 12:39:42:315
6.221836395263672,-5.296491607666016,-0.2801173095703125,0.034642832223427865,-0.02611266483406602,-0.04169772072099431,1.3799679279327393,2019-06-21 12:39:42:320
6.22063931274414,-5.283323699951172,-0.27652606201171875,0.03504230638693975,-0.02824319370612941,-0.04262982710252204,1.3849599361419678,2019-06-21 12:39:42:325
6.227821807861328,-5.3204332580566405,-0.2322340087890625,0.03411020000541202,-0.02717792927009771,-0.04183087877549827,1.3899519443511963,2019-06-21 12:39:42:330
6.252960540771484,-5.278535369873047,-0.2370223388671875,0.03371072584190014,-0.026512138997577903,-0.04223035293901015,1.3949439525604248,2019-06-21 12:39:42:335
6.235004302978515,-5.27254995727539,-0.215474853515625,0.03424335805991598,-0.026512138997577903,-0.042097194884506195,1.3999359607696533,2019-06-21 12:39:42:340
6.232610137939453,-5.310856597900391,-0.23103692626953123,0.03397704195090806,-0.02797687759712149,-0.042097194884506195,1.4050559997558594,2019-06-21 12:39:42:345
6.209865570068359,-5.294097442626953,-0.24061358642578123,0.03317809362388429,-0.02637898094307394,-0.042097194884506195,1.410048007965088,2019-06-21 12:39:42:350
6.22901889038086,-5.2773382873535155,-0.2178690185546875,0.03357756778739617,-0.02544687456154621,-0.04223035293901015,1.4150400161743164,2019-06-21 12:39:42:355
6.236201385498047,-5.27254995727539,-0.23821942138671875,0.033444409732892214,-0.025580032616050172,-0.04236351099351412,1.420032024383545,2019-06-21 12:39:42:360
6.2254276428222655,-5.283323699951172,-0.20470111083984374,0.033843883896404095,-0.025180558452538287,-0.04302930126603392,1.4250240325927734,2019-06-21 12:39:42:365
6.213456817626953,-5.290506195068359,-0.24420483398437498,0.03371072584190014,-0.025846348725058095,-0.04302930126603392,1.430016040802002,2019-06-21 12:39:42:370
6.236201385498047,-5.296491607666016,-0.234628173828125,0.03371072584190014,-0.026911613161089788,-0.042762985157026,1.4350080490112305,2019-06-21 12:39:42:375
6.197894744873047,-5.280929534912109,-0.24540191650390625,0.03331125167838825,-0.027444245379105635,-0.04342877542954581,1.440000057220459,2019-06-21 12:39:42:380
6.213456817626953,-5.303674102783203,-0.23821942138671875,0.03251230335136447,-0.02637898094307394,-0.0455593043016092,1.4449920654296875,2019-06-21 12:39:42:385
6.188318084716797,-5.327615753173828,-0.23821942138671875,0.03357756778739617,-0.025979506779562057,-0.04542614624710524,1.449984073638916,2019-06-21 12:39:42:390
6.193106414794921,-5.318039093017578,-0.24061358642578123,0.03371072584190014,-0.02637898094307394,-0.04462719792008147,1.4549760818481445,2019-06-21 12:39:42:395
6.195500579833984,-5.315644927978515,-0.23582525634765625,0.03397704195090806,-0.02637898094307394,-0.04396140764756166,1.459968090057373,2019-06-21 12:39:42:400
6.194303497314453,-5.289309112548828,-0.2489931640625,0.033843883896404095,-0.026645297052081865,-0.044494039865577505,1.4649600982666016,2019-06-21 12:39:42:405
6.215850982666016,-5.295294525146485,-0.22385443115234374,0.034642832223427865,-0.026778455106585827,-0.04422772375656958,1.469951868057251,2019-06-21 12:39:42:410
6.235004302978515,-5.294097442626953,-0.21906610107421876,0.03357756778739617,-0.02624582288856998,-0.04502667208359335,1.4749438762664795,2019-06-21 12:39:42:415
6.256551788330078,-5.310856597900391,-0.263358154296875,0.03450967416892391,-0.02611266483406602,-0.04622509457412901,1.479935884475708,2019-06-21 12:39:42:420
6.214653900146485,-5.310856597900391,-0.25976690673828123,0.03424335805991598,-0.026911613161089788,-0.046091936519625044,1.485055923461914,2019-06-21 12:39:42:425
6.2110626525878905,-5.298885772705078,-0.25856982421874997,0.03477599027793183,-0.026911613161089788,-0.04489351402908939,1.4900479316711426,2019-06-21 12:39:42:430
6.206274322509765,-5.316842010498047,-0.2226573486328125,0.03490914833243579,-0.025713190670554133,-0.04542614624710524,1.495039939880371,2019-06-21 12:39:42:435
6.2110626525878905,-5.3060682678222655,-0.196321533203125,0.03450967416892391,-0.025180558452538287,-0.04649141068313693,1.5000319480895996,2019-06-21 12:39:42:440
6.213456817626953,-5.296491607666016,-0.2226573486328125,0.034642832223427865,-0.02717792927009771,-0.046890884846648814,1.5050239562988281,2019-06-21 12:39:42:445
6.208668487548828,-5.315644927978515,-0.24420483398437498,0.0355749386049556,-0.02637898094307394,-0.04622509457412901,1.5100159645080566,2019-06-21 12:39:42:450
6.189515167236328,-5.298885772705078,-0.23103692626953123,0.035441780550451635,-0.026778455106585827,-0.045958778465121086,1.5150079727172852,2019-06-21 12:39:42:455
6.218245147705078,-5.300082855224609,-0.215474853515625,0.03490914833243579,-0.02611266483406602,-0.046890884846648814,1.5199999809265137,2019-06-21 12:39:42:460
6.248172210693359,-5.288112030029297,-0.2513873291015625,0.03477599027793183,-0.027444245379105635,-0.04702404290115278,1.5249919891357422,2019-06-21 12:39:42:465
6.2397926330566404,-5.282126617431641,-0.21906610107421876,0.03490914833243579,-0.02811003565162545,-0.046757726792144856,1.5299839973449707,2019-06-21 12:39:42:470
6.2110626525878905,-5.303674102783203,-0.24300775146484374,0.03517546444144371,-0.028642667869641297,-0.04662456873764089,1.5349760055541992,2019-06-21 12:39:42:475
6.208668487548828,-5.295294525146485,-0.234628173828125,0.03530862249594768,-0.02811003565162545,-0.04755667511916863,1.5399680137634277,2019-06-21 12:39:42:480
6.2409897155761715,-5.3060682678222655,-0.2705406494140625,0.03530862249594768,-0.027444245379105635,-0.046757726792144856,1.5449600219726562,2019-06-21 12:39:42:485
6.232610137939453,-5.313250762939453,-0.22146026611328123,0.034642832223427865,-0.027311087324601673,-0.04808930733718448,1.5499520301818848,2019-06-21 12:39:42:490
6.201485992431641,-5.304871185302734,-0.28370855712890625,0.03584125471396352,-0.02717792927009771,-0.047423517064664675,1.5549440383911133,2019-06-21 12:39:42:495
6.215850982666016,-5.297688690185547,-0.2669494018554687,0.03677336109549126,-0.02717792927009771,-0.04729035901016071,1.5599360466003418,2019-06-21 12:39:42:500
6.203880157470703,-5.3060682678222655,-0.21906610107421876,0.038903889967554645,-0.02797687759712149,-0.04808930733718448,1.5650560855865479,2019-06-21 12:39:42:505
6.215850982666016,-5.297688690185547,-0.2370223388671875,0.038903889967554645,-0.027577403433609596,-0.048222465391688445,1.5700480937957764,2019-06-21 12:39:42:510
6.237398468017578,-5.300082855224609,-0.22026318359375,0.03743915136801107,-0.02797687759712149,-0.04888825566420825,1.5750398635864258,2019-06-21 12:39:42:515
6.262537200927734,-5.284520782470703,-0.2226573486328125,0.03703967720449918,-0.027843719542617527,-0.05008667815474391,1.5800318717956543,2019-06-21 12:39:42:520
6.22901889038086,-5.271352874755859,-0.20589819335937498,0.03717283525900315,-0.026512138997577903,-0.04928772982772014,1.5850238800048828,2019-06-21 12:39:42:525
6.237398468017578,-5.286914947509765,-0.24779608154296875,0.03677336109549126,-0.029441616196665066,-0.050219836209247866,1.5900158882141113,2019-06-21 12:39:42:530
6.212259735107422,-5.298885772705078,-0.26455523681640625,0.03757230942251503,-0.02970793230567299,-0.05088562648176768,1.5950078964233398,2019-06-21 12:39:42:535
6.195500579833984,-5.261776214599609,-0.23103692626953123,0.038104941640530875,-0.027311087324601673,-0.05008667815474391,1.5999999046325684,2019-06-21 12:39:42:540
6.215850982666016,-5.261776214599609,-0.20709527587890625,0.0366402030409873,-0.027311087324601673,-0.04928772982772014,1.6049919128417969,2019-06-21 12:39:42:545
6.223033477783203,-5.2773382873535155,-0.2082923583984375,0.036507044986483335,-0.027577403433609596,-0.04888825566420825,1.6099839210510254,2019-06-21 12:39:42:550
6.243383880615235,-5.249805389404297,-0.23343109130859374,0.03770546747701899,-0.027843719542617527,-0.04928772982772014,1.614975929260254,2019-06-21 12:39:42:555
6.231413055419922,-5.273747039794921,-0.25258441162109374,0.03717283525900315,-0.028642667869641297,-0.04795614928268052,1.6199679374694824,2019-06-21 12:39:42:560
6.221836395263672,-5.271352874755859,-0.20709527587890625,0.03717283525900315,-0.02890898397864922,-0.04795614928268052,1.624959945678711,2019-06-21 12:39:42:565
6.248172210693359,-5.255790802001953,-0.22385443115234374,0.03597441276846748,-0.02970793230567299,-0.04715720095565674,1.6299519538879395,2019-06-21 12:39:42:570
6.267325531005859,-5.27254995727539,-0.253781494140625,0.036107570822971446,-0.02970793230567299,-0.046091936519625044,1.634943962097168,2019-06-21 12:39:42:575
6.244580963134766,-5.229454986572265,-0.23343109130859374,0.03477599027793183,-0.02904214203315318,-0.04582562041061712,1.6399359703063965,2019-06-21 12:39:42:580
6.244580963134766,-5.2486083068847655,-0.22864276123046876,0.03477599027793183,-0.02824319370612941,-0.045159830138097316,1.6450560092926025,2019-06-21 12:39:42:585
6.235004302978515,-5.256987884521484,-0.24420483398437498,0.033843883896404095,-0.028509509815137335,-0.04582562041061712,1.650048017501831,2019-06-21 12:39:42:590
6.238595550537109,-5.237834564208984,-0.2513873291015625,0.03437651611441994,-0.028509509815137335,-0.04622509457412901,1.6550400257110596,2019-06-21 12:39:42:595
6.262537200927734,-5.264170379638672,-0.21667193603515625,0.03584125471396352,-0.026512138997577903,-0.04702404290115278,1.660032033920288,2019-06-21 12:39:42:600
6.2553547058105465,-5.271352874755859,-0.2274456787109375,0.0355749386049556,-0.027311087324601673,-0.04462719792008147,1.6650240421295166,2019-06-21 12:39:42:605
6.2553547058105465,-5.260579132080078,-0.2465989990234375,0.03517546444144371,-0.02717792927009771,-0.044494039865577505,1.6700160503387451,2019-06-21 12:39:42:610
6.232610137939453,-5.252199554443359,-0.23821942138671875,0.03477599027793183,-0.026911613161089788,-0.043695091538553735,1.6750080585479736,2019-06-21 12:39:42:615
6.230215972900391,-5.247411224365234,-0.25258441162109374,0.03437651611441994,-0.025580032616050172,-0.04302930126603392,1.6800000667572021,2019-06-21 12:39:42:620
6.248172210693359,-5.2629732971191405,-0.24061358642578123,0.03597441276846748,-0.025979506779562057,-0.043695091538553735,1.6849920749664307,2019-06-21 12:39:42:625
6.227821807861328,-5.2629732971191405,-0.24300775146484374,0.035441780550451635,-0.025713190670554133,-0.04356193348404977,1.6899840831756592,2019-06-21 12:39:42:630
6.230215972900391,-5.255790802001953,-0.2513873291015625,0.03490914833243579,-0.026645297052081865,-0.044094565702065616,1.6949760913848877,2019-06-21 12:39:42:635
6.215850982666016,-5.260579132080078,-0.2465989990234375,0.03411020000541202,-0.025846348725058095,-0.043295617375041846,1.6999680995941162,2019-06-21 12:39:42:640
6.258945953369141,-5.256987884521484,-0.27892022705078123,0.03397704195090806,-0.026512138997577903,-0.04382824959305769,1.7049598693847656,2019-06-21 12:39:42:645
6.267325531005859,-5.267761627197266,-0.23821942138671875,0.03450967416892391,-0.025713190670554133,-0.04356193348404977,1.7099518775939941,2019-06-21 12:39:42:650
6.276902191162109,-5.288112030029297,-0.24061358642578123,0.035441780550451635,-0.026645297052081865,-0.042762985157026,1.7149438858032227,2019-06-21 12:39:42:655
6.251763458251953,-5.283323699951172,-0.25976690673828123,0.03597441276846748,-0.025713190670554133,-0.04236351099351412,1.7199358940124512,2019-06-21 12:39:42:660
6.235004302978515,-5.2773382873535155,-0.2753289794921875,0.03517546444144371,-0.025846348725058095,-0.04302930126603392,1.7250559329986572,2019-06-21 12:39:42:665
6.246975128173828,-5.27254995727539,-0.2705406494140625,0.03450967416892391,-0.025047400398034325,-0.042896143211529965,1.7300479412078857,2019-06-21 12:39:42:670
6.2409897155761715,-5.2773382873535155,-0.24061358642578123,0.03397704195090806,-0.02611266483406602,-0.04236351099351412,1.7350399494171143,2019-06-21 12:39:42:675
6.245778045654297,-5.286914947509765,-0.2370223388671875,0.03424335805991598,-0.024914242343530364,-0.04236351099351412,1.7400319576263428,2019-06-21 12:39:42:680
6.254157623291015,-5.271352874755859,-0.28370855712890625,0.0355749386049556,-0.025580032616050172,-0.04156456266649034,1.7450239658355713,2019-06-21 12:39:42:685
6.22901889038086,-5.283323699951172,-0.2669494018554687,0.0355749386049556,-0.024781084289026402,-0.04116508850297846,1.7500159740447998,2019-06-21 12:39:42:690
6.251763458251953,-5.245017059326171,-0.263358154296875,0.03424335805991598,-0.024381610125514517,-0.04076561433946657,1.7550079822540283,2019-06-21 12:39:42:695
6.2397926330566404,-5.230652069091796,-0.22505151367187498,0.03570809665945956,-0.023316345689482817,-0.04089877239397054,1.7599999904632568,2019-06-21 12:39:42:700
6.227821807861328,-5.246214141845703,-0.2106865234375,0.03490914833243579,-0.024381610125514517,-0.040232982121450725,1.7649919986724854,2019-06-21 12:39:42:705
6.2254276428222655,-5.271352874755859,-0.22146026611328123,0.03371072584190014,-0.02464792623452244,-0.04009982406694676,1.7699840068817139,2019-06-21 12:39:42:710
6.219442230224609,-5.266564544677734,-0.23103692626953123,0.03490914833243579,-0.02464792623452244,-0.04036614017595468,1.7749760150909424,2019-06-21 12:39:42:715
6.232610137939453,-5.286914947509765,-0.19033612060546876,0.033843883896404095,-0.024781084289026402,-0.03956719184893091,1.779968023300171,2019-06-21 12:39:42:720
6.207471405029297,-5.296491607666016,-0.20230694580078123,0.03357756778739617,-0.025180558452538287,-0.04089877239397054,1.7849600315093994,2019-06-21 12:39:42:725
6.215850982666016,-5.294097442626953,-0.2669494018554687,0.03411020000541202,-0.02637898094307394,-0.039833507957938837,1.789952039718628,2019-06-21 12:39:42:730
6.231413055419922,-5.298885772705078,-0.27173773193359374,0.03411020000541202,-0.026512138997577903,-0.040232982121450725,1.7949440479278564,2019-06-21 12:39:42:735
6.235004302978515,-5.286914947509765,-0.27892022705078123,0.03397704195090806,-0.02637898094307394,-0.04143140461198638,1.799936056137085,2019-06-21 12:39:42:740
6.230215972900391,-5.297688690185547,-0.2513873291015625,0.03397704195090806,-0.025180558452538287,-0.041031930448474495,1.805056095123291,2019-06-21 12:39:42:745
6.208668487548828,-5.302477020263672,-0.21906610107421876,0.03437651611441994,-0.024115294016506587,-0.04036614017595468,1.8100478649139404,2019-06-21 12:39:42:750
6.219442230224609,-5.312053680419922,-0.22864276123046876,0.034642832223427865,-0.02451476818001848,-0.04049929823045865,1.815039873123169,2019-06-21 12:39:42:755
6.212259735107422,-5.310856597900391,-0.2465989990234375,0.03357756778739617,-0.024914242343530364,-0.04129824655748242,1.8200318813323975,2019-06-21 12:39:42:760
6.233807220458984,-5.319236175537109,-0.2370223388671875,0.03371072584190014,-0.025846348725058095,-0.04089877239397054,1.825023889541626,2019-06-21 12:39:42:765
6.226624725341797,-5.289309112548828,-0.24420483398437498,0.03371072584190014,-0.025180558452538287,-0.042097194884506195,1.8300158977508545,2019-06-21 12:39:42:770
6.223033477783203,-5.289309112548828,-0.2741318969726562,0.03477599027793183,-0.025180558452538287,-0.04156456266649034,1.835007905960083,2019-06-21 12:39:42:775
6.219442230224609,-5.298885772705078,-0.24779608154296875,0.03530862249594768,-0.026911613161089788,-0.042097194884506195,1.8399999141693115,2019-06-21 12:39:42:780
6.205077239990234,-5.297688690185547,-0.2513873291015625,0.03504230638693975,-0.02704477121559375,-0.04183087877549827,1.84499192237854,2019-06-21 12:39:42:785
6.223033477783203,-5.280929534912109,-0.24300775146484374,0.034642832223427865,-0.02797687759712149,-0.04156456266649034,1.8499839305877686,2019-06-21 12:39:42:790
6.226624725341797,-5.288112030029297,-0.22864276123046876,0.03397704195090806,-0.02704477121559375,-0.04196403683000223,1.854975938796997,2019-06-21 12:39:42:795
6.242186798095703,-5.298885772705078,-0.31004437255859374,0.03530862249594768,-0.026512138997577903,-0.04196403683000223,1.8599679470062256,2019-06-21 12:39:42:800
6.232610137939453,-5.283323699951172,-0.234628173828125,0.03530862249594768,-0.026512138997577903,-0.04143140461198638,1.864959955215454,2019-06-21 12:39:42:805
6.203880157470703,-5.297688690185547,-0.25976690673828123,0.03490914833243579,-0.025713190670554133,-0.04076561433946657,1.8699519634246826,2019-06-21 12:39:42:810
6.194303497314453,-5.297688690185547,-0.234628173828125,0.03517546444144371,-0.025979506779562057,-0.04156456266649034,1.8749439716339111,2019-06-21 12:39:42:815
6.232610137939453,-5.282126617431641,-0.24540191650390625,0.03570809665945956,-0.026911613161089788,-0.042896143211529965,1.8799359798431396,2019-06-21 12:39:42:820
6.219442230224609,-5.300082855224609,-0.24061358642578123,0.0366402030409873,-0.027577403433609596,-0.042762985157026,1.8850560188293457,2019-06-21 12:39:42:825
6.201485992431641,-5.30127993774414,-0.2465989990234375,0.03504230638693975,-0.028509509815137335,-0.042896143211529965,1.8900480270385742,2019-06-21 12:39:42:830
6.208668487548828,-5.297688690185547,-0.22864276123046876,0.03251230335136447,-0.025047400398034325,-0.04196403683000223,1.8950400352478027,2019-06-21 12:39:42:835
6.251763458251953,-5.302477020263672,-0.22146026611328123,0.03291177751487637,-0.026512138997577903,-0.04262982710252204,1.9000320434570312,2019-06-21 12:39:42:840
6.2409897155761715,-5.290506195068359,-0.19033612060546876,0.03371072584190014,-0.027577403433609596,-0.04262982710252204,1.9050240516662598,2019-06-21 12:39:42:845
6.183529754638672,-5.314447845458984,-0.2465989990234375,0.03357756778739617,-0.027710561488113558,-0.042896143211529965,1.9100160598754883,2019-06-21 12:39:42:850
6.203880157470703,-5.279732452392578,-0.2106865234375,0.033843883896404095,-0.026645297052081865,-0.04342877542954581,1.9150080680847168,2019-06-21 12:39:42:855
6.214653900146485,-5.258184967041015,-0.23582525634765625,0.0327786194603724,-0.026645297052081865,-0.04342877542954581,1.9200000762939453,2019-06-21 12:39:42:860
6.208668487548828,-5.259382049560546,-0.24779608154296875,0.03331125167838825,-0.026778455106585827,-0.04302930126603392,1.9249920845031738,2019-06-21 12:39:42:865
6.215850982666016,-5.286914947509765,-0.22983984375,0.03357756778739617,-0.026911613161089788,-0.042762985157026,1.9299840927124023,2019-06-21 12:39:42:870
6.214653900146485,-5.298885772705078,-0.22624859619140625,0.03331125167838825,-0.028509509815137335,-0.04262982710252204,1.9349761009216309,2019-06-21 12:39:42:875
6.245778045654297,-5.2917032775878905,-0.23821942138671875,0.034642832223427865,-0.028775825924145258,-0.04236351099351412,1.9399678707122803,2019-06-21 12:39:42:880
6.243383880615235,-5.295294525146485,-0.23582525634765625,0.03517546444144371,-0.026512138997577903,-0.04196403683000223,1.9449598789215088,2019-06-21 12:39:42:885
6.233807220458984,-5.285717864990234,-0.2465989990234375,0.03371072584190014,-0.026645297052081865,-0.042496669048018076,1.9499518871307373,2019-06-21 12:39:42:890
6.238595550537109,-5.261776214599609,-0.234628173828125,0.03437651611441994,-0.02637898094307394,-0.042896143211529965,1.9549438953399658,2019-06-21 12:39:42:895
6.2409897155761715,-5.276141204833984,-0.22146026611328123,0.03411020000541202,-0.02797687759712149,-0.04342877542954581,1.9600639343261719,2019-06-21 12:39:42:900
6.217048065185547,-5.27254995727539,-0.20470111083984374,0.03477599027793183,-0.02797687759712149,-0.04262982710252204,1.9650559425354004,2019-06-21 12:39:42:905
6.224230560302734,-5.285717864990234,-0.2549785766601562,0.03504230638693975,-0.02811003565162545,-0.042896143211529965,1.970047950744629,2019-06-21 12:39:42:910
6.232610137939453,-5.278535369873047,-0.268146484375,0.03450967416892391,-0.028376351760633373,-0.04356193348404977,1.9750399589538574,2019-06-21 12:39:42:915
6.199091827392578,-5.296491607666016,-0.2465989990234375,0.033444409732892214,-0.02824319370612941,-0.042496669048018076,1.980031967163086,2019-06-21 12:39:42:920
6.2254276428222655,-5.273747039794921,-0.26455523681640625,0.03411020000541202,-0.02797687759712149,-0.04236351099351412,1.9850239753723145,2019-06-21 12:39:42:925
6.2397926330566404,-5.265367462158203,-0.28131439208984377,0.03570809665945956,-0.027311087324601673,-0.042496669048018076,1.990015983581543,2019-06-21 12:39:42:930
6.213456817626953,-5.276141204833984,-0.2669494018554687,0.03450967416892391,-0.02824319370612941,-0.04356193348404977,1.9950079917907715,2019-06-21 12:39:42:935
6.226624725341797,-5.284520782470703,-0.2872998046875,0.03490914833243579,-0.026911613161089788,-0.044360881811073546,2.0,2019-06-21 12:39:42:940
6.219442230224609,-5.331207000732422,-0.25258441162109374,0.03584125471396352,-0.028642667869641297,-0.04316245932053789,2.0049920082092285,2019-06-21 12:39:42:945
6.242186798095703,-5.284520782470703,-0.25737274169921875,0.03490914833243579,-0.02904214203315318,-0.04302930126603392,2.009984016418457,2019-06-21 12:39:42:950
6.243383880615235,-5.279732452392578,-0.29807354736328123,0.03517546444144371,-0.028642667869641297,-0.04396140764756166,2.0149760246276855,2019-06-21 12:39:42:955
6.22901889038086,-5.289309112548828,-0.2274456787109375,0.03504230638693975,-0.027843719542617527,-0.043295617375041846,2.019968032836914,2019-06-21 12:39:42:960
6.231413055419922,-5.288112030029297,-0.23941650390625,0.03437651611441994,-0.027843719542617527,-0.04396140764756166,2.0249600410461426,2019-06-21 12:39:42:965
6.24936929321289,-5.314447845458984,-0.2322340087890625,0.03517546444144371,-0.027311087324601673,-0.04396140764756166,2.029952049255371,2019-06-21 12:39:42:970
6.218245147705078,-5.290506195068359,-0.22146026611328123,0.03477599027793183,-0.02704477121559375,-0.04422772375656958,2.0349440574645996,2019-06-21 12:39:42:975
6.208668487548828,-5.276141204833984,-0.22983984375,0.03504230638693975,-0.025846348725058095,-0.04356193348404977,2.039936065673828,2019-06-21 12:39:42:980
6.203880157470703,-5.288112030029297,-0.24779608154296875,0.03530862249594768,-0.025047400398034325,-0.04302930126603392,2.045055866241455,2019-06-21 12:39:42:985
6.22063931274414,-5.283323699951172,-0.26216107177734377,0.03624072887747541,-0.025180558452538287,-0.043695091538553735,2.0500478744506836,2019-06-21 12:39:42:990
6.208668487548828,-5.280929534912109,-0.2872998046875,0.03504230638693975,-0.025846348725058095,-0.042762985157026,2.055039882659912,2019-06-21 12:39:42:995
6.213456817626953,-5.300082855224609,-0.268146484375,0.03411020000541202,-0.026645297052081865,-0.042496669048018076,2.0600318908691406,2019-06-21 12:39:43:000
6.214653900146485,-5.279732452392578,-0.3052560424804687,0.03397704195090806,-0.026645297052081865,-0.042097194884506195,2.065023899078369,2019-06-21 12:39:43:005
6.2254276428222655,-5.318039093017578,-0.28370855712890625,0.03397704195090806,-0.02611266483406602,-0.04236351099351412,2.0700159072875977,2019-06-21 12:39:43:010
6.243383880615235,-5.298885772705078,-0.2609639892578125,0.03477599027793183,-0.026645297052081865,-0.043295617375041846,2.075007915496826,2019-06-21 12:39:43:015
6.251763458251953,-5.307265350341797,-0.23103692626953123,0.03437651611441994,-0.027444245379105635,-0.04196403683000223,2.0799999237060547,2019-06-21 12:39:43:020
6.242186798095703,-5.319236175537109,-0.23582525634765625,0.03490914833243579,-0.025846348725058095,-0.04302930126603392,2.084991931915283,2019-06-21 12:39:43:025
6.254157623291015,-5.308462432861328,-0.24779608154296875,0.03570809665945956,-0.025979506779562057,-0.042762985157026,2.0899839401245117,2019-06-21 12:39:43:030
6.2409897155761715,-5.298885772705078,-0.23941650390625,0.03597441276846748,-0.027311087324601673,-0.04196403683000223,2.0949759483337402,2019-06-21 12:39:43:035
6.235004302978515,-5.286914947509765,-0.24300775146484374,0.035441780550451635,-0.025180558452538287,-0.04342877542954581,2.0999679565429688,2019-06-21 12:39:43:040
6.212259735107422,-5.292900360107422,-0.2609639892578125,0.03490914833243579,-0.025713190670554133,-0.04422772375656958,2.1049599647521973,2019-06-21 12:39:43:045
6.252960540771484,-5.298885772705078,-0.2226573486328125,0.035441780550451635,-0.02717792927009771,-0.043695091538553735,2.109951972961426,2019-06-21 12:39:43:050
6.232610137939453,-5.327615753173828,-0.2418106689453125,0.036107570822971446,-0.02637898094307394,-0.04356193348404977,2.1149439811706543,2019-06-21 12:39:43:055
6.224230560302734,-5.316842010498047,-0.2274456787109375,0.03517546444144371,-0.026911613161089788,-0.044360881811073546,2.119935989379883,2019-06-21 12:39:43:060
6.212259735107422,-5.295294525146485,-0.2274456787109375,0.035441780550451635,-0.02624582288856998,-0.04489351402908939,2.125056028366089,2019-06-21 12:39:43:065
6.226624725341797,-5.298885772705078,-0.2861027221679687,0.033843883896404095,-0.024781084289026402,-0.044494039865577505,2.1300480365753174,2019-06-21 12:39:43:070
6.202683074951172,-5.319236175537109,-0.24540191650390625,0.03490914833243579,-0.02624582288856998,-0.045159830138097316,2.135040044784546,2019-06-21 12:39:43:075
6.197894744873047,-5.289309112548828,-0.25019024658203126,0.03490914833243579,-0.024248452071010555,-0.045292988192601275,2.1400320529937744,2019-06-21 12:39:43:080
6.207471405029297,-5.300082855224609,-0.23343109130859374,0.03437651611441994,-0.02531371650704225,-0.04662456873764089,2.145024061203003,2019-06-21 12:39:43:085
6.219442230224609,-5.30127993774414,-0.2370223388671875,0.03477599027793183,-0.025580032616050172,-0.046890884846648814,2.1500160694122314,2019-06-21 12:39:43:090
6.199091827392578,-5.30127993774414,-0.21906610107421876,0.03517546444144371,-0.02544687456154621,-0.046890884846648814,2.15500807762146,2019-06-21 12:39:43:095
6.205077239990234,-5.314447845458984,-0.25019024658203126,0.0355749386049556,-0.02358266179849074,-0.046757726792144856,2.1600000858306885,2019-06-21 12:39:43:100
6.215850982666016,-5.297688690185547,-0.27892022705078123,0.03490914833243579,-0.024781084289026402,-0.046890884846648814,2.164992094039917,2019-06-21 12:39:43:105
6.202683074951172,-5.310856597900391,-0.2753289794921875,0.03584125471396352,-0.02637898094307394,-0.04702404290115278,2.1699838638305664,2019-06-21 12:39:43:110
6.200288909912109,-5.298885772705078,-0.2705406494140625,0.03624072887747541,-0.026778455106585827,-0.04715720095565674,2.174975872039795,2019-06-21 12:39:43:115
6.200288909912109,-5.2917032775878905,-0.25976690673828123,0.036107570822971446,-0.027311087324601673,-0.04755667511916863,2.1799678802490234,2019-06-21 12:39:43:120
6.215850982666016,-5.283323699951172,-0.26934356689453126,0.036507044986483335,-0.026512138997577903,-0.04662456873764089,2.184959888458252,2019-06-21 12:39:43:125
6.201485992431641,-5.284520782470703,-0.22624859619140625,0.03677336109549126,-0.026778455106585827,-0.047822991228176556,2.1899518966674805,2019-06-21 12:39:43:130
6.202683074951172,-5.284520782470703,-0.21667193603515625,0.03597441276846748,-0.025846348725058095,-0.0476898331736726,2.194943904876709,2019-06-21 12:39:43:135
6.203880157470703,-5.274944122314453,-0.21906610107421876,0.03624072887747541,-0.025047400398034325,-0.047822991228176556,2.1999359130859375,2019-06-21 12:39:43:140
6.22901889038086,-5.290506195068359,-0.23582525634765625,0.03703967720449918,-0.02611266483406602,-0.04808930733718448,2.2050559520721436,2019-06-21 12:39:43:145
6.2254276428222655,-5.294097442626953,-0.19751861572265625,0.03637388693197938,-0.026645297052081865,-0.047423517064664675,2.210047960281372,2019-06-21 12:39:43:150
6.207471405029297,-5.30127993774414,-0.1891390380859375,0.03597441276846748,-0.02717792927009771,-0.04662456873764089,2.2150399684906006,2019-06-21 12:39:43:155
6.217048065185547,-5.284520782470703,-0.26216107177734377,0.036107570822971446,-0.026911613161089788,-0.047822991228176556,2.220031976699829,2019-06-21 12:39:43:160
6.212259735107422,-5.295294525146485,-0.25976690673828123,0.03677336109549126,-0.026512138997577903,-0.04915457177321617,2.2250239849090576,2019-06-21 12:39:43:165
6.212259735107422,-5.2629732971191405,-0.24779608154296875,0.03637388693197938,-0.025846348725058095,-0.049021413718712215,2.230015993118286,2019-06-21 12:39:43:170
6.223033477783203,-5.266564544677734,-0.24300775146484374,0.03637388693197938,-0.02544687456154621,-0.04848878150069637,2.2350080013275146,2019-06-21 12:39:43:175
6.261340118408203,-5.264170379638672,-0.24061358642578123,0.03677336109549126,-0.025979506779562057,-0.048621939555200326,2.240000009536743,2019-06-21 12:39:43:180
6.22901889038086,-5.284520782470703,-0.2657523193359375,0.03677336109549126,-0.026512138997577903,-0.047822991228176556,2.2449920177459717,2019-06-21 12:39:43:185
6.218245147705078,-5.278535369873047,-0.3040589599609375,0.03677336109549126,-0.027843719542617527,-0.04848878150069637,2.2499840259552,2019-06-21 12:39:43:190
6.221836395263672,-5.276141204833984,-0.25856982421874997,0.036507044986483335,-0.026645297052081865,-0.04848878150069637,2.2549760341644287,2019-06-21 12:39:43:195
6.217048065185547,-5.286914947509765,-0.24540191650390625,0.03584125471396352,-0.027710561488113558,-0.049021413718712215,2.2599680423736572,2019-06-21 12:39:43:200
6.235004302978515,-5.304871185302734,-0.23941650390625,0.03570809665945956,-0.02890898397864922,-0.04875509760970429,2.2649600505828857,2019-06-21 12:39:43:205
6.203880157470703,-5.288112030029297,-0.23821942138671875,0.0355749386049556,-0.02717792927009771,-0.04955404593672806,2.2699520587921143,2019-06-21 12:39:43:210
6.209865570068359,-5.276141204833984,-0.22385443115234374,0.03450967416892391,-0.027577403433609596,-0.05008667815474391,2.2749440670013428,2019-06-21 12:39:43:215
6.24936929321289,-5.266564544677734,-0.215474853515625,0.03597441276846748,-0.027710561488113558,-0.04968720399123202,2.2799360752105713,2019-06-21 12:39:43:220
6.2553547058105465,-5.267761627197266,-0.18674487304687498,0.03624072887747541,-0.02904214203315318,-0.04848878150069637,2.2850558757781982,2019-06-21 12:39:43:225
6.22901889038086,-5.251002471923828,-0.22146026611328123,0.03743915136801107,-0.028509509815137335,-0.04848878150069637,2.2900478839874268,2019-06-21 12:39:43:230
6.212259735107422,-5.266564544677734,-0.22505151367187498,0.038104941640530875,-0.02824319370612941,-0.048222465391688445,2.2950398921966553,2019-06-21 12:39:43:235
6.227821807861328,-5.273747039794921,-0.23582525634765625,0.035441780550451635,-0.02717792927009771,-0.04875509760970429,2.300031900405884,2019-06-21 12:39:43:240
6.227821807861328,-5.265367462158203,-0.23103692626953123,0.035441780550451635,-0.027311087324601673,-0.04928772982772014,2.3050239086151123,2019-06-21 12:39:43:245
6.231413055419922,-5.273747039794921,-0.191533203125,0.03637388693197938,-0.02904214203315318,-0.04915457177321617,2.310015916824341,2019-06-21 12:39:43:250
6.260143035888672,-5.2773382873535155,-0.22864276123046876,0.03624072887747541,-0.02904214203315318,-0.05048615231825579,2.3150079250335693,2019-06-21 12:39:43:255
6.236201385498047,-5.264170379638672,-0.20709527587890625,0.036507044986483335,-0.028509509815137335,-0.05035299426375183,2.319999933242798,2019-06-21 12:39:43:260
6.243383880615235,-5.235440399169922,-0.282511474609375,0.036507044986483335,-0.02824319370612941,-0.049021413718712215,2.3249919414520264,2019-06-21 12:39:43:265
6.22901889038086,-5.236637481689453,-0.2657523193359375,0.036107570822971446,-0.026778455106585827,-0.046890884846648814,2.329983949661255,2019-06-21 12:39:43:270
6.236201385498047,-5.247411224365234,-0.23821942138671875,0.0366402030409873,-0.027444245379105635,-0.046757726792144856,2.3349759578704834,2019-06-21 12:39:43:275
6.235004302978515,-5.286914947509765,-0.2465989990234375,0.03717283525900315,-0.02717792927009771,-0.047822991228176556,2.339967966079712,2019-06-21 12:39:43:280
6.232610137939453,-5.2773382873535155,-0.22385443115234374,0.03584125471396352,-0.026778455106585827,-0.04808930733718448,2.3449599742889404,2019-06-21 12:39:43:285
6.256551788330078,-5.264170379638672,-0.24061358642578123,0.03490914833243579,-0.02717792927009771,-0.049420887882224096,2.349951982498169,2019-06-21 12:39:43:290
6.248172210693359,-5.27254995727539,-0.21427777099609374,0.034642832223427865,-0.02717792927009771,-0.048621939555200326,2.3549439907073975,2019-06-21 12:39:43:295
6.238595550537109,-5.253396636962891,-0.23941650390625,0.03437651611441994,-0.026778455106585827,-0.047822991228176556,2.359935998916626,2019-06-21 12:39:43:300
6.2397926330566404,-5.260579132080078,-0.24420483398437498,0.033843883896404095,-0.02704477121559375,-0.045958778465121086,2.365056037902832,2019-06-21 12:39:43:305
6.224230560302734,-5.280929534912109,-0.2549785766601562,0.033843883896404095,-0.026512138997577903,-0.0476898331736726,2.3700480461120605,2019-06-21 12:39:43:310
6.254157623291015,-5.284520782470703,-0.23582525634765625,0.033044935569380325,-0.026778455106585827,-0.04715720095565674,2.375040054321289,2019-06-21 12:39:43:315
6.263734283447265,-5.260579132080078,-0.24300775146484374,0.03291177751487637,-0.025846348725058095,-0.04755667511916863,2.3800320625305176,2019-06-21 12:39:43:320
6.238595550537109,-5.278535369873047,-0.25976690673828123,0.03251230335136447,-0.025979506779562057,-0.046091936519625044,2.385024070739746,2019-06-21 12:39:43:325
6.251763458251953,-5.2773382873535155,-0.22624859619140625,0.03264546140586844,-0.026512138997577903,-0.046890884846648814,2.3900160789489746,2019-06-21 12:39:43:330
6.256551788330078,-5.27254995727539,-0.2178690185546875,0.03331125167838825,-0.026911613161089788,-0.04622509457412901,2.395008087158203,2019-06-21 12:39:43:335
6.24936929321289,-5.267761627197266,-0.25737274169921875,0.0327786194603724,-0.02811003565162545,-0.04622509457412901,2.4000000953674316,2019-06-21 12:39:43:340
6.250566375732422,-5.271352874755859,-0.24420483398437498,0.030781248642812974,-0.02624582288856998,-0.045958778465121086,2.404991865158081,2019-06-21 12:39:43:345
6.231413055419922,-5.270155792236328,-0.28131439208984377,0.03131388086082882,-0.025580032616050172,-0.04502667208359335,2.4099838733673096,2019-06-21 12:39:43:350
6.273310943603516,-5.270155792236328,-0.22624859619140625,0.030781248642812974,-0.02464792623452244,-0.04569246235611316,2.414975881576538,2019-06-21 12:39:43:355
6.230215972900391,-5.267761627197266,-0.24779608154296875,0.030648090588309012,-0.024248452071010555,-0.04582562041061712,2.4199678897857666,2019-06-21 12:39:43:360
6.237398468017578,-5.254593719482422,-0.23582525634765625,0.03118072280632486,-0.024248452071010555,-0.046091936519625044,2.424959897994995,2019-06-21 12:39:43:365
6.224230560302734,-5.286914947509765,-0.24779608154296875,0.030781248642812974,-0.024115294016506587,-0.04582562041061712,2.4299519062042236,2019-06-21 12:39:43:370
6.245778045654297,-5.268958709716797,-0.24300775146484374,0.030781248642812974,-0.024248452071010555,-0.04462719792008147,2.434943914413452,2019-06-21 12:39:43:375
6.245778045654297,-5.268958709716797,-0.25976690673828123,0.030248616424797127,-0.025580032616050172,-0.04382824959305769,2.4399359226226807,2019-06-21 12:39:43:380
6.235004302978515,-5.282126617431641,-0.2549785766601562,0.030781248642812974,-0.024248452071010555,-0.04422772375656958,2.4450559616088867,2019-06-21 12:39:43:385
6.2409897155761715,-5.2773382873535155,-0.253781494140625,0.030781248642812974,-0.02624582288856998,-0.04382824959305769,2.4500479698181152,2019-06-21 12:39:43:390
6.244580963134766,-5.24381997680664,-0.2370223388671875,0.030914406697316935,-0.024248452071010555,-0.04396140764756166,2.4550399780273438,2019-06-21 12:39:43:395
6.233807220458984,-5.256987884521484,-0.2753289794921875,0.03038177447930109,-0.023050029580474894,-0.04356193348404977,2.4600319862365723,2019-06-21 12:39:43:400
6.218245147705078,-5.2773382873535155,-0.2705406494140625,0.03051493253380505,-0.023050029580474894,-0.042097194884506195,2.465023994445801,2019-06-21 12:39:43:405
6.246975128173828,-5.258184967041015,-0.2418106689453125,0.030115458370293165,-0.023848977907498663,-0.042097194884506195,2.4700160026550293,2019-06-21 12:39:43:410
6.246975128173828,-5.2342433166503906,-0.25737274169921875,0.030781248642812974,-0.02451476818001848,-0.042097194884506195,2.475008010864258,2019-06-21 12:39:43:415
6.2254276428222655,-5.252199554443359,-0.23821942138671875,0.031580196969836744,-0.02344950374398678,-0.042496669048018076,2.4800000190734863,2019-06-21 12:39:43:420
6.258945953369141,-5.2917032775878905,-0.2082923583984375,0.031580196969836744,-0.024781084289026402,-0.042097194884506195,2.484992027282715,2019-06-21 12:39:43:425
6.231413055419922,-5.2773382873535155,-0.2178690185546875,0.03118072280632486,-0.024248452071010555,-0.04196403683000223,2.4899840354919434,2019-06-21 12:39:43:430
6.236201385498047,-5.289309112548828,-0.25258441162109374,0.03237914529686051,-0.023982135962002625,-0.042762985157026,2.494976043701172,2019-06-21 12:39:43:435
6.22063931274414,-5.288112030029297,-0.26216107177734377,0.03371072584190014,-0.024115294016506587,-0.041031930448474495,2.4999680519104004,2019-06-21 12:39:43:440
6.217048065185547,-5.265367462158203,-0.25856982421874997,0.033444409732892214,-0.02464792623452244,-0.042496669048018076,2.504960060119629,2019-06-21 12:39:43:445
6.232610137939453,-5.294097442626953,-0.24420483398437498,0.03331125167838825,-0.02531371650704225,-0.04356193348404977,2.5099520683288574,2019-06-21 12:39:43:450
6.236201385498047,-5.276141204833984,-0.2861027221679687,0.03371072584190014,-0.02611266483406602,-0.042496669048018076,2.514944076538086,2019-06-21 12:39:43:455
6.215850982666016,-5.312053680419922,-0.3136356201171875,0.03357756778739617,-0.025580032616050172,-0.043295617375041846,2.5199360847473145,2019-06-21 12:39:43:460
6.218245147705078,-5.316842010498047,-0.2609639892578125,0.03477599027793183,-0.025846348725058095,-0.04342877542954581,2.5250558853149414,2019-06-21 12:39:43:465
6.2397926330566404,-5.297688690185547,-0.2513873291015625,0.03450967416892391,-0.02624582288856998,-0.04356193348404977,2.53004789352417,2019-06-21 12:39:43:470
6.2409897155761715,-5.296491607666016,-0.2705406494140625,0.03597441276846748,-0.02624582288856998,-0.04342877542954581,2.5350399017333984,2019-06-21 12:39:43:475
6.221836395263672,-5.30965951538086,-0.2669494018554687,0.036507044986483335,-0.025979506779562057,-0.04342877542954581,2.540031909942627,2019-06-21 12:39:43:480
6.224230560302734,-5.319236175537109,-0.2753289794921875,0.036507044986483335,-0.02611266483406602,-0.04316245932053789,2.5450239181518555,2019-06-21 12:39:43:485
6.199091827392578,-5.322827423095703,-0.23821942138671875,0.037305993313507105,-0.025979506779562057,-0.043695091538553735,2.550015926361084,2019-06-21 12:39:43:490
6.221836395263672,-5.307265350341797,-0.253781494140625,0.03757230942251503,-0.026778455106585827,-0.04542614624710524,2.5550079345703125,2019-06-21 12:39:43:495
6.213456817626953,-5.310856597900391,-0.30286187744140625,0.0383712577495388,-0.02624582288856998,-0.04502667208359335,2.559999942779541,2019-06-21 12:39:43:500
6.195500579833984,-5.332404083251953,-0.27892022705078123,0.038903889967554645,-0.026645297052081865,-0.04635825262863297,2.5649919509887695,2019-06-21 12:39:43:505
6.185923919677734,-5.327615753173828,-0.25856982421874997,0.03903704802205861,-0.026778455106585827,-0.04635825262863297,2.569983959197998,2019-06-21 12:39:43:510
6.187121002197266,-5.297688690185547,-0.253781494140625,0.04010231245809031,-0.027577403433609596,-0.046890884846648814,2.5749759674072266,2019-06-21 12:39:43:515
6.226624725341797,-5.307265350341797,-0.27772314453125,0.040634944676106156,-0.028509509815137335,-0.047423517064664675,2.5800960063934326,2019-06-21 12:39:43:520
6.2254276428222655,-5.321630340576172,-0.2705406494140625,0.041433893003129926,-0.027843719542617527,-0.04729035901016071,2.5849599838256836,2019-06-21 12:39:43:525
6.219442230224609,-5.310856597900391,-0.2418106689453125,0.04170020911213785,-0.029974248414680913,-0.04848878150069637,2.589951992034912,2019-06-21 12:39:43:530
6.214653900146485,-5.289309112548828,-0.2418106689453125,0.04130073494862596,-0.02970793230567299,-0.04915457177321617,2.5949440002441406,2019-06-21 12:39:43:535
6.190712249755859,-5.302477020263672,-0.263358154296875,0.04209968327564973,-0.027710561488113558,-0.04955404593672806,2.599936008453369,2019-06-21 12:39:43:540
6.199091827392578,-5.325221588134766,-0.24300775146484374,0.043431263820689354,-0.027710561488113558,-0.050619310372759754,2.605056047439575,2019-06-21 12:39:43:545
6.209865570068359,-5.328812835693359,-0.24779608154296875,0.0428986316026735,-0.028642667869641297,-0.05088562648176768,2.6100480556488037,2019-06-21 12:39:43:550
6.200288909912109,-5.308462432861328,-0.2322340087890625,0.043031789657177466,-0.02797687759712149,-0.051418258699783524,2.6150400638580322,2019-06-21 12:39:43:555
6.209865570068359,-5.307265350341797,-0.1987156982421875,0.04209968327564973,-0.02904214203315318,-0.051418258699783524,2.6200320720672607,2019-06-21 12:39:43:560
6.217048065185547,-5.295294525146485,-0.22983984375,0.04183336716664181,-0.02984109036017695,-0.05168457480879145,2.6250240802764893,2019-06-21 12:39:43:565
6.251763458251953,-5.298885772705078,-0.22505151367187498,0.043031789657177466,-0.03064003868720072,-0.051418258699783524,2.6300160884857178,2019-06-21 12:39:43:570
6.238595550537109,-5.300082855224609,-0.27892022705078123,0.043431263820689354,-0.03050688063269676,-0.05274983924482314,2.6350080966949463,2019-06-21 12:39:43:575
6.230215972900391,-5.300082855224609,-0.2801173095703125,0.04356442187519331,-0.029974248414680913,-0.053681945626350876,2.6399998664855957,2019-06-21 12:39:43:580
6.233807220458984,-5.294097442626953,-0.2657523193359375,0.04276547354816954,-0.029574774251169028,-0.05421457784436672,2.644991874694824,2019-06-21 12:39:43:585
6.207471405029297,-5.27254995727539,-0.23821942138671875,0.04263231549366558,-0.029308458142161105,-0.0539482617353588,2.6499838829040527,2019-06-21 12:39:43:590
6.248172210693359,-5.290506195068359,-0.22385443115234374,0.04449652825672105,-0.03183846117773638,-0.055546158389406346,2.6549758911132812,2019-06-21 12:39:43:595
6.242186798095703,-5.2917032775878905,-0.23343109130859374,0.04516231852924085,-0.030240564523688836,-0.05488036811688654,2.6599678993225098,2019-06-21 12:39:43:600
6.2409897155761715,-5.280929534912109,-0.20589819335937498,0.044230212147713124,-0.029574774251169028,-0.0550135261713905,2.6649599075317383,2019-06-21 12:39:43:605
6.238595550537109,-5.273747039794921,-0.2106865234375,0.04369757992969728,-0.030240564523688836,-0.05488036811688654,2.669951915740967,2019-06-21 12:39:43:610
6.256551788330078,-5.249805389404297,-0.234628173828125,0.04383073798420124,-0.02970793230567299,-0.05328247146283899,2.6749439239501953,2019-06-21 12:39:43:615
6.2409897155761715,-5.2486083068847655,-0.19751861572265625,0.04383073798420124,-0.029574774251169028,-0.053016155353831064,2.679935932159424,2019-06-21 12:39:43:620
6.233807220458984,-5.27254995727539,-0.21667193603515625,0.04316494771168143,-0.030107406469184875,-0.05408141978986276,2.68505597114563,2019-06-21 12:39:43:625
6.2397926330566404,-5.253396636962891,-0.20230694580078123,0.04276547354816954,-0.03210477728674431,-0.055146684225894464,2.6900479793548584,2019-06-21 12:39:43:630
6.252960540771484,-5.242622894287109,-0.196321533203125,0.04249915743916162,-0.0314389870142245,-0.054747210062382576,2.695039987564087,2019-06-21 12:39:43:635
6.276902191162109,-5.271352874755859,-0.20470111083984374,0.040634944676106156,-0.031172670905216568,-0.0539482617353588,2.7000319957733154,2019-06-21 12:39:43:640
6.260143035888672,-5.242622894287109,-0.1987156982421875,0.04023547051259427,-0.02970793230567299,-0.053815103680854834,2.705024003982544,2019-06-21 12:39:43:645
6.24936929321289,-5.245017059326171,-0.20948944091796876,0.04183336716664181,-0.02984109036017695,-0.05408141978986276,2.7100160121917725,2019-06-21 12:39:43:650
6.237398468017578,-5.27254995727539,-0.2561756591796875,0.042365999384657654,-0.029574774251169028,-0.052882997299327106,2.715008020401001,2019-06-21 12:39:43:655
6.2254276428222655,-5.282126617431641,-0.2549785766601562,0.04130073494862596,-0.02984109036017695,-0.05274983924482314,2.7200000286102295,2019-06-21 12:39:43:660
6.25774887084961,-5.27254995727539,-0.2465989990234375,0.040768102730610115,-0.03130582895972053,-0.05261668119031918,2.724992036819458,2019-06-21 12:39:43:665
6.250566375732422,-5.247411224365234,-0.18075946044921876,0.041167576894122,-0.030240564523688836,-0.05354878757184691,2.7299840450286865,2019-06-21 12:39:43:670
6.24936929321289,-5.271352874755859,-0.14963531494140625,0.03983599634908238,-0.02824319370612941,-0.053815103680854834,2.734976053237915,2019-06-21 12:39:43:675
6.252960540771484,-5.254593719482422,-0.20230694580078123,0.037305993313507105,-0.026645297052081865,-0.053815103680854834,2.7399680614471436,2019-06-21 12:39:43:680
6.232610137939453,-5.249805389404297,-0.19512445068359374,0.03703967720449918,-0.02904214203315318,-0.05461405200787862,2.744960069656372,2019-06-21 12:39:43:685
6.2409897155761715,-5.2330462341308595,-0.21906610107421876,0.03677336109549126,-0.02890898397864922,-0.05421457784436672,2.7499520778656006,2019-06-21 12:39:43:690
6.2553547058105465,-5.245017059326171,-0.22385443115234374,0.036107570822971446,-0.029441616196665066,-0.05461405200787862,2.754944086074829,2019-06-21 12:39:43:695
6.2409897155761715,-5.267761627197266,-0.1843507080078125,0.03597441276846748,-0.028509509815137335,-0.054747210062382576,2.7599360942840576,2019-06-21 12:39:43:700
6.25774887084961,-5.252199554443359,-0.24420483398437498,0.03490914833243579,-0.028775825924145258,-0.05434773589887068,2.7650558948516846,2019-06-21 12:39:43:705
6.262537200927734,-5.241425811767578,-0.2513873291015625,0.034642832223427865,-0.02904214203315318,-0.05314931340833503,2.770047903060913,2019-06-21 12:39:43:710
6.256551788330078,-5.240228729248047,-0.2669494018554687,0.03317809362388429,-0.02904214203315318,-0.053815103680854834,2.7750399112701416,2019-06-21 12:39:43:715
6.248172210693359,-5.255790802001953,-0.25856982421874997,0.03357756778739617,-0.029175300087657143,-0.05354878757184691,2.78003191947937,2019-06-21 12:39:43:720
6.254157623291015,-5.24381997680664,-0.27772314453125,0.033044935569380325,-0.02824319370612941,-0.05354878757184691,2.7850239276885986,2019-06-21 12:39:43:725
6.2697196960449215,-5.258184967041015,-0.2849056396484375,0.03331125167838825,-0.029175300087657143,-0.05354878757184691,2.790015935897827,2019-06-21 12:39:43:730
6.251763458251953,-5.283323699951172,-0.2561756591796875,0.033044935569380325,-0.02984109036017695,-0.053815103680854834,2.7950079441070557,2019-06-21 12:39:43:735
6.274508026123047,-5.239031646728516,-0.24300775146484374,0.033444409732892214,-0.028509509815137335,-0.053681945626350876,2.799999952316284,2019-06-21 12:39:43:740
6.251763458251953,-5.258184967041015,-0.19273028564453124,0.031979671133348625,-0.028509509815137335,-0.05341562951734295,2.8049919605255127,2019-06-21 12:39:43:745
6.238595550537109,-5.241425811767578,-0.2106865234375,0.030648090588309012,-0.02904214203315318,-0.05408141978986276,2.809983968734741,2019-06-21 12:39:43:750
6.202683074951172,-5.273747039794921,-0.2513873291015625,0.029316510043269392,-0.028775825924145258,-0.0539482617353588,2.8149759769439697,2019-06-21 12:39:43:755
6.2110626525878905,-5.261776214599609,-0.24061358642578123,0.02971598420678128,-0.029974248414680913,-0.053681945626350876,2.8199679851531982,2019-06-21 12:39:43:760
6.263734283447265,-5.246214141845703,-0.234628173828125,0.030648090588309012,-0.03050688063269676,-0.053815103680854834,2.8249599933624268,2019-06-21 12:39:43:765
6.251763458251953,-5.253396636962891,-0.2178690185546875,0.03144703891533278,-0.029441616196665066,-0.05328247146283899,2.8299520015716553,2019-06-21 12:39:43:770
6.264931365966797,-5.258184967041015,-0.2669494018554687,0.031580196969836744,-0.026778455106585827,-0.053016155353831064,2.834944009780884,2019-06-21 12:39:43:775
6.263734283447265,-5.2629732971191405,-0.27652606201171875,0.03038177447930109,-0.027843719542617527,-0.05248352313581522,2.8399360179901123,2019-06-21 12:39:43:780
6.24936929321289,-5.265367462158203,-0.2418106689453125,0.030648090588309012,-0.027710561488113558,-0.052084048972303336,2.8450560569763184,2019-06-21 12:39:43:785
6.244580963134766,-5.283323699951172,-0.272934814453125,0.03184651307884467,-0.027843719542617527,-0.05235036508131126,2.850048065185547,2019-06-21 12:39:43:790
6.242186798095703,-5.289309112548828,-0.27892022705078123,0.031979671133348625,-0.027577403433609596,-0.053016155353831064,2.8550400733947754,2019-06-21 12:39:43:795
6.230215972900391,-5.288112030029297,-0.28131439208984377,0.0327786194603724,-0.02717792927009771,-0.05341562951734295,2.860032081604004,2019-06-21 12:39:43:800
6.22901889038086,-5.2773382873535155,-0.2861027221679687,0.03411020000541202,-0.02717792927009771,-0.0539482617353588,2.8650240898132324,2019-06-21 12:39:43:805
6.2110626525878905,-5.276141204833984,-0.30046771240234377,0.034642832223427865,-0.02637898094307394,-0.0550135261713905,2.870016098022461,2019-06-21 12:39:43:810
6.227821807861328,-5.295294525146485,-0.3052560424804687,0.03517546444144371,-0.027843719542617527,-0.05581247449841427,2.8750078678131104,2019-06-21 12:39:43:815
6.221836395263672,-5.273747039794921,-0.3244093627929687,0.0366402030409873,-0.027710561488113558,-0.05661142282543804,2.879999876022339,2019-06-21 12:39:43:820
6.2254276428222655,-5.273747039794921,-0.28131439208984377,0.037971783586026917,-0.027311087324601673,-0.05567931644391031,2.8849918842315674,2019-06-21 12:39:43:825
6.2409897155761715,-5.273747039794921,-0.292088134765625,0.03850441580404276,-0.028509509815137335,-0.05527984228039842,2.889983892440796,2019-06-21 12:39:43:830
6.231413055419922,-5.255790802001953,-0.2669494018554687,0.037971783586026917,-0.02890898397864922,-0.055546158389406346,2.8949759006500244,2019-06-21 12:39:43:835
6.2397926330566404,-5.300082855224609,-0.2801173095703125,0.039569680240074456,-0.028642667869641297,-0.05621194866192616,2.899967908859253,2019-06-21 12:39:43:840
6.24936929321289,-5.273747039794921,-0.2872998046875,0.038903889967554645,-0.029441616196665066,-0.05647826477093408,2.9049599170684814,2019-06-21 12:39:43:845
6.235004302978515,-5.292900360107422,-0.25258441162109374,0.04010231245809031,-0.029308458142161105,-0.057144055043453885,2.90995192527771,2019-06-21 12:39:43:850
6.264931365966797,-5.288112030029297,-0.268146484375,0.04183336716664181,-0.02824319370612941,-0.05607879060742219,2.9149439334869385,2019-06-21 12:39:43:855
6.215850982666016,-5.300082855224609,-0.2513873291015625,0.04356442187519331,-0.02624582288856998,-0.05607879060742219,2.919935941696167,2019-06-21 12:39:43:860
6.243383880615235,-5.278535369873047,-0.27772314453125,0.0428986316026735,-0.026778455106585827,-0.05661142282543804,2.925055980682373,2019-06-21 12:39:43:865
6.230215972900391,-5.271352874755859,-0.2465989990234375,0.04316494771168143,-0.026512138997577903,-0.057543529206965774,2.9300479888916016,2019-06-21 12:39:43:870
6.244580963134766,-5.2629732971191405,-0.2418106689453125,0.04316494771168143,-0.02717792927009771,-0.05767668726146973,2.93503999710083,2019-06-21 12:39:43:875
6.254157623291015,-5.245017059326171,-0.2549785766601562,0.043431263820689354,-0.026778455106585827,-0.057543529206965774,2.9400320053100586,2019-06-21 12:39:43:880
6.250566375732422,-5.21508999633789,-0.25258441162109374,0.044097054093209166,-0.02717792927009771,-0.0578098453159737,2.945024013519287,2019-06-21 12:39:43:885
6.258945953369141,-5.231849151611328,-0.268146484375,0.044230212147713124,-0.027577403433609596,-0.056744580879942004,2.9500160217285156,2019-06-21 12:39:43:890
6.296055511474609,-5.217484161376953,-0.23582525634765625,0.04356442187519331,-0.027710561488113558,-0.05701089698894993,2.955008029937744,2019-06-21 12:39:43:895
6.2840846862792965,-5.230652069091796,-0.21906610107421876,0.04383073798420124,-0.02704477121559375,-0.05661142282543804,2.9600000381469727,2019-06-21 12:39:43:900
6.293661346435547,-5.229454986572265,-0.20948944091796876,0.04449652825672105,-0.028509509815137335,-0.05541300033490239,2.964992046356201,2019-06-21 12:39:43:905
6.3128146667480465,-5.225863739013672,-0.215474853515625,0.04436337020221709,-0.02797687759712149,-0.05408141978986276,2.9699840545654297,2019-06-21 12:39:43:910
6.276902191162109,-5.216287078857421,-0.20709527587890625,0.044230212147713124,-0.028509509815137335,-0.053681945626350876,2.974976062774658,2019-06-21 12:39:43:915
6.276902191162109,-5.201922088623046,-0.21427777099609374,0.04436337020221709,-0.027710561488113558,-0.052882997299327106,2.9799680709838867,2019-06-21 12:39:43:920
6.2697196960449215,-5.200725006103515,-0.23343109130859374,0.04316494771168143,-0.02797687759712149,-0.05314931340833503,2.9849600791931152,2019-06-21 12:39:43:925
6.276902191162109,-5.191148345947266,-0.196321533203125,0.04183336716664181,-0.02704477121559375,-0.052084048972303336,2.9899520874023438,2019-06-21 12:39:43:930
6.296055511474609,-5.203119171142578,-0.20589819335937498,0.041167576894122,-0.025180558452538287,-0.051018784536271636,2.9949440956115723,2019-06-21 12:39:43:935
6.31520883178711,-5.203119171142578,-0.2035040283203125,0.03983599634908238,-0.026512138997577903,-0.05075246842726371,2.9999358654022217,2019-06-21 12:39:43:940
6.2984496765136715,-5.210301666259766,-0.263358154296875,0.038770731913050686,-0.02704477121559375,-0.050219836209247866,3.0050559043884277,2019-06-21 12:39:43:945
6.282887603759765,-5.200725006103515,-0.20709527587890625,0.0383712577495388,-0.028775825924145258,-0.04955404593672806,3.0100479125976562,2019-06-21 12:39:43:950
6.281690521240234,-5.200725006103515,-0.19512445068359374,0.03863757385854672,-0.027577403433609596,-0.04968720399123202,3.0150399208068848,2019-06-21 12:39:43:955
6.294858428955078,-5.210301666259766,-0.1891390380859375,0.038104941640530875,-0.026512138997577903,-0.046890884846648814,3.0200319290161133,2019-06-21 12:39:43:960
6.285281768798828,-5.185162933349609,-0.1723798828125,0.03584125471396352,-0.026645297052081865,-0.04542614624710524,3.025023937225342,2019-06-21 12:39:43:965
6.316405914306641,-5.212695831298828,-0.22505151367187498,0.03597441276846748,-0.026512138997577903,-0.045159830138097316,3.0300159454345703,2019-06-21 12:39:43:970
6.308026336669922,-5.213892913818359,-0.196321533203125,0.0355749386049556,-0.02624582288856998,-0.04462719792008147,3.035007953643799,2019-06-21 12:39:43:975
6.291267181396484,-5.210301666259766,-0.24061358642578123,0.0355749386049556,-0.025713190670554133,-0.04356193348404977,3.0399999618530273,2019-06-21 12:39:43:980
6.28647885131836,-5.195936676025391,-0.2872998046875,0.03517546444144371,-0.02637898094307394,-0.042762985157026,3.044991970062256,2019-06-21 12:39:43:985
6.276902191162109,-5.198330841064453,-0.23103692626953123,0.03504230638693975,-0.02611266483406602,-0.042496669048018076,3.0499839782714844,2019-06-21 12:39:43:990
6.285281768798828,-5.171995025634765,-0.20110986328125,0.033444409732892214,-0.02611266483406602,-0.04156456266649034,3.054975986480713,2019-06-21 12:39:43:995
6.2553547058105465,-5.198330841064453,-0.21188360595703123,0.03184651307884467,-0.025979506779562057,-0.040632456284962606,3.0599679946899414,2019-06-21 12:39:44:000
6.245778045654297,-5.198330841064453,-0.234628173828125,0.031580196969836744,-0.02637898094307394,-0.040232982121450725,3.06496000289917,2019-06-21 12:39:44:005
6.261340118408203,-5.200725006103515,-0.21188360595703123,0.031047564751820897,-0.027444245379105635,-0.040632456284962606,3.0699520111083984,2019-06-21 12:39:44:010
6.27809927368164,-5.217484161376953,-0.215474853515625,0.030781248642812974,-0.025979506779562057,-0.03903455963091507,3.074944019317627,2019-06-21 12:39:44:015
6.270916778564453,-5.18636001586914,-0.191533203125,0.03237914529686051,-0.02464792623452244,-0.03783613714037941,3.0799360275268555,2019-06-21 12:39:44:020
6.274508026123047,-5.231849151611328,-0.24300775146484374,0.031047564751820897,-0.02611266483406602,-0.03836876935839526,3.0850560665130615,2019-06-21 12:39:44:025
6.296055511474609,-5.206710418701172,-0.20948944091796876,0.030248616424797127,-0.025047400398034325,-0.03743666297686753,3.09004807472229,2019-06-21 12:39:44:030
6.26852261352539,-5.212695831298828,-0.23941650390625,0.02971598420678128,-0.025580032616050172,-0.03690403075885167,3.0950400829315186,2019-06-21 12:39:44:035
6.252960540771484,-5.194739593505859,-0.23821942138671875,0.030914406697316935,-0.02544687456154621,-0.03730350492236356,3.100032091140747,2019-06-21 12:39:44:040
6.263734283447265,-5.249805389404297,-0.22026318359375,0.03131388086082882,-0.025846348725058095,-0.03743666297686753,3.1050240993499756,2019-06-21 12:39:44:045
6.262537200927734,-5.251002471923828,-0.23343109130859374,0.030781248642812974,-0.02531371650704225,-0.03703718881335564,3.110015869140625,2019-06-21 12:39:44:050
6.273310943603516,-5.245017059326171,-0.2418106689453125,0.03184651307884467,-0.024248452071010555,-0.03690403075885167,3.1150078773498535,2019-06-21 12:39:44:055
6.252960540771484,-5.230652069091796,-0.24540191650390625,0.031047564751820897,-0.024914242343530364,-0.03557245021381206,3.119999885559082,2019-06-21 12:39:44:060
6.252960540771484,-5.241425811767578,-0.2465989990234375,0.03038177447930109,-0.02544687456154621,-0.0361050824318279,3.1249918937683105,2019-06-21 12:39:44:065
6.251763458251953,-5.259382049560546,-0.21667193603515625,0.02918335198876543,-0.02637898094307394,-0.035172976050300175,3.129983901977539,2019-06-21 12:39:44:070
6.266128448486328,-5.241425811767578,-0.2082923583984375,0.03038177447930109,-0.02624582288856998,-0.03570560826831602,3.1349759101867676,2019-06-21 12:39:44:075
6.274508026123047,-5.2186812438964845,-0.2549785766601562,0.030115458370293165,-0.025580032616050172,-0.03477350188678829,3.139967918395996,2019-06-21 12:39:44:080
6.266128448486328,-5.223469573974609,-0.20948944091796876,0.029849142261285242,-0.02637898094307394,-0.034507185777780364,3.1449599266052246,2019-06-21 12:39:44:085
6.245778045654297,-5.223469573974609,-0.1987156982421875,0.029849142261285242,-0.02637898094307394,-0.03357507939625263,3.149951934814453,2019-06-21 12:39:44:090
6.258945953369141,-5.228257904052734,-0.2106865234375,0.029582826152277315,-0.02464792623452244,-0.03357507939625263,3.1549439430236816,2019-06-21 12:39:44:095
6.285281768798828,-5.224666656494141,-0.2489931640625,0.030781248642812974,-0.024115294016506587,-0.033308763287244705,3.15993595123291,2019-06-21 12:39:44:100
6.285281768798828,-5.228257904052734,-0.292088134765625,0.03051493253380505,-0.02544687456154621,-0.03370823745075659,3.165055990219116,2019-06-21 12:39:44:105
6.267325531005859,-5.239031646728516,-0.28849688720703126,0.03038177447930109,-0.027577403433609596,-0.03357507939625263,3.1700479984283447,2019-06-21 12:39:44:110
6.258945953369141,-5.251002471923828,-0.2549785766601562,0.030914406697316935,-0.02624582288856998,-0.03290928912373282,3.1750400066375732,2019-06-21 12:39:44:115
6.267325531005859,-5.261776214599609,-0.320818115234375,0.029582826152277315,-0.026512138997577903,-0.03357507939625263,3.1800320148468018,2019-06-21 12:39:44:120
6.254157623291015,-5.256987884521484,-0.26216107177734377,0.030914406697316935,-0.025979506779562057,-0.033441921341748664,3.1850240230560303,2019-06-21 12:39:44:125
6.238595550537109,-5.2629732971191405,-0.2849056396484375,0.031580196969836744,-0.027577403433609596,-0.033308763287244705,3.190016031265259,2019-06-21 12:39:44:130
6.242186798095703,-5.264170379638672,-0.2801173095703125,0.03211282918785259,-0.027577403433609596,-0.034107711614268475,3.1950080394744873,2019-06-21 12:39:44:135
6.258945953369141,-5.268958709716797,-0.26934356689453126,0.03184651307884467,-0.026645297052081865,-0.03357507939625263,3.200000047683716,2019-06-21 12:39:44:140
6.246975128173828,-5.288112030029297,-0.2992706298828125,0.03211282918785259,-0.025180558452538287,-0.03277613106922886,3.2049920558929443,2019-06-21 12:39:44:145
6.261340118408203,-5.2773382873535155,-0.27652606201171875,0.0327786194603724,-0.02544687456154621,-0.033308763287244705,3.209984064102173,2019-06-21 12:39:44:150
6.245778045654297,-5.278535369873047,-0.25019024658203126,0.0327786194603724,-0.026512138997577903,-0.03397455355976452,3.2149760723114014,2019-06-21 12:39:44:155
6.218245147705078,-5.252199554443359,-0.2549785766601562,0.033444409732892214,-0.026911613161089788,-0.03384139550526055,3.21996808052063,2019-06-21 12:39:44:160
6.233807220458984,-5.274944122314453,-0.2609639892578125,0.03411020000541202,-0.025713190670554133,-0.034107711614268475,3.2249600887298584,2019-06-21 12:39:44:165
6.248172210693359,-5.259382049560546,-0.23582525634765625,0.03424335805991598,-0.026911613161089788,-0.03357507939625263,3.229952096939087,2019-06-21 12:39:44:170
6.261340118408203,-5.2629732971191405,-0.272934814453125,0.03490914833243579,-0.026645297052081865,-0.03490665994129225,3.2349438667297363,2019-06-21 12:39:44:175
6.219442230224609,-5.267761627197266,-0.2549785766601562,0.03597441276846748,-0.023982135962002625,-0.03464034383228433,3.239935874938965,2019-06-21 12:39:44:180
6.215850982666016,-5.27254995727539,-0.2992706298828125,0.0366402030409873,-0.025979506779562057,-0.03477350188678829,3.245055913925171,2019-06-21 12:39:44:185
6.233807220458984,-5.258184967041015,-0.2849056396484375,0.03690651914999522,-0.026512138997577903,-0.03464034383228433,3.2500479221343994,2019-06-21 12:39:44:190
6.254157623291015,-5.271352874755859,-0.268146484375,0.03690651914999522,-0.026512138997577903,-0.034507185777780364,3.255039930343628,2019-06-21 12:39:44:195
6.246975128173828,-5.268958709716797,-0.22864276123046876,0.03624072887747541,-0.02624582288856998,-0.03503981799579621,3.2600319385528564,2019-06-21 12:39:44:200
6.22901889038086,-5.227060821533203,-0.26934356689453126,0.0366402030409873,-0.026512138997577903,-0.03503981799579621,3.265023946762085,2019-06-21 12:39:44:205
6.221836395263672,-5.229454986572265,-0.2489931640625,0.03637388693197938,-0.02531371650704225,-0.0354392921593081,3.2700159549713135,2019-06-21 12:39:44:210
6.237398468017578,-5.2342433166503906,-0.21906610107421876,0.03597441276846748,-0.025180558452538287,-0.03570560826831602,3.275007963180542,2019-06-21 12:39:44:215
6.208668487548828,-5.2629732971191405,-0.20589819335937498,0.035441780550451635,-0.024115294016506587,-0.03557245021381206,3.2799999713897705,2019-06-21 12:39:44:220
6.242186798095703,-5.2486083068847655,-0.23103692626953123,0.03490914833243579,-0.02544687456154621,-0.03503981799579621,3.284991979598999,2019-06-21 12:39:44:225
6.242186798095703,-5.240228729248047,-0.25737274169921875,0.034642832223427865,-0.025047400398034325,-0.03464034383228433,3.2899839878082275,2019-06-21 12:39:44:230
6.266128448486328,-5.256987884521484,-0.19512445068359374,0.034642832223427865,-0.023982135962002625,-0.033308763287244705,3.294975996017456,2019-06-21 12:39:44:235
6.252960540771484,-5.2342433166503906,-0.215474853515625,0.03517546444144371,-0.023982135962002625,-0.03424086966877244,3.2999680042266846,2019-06-21 12:39:44:240
6.248172210693359,-5.21508999633789,-0.22146026611328123,0.034642832223427865,-0.023316345689482817,-0.03317560523274074,3.304960012435913,2019-06-21 12:39:44:245
6.267325531005859,-5.217484161376953,-0.24061358642578123,0.034642832223427865,-0.023848977907498663,-0.03384139550526055,3.3099520206451416,2019-06-21 12:39:44:250
6.2397926330566404,-5.223469573974609,-0.2370223388671875,0.03371072584190014,-0.023715819852994702,-0.034507185777780364,3.31494402885437,2019-06-21 12:39:44:255
6.25774887084961,-5.225863739013672,-0.23941650390625,0.03251230335136447,-0.023982135962002625,-0.03490665994129225,3.3199360370635986,2019-06-21 12:39:44:260
6.22901889038086,-5.255790802001953,-0.2322340087890625,0.0327786194603724,-0.02464792623452244,-0.034107711614268475,3.3250560760498047,2019-06-21 12:39:44:265
6.245778045654297,-5.27254995727539,-0.2465989990234375,0.03264546140586844,-0.02464792623452244,-0.03464034383228433,3.330048084259033,2019-06-21 12:39:44:270
6.254157623291015,-5.2773382873535155,-0.20110986328125,0.031047564751820897,-0.02451476818001848,-0.034507185777780364,3.3350400924682617,2019-06-21 12:39:44:275
6.223033477783203,-5.276141204833984,-0.19751861572265625,0.030781248642812974,-0.024914242343530364,-0.035971924377323945,3.3400321006774902,2019-06-21 12:39:44:280
6.207471405029297,-5.280929534912109,-0.25019024658203126,0.03118072280632486,-0.023848977907498663,-0.03503981799579621,3.3450238704681396,2019-06-21 12:39:44:285
6.202683074951172,-5.265367462158203,-0.215474853515625,0.030648090588309012,-0.023982135962002625,-0.034507185777780364,3.350015878677368,2019-06-21 12:39:44:290
6.22063931274414,-5.283323699951172,-0.20948944091796876,0.030648090588309012,-0.023715819852994702,-0.03397455355976452,3.3550078868865967,2019-06-21 12:39:44:295
6.223033477783203,-5.2917032775878905,-0.22146026611328123,0.03051493253380505,-0.023848977907498663,-0.03477350188678829,3.359999895095825,2019-06-21 12:39:44:300
6.217048065185547,-5.265367462158203,-0.23103692626953123,0.029849142261285242,-0.023982135962002625,-0.03570560826831602,3.3649919033050537,2019-06-21 12:39:44:305
6.226624725341797,-5.285717864990234,-0.22624859619140625,0.029982300315789204,-0.023982135962002625,-0.03637139854083583,3.3699839115142822,2019-06-21 12:39:44:310
6.212259735107422,-5.3060682678222655,-0.24061358642578123,0.029316510043269392,-0.02278371347146697,-0.03583876632281998,3.3749759197235107,2019-06-21 12:39:44:315
6.2553547058105465,-5.300082855224609,-0.25737274169921875,0.030248616424797127,-0.023848977907498663,-0.03637139854083583,3.3799679279327393,2019-06-21 12:39:44:320
6.231413055419922,-5.288112030029297,-0.234628173828125,0.031047564751820897,-0.024248452071010555,-0.0371703468678596,3.3849599361419678,2019-06-21 12:39:44:325
6.219442230224609,-5.292900360107422,-0.1723798828125,0.030248616424797127,-0.024381610125514517,-0.03770297908587545,3.3899519443511963,2019-06-21 12:39:44:330
6.230215972900391,-5.30127993774414,-0.2106865234375,0.029849142261285242,-0.023050029580474894,-0.038635085467403185,3.394943952560425,2019-06-21 12:39:44:335
6.188318084716797,-5.313250762939453,-0.2801173095703125,0.029316510043269392,-0.024248452071010555,-0.03903455963091507,3.400063991546631,2019-06-21 12:39:44:340
6.218245147705078,-5.294097442626953,-0.24420483398437498,0.030781248642812974,-0.025047400398034325,-0.04009982406694676,3.4050559997558594,2019-06-21 12:39:44:345
6.195500579833984,-5.315644927978515,-0.27173773193359374,0.0317133550243407,-0.024248452071010555,-0.03930087573992299,3.410048007965088,2019-06-21 12:39:44:350
6.218245147705078,-5.319236175537109,-0.2513873291015625,0.031580196969836744,-0.025846348725058095,-0.04049929823045865,3.4150400161743164,2019-06-21 12:39:44:355
6.212259735107422,-5.314447845458984,-0.21906610107421876,0.0317133550243407,-0.02531371650704225,-0.04156456266649034,3.420032024383545,2019-06-21 12:39:44:360
6.227821807861328,-5.294097442626953,-0.2082923583984375,0.031580196969836744,-0.02531371650704225,-0.04223035293901015,3.4250240325927734,2019-06-21 12:39:44:365
6.233807220458984,-5.290506195068359,-0.24061358642578123,0.031979671133348625,-0.024381610125514517,-0.04316245932053789,3.430016040802002,2019-06-21 12:39:44:370
6.22063931274414,-5.268958709716797,-0.24300775146484374,0.03251230335136447,-0.025580032616050172,-0.042762985157026,3.4350080490112305,2019-06-21 12:39:44:375
6.231413055419922,-5.278535369873047,-0.26216107177734377,0.033044935569380325,-0.027710561488113558,-0.042896143211529965,3.440000057220459,2019-06-21 12:39:44:380
6.221836395263672,-5.3060682678222655,-0.2705406494140625,0.033444409732892214,-0.027843719542617527,-0.04462719792008147,3.4449920654296875,2019-06-21 12:39:44:385
6.223033477783203,-5.326418670654297,-0.253781494140625,0.03530862249594768,-0.027444245379105635,-0.04755667511916863,3.449984073638916,2019-06-21 12:39:44:390
6.2110626525878905,-5.316842010498047,-0.2561756591796875,0.03490914833243579,-0.026778455106585827,-0.04662456873764089,3.4549760818481445,2019-06-21 12:39:44:395
6.194303497314453,-5.303674102783203,-0.24061358642578123,0.03397704195090806,-0.026911613161089788,-0.04622509457412901,3.459968090057373,2019-06-21 12:39:44:400
6.214653900146485,-5.294097442626953,-0.2849056396484375,0.03504230638693975,-0.026512138997577903,-0.04649141068313693,3.4649600982666016,2019-06-21 12:39:44:405
6.22901889038086,-5.295294525146485,-0.2861027221679687,0.036507044986483335,-0.028509509815137335,-0.047822991228176556,3.469951868057251,2019-06-21 12:39:44:410
6.215850982666016,-5.3060682678222655,-0.272934814453125,0.03770546747701899,-0.028642667869641297,-0.048222465391688445,3.4749438762664795,2019-06-21 12:39:44:415
6.205077239990234,-5.302477020263672,-0.25258441162109374,0.03783862553152295,-0.028376351760633373,-0.04995352010023994,3.4800639152526855,2019-06-21 12:39:44:420
6.243383880615235,-5.321630340576172,-0.21427777099609374,0.037305993313507105,-0.027311087324601673,-0.04995352010023994,3.485055923461914,2019-06-21 12:39:44:425
6.256551788330078,-5.289309112548828,-0.23941650390625,0.038104941640530875,-0.02717792927009771,-0.050219836209247866,3.4900479316711426,2019-06-21 12:39:44:430
6.2254276428222655,-5.264170379638672,-0.23821942138671875,0.03690651914999522,-0.027577403433609596,-0.05048615231825579,3.495039939880371,2019-06-21 12:39:44:435
6.218245147705078,-5.265367462158203,-0.22505151367187498,0.039569680240074456,-0.027577403433609596,-0.051285100645279566,3.5000319480895996,2019-06-21 12:39:44:440
6.203880157470703,-5.267761627197266,-0.22983984375,0.039969154403586345,-0.027710561488113558,-0.052084048972303336,3.505023956298828,2019-06-21 12:39:44:445
6.237398468017578,-5.266564544677734,-0.23941650390625,0.03917020607656257,-0.02824319370612941,-0.05354878757184691,3.5100159645080566,2019-06-21 12:39:44:450
6.227821807861328,-5.271352874755859,-0.2274456787109375,0.03970283829457842,-0.029175300087657143,-0.05248352313581522,3.515007972717285,2019-06-21 12:39:44:455
6.243383880615235,-5.267761627197266,-0.25258441162109374,0.04090126078511408,-0.02984109036017695,-0.05195089091779937,3.5199999809265137,2019-06-21 12:39:44:460
6.2553547058105465,-5.288112030029297,-0.2669494018554687,0.03970283829457842,-0.029574774251169028,-0.053016155353831064,3.524991989135742,2019-06-21 12:39:44:465
6.250566375732422,-5.294097442626953,-0.23821942138671875,0.03863757385854672,-0.02984109036017695,-0.05341562951734295,3.5299839973449707,2019-06-21 12:39:44:470
6.237398468017578,-5.278535369873047,-0.27892022705078123,0.04010231245809031,-0.03064003868720072,-0.05328247146283899,3.534976005554199,2019-06-21 12:39:44:475
6.227821807861328,-5.247411224365234,-0.2513873291015625,0.04090126078511408,-0.029308458142161105,-0.054747210062382576,3.5399680137634277,2019-06-21 12:39:44:480
6.246975128173828,-5.251002471923828,-0.24061358642578123,0.040634944676106156,-0.02904214203315318,-0.05448089395337465,3.5449600219726562,2019-06-21 12:39:44:485
6.232610137939453,-5.24381997680664,-0.21188360595703123,0.04036862856709823,-0.029574774251169028,-0.05461405200787862,3.5499520301818848,2019-06-21 12:39:44:490
6.219442230224609,-5.259382049560546,-0.2609639892578125,0.03943652218557049,-0.028376351760633373,-0.0550135261713905,3.5549440383911133,2019-06-21 12:39:44:495
6.224230560302734,-5.266564544677734,-0.27652606201171875,0.03943652218557049,-0.027710561488113558,-0.054747210062382576,3.559936046600342,2019-06-21 12:39:44:500
6.242186798095703,-5.270155792236328,-0.272934814453125,0.03970283829457842,-0.027311087324601673,-0.05461405200787862,3.565056085586548,2019-06-21 12:39:44:505
6.248172210693359,-5.264170379638672,-0.25976690673828123,0.03863757385854672,-0.027710561488113558,-0.05527984228039842,3.5700480937957764,2019-06-21 12:39:44:510
6.267325531005859,-5.258184967041015,-0.21667193603515625,0.038903889967554645,-0.02797687759712149,-0.0550135261713905,3.575039863586426,2019-06-21 12:39:44:515
6.273310943603516,-5.254593719482422,-0.26455523681640625,0.039969154403586345,-0.02797687759712149,-0.05567931644391031,3.5800318717956543,2019-06-21 12:39:44:520
6.260143035888672,-5.246214141845703,-0.2753289794921875,0.03930336413106653,-0.02824319370612941,-0.05488036811688654,3.585023880004883,2019-06-21 12:39:44:525
6.266128448486328,-5.242622894287109,-0.2322340087890625,0.03903704802205861,-0.02904214203315318,-0.05448089395337465,3.5900158882141113,2019-06-21 12:39:44:530
6.287675933837891,-5.236637481689453,-0.25258441162109374,0.03770546747701899,-0.027843719542617527,-0.055546158389406346,3.59500789642334,2019-06-21 12:39:44:535
6.274508026123047,-5.2342433166503906,-0.24540191650390625,0.03770546747701899,-0.028509509815137335,-0.05408141978986276,3.5999999046325684,2019-06-21 12:39:44:540
6.244580963134766,-5.241425811767578,-0.20589819335937498,0.03917020607656257,-0.02824319370612941,-0.0539482617353588,3.604991912841797,2019-06-21 12:39:44:545
6.258945953369141,-5.247411224365234,-0.22505151367187498,0.03757230942251503,-0.027444245379105635,-0.053681945626350876,3.6099839210510254,2019-06-21 12:39:44:550
6.279296356201172,-5.252199554443359,-0.263358154296875,0.03570809665945956,-0.02811003565162545,-0.05235036508131126,3.614975929260254,2019-06-21 12:39:44:555
6.254157623291015,-5.2486083068847655,-0.2657523193359375,0.037305993313507105,-0.02717792927009771,-0.05248352313581522,3.6199679374694824,2019-06-21 12:39:44:560
6.243383880615235,-5.240228729248047,-0.23941650390625,0.036507044986483335,-0.025846348725058095,-0.05274983924482314,3.624959945678711,2019-06-21 12:39:44:565
6.260143035888672,-5.2629732971191405,-0.22146026611328123,0.03690651914999522,-0.025846348725058095,-0.053016155353831064,3.6299519538879395,2019-06-21 12:39:44:570
6.262537200927734,-5.246214141845703,-0.29687646484374997,0.03624072887747541,-0.026645297052081865,-0.052084048972303336,3.634943962097168,2019-06-21 12:39:44:575
6.266128448486328,-5.251002471923828,-0.25976690673828123,0.035441780550451635,-0.02531371650704225,-0.05274983924482314,3.6399359703063965,2019-06-21 12:39:44:580
6.221836395263672,-5.249805389404297,-0.2741318969726562,0.03570809665945956,-0.02611266483406602,-0.05328247146283899,3.6450560092926025,2019-06-21 12:39:44:585
