ACCELEROMETER X (m/s²),ACCELEROMETER Y (m/s²),ACCELEROMETER Z (m/s²),GYROSCOPE X (rad/s),GYROSCOPE Y (rad/s),GYROSCOPE Z (rad/s),Time since start in ms ,YYYY-MO-DD HH-MI-SS_SSS
7.845080291748046,-0.9690382995605469,-0.08259869384765625,0.030781248642812974,-0.03237109339575223,-0.006943468495460248,0.0,2019-06-21 12:36:55:421
7.8462773742675775,-0.9857974548339844,-0.09337243652343749,0.031047564751820897,-0.03130582895972053,-0.0064108362774444,0.004992008209228516,2019-06-21 12:36:55:426
7.811561981201172,-0.9846003723144531,-0.12329949951171874,0.03131388086082882,-0.030906354796208645,-0.005611887950420629,0.009984016418457031,2019-06-21 12:36:55:431
7.86782485961914,-0.9953741149902343,-0.14484698486328124,0.030648090588309012,-0.03170530312323242,-0.005079255732404781,0.014976024627685547,2019-06-21 12:36:55:436
7.849868621826172,-0.9869945373535156,-0.1268907470703125,0.031979671133348625,-0.02970793230567299,-0.0053455718414127055,0.019968032836914062,2019-06-21 12:36:55:441
7.806773651123047,-1.0049507751464843,-0.11611700439453125,0.03331125167838825,-0.028775825924145258,-0.0046797815688928955,0.025023937225341797,2019-06-21 12:36:55:446
7.825926971435547,-0.9546733093261719,-0.0981607666015625,0.033044935569380325,-0.027577403433609596,-0.004546623514388934,0.030015945434570312,2019-06-21 12:36:55:451
7.81874447631836,-0.9343229064941406,-0.052671630859375,0.031047564751820897,-0.029308458142161105,-0.0022829365878215815,0.03500795364379883,2019-06-21 12:36:55:456
7.835503631591797,-0.9474908142089844,-0.056262878417968745,0.029449668097773354,-0.02797687759712149,-0.0002855657702621528,0.039999961853027344,2019-06-21 12:36:55:461
7.848671539306641,-0.9295345764160156,-0.0574599609375,0.029316510043269392,-0.02704477121559375,-0.0001524077157581909,0.04499197006225586,2019-06-21 12:36:55:466
7.809167816162109,-0.9379141540527344,-0.0023941650390625,0.027452297280213925,-0.028509509815137335,0.001711805047297276,0.049983978271484375,2019-06-21 12:36:55:471
7.807970733642578,-0.9187608337402343,-0.02992706298828125,0.026520190898686194,-0.028775825924145258,0.003975491973864628,0.05497598648071289,2019-06-21 12:36:55:476
7.821138641357422,-0.9067900085449219,-0.043094970703125,0.02518861035364657,-0.02797687759712149,0.0047744403008884,0.059967994689941406,2019-06-21 12:36:55:481
7.821138641357422,-0.936717071533203,-0.0359124755859375,0.023990187863110916,-0.029175300087657143,0.006638653063943867,0.06502389907836914,2019-06-21 12:36:55:486
7.798394073486328,-0.9726295471191406,-0.03471539306640625,0.021193868718527718,-0.02904214203315318,0.006771811118447829,0.07001590728759766,2019-06-21 12:36:55:491
7.815153228759765,-0.9774178771972656,-0.041897888183593746,0.02212597510005545,-0.027843719542617527,0.009301814154023105,0.07500791549682617,2019-06-21 12:36:55:496
7.81874447631836,-0.9953741149902343,-0.06823370361328125,0.019862288173488098,-0.02797687759712149,0.0103670785900548,0.07999992370605469,2019-06-21 12:36:55:501
7.840291961669922,-1.0061478576660157,-0.06703662109375,0.0187970237374564,-0.026512138997577903,0.011565501080590459,0.0849919319152832,2019-06-21 12:36:55:506
7.817547393798828,-1.0133303527832032,-0.07302203369140625,0.01866386568295244,-0.025846348725058095,0.011432343026086493,0.08998394012451172,2019-06-21 12:36:55:511
7.809167816162109,-1.0444544982910156,-0.061051208496093745,0.019063339846464324,-0.02544687456154621,0.01249760746211819,0.09497594833374023,2019-06-21 12:36:55:516
7.794802825927734,-1.0839582214355468,-0.09935784912109374,0.019862288173488098,-0.025047400398034325,0.012098133298606305,0.09996795654296875,2019-06-21 12:36:55:521
7.804379486083985,-1.1102940368652343,-0.1412557373046875,0.020261762336999983,-0.023848977907498663,0.012364449407614228,0.10502386093139648,2019-06-21 12:36:55:526
7.803182403564453,-1.1007173767089844,-0.0790074462890625,0.02079439455501583,-0.02344950374398678,0.014095504116165733,0.110015869140625,2019-06-21 12:36:55:531
7.803182403564453,-1.1210677795410156,-0.08499285888671874,0.021992817045551488,-0.023050029580474894,0.013429713843645925,0.11500787734985352,2019-06-21 12:36:55:536
7.768467010498047,-1.109096954345703,-0.0407008056640625,0.021726500936543564,-0.02344950374398678,0.012098133298606305,0.11999988555908203,2019-06-21 12:36:55:541
7.785226165771484,-1.1043086242675781,-0.09337243652343749,0.02212597510005545,-0.022916871525970932,0.011831817189598382,0.12499189376831055,2019-06-21 12:36:55:546
7.762481597900391,-1.0899436340332032,-0.07661328125,0.021992817045551488,-0.024381610125514517,0.011565501080590459,0.12998390197753906,2019-06-21 12:36:55:551
7.778043670654297,-1.0923377990722656,-0.06823370361328125,0.021726500936543564,-0.024248452071010555,0.010233920535550839,0.13497591018676758,2019-06-21 12:36:55:556
7.807970733642578,-1.1186736145019531,-0.03950372314453125,0.023058081481583184,-0.02451476818001848,0.010500236644558762,0.1399679183959961,2019-06-21 12:36:55:561
7.776846588134766,-1.1318415222167968,-0.041897888183593746,0.02359071369959903,-0.02344950374398678,0.009834446372038952,0.14502406120300293,2019-06-21 12:36:55:566
7.793605743408203,-1.1246590270996093,-0.0598541259765625,0.02425650397211884,-0.02358266179849074,0.00903549804501518,0.15001606941223145,2019-06-21 12:36:55:571
7.8019853210449215,-1.093534881591797,-0.02992706298828125,0.0243896620266228,-0.023848977907498663,0.009568130263031029,0.15500807762145996,2019-06-21 12:36:55:576
7.79001449584961,-1.128250274658203,-0.043094970703125,0.02345755564509507,-0.023316345689482817,0.009168656099519142,0.15999984741210938,2019-06-21 12:36:55:581
7.793605743408203,-1.1198706970214845,-0.033518310546875,0.024123345917614877,-0.02451476818001848,0.008103391663487447,0.1649918556213379,2019-06-21 12:36:55:586
7.785226165771484,-1.1378269348144532,-0.032321228027343746,0.024789136190134686,-0.025846348725058095,0.008636023881503295,0.1699838638305664,2019-06-21 12:36:55:591
7.791211578369141,-1.1486006774902344,-0.032321228027343746,0.02625387478967827,-0.024248452071010555,0.008902339990511219,0.17497587203979492,2019-06-21 12:36:55:596
7.811561981201172,-1.171345245361328,-0.0359124755859375,0.026520190898686194,-0.024115294016506587,0.007038127227455752,0.17996788024902344,2019-06-21 12:36:55:601
7.778043670654297,-1.1665569152832032,-0.071824951171875,0.026653348953190156,-0.02451476818001848,0.006372336954935942,0.18502402305603027,2019-06-21 12:36:55:606
7.754102020263672,-1.1581773376464843,-0.02872998046875,0.027585455334717887,-0.024381610125514517,0.0051739144644002855,0.1900160312652588,2019-06-21 12:36:55:611
7.756496185302734,-1.1881044006347656,-0.04429205322265625,0.02771861338922185,-0.023982135962002625,0.0051739144644002855,0.1950080394744873,2019-06-21 12:36:55:616
7.76128451538086,-1.1677539978027343,-0.02274456787109375,0.02705282311670204,-0.025180558452538287,0.0047744403008884,0.20000004768371582,2019-06-21 12:36:55:621
7.767269927978515,-1.2000752258300782,-0.0574599609375,0.02572124257166242,-0.024248452071010555,0.0034428597558487806,0.20499205589294434,2019-06-21 12:36:55:626
7.751707855224609,-1.204863555908203,-0.04788330078125,0.028118087552733734,-0.023982135962002625,0.0021112792108091616,0.20998406410217285,2019-06-21 12:36:55:631
7.74332827758789,-1.2276081237792968,-0.02035040283203125,0.028917035879757504,-0.02611266483406602,0.0005133825567616186,0.21497607231140137,2019-06-21 12:36:55:636
7.745722442626953,-1.2431701965332032,-0.0263358154296875,0.03038177447930109,-0.02624582288856998,-0.0009513560427819623,0.21996808052062988,2019-06-21 12:36:55:641
7.770861175537109,-1.233593536376953,-0.037109558105468746,0.0317133550243407,-0.026645297052081865,-0.0025492526968295052,0.22502398490905762,2019-06-21 12:36:55:646
7.775649505615235,-1.238381866455078,-0.10175201416015625,0.0317133550243407,-0.027710561488113558,-0.0046797815688928955,0.23001599311828613,2019-06-21 12:36:55:651
7.763678680419922,-1.2611264343261719,-0.08978118896484374,0.03251230335136447,-0.02717792927009771,-0.006810310440956286,0.23500800132751465,2019-06-21 12:36:55:656
7.7588903503417965,-1.2647176818847656,-0.07541619873046874,0.03450967416892391,-0.027577403433609596,-0.008408207095003829,0.24000000953674316,2019-06-21 12:36:55:661
7.732554534912109,-1.2766885070800782,-0.07062786865234374,0.03517546444144371,-0.02717792927009771,-0.009606629585539485,0.24499201774597168,2019-06-21 12:36:55:666
7.738539947509765,-1.2575351867675781,-0.08259869384765625,0.03743915136801107,-0.026911613161089788,-0.011604000403098915,0.2499840259552002,2019-06-21 12:36:55:671
7.77205825805664,-1.2228197937011718,-0.0359124755859375,0.0383712577495388,-0.026778455106585827,-0.012802422893634572,0.2549760341644287,2019-06-21 12:36:55:676
7.7876203308105465,-1.2204256286621094,-0.02753289794921875,0.037971783586026917,-0.02704477121559375,-0.014267161493178153,0.2599680423736572,2019-06-21 12:36:55:681
7.786423248291015,-1.1952868957519531,0.02274456787109375,0.03783862553152295,-0.02811003565162545,-0.01599821620172966,0.26502394676208496,2019-06-21 12:36:55:686
7.745722442626953,-1.2024693908691406,0.023941650390625,0.03743915136801107,-0.029175300087657143,-0.017729270910281165,0.2700159549713135,2019-06-21 12:36:55:691
7.757693267822265,-1.204863555908203,0.0167591552734375,0.0383712577495388,-0.02811003565162545,-0.01892769340081682,0.275007963180542,2019-06-21 12:36:55:696
7.749313690185547,-1.1869073181152343,-0.00957666015625,0.03917020607656257,-0.02970793230567299,-0.01906085145532078,0.2799999713897705,2019-06-21 12:36:55:701
7.78163491821289,-1.204863555908203,-0.01795623779296875,0.040768102730610115,-0.030373722578192798,-0.021457696436392098,0.284991979598999,2019-06-21 12:36:55:706
7.775649505615235,-1.1797248229980468,-0.051474548339843745,0.041167576894122,-0.031172670905216568,-0.022123486708911906,0.28998398780822754,2019-06-21 12:36:55:711
7.7732553405761715,-1.2156372985839843,-0.06464245605468749,0.04010231245809031,-0.029974248414680913,-0.022656118926927753,0.29497599601745605,2019-06-21 12:36:55:716
7.75290493774414,-1.232396453857422,-0.07781036376953125,0.0383712577495388,-0.030373722578192798,-0.0242540155809753,0.29996800422668457,2019-06-21 12:36:55:721
7.755299102783203,-1.2599293518066406,-0.04429205322265625,0.04010231245809031,-0.030373722578192798,-0.025452438071510954,0.3050239086151123,2019-06-21 12:36:55:726
7.768467010498047,-1.2515497741699217,-0.04908038330078125,0.04209968327564973,-0.03050688063269676,-0.026517702507542647,0.3100159168243408,2019-06-21 12:36:55:731
7.75290493774414,-1.2563381042480468,-0.03471539306640625,0.0428986316026735,-0.030107406469184875,-0.029180863597621887,0.31500792503356934,2019-06-21 12:36:55:736
7.780437835693359,-1.2311993713378906,-0.03950372314453125,0.04489600242023293,-0.03050688063269676,-0.030778760251669427,0.31999993324279785,2019-06-21 12:36:55:741
7.749313690185547,-1.262323516845703,-0.0502774658203125,0.045961266856264636,-0.028376351760633373,-0.03131139246968528,0.32499194145202637,2019-06-21 12:36:55:746
7.7588903503417965,-1.2647176818847656,-0.06823370361328125,0.04542863463824879,-0.02811003565162545,-0.03237665690571697,0.3299839496612549,2019-06-21 12:36:55:751
7.756496185302734,-1.2575351867675781,-0.05386871337890625,0.04662705712878444,-0.029175300087657143,-0.03304244717823678,0.3349759578704834,2019-06-21 12:36:55:756
7.775649505615235,-1.2359877014160157,-0.0359124755859375,0.048491269891839904,-0.02970793230567299,-0.03490665994129225,0.3399679660797119,2019-06-21 12:36:55:761
7.775649505615235,-1.1952868957519531,-0.02035040283203125,0.04729284740130425,-0.029308458142161105,-0.03730350492236356,0.34502387046813965,2019-06-21 12:36:55:766
7.7588903503417965,-1.171345245361328,-0.0454891357421875,0.04715968934680029,-0.029974248414680913,-0.037569821031371485,0.35001587867736816,2019-06-21 12:36:55:771
7.788817413330078,-1.1677539978027343,-0.004788330078125,0.04529547658374482,-0.03064003868720072,-0.03743666297686753,0.3550078868865967,2019-06-21 12:36:55:776
7.791211578369141,-1.171345245361328,-0.00359124755859375,0.04556179269275275,-0.028509509815137335,-0.03890140157641111,0.3599998950958252,2019-06-21 12:36:55:781
7.75290493774414,-1.1653598327636718,-0.07302203369140625,0.04529547658374482,-0.02811003565162545,-0.039434033794426955,0.3649919033050537,2019-06-21 12:36:55:786
7.775649505615235,-1.1521919250488282,-0.07661328125,0.045029160474736894,-0.028642667869641297,-0.0399666660124428,0.3699839115142822,2019-06-21 12:36:55:791
7.764875762939453,-1.1689510803222656,-0.06703662109375,0.044230212147713124,-0.030240564523688836,-0.03876824352190714,0.37497591972351074,2019-06-21 12:36:55:796
7.756496185302734,-1.1390240173339843,-0.09337243652343749,0.0428986316026735,-0.03130582895972053,-0.038635085467403185,0.3800320625305176,2019-06-21 12:36:55:801
7.767269927978515,-1.1629656677246094,-0.06703662109375,0.04316494771168143,-0.030373722578192798,-0.03876824352190714,0.3850240707397461,2019-06-21 12:36:55:806
7.785226165771484,-1.1486006774902344,-0.0694307861328125,0.0428986316026735,-0.030107406469184875,-0.038635085467403185,0.3900160789489746,2019-06-21 12:36:55:811
7.7876203308105465,-1.156980255126953,-0.0885841064453125,0.04183336716664181,-0.029974248414680913,-0.03956719184893091,0.395007848739624,2019-06-21 12:36:55:816
7.780437835693359,-1.1821189880371092,-0.062248291015625,0.04130073494862596,-0.028642667869641297,-0.040232982121450725,0.39999985694885254,2019-06-21 12:36:55:821
7.793605743408203,-1.1689510803222656,-0.07062786865234374,0.041433893003129926,-0.02717792927009771,-0.04036614017595468,0.40499186515808105,2019-06-21 12:36:55:826
7.809167816162109,-1.1593744201660157,-0.04908038330078125,0.042232841330153696,-0.027444245379105635,-0.040232982121450725,0.40998387336730957,2019-06-21 12:36:55:831
7.774452423095703,-1.1629656677246094,-0.05386871337890625,0.041433893003129926,-0.027577403433609596,-0.040632456284962606,0.4149758815765381,2019-06-21 12:36:55:836
7.8019853210449215,-1.1833160705566406,-0.07661328125,0.038903889967554645,-0.02717792927009771,-0.04049929823045865,0.4199678897857666,2019-06-21 12:36:55:841
7.805576568603516,-1.171345245361328,-0.08259869384765625,0.03770546747701899,-0.027577403433609596,-0.04049929823045865,0.42502403259277344,2019-06-21 12:36:55:846
7.8019853210449215,-1.1641627502441405,-0.06703662109375,0.03703967720449918,-0.02704477121559375,-0.040232982121450725,0.43001604080200195,2019-06-21 12:36:55:851
7.799591156005859,-1.1605715026855468,-0.06583953857421875,0.03703967720449918,-0.02624582288856998,-0.041031930448474495,0.43500804901123047,2019-06-21 12:36:55:856
7.812759063720703,-1.1533890075683593,-0.02274456787109375,0.038104941640530875,-0.02624582288856998,-0.04169772072099431,0.4400639533996582,2019-06-21 12:36:55:861
7.812759063720703,-1.1402210998535156,-0.038306640625,0.03677336109549126,-0.025979506779562057,-0.04223035293901015,0.4449920654296875,2019-06-21 12:36:55:866
7.805576568603516,-1.1509948425292968,-0.08259869384765625,0.03517546444144371,-0.02464792623452244,-0.04143140461198638,0.449984073638916,2019-06-21 12:36:55:871
7.81036489868164,-1.1581773376464843,-0.100554931640625,0.03291177751487637,-0.02464792623452244,-0.04116508850297846,0.45497608184814453,2019-06-21 12:36:55:876
7.762481597900391,-1.1581773376464843,-0.0407008056640625,0.03264546140586844,-0.02464792623452244,-0.04049929823045865,0.45996785163879395,2019-06-21 12:36:55:881
7.775649505615235,-1.1390240173339843,-0.02274456787109375,0.03317809362388429,-0.025979506779562057,-0.039434033794426955,0.4650239944458008,2019-06-21 12:36:55:886
7.811561981201172,-1.1306444396972657,-0.04908038330078125,0.03331125167838825,-0.025580032616050172,-0.03930087573992299,0.4700160026550293,2019-06-21 12:36:55:891
7.803182403564453,-1.1533890075683593,-0.04908038330078125,0.031047564751820897,-0.025979506779562057,-0.040232982121450725,0.4750080108642578,2019-06-21 12:36:55:896
7.794802825927734,-1.1438123474121094,-0.046686218261718745,0.030781248642812974,-0.02704477121559375,-0.039434033794426955,0.48000001907348633,2019-06-21 12:36:55:901
7.7732553405761715,-1.1581773376464843,-0.02513873291015625,0.031580196969836744,-0.02611266483406602,-0.03890140157641111,0.48499202728271484,2019-06-21 12:36:55:906
7.799591156005859,-1.1533890075683593,-0.0407008056640625,0.030914406697316935,-0.026512138997577903,-0.03956719184893091,0.48998403549194336,2019-06-21 12:36:55:911
7.799591156005859,-1.1521919250488282,-0.06464245605468749,0.030781248642812974,-0.026512138997577903,-0.03903455963091507,0.4949760437011719,2019-06-21 12:36:55:916
7.795999908447265,-1.171345245361328,-0.062248291015625,0.030648090588309012,-0.025047400398034325,-0.03916771768541903,0.4999680519104004,2019-06-21 12:36:55:921
7.795999908447265,-1.1665569152832032,-0.0598541259765625,0.029050193934261465,-0.02464792623452244,-0.03876824352190714,0.5050239562988281,2019-06-21 12:36:55:926
7.775649505615235,-1.1521919250488282,-0.08259869384765625,0.029050193934261465,-0.025580032616050172,-0.04009982406694676,0.5100159645080566,2019-06-21 12:36:55:931
7.798394073486328,-1.1869073181152343,-0.08259869384765625,0.02771861338922185,-0.024381610125514517,-0.03930087573992299,0.5150079727172852,2019-06-21 12:36:55:936
7.807970733642578,-1.2096518859863281,-0.06464245605468749,0.028384403661741657,-0.02344950374398678,-0.039833507957938837,0.5199999809265137,2019-06-21 12:36:55:941
7.80078823852539,-1.2060606384277344,-0.08020452880859374,0.028251245607237695,-0.023848977907498663,-0.04076561433946657,0.5249919891357422,2019-06-21 12:36:55:946
7.767269927978515,-1.185710235595703,-0.0981607666015625,0.028118087552733734,-0.023316345689482817,-0.04009982406694676,0.5299839973449707,2019-06-21 12:36:55:951
7.750510772705078,-1.1545860900878906,-0.04908038330078125,0.02918335198876543,-0.023050029580474894,-0.03956719184893091,0.5349760055541992,2019-06-21 12:36:55:956
7.767269927978515,-1.176133575439453,-0.0311241455078125,0.028118087552733734,-0.02358266179849074,-0.04076561433946657,0.5399680137634277,2019-06-21 12:36:55:961
7.768467010498047,-1.1749364929199217,-0.0215474853515625,0.026786507007694117,-0.023183187634978855,-0.04169772072099431,0.5450239181518555,2019-06-21 12:36:55:966
7.791211578369141,-1.189301483154297,-0.0311241455078125,0.025987558680670344,-0.023316345689482817,-0.04129824655748242,0.550015926361084,2019-06-21 12:36:55:971
7.770861175537109,-1.1581773376464843,0.0023941650390625,0.027185981171206002,-0.02544687456154621,-0.04169772072099431,0.5550079345703125,2019-06-21 12:36:55:976
7.804379486083985,-1.1509948425292968,-0.0167591552734375,0.02851756171624562,-0.025047400398034325,-0.04129824655748242,0.559999942779541,2019-06-21 12:36:55:981
7.778043670654297,-1.1462065124511718,-0.033518310546875,0.02691966506219808,-0.026778455106585827,-0.04169772072099431,0.5649919509887695,2019-06-21 12:36:55:986
7.764875762939453,-1.171345245361328,-0.03471539306640625,0.027185981171206002,-0.024115294016506587,-0.042762985157026,0.569983959197998,2019-06-21 12:36:55:991
7.794802825927734,-1.189301483154297,-0.02274456787109375,0.02705282311670204,-0.023848977907498663,-0.04262982710252204,0.5749759674072266,2019-06-21 12:36:55:996
7.762481597900391,-1.1976810607910156,-0.03950372314453125,0.026520190898686194,-0.024914242343530364,-0.043695091538553735,0.5799679756164551,2019-06-21 12:36:56:001
7.785226165771484,-1.224016876220703,-0.07781036376953125,0.027185981171206002,-0.025580032616050172,-0.044094565702065616,0.5850238800048828,2019-06-21 12:36:56:006
7.766072845458984,-1.2252139587402344,-0.08499285888671874,0.029316510043269392,-0.024381610125514517,-0.04476035597458543,0.5900158882141113,2019-06-21 12:36:56:011
7.767269927978515,-1.1869073181152343,-0.037109558105468746,0.029849142261285242,-0.025713190670554133,-0.04569246235611316,0.5950078964233398,2019-06-21 12:36:56:016
7.767269927978515,-1.2060606384277344,-0.00837957763671875,0.029849142261285242,-0.025846348725058095,-0.04649141068313693,0.5999999046325684,2019-06-21 12:36:56:021
7.79001449584961,-1.2096518859863281,-0.062248291015625,0.028917035879757504,-0.02531371650704225,-0.04662456873764089,0.6049919128417969,2019-06-21 12:36:56:026
7.755299102783203,-1.2060606384277344,-0.062248291015625,0.027452297280213925,-0.026911613161089788,-0.04795614928268052,0.6099839210510254,2019-06-21 12:36:56:031
7.750510772705078,-1.2060606384277344,-0.033518310546875,0.028251245607237695,-0.02704477121559375,-0.047423517064664675,0.6149759292602539,2019-06-21 12:36:56:036
7.766072845458984,-1.1821189880371092,-0.0454891357421875,0.030781248642812974,-0.02637898094307394,-0.046757726792144856,0.6200320720672607,2019-06-21 12:36:56:041
7.7588903503417965,-1.1952868957519531,-0.00957666015625,0.031979671133348625,-0.027311087324601673,-0.0483556234461924,0.6250240802764893,2019-06-21 12:36:56:046
7.784029083251953,-1.1988781433105469,-0.00598541259765625,0.03211282918785259,-0.02624582288856998,-0.051018784536271636,0.6300158500671387,2019-06-21 12:36:56:051
7.774452423095703,-1.2012723083496093,-0.0167591552734375,0.031580196969836744,-0.024914242343530364,-0.05048615231825579,0.6350078582763672,2019-06-21 12:36:56:056
7.766072845458984,-1.2204256286621094,-0.038306640625,0.033044935569380325,-0.02637898094307394,-0.051418258699783524,0.6399998664855957,2019-06-21 12:36:56:061
7.77205825805664,-1.2096518859863281,-0.03471539306640625,0.031979671133348625,-0.026911613161089788,-0.05235036508131126,0.6449918746948242,2019-06-21 12:36:56:066
7.799591156005859,-1.203666473388672,-0.046686218261718745,0.03237914529686051,-0.026645297052081865,-0.05341562951734295,0.6499838829040527,2019-06-21 12:36:56:071
7.794802825927734,-1.2096518859863281,-0.02035040283203125,0.03291177751487637,-0.02624582288856998,-0.05248352313581522,0.6549758911132812,2019-06-21 12:36:56:076
7.774452423095703,-1.2096518859863281,-0.037109558105468746,0.03371072584190014,-0.027710561488113558,-0.052882997299327106,0.6599678993225098,2019-06-21 12:36:56:081
7.776846588134766,-1.1689510803222656,-0.023941650390625,0.033843883896404095,-0.02811003565162545,-0.05421457784436672,0.6650240421295166,2019-06-21 12:36:56:086
7.766072845458984,-1.1833160705566406,-0.02992706298828125,0.03331125167838825,-0.028376351760633373,-0.05448089395337465,0.6700160503387451,2019-06-21 12:36:56:091
7.805576568603516,-1.1749364929199217,-0.06703662109375,0.033843883896404095,-0.027710561488113558,-0.055146684225894464,0.6750080585479736,2019-06-21 12:36:56:096
7.778043670654297,-1.1785277404785155,-0.08379577636718749,0.03490914833243579,-0.027843719542617527,-0.054747210062382576,0.6800000667572021,2019-06-21 12:36:56:101
7.740934112548828,-1.1964839782714844,-0.062248291015625,0.03570809665945956,-0.02704477121559375,-0.05527984228039842,0.6849920749664307,2019-06-21 12:36:56:106
7.774452423095703,-1.2144402160644532,-0.041897888183593746,0.03703967720449918,-0.02811003565162545,-0.05581247449841427,0.6899838447570801,2019-06-21 12:36:56:111
7.755299102783203,-1.1881044006347656,-0.08379577636718749,0.03690651914999522,-0.028376351760633373,-0.05581247449841427,0.6949758529663086,2019-06-21 12:36:56:116
7.775649505615235,-1.1952868957519531,-0.10175201416015625,0.0366402030409873,-0.025979506779562057,-0.055546158389406346,0.6999678611755371,2019-06-21 12:36:56:121
7.770861175537109,-1.1785277404785155,-0.06464245605468749,0.03677336109549126,-0.027311087324601673,-0.05661142282543804,0.705024003982544,2019-06-21 12:36:56:126
7.7732553405761715,-1.1988781433105469,-0.033518310546875,0.0366402030409873,-0.026911613161089788,-0.05727721309795785,0.7100160121917725,2019-06-21 12:36:56:131
7.784029083251953,-1.2060606384277344,-0.06583953857421875,0.03783862553152295,-0.026512138997577903,-0.057144055043453885,0.715008020401001,2019-06-21 12:36:56:136
7.779240753173828,-1.189301483154297,-0.06823370361328125,0.03770546747701899,-0.027444245379105635,-0.0578098453159737,0.7200000286102295,2019-06-21 12:36:56:141
7.77205825805664,-1.1821189880371092,-0.014364990234375,0.03917020607656257,-0.026911613161089788,-0.05940774197002124,0.724992036819458,2019-06-21 12:36:56:146
7.793605743408203,-1.1521919250488282,-0.014364990234375,0.038770731913050686,-0.026645297052081865,-0.05940774197002124,0.7299840450286865,2019-06-21 12:36:56:151
7.803182403564453,-1.1545860900878906,-0.02274456787109375,0.038770731913050686,-0.02624582288856998,-0.05860879364299747,0.734976053237915,2019-06-21 12:36:56:156
7.791211578369141,-1.1533890075683593,-0.02753289794921875,0.038903889967554645,-0.02717792927009771,-0.058342477533989544,0.7399680614471436,2019-06-21 12:36:56:161
7.7732553405761715,-1.170148162841797,-0.032321228027343746,0.0383712577495388,-0.02824319370612941,-0.05807616142498162,0.7450239658355713,2019-06-21 12:36:56:166
7.774452423095703,-1.1378269348144532,-0.046686218261718745,0.03770546747701899,-0.028642667869641297,-0.05927458391551728,0.7500159740447998,2019-06-21 12:36:56:171
7.774452423095703,-1.1306444396972657,-0.032321228027343746,0.03757230942251503,-0.027710561488113558,-0.059008267806509355,0.7550079822540283,2019-06-21 12:36:56:176
7.80078823852539,-1.1318415222167968,-0.0502774658203125,0.037971783586026917,-0.028376351760633373,-0.05940774197002124,0.7599999904632568,2019-06-21 12:36:56:181
7.797196990966797,-1.112688201904297,-0.06583953857421875,0.03770546747701899,-0.028642667869641297,-0.059008267806509355,0.7649919986724854,2019-06-21 12:36:56:186
7.794802825927734,-1.1186736145019531,-0.10175201416015625,0.037305993313507105,-0.027444245379105635,-0.05767668726146973,0.7699840068817139,2019-06-21 12:36:56:191
7.806773651123047,-1.1450094299316407,-0.08499285888671874,0.03757230942251503,-0.02811003565162545,-0.05727721309795785,0.7749760150909424,2019-06-21 12:36:56:196
7.797196990966797,-1.1402210998535156,-0.0574599609375,0.037971783586026917,-0.027843719542617527,-0.057943003370477655,0.7799680233001709,2019-06-21 12:36:56:201
7.793605743408203,-1.142615264892578,-0.0550657958984375,0.03783862553152295,-0.027577403433609596,-0.057543529206965774,0.7850239276885986,2019-06-21 12:36:56:206
7.780437835693359,-1.1737394104003906,-0.08499285888671874,0.0383712577495388,-0.026645297052081865,-0.05860879364299747,0.7900159358978271,2019-06-21 12:36:56:211
7.784029083251953,-1.1749364929199217,-0.0574599609375,0.03690651914999522,-0.02624582288856998,-0.05741037115246181,0.7950079441070557,2019-06-21 12:36:56:216
7.791211578369141,-1.1581773376464843,-0.041897888183593746,0.037305993313507105,-0.025580032616050172,-0.0578098453159737,0.7999999523162842,2019-06-21 12:36:56:221
7.785226165771484,-1.161768585205078,-0.061051208496093745,0.03823809969503484,-0.02624582288856998,-0.05927458391551728,0.8049919605255127,2019-06-21 12:36:56:226
7.780437835693359,-1.141418182373047,-0.08259869384765625,0.03757230942251503,-0.026645297052081865,-0.0595409000245252,0.8099839687347412,2019-06-21 12:36:56:231
7.78163491821289,-1.1354327697753905,-0.06583953857421875,0.038770731913050686,-0.025180558452538287,-0.05967405807902916,0.8149759769439697,2019-06-21 12:36:56:236
7.788817413330078,-1.1306444396972657,-0.02753289794921875,0.03823809969503484,-0.025979506779562057,-0.059807216133533125,0.8199679851531982,2019-06-21 12:36:56:241
7.8019853210449215,-1.141418182373047,-0.033518310546875,0.03637388693197938,-0.024914242343530364,-0.059940374188037084,0.825023889541626,2019-06-21 12:36:56:246
7.80078823852539,-1.1210677795410156,-0.038306640625,0.036507044986483335,-0.024914242343530364,-0.05887510975200539,0.8300158977508545,2019-06-21 12:36:56:251
7.769664093017578,-1.1294473571777344,-0.07421911621093749,0.03703967720449918,-0.025580032616050172,-0.05874195169750143,0.835007905960083,2019-06-21 12:36:56:256
7.804379486083985,-1.099520294189453,-0.06583953857421875,0.03770546747701899,-0.025713190670554133,-0.05940774197002124,0.8399999141693115,2019-06-21 12:36:56:261
7.809167816162109,-1.1031115417480468,-0.051474548339843745,0.03783862553152295,-0.025979506779562057,-0.059807216133533125,0.84499192237854,2019-06-21 12:36:56:266
7.791211578369141,-1.109096954345703,-0.04908038330078125,0.037305993313507105,-0.02531371650704225,-0.05927458391551728,0.8499839305877686,2019-06-21 12:36:56:271
7.7588903503417965,-1.099520294189453,-0.02753289794921875,0.03570809665945956,-0.025180558452538287,-0.05967405807902916,0.8549759387969971,2019-06-21 12:36:56:276
7.767269927978515,-1.0971261291503906,-0.023941650390625,0.03690651914999522,-0.02531371650704225,-0.05887510975200539,0.8600320816040039,2019-06-21 12:36:56:281
7.78163491821289,-1.094731964111328,-0.03471539306640625,0.03424335805991598,-0.026512138997577903,-0.05741037115246181,0.8650238513946533,2019-06-21 12:36:56:286
7.798394073486328,-1.0983232116699218,-0.03471539306640625,0.03317809362388429,-0.026512138997577903,-0.05647826477093408,0.8700158596038818,2019-06-21 12:36:56:291
7.8331094665527345,-1.099520294189453,-0.07302203369140625,0.03450967416892391,-0.02637898094307394,-0.05687773893444596,0.8750078678131104,2019-06-21 12:36:56:296
7.805576568603516,-1.1055057067871092,-0.02274456787109375,0.033843883896404095,-0.025846348725058095,-0.056345106716430116,0.8799998760223389,2019-06-21 12:36:56:301
7.794802825927734,-1.112688201904297,-0.01316790771484375,0.033044935569380325,-0.02464792623452244,-0.055945632552918234,0.8849918842315674,2019-06-21 12:36:56:306
7.78163491821289,-1.1007173767089844,-0.043094970703125,0.03437651611441994,-0.02704477121559375,-0.055146684225894464,0.8899838924407959,2019-06-21 12:36:56:311
7.8019853210449215,-1.0959290466308593,-0.0359124755859375,0.0327786194603724,-0.02704477121559375,-0.0550135261713905,0.8949759006500244,2019-06-21 12:36:56:316
7.785226165771484,-1.1150823669433594,-0.041897888183593746,0.03291177751487637,-0.025580032616050172,-0.0550135261713905,0.9000320434570312,2019-06-21 12:36:56:321
7.757693267822265,-1.127053192138672,-0.05865704345703125,0.033444409732892214,-0.025047400398034325,-0.05488036811688654,0.9050240516662598,2019-06-21 12:36:56:326
7.782832000732422,-1.1234619445800782,-0.07421911621093749,0.03371072584190014,-0.025846348725058095,-0.05261668119031918,0.9100160598754883,2019-06-21 12:36:56:331
7.799591156005859,-1.109096954345703,-0.043094970703125,0.0327786194603724,-0.024381610125514517,-0.05261668119031918,0.9150080680847168,2019-06-21 12:36:56:336
7.786423248291015,-1.0959290466308593,-0.02992706298828125,0.0327786194603724,-0.02451476818001848,-0.052882997299327106,0.9200000762939453,2019-06-21 12:36:56:341
7.803182403564453,-1.1067027893066406,-0.01795623779296875,0.03224598724235655,-0.025180558452538287,-0.05261668119031918,0.9249918460845947,2019-06-21 12:36:56:346
7.794802825927734,-1.1031115417480468,-0.02274456787109375,0.031580196969836744,-0.025713190670554133,-0.05235036508131126,0.9299838542938232,2019-06-21 12:36:56:351
7.798394073486328,-1.0983232116699218,-0.0263358154296875,0.03211282918785259,-0.02717792927009771,-0.052217207026807294,0.9349758625030518,2019-06-21 12:36:56:356
7.794802825927734,-1.0875494689941405,-0.01316790771484375,0.03144703891533278,-0.02637898094307394,-0.05181773286329541,0.9399678707122803,2019-06-21 12:36:56:361
7.799591156005859,-1.1007173767089844,-0.0502774658203125,0.03118072280632486,-0.02637898094307394,-0.05048615231825579,0.9450240135192871,2019-06-21 12:36:56:366
7.8019853210449215,-1.112688201904297,-0.03950372314453125,0.031047564751820897,-0.02717792927009771,-0.050219836209247866,0.9500160217285156,2019-06-21 12:36:56:371
7.784029083251953,-1.1102940368652343,-0.032321228027343746,0.03038177447930109,-0.02611266483406602,-0.04888825566420825,0.9550080299377441,2019-06-21 12:36:56:376
7.806773651123047,-1.128250274658203,-0.032321228027343746,0.031047564751820897,-0.02637898094307394,-0.04848878150069637,0.9600000381469727,2019-06-21 12:36:56:381
7.825926971435547,-1.079169891357422,-0.04429205322265625,0.03038177447930109,-0.025979506779562057,-0.04888825566420825,0.9649920463562012,2019-06-21 12:36:56:386
7.8019853210449215,-1.0875494689941405,-0.0454891357421875,0.030248616424797127,-0.025047400398034325,-0.04795614928268052,0.9699840545654297,2019-06-21 12:36:56:391
7.774452423095703,-1.1031115417480468,-0.01077374267578125,0.03051493253380505,-0.026512138997577903,-0.04649141068313693,0.9749760627746582,2019-06-21 12:36:56:396
7.77205825805664,-1.1102940368652343,-0.0598541259765625,0.03051493253380505,-0.025846348725058095,-0.04649141068313693,0.9799680709838867,2019-06-21 12:36:56:401
7.804379486083985,-1.0983232116699218,-0.09337243652343749,0.030648090588309012,-0.02637898094307394,-0.04702404290115278,0.9850239753723145,2019-06-21 12:36:56:406
7.8019853210449215,-1.1258561096191406,-0.02753289794921875,0.03051493253380505,-0.02611266483406602,-0.04729035901016071,0.990015983581543,2019-06-21 12:36:56:411
7.79001449584961,-1.1234619445800782,-0.043094970703125,0.03144703891533278,-0.02624582288856998,-0.047423517064664675,0.9950079917907715,2019-06-21 12:36:56:416
7.776846588134766,-1.1186736145019531,-0.0454891357421875,0.030781248642812974,-0.024115294016506587,-0.045958778465121086,1.0,2019-06-21 12:36:56:421
7.785226165771484,-1.1390240173339843,-0.04908038330078125,0.030248616424797127,-0.024248452071010555,-0.04662456873764089,1.0049920082092285,2019-06-21 12:36:56:426
7.762481597900391,-1.1354327697753905,-0.0598541259765625,0.030115458370293165,-0.02611266483406602,-0.04702404290115278,1.009984016418457,2019-06-21 12:36:56:431
7.776846588134766,-1.127053192138672,-0.041897888183593746,0.031047564751820897,-0.026645297052081865,-0.04635825262863297,1.0149760246276855,2019-06-21 12:36:56:436
7.79001449584961,-1.1258561096191406,-0.041897888183593746,0.0317133550243407,-0.02717792927009771,-0.046091936519625044,1.019968032836914,2019-06-21 12:36:56:441
7.804379486083985,-1.1162794494628907,-0.071824951171875,0.031580196969836744,-0.028642667869641297,-0.04662456873764089,1.0250239372253418,2019-06-21 12:36:56:446
7.795999908447265,-1.1378269348144532,-0.043094970703125,0.03224598724235655,-0.026645297052081865,-0.04635825262863297,1.0300159454345703,2019-06-21 12:36:56:451
7.825926971435547,-1.1402210998535156,-0.0167591552734375,0.0327786194603724,-0.02624582288856998,-0.04622509457412901,1.0350079536437988,2019-06-21 12:36:56:456
7.782832000732422,-1.1402210998535156,-0.01795623779296875,0.03224598724235655,-0.025713190670554133,-0.046091936519625044,1.0399999618530273,2019-06-21 12:36:56:461
7.7732553405761715,-1.1031115417480468,-0.0311241455078125,0.033444409732892214,-0.026911613161089788,-0.046757726792144856,1.0449919700622559,2019-06-21 12:36:56:466
7.80078823852539,-1.1114911193847656,-0.05386871337890625,0.033843883896404095,-0.026778455106585827,-0.04582562041061712,1.0499839782714844,2019-06-21 12:36:56:471
7.817547393798828,-1.109096954345703,-0.056262878417968745,0.03424335805991598,-0.026645297052081865,-0.045159830138097316,1.054975986480713,2019-06-21 12:36:56:476
7.807970733642578,-1.0863523864746094,-0.061051208496093745,0.03371072584190014,-0.025979506779562057,-0.04396140764756166,1.0599679946899414,2019-06-21 12:36:56:481
7.799591156005859,-1.107899871826172,-0.07541619873046874,0.03371072584190014,-0.026778455106585827,-0.043695091538553735,1.0650238990783691,2019-06-21 12:36:56:486
7.7876203308105465,-1.107899871826172,-0.06344537353515625,0.03411020000541202,-0.02717792927009771,-0.04396140764756166,1.0700159072875977,2019-06-21 12:36:56:491
7.782832000732422,-1.107899871826172,-0.046686218261718745,0.03264546140586844,-0.02704477121559375,-0.04382824959305769,1.0750079154968262,2019-06-21 12:36:56:496
7.78163491821289,-1.0875494689941405,0.02513873291015625,0.03211282918785259,-0.027311087324601673,-0.043695091538553735,1.0799999237060547,2019-06-21 12:36:56:501
7.799591156005859,-1.0959290466308593,0.00957666015625,0.0317133550243407,-0.027710561488113558,-0.04316245932053789,1.0849919319152832,2019-06-21 12:36:56:506
7.80078823852539,-1.0875494689941405,-0.00598541259765625,0.031580196969836744,-0.027710561488113558,-0.04236351099351412,1.0899839401245117,2019-06-21 12:36:56:511
7.775649505615235,-1.1210677795410156,0.00359124755859375,0.03224598724235655,-0.02797687759712149,-0.042762985157026,1.0949759483337402,2019-06-21 12:36:56:516
7.766072845458984,-1.113885284423828,-0.02992706298828125,0.03331125167838825,-0.028376351760633373,-0.04316245932053789,1.100031852722168,2019-06-21 12:36:56:521
7.792408660888672,-1.1354327697753905,-0.04788330078125,0.033843883896404095,-0.02890898397864922,-0.043295617375041846,1.1050238609313965,2019-06-21 12:36:56:526
7.811561981201172,-1.1438123474121094,-0.0598541259765625,0.033843883896404095,-0.028775825924145258,-0.04356193348404977,1.110015869140625,2019-06-21 12:36:56:531
7.807970733642578,-1.170148162841797,-0.071824951171875,0.0327786194603724,-0.027843719542617527,-0.042896143211529965,1.1150078773498535,2019-06-21 12:36:56:536
7.764875762939453,-1.1653598327636718,-0.09337243652343749,0.034642832223427865,-0.02890898397864922,-0.042762985157026,1.119999885559082,2019-06-21 12:36:56:541
7.811561981201172,-1.1342356872558594,-0.10294909667968749,0.03504230638693975,-0.028509509815137335,-0.04236351099351412,1.1249918937683105,2019-06-21 12:36:56:546
7.841489044189453,-1.1198706970214845,-0.10893450927734374,0.03450967416892391,-0.027444245379105635,-0.042762985157026,1.129983901977539,2019-06-21 12:36:56:551
7.815153228759765,-1.1019144592285155,-0.1077374267578125,0.03584125471396352,-0.027710561488113558,-0.043695091538553735,1.1349759101867676,2019-06-21 12:36:56:556
7.799591156005859,-1.109096954345703,-0.09217535400390625,0.03637388693197938,-0.02611266483406602,-0.04302930126603392,1.139967918395996,2019-06-21 12:36:56:561
7.779240753173828,-1.1222648620605469,-0.06583953857421875,0.0366402030409873,-0.025979506779562057,-0.04316245932053789,1.145024061203003,2019-06-21 12:36:56:566
7.774452423095703,-1.109096954345703,-0.0790074462890625,0.036107570822971446,-0.02637898094307394,-0.04262982710252204,1.1500160694122314,2019-06-21 12:36:56:571
7.8163503112792965,-1.1354327697753905,-0.062248291015625,0.03624072887747541,-0.026512138997577903,-0.04302930126603392,1.15500807762146,2019-06-21 12:36:56:576
7.799591156005859,-1.1174765319824218,-0.051474548339843745,0.03717283525900315,-0.02637898094307394,-0.04262982710252204,1.1599998474121094,2019-06-21 12:36:56:581
7.788817413330078,-1.0743815612792968,-0.023941650390625,0.037305993313507105,-0.026778455106585827,-0.042496669048018076,1.164991855621338,2019-06-21 12:36:56:586
7.770861175537109,-1.0875494689941405,-0.02513873291015625,0.03517546444144371,-0.026911613161089788,-0.04169772072099431,1.1699838638305664,2019-06-21 12:36:56:591
7.791211578369141,-1.0911407165527343,-0.07661328125,0.03637388693197938,-0.025846348725058095,-0.04089877239397054,1.174975872039795,2019-06-21 12:36:56:596
7.788817413330078,-1.1007173767089844,-0.061051208496093745,0.03517546444144371,-0.02717792927009771,-0.04089877239397054,1.1800320148468018,2019-06-21 12:36:56:601
7.806773651123047,-1.1043086242675781,-0.02035040283203125,0.03517546444144371,-0.02717792927009771,-0.040632456284962606,1.1850240230560303,2019-06-21 12:36:56:606
7.803182403564453,-1.1186736145019531,-0.032321228027343746,0.036507044986483335,-0.02811003565162545,-0.039833507957938837,1.1900160312652588,2019-06-21 12:36:56:611
7.806773651123047,-1.128250274658203,-0.0454891357421875,0.036107570822971446,-0.027311087324601673,-0.03876824352190714,1.1950080394744873,2019-06-21 12:36:56:616
7.805576568603516,-1.080366973876953,-0.0454891357421875,0.03530862249594768,-0.025846348725058095,-0.03836876935839526,1.2000000476837158,2019-06-21 12:36:56:621
7.8019853210449215,-1.1067027893066406,-0.07302203369140625,0.03504230638693975,-0.025846348725058095,-0.03810245324938733,1.2049920558929443,2019-06-21 12:36:56:626
7.81874447631836,-1.1174765319824218,-0.0407008056640625,0.03597441276846748,-0.027311087324601673,-0.0371703468678596,1.2099840641021729,2019-06-21 12:36:56:631
7.8019853210449215,-1.1114911193847656,-0.02035040283203125,0.03637388693197938,-0.025713190670554133,-0.03783613714037941,1.2149760723114014,2019-06-21 12:36:56:636
7.794802825927734,-1.0983232116699218,-0.04429205322265625,0.03530862249594768,-0.02611266483406602,-0.03783613714037941,1.2199680805206299,2019-06-21 12:36:56:641
7.8163503112792965,-1.0983232116699218,0.0,0.03570809665945956,-0.025580032616050172,-0.03637139854083583,1.2250239849090576,2019-06-21 12:36:56:646
7.794802825927734,-1.0899436340332032,0.0119708251953125,0.0355749386049556,-0.025846348725058095,-0.03650455659533979,1.2300159931182861,2019-06-21 12:36:56:651
7.80078823852539,-1.1114911193847656,-0.04429205322265625,0.03490914833243579,-0.025979506779562057,-0.03663771464984375,1.2350080013275146,2019-06-21 12:36:56:656
7.817547393798828,-1.1114911193847656,-0.01795623779296875,0.03530862249594768,-0.026512138997577903,-0.0361050824318279,1.2400000095367432,2019-06-21 12:36:56:661
7.782832000732422,-1.1031115417480468,-0.038306640625,0.03517546444144371,-0.025180558452538287,-0.035172976050300175,1.2449920177459717,2019-06-21 12:36:56:666
7.769664093017578,-1.0983232116699218,-0.043094970703125,0.03490914833243579,-0.02611266483406602,-0.033441921341748664,1.2499840259552002,2019-06-21 12:36:56:671
7.768467010498047,-1.1318415222167968,-0.01316790771484375,0.0355749386049556,-0.02717792927009771,-0.034107711614268475,1.2549760341644287,2019-06-21 12:36:56:676
7.807970733642578,-1.1019144592285155,-0.0359124755859375,0.03357756778739617,-0.025846348725058095,-0.03397455355976452,1.2599680423736572,2019-06-21 12:36:56:681
7.81874447631836,-1.1258561096191406,-0.04788330078125,0.03317809362388429,-0.025180558452538287,-0.03357507939625263,1.265023946762085,2019-06-21 12:36:56:686
7.815153228759765,-1.1438123474121094,-0.041897888183593746,0.03317809362388429,-0.02451476818001848,-0.033308763287244705,1.2700159549713135,2019-06-21 12:36:56:691
7.821138641357422,-1.1234619445800782,0.0,0.03504230638693975,-0.025979506779562057,-0.03384139550526055,1.275007963180542,2019-06-21 12:36:56:696
7.776846588134766,-1.1222648620605469,-0.05386871337890625,0.034642832223427865,-0.026645297052081865,-0.031844024687701124,1.2799999713897705,2019-06-21 12:36:56:701
7.793605743408203,-1.1007173767089844,-0.02872998046875,0.03477599027793183,-0.028376351760633373,-0.03237665690571697,1.284991979598999,2019-06-21 12:36:56:706
7.792408660888672,-1.1366298522949219,-0.04788330078125,0.03477599027793183,-0.027577403433609596,-0.03357507939625263,1.2899839878082275,2019-06-21 12:36:56:711
7.797196990966797,-1.142615264892578,-0.0981607666015625,0.03517546444144371,-0.02717792927009771,-0.03290928912373282,1.294975996017456,2019-06-21 12:36:56:716
7.788817413330078,-1.142615264892578,-0.09696368408203125,0.03437651611441994,-0.026778455106585827,-0.03317560523274074,1.2999680042266846,2019-06-21 12:36:56:721
7.795999908447265,-1.156980255126953,-0.051474548339843745,0.033444409732892214,-0.027577403433609596,-0.032509814960220935,1.3050239086151123,2019-06-21 12:36:56:726
7.80078823852539,-1.1581773376464843,-0.03950372314453125,0.03517546444144371,-0.027444245379105635,-0.03224349885121301,1.3100159168243408,2019-06-21 12:36:56:731
7.786423248291015,-1.142615264892578,-0.041897888183593746,0.03584125471396352,-0.025713190670554133,-0.03211034079670905,1.3150079250335693,2019-06-21 12:36:56:736
7.792408660888672,-1.1067027893066406,-0.0574599609375,0.03477599027793183,-0.02531371650704225,-0.03277613106922886,1.3199999332427979,2019-06-21 12:36:56:741
7.799591156005859,-1.112688201904297,-0.0454891357421875,0.03517546444144371,-0.025580032616050172,-0.032509814960220935,1.3249919414520264,2019-06-21 12:36:56:746
7.7876203308105465,-1.1545860900878906,-0.0359124755859375,0.03584125471396352,-0.02717792927009771,-0.03197718274220509,1.3299839496612549,2019-06-21 12:36:56:751
7.81874447631836,-1.1462065124511718,-0.056262878417968745,0.03743915136801107,-0.026778455106585827,-0.031710866633197166,1.3349759578704834,2019-06-21 12:36:56:756
7.77205825805664,-1.1581773376464843,-0.037109558105468746,0.036107570822971446,-0.027577403433609596,-0.032509814960220935,1.339967966079712,2019-06-21 12:36:56:761
7.78163491821289,-1.147403594970703,-0.02274456787109375,0.03570809665945956,-0.02717792927009771,-0.032509814960220935,1.3450238704681396,2019-06-21 12:36:56:766
7.807970733642578,-1.1605715026855468,-0.00957666015625,0.03637388693197938,-0.027311087324601673,-0.03277613106922886,1.3500158786773682,2019-06-21 12:36:56:771
7.799591156005859,-1.1809219055175781,-0.0359124755859375,0.03690651914999522,-0.029175300087657143,-0.03290928912373282,1.3550078868865967,2019-06-21 12:36:56:776
7.794802825927734,-1.1629656677246094,-0.0574599609375,0.03703967720449918,-0.029574774251169028,-0.03237665690571697,1.3599998950958252,2019-06-21 12:36:56:781
7.778043670654297,-1.1928927307128907,-0.06344537353515625,0.037305993313507105,-0.02797687759712149,-0.03384139550526055,1.3649919033050537,2019-06-21 12:36:56:786
7.807970733642578,-1.1653598327636718,-0.037109558105468746,0.03850441580404276,-0.02704477121559375,-0.034107711614268475,1.3699839115142822,2019-06-21 12:36:56:791
7.77205825805664,-1.170148162841797,-0.0311241455078125,0.03717283525900315,-0.027311087324601673,-0.035172976050300175,1.3749759197235107,2019-06-21 12:36:56:796
7.756496185302734,-1.1785277404785155,-0.046686218261718745,0.03850441580404276,-0.027577403433609596,-0.03424086966877244,1.3799679279327393,2019-06-21 12:36:56:801
7.762481597900391,-1.1593744201660157,-0.07062786865234374,0.03850441580404276,-0.027577403433609596,-0.03490665994129225,1.385024070739746,2019-06-21 12:36:56:806
7.746919525146485,-1.1677539978027343,-0.02872998046875,0.03743915136801107,-0.026911613161089788,-0.03490665994129225,1.3900160789489746,2019-06-21 12:36:56:811
7.799591156005859,-1.1486006774902344,-0.038306640625,0.03770546747701899,-0.026778455106585827,-0.03650455659533979,1.395007848739624,2019-06-21 12:36:56:816
7.792408660888672,-1.1629656677246094,-0.0454891357421875,0.038770731913050686,-0.02717792927009771,-0.03650455659533979,1.3999998569488525,2019-06-21 12:36:56:821
7.805576568603516,-1.1438123474121094,-0.071824951171875,0.039969154403586345,-0.027843719542617527,-0.03623824048633187,1.404991865158081,2019-06-21 12:36:56:826
7.7876203308105465,-1.1258561096191406,-0.0359124755859375,0.03930336413106653,-0.027311087324601673,-0.03623824048633187,1.4099838733673096,2019-06-21 12:36:56:831
7.806773651123047,-1.1378269348144532,-0.0359124755859375,0.03743915136801107,-0.02717792927009771,-0.03503981799579621,1.414975881576538,2019-06-21 12:36:56:836
7.780437835693359,-1.1521919250488282,-0.033518310546875,0.03770546747701899,-0.02624582288856998,-0.03424086966877244,1.4199678897857666,2019-06-21 12:36:56:841
7.785226165771484,-1.141418182373047,-0.06703662109375,0.038903889967554645,-0.02611266483406602,-0.03424086966877244,1.4250240325927734,2019-06-21 12:36:56:846
7.778043670654297,-1.1677539978027343,-0.0694307861328125,0.03863757385854672,-0.026512138997577903,-0.033441921341748664,1.430016040802002,2019-06-21 12:36:56:851
7.766072845458984,-1.1150823669433594,-0.051474548339843745,0.03637388693197938,-0.027311087324601673,-0.03397455355976452,1.4350080490112305,2019-06-21 12:36:56:856
7.788817413330078,-1.1366298522949219,-0.0454891357421875,0.036507044986483335,-0.02717792927009771,-0.03477350188678829,1.440000057220459,2019-06-21 12:36:56:861
7.751707855224609,-1.1521919250488282,-0.08020452880859374,0.03677336109549126,-0.02811003565162545,-0.03503981799579621,1.4449920654296875,2019-06-21 12:36:56:866
7.817547393798828,-1.1845131530761719,-0.07781036376953125,0.03677336109549126,-0.027710561488113558,-0.0354392921593081,1.4500479698181152,2019-06-21 12:36:56:871
7.812759063720703,-1.156980255126953,-0.071824951171875,0.03743915136801107,-0.027710561488113558,-0.033308763287244705,1.4549760818481445,2019-06-21 12:36:56:876
7.79001449584961,-1.1725423278808593,-0.04429205322265625,0.037971783586026917,-0.02797687759712149,-0.03317560523274074,1.459967851638794,2019-06-21 12:36:56:881
7.7876203308105465,-1.1294473571777344,-0.0119708251953125,0.03757230942251503,-0.02704477121559375,-0.03424086966877244,1.4650239944458008,2019-06-21 12:36:56:886
7.792408660888672,-1.1521919250488282,-0.02035040283203125,0.036507044986483335,-0.02611266483406602,-0.0343740277232764,1.4700160026550293,2019-06-21 12:36:56:891
7.805576568603516,-1.1665569152832032,-0.033518310546875,0.03530862249594768,-0.025979506779562057,-0.03397455355976452,1.4750080108642578,2019-06-21 12:36:56:896
7.8019853210449215,-1.1509948425292968,-0.0311241455078125,0.0366402030409873,-0.02717792927009771,-0.03317560523274074,1.4800000190734863,2019-06-21 12:36:56:901
7.80078823852539,-1.1605715026855468,-0.02872998046875,0.03624072887747541,-0.028509509815137335,-0.03317560523274074,1.4849920272827148,2019-06-21 12:36:56:906
7.779240753173828,-1.155783172607422,-0.02035040283203125,0.03570809665945956,-0.02904214203315318,-0.034107711614268475,1.4899840354919434,2019-06-21 12:36:56:911
7.778043670654297,-1.1354327697753905,-0.0167591552734375,0.03570809665945956,-0.027710561488113558,-0.034107711614268475,1.4949760437011719,2019-06-21 12:36:56:916
7.786423248291015,-1.1366298522949219,-0.0598541259765625,0.03477599027793183,-0.02717792927009771,-0.03370823745075659,1.5000319480895996,2019-06-21 12:36:56:921
7.779240753173828,-1.1497977600097655,-0.0407008056640625,0.03411020000541202,-0.027710561488113558,-0.03277613106922886,1.5050239562988281,2019-06-21 12:36:56:926
7.794802825927734,-1.161768585205078,-0.08618994140625,0.03291177751487637,-0.027710561488113558,-0.031710866633197166,1.5100159645080566,2019-06-21 12:36:56:931
7.767269927978515,-1.1809219055175781,-0.090978271484375,0.03357756778739617,-0.026778455106585827,-0.03224349885121301,1.5150079727172852,2019-06-21 12:36:56:936
7.782832000732422,-1.1797248229980468,-0.10414617919921874,0.03317809362388429,-0.026645297052081865,-0.03277613106922886,1.5199999809265137,2019-06-21 12:36:56:941
7.770861175537109,-1.1677539978027343,-0.09337243652343749,0.033444409732892214,-0.026645297052081865,-0.03397455355976452,1.5249919891357422,2019-06-21 12:36:56:946
7.786423248291015,-1.1521919250488282,-0.08499285888671874,0.033843883896404095,-0.026911613161089788,-0.0343740277232764,1.5299839973449707,2019-06-21 12:36:56:951
7.79001449584961,-1.1677539978027343,-0.06344537353515625,0.03397704195090806,-0.025713190670554133,-0.0343740277232764,1.5349760055541992,2019-06-21 12:36:56:956
7.769664093017578,-1.141418182373047,-0.03471539306640625,0.03357756778739617,-0.02624582288856998,-0.03424086966877244,1.5399680137634277,2019-06-21 12:36:56:961
7.776846588134766,-1.1497977600097655,-0.03950372314453125,0.03411020000541202,-0.027577403433609596,-0.03370823745075659,1.5450239181518555,2019-06-21 12:36:56:966
7.776846588134766,-1.1581773376464843,-0.02992706298828125,0.03437651611441994,-0.028376351760633373,-0.03424086966877244,1.550015926361084,2019-06-21 12:36:56:971
7.7732553405761715,-1.1653598327636718,-0.0550657958984375,0.033843883896404095,-0.026911613161089788,-0.03384139550526055,1.5550079345703125,2019-06-21 12:36:56:976
7.766072845458984,-1.190498565673828,-0.0790074462890625,0.03237914529686051,-0.025979506779562057,-0.03357507939625263,1.559999942779541,2019-06-21 12:36:56:981
7.792408660888672,-1.189301483154297,-0.090978271484375,0.03357756778739617,-0.025846348725058095,-0.034107711614268475,1.5649919509887695,2019-06-21 12:36:56:986
7.81874447631836,-1.189301483154297,-0.081401611328125,0.03264546140586844,-0.026778455106585827,-0.03464034383228433,1.569983959197998,2019-06-21 12:36:56:991
7.79001449584961,-1.1940898132324218,-0.02992706298828125,0.03411020000541202,-0.026512138997577903,-0.03570560826831602,1.5749759674072266,2019-06-21 12:36:56:996
7.770861175537109,-1.1881044006347656,-0.061051208496093745,0.035441780550451635,-0.025846348725058095,-0.03650455659533979,1.579967975616455,2019-06-21 12:36:57:001
7.767269927978515,-1.189301483154297,-0.0694307861328125,0.0355749386049556,-0.025979506779562057,-0.03703718881335564,1.5850238800048828,2019-06-21 12:36:57:006
7.7876203308105465,-1.1881044006347656,-0.01795623779296875,0.03291177751487637,-0.026512138997577903,-0.0354392921593081,1.5900158882141113,2019-06-21 12:36:57:011
7.784029083251953,-1.1749364929199217,-0.046686218261718745,0.033044935569380325,-0.02637898094307394,-0.036770872704347715,1.5950078964233398,2019-06-21 12:36:57:016
7.791211578369141,-1.1581773376464843,-0.04429205322265625,0.03490914833243579,-0.026911613161089788,-0.0361050824318279,1.5999999046325684,2019-06-21 12:36:57:021
7.80078823852539,-1.155783172607422,-0.052671630859375,0.03411020000541202,-0.027843719542617527,-0.03743666297686753,1.6049919128417969,2019-06-21 12:36:57:026
7.785226165771484,-1.176133575439453,-0.043094970703125,0.03371072584190014,-0.025713190670554133,-0.0371703468678596,1.6099839210510254,2019-06-21 12:36:57:031
7.795999908447265,-1.1677539978027343,-0.037109558105468746,0.033444409732892214,-0.02611266483406602,-0.03810245324938733,1.614975929260254,2019-06-21 12:36:57:036
7.782832000732422,-1.1665569152832032,-0.041897888183593746,0.03424335805991598,-0.024914242343530364,-0.03916771768541903,1.6199679374694824,2019-06-21 12:36:57:041
7.797196990966797,-1.1785277404785155,-0.032321228027343746,0.03291177751487637,-0.024914242343530364,-0.03903455963091507,1.6250240802764893,2019-06-21 12:36:57:046
7.788817413330078,-1.1976810607910156,-0.0071824951171875,0.03184651307884467,-0.025180558452538287,-0.03876824352190714,1.6300158500671387,2019-06-21 12:36:57:051
7.792408660888672,-1.2120460510253905,-0.09337243652343749,0.03211282918785259,-0.02611266483406602,-0.03810245324938733,1.6350078582763672,2019-06-21 12:36:57:056
7.80078823852539,-1.1869073181152343,-0.07781036376953125,0.03357756778739617,-0.02611266483406602,-0.03810245324938733,1.6399998664855957,2019-06-21 12:36:57:061
7.797196990966797,-1.1725423278808593,-0.043094970703125,0.033843883896404095,-0.026911613161089788,-0.03850192741289922,1.6449918746948242,2019-06-21 12:36:57:066
7.780437835693359,-1.1821189880371092,-0.043094970703125,0.03317809362388429,-0.026778455106585827,-0.039833507957938837,1.6499838829040527,2019-06-21 12:36:57:071
7.7732553405761715,-1.1773306579589844,-0.07062786865234374,0.03397704195090806,-0.02531371650704225,-0.04036614017595468,1.6549758911132812,2019-06-21 12:36:57:076
7.779240753173828,-1.185710235595703,-0.100554931640625,0.03450967416892391,-0.02531371650704225,-0.04036614017595468,1.6599678993225098,2019-06-21 12:36:57:081
7.746919525146485,-1.190498565673828,-0.05386871337890625,0.03224598724235655,-0.02637898094307394,-0.03916771768541903,1.6650240421295166,2019-06-21 12:36:57:086
7.751707855224609,-1.190498565673828,-0.061051208496093745,0.03317809362388429,-0.027311087324601673,-0.03956719184893091,1.6700160503387451,2019-06-21 12:36:57:091
7.776846588134766,-1.1952868957519531,-0.02513873291015625,0.03411020000541202,-0.026512138997577903,-0.03956719184893091,1.6750080585479736,2019-06-21 12:36:57:096
7.767269927978515,-1.1976810607910156,-0.037109558105468746,0.03504230638693975,-0.026778455106585827,-0.0399666660124428,1.6800000667572021,2019-06-21 12:36:57:101
7.7876203308105465,-1.1988781433105469,-0.02274456787109375,0.03490914833243579,-0.027311087324601673,-0.03930087573992299,1.6849920749664307,2019-06-21 12:36:57:106
7.791211578369141,-1.2000752258300782,-0.051474548339843745,0.033843883896404095,-0.02637898094307394,-0.04049929823045865,1.68998384475708,2019-06-21 12:36:57:111
7.776846588134766,-1.189301483154297,-0.052671630859375,0.03411020000541202,-0.026911613161089788,-0.04036614017595468,1.6949758529663086,2019-06-21 12:36:57:116
7.779240753173828,-1.1881044006347656,-0.0215474853515625,0.03331125167838825,-0.027311087324601673,-0.04049929823045865,1.699967861175537,2019-06-21 12:36:57:121
7.755299102783203,-1.1928927307128907,-0.052671630859375,0.033444409732892214,-0.026911613161089788,-0.04049929823045865,1.705024003982544,2019-06-21 12:36:57:126
7.766072845458984,-1.2012723083496093,-0.03471539306640625,0.03397704195090806,-0.026778455106585827,-0.04049929823045865,1.7100160121917725,2019-06-21 12:36:57:131
7.788817413330078,-1.1797248229980468,-0.046686218261718745,0.034642832223427865,-0.027444245379105635,-0.04223035293901015,1.715008020401001,2019-06-21 12:36:57:136
7.8019853210449215,-1.1785277404785155,-0.02513873291015625,0.03530862249594768,-0.027311087324601673,-0.04183087877549827,1.7200000286102295,2019-06-21 12:36:57:141
7.807970733642578,-1.1797248229980468,-0.062248291015625,0.03490914833243579,-0.025713190670554133,-0.04223035293901015,1.724992036819458,2019-06-21 12:36:57:146
7.797196990966797,-1.1641627502441405,-0.04429205322265625,0.03517546444144371,-0.026778455106585827,-0.04316245932053789,1.7299840450286865,2019-06-21 12:36:57:151
7.755299102783203,-1.1797248229980468,-0.03471539306640625,0.03477599027793183,-0.027843719542617527,-0.043695091538553735,1.734976053237915,2019-06-21 12:36:57:156
7.754102020263672,-1.1773306579589844,-0.0598541259765625,0.03437651611441994,-0.02704477121559375,-0.043295617375041846,1.7399680614471436,2019-06-21 12:36:57:161
7.774452423095703,-1.1677539978027343,-0.037109558105468746,0.03570809665945956,-0.02797687759712149,-0.04342877542954581,1.7450239658355713,2019-06-21 12:36:57:166
7.770861175537109,-1.1928927307128907,-0.07541619873046874,0.03584125471396352,-0.027444245379105635,-0.04316245932053789,1.7500159740447998,2019-06-21 12:36:57:171
7.774452423095703,-1.203666473388672,-0.03950372314453125,0.03450967416892391,-0.026778455106585827,-0.04262982710252204,1.7550079822540283,2019-06-21 12:36:57:176
7.805576568603516,-1.1940898132324218,-0.052671630859375,0.03517546444144371,-0.02637898094307394,-0.042496669048018076,1.7599999904632568,2019-06-21 12:36:57:181
7.80078823852539,-1.1821189880371092,-0.02872998046875,0.03504230638693975,-0.025846348725058095,-0.04302930126603392,1.7649919986724854,2019-06-21 12:36:57:186
7.770861175537109,-1.2000752258300782,-0.0454891357421875,0.03490914833243579,-0.025047400398034325,-0.044494039865577505,1.7699840068817139,2019-06-21 12:36:57:191
7.778043670654297,-1.189301483154297,-0.05865704345703125,0.03624072887747541,-0.026512138997577903,-0.04569246235611316,1.7749760150909424,2019-06-21 12:36:57:196
7.764875762939453,-1.2096518859863281,-0.07541619873046874,0.036107570822971446,-0.02717792927009771,-0.044360881811073546,1.779968023300171,2019-06-21 12:36:57:201
7.778043670654297,-1.2204256286621094,-0.08020452880859374,0.03770546747701899,-0.02637898094307394,-0.046091936519625044,1.7850239276885986,2019-06-21 12:36:57:206
7.782832000732422,-1.1988781433105469,-0.06703662109375,0.03770546747701899,-0.02637898094307394,-0.04542614624710524,1.7900159358978271,2019-06-21 12:36:57:211
7.785226165771484,-1.2000752258300782,-0.0359124755859375,0.03690651914999522,-0.02717792927009771,-0.04569246235611316,1.7950079441070557,2019-06-21 12:36:57:216
7.792408660888672,-1.2132431335449219,-0.0191533203125,0.036507044986483335,-0.02717792927009771,-0.04649141068313693,1.7999999523162842,2019-06-21 12:36:57:221
7.77205825805664,-1.2060606384277344,-0.03471539306640625,0.03677336109549126,-0.027843719542617527,-0.046890884846648814,1.8049919605255127,2019-06-21 12:36:57:226
7.776846588134766,-1.1916956481933594,-0.0981607666015625,0.03703967720449918,-0.025713190670554133,-0.049021413718712215,1.8099839687347412,2019-06-21 12:36:57:231
7.78163491821289,-1.1976810607910156,-0.038306640625,0.037305993313507105,-0.02531371650704225,-0.04888825566420825,1.8149759769439697,2019-06-21 12:36:57:236
7.77205825805664,-1.155783172607422,-0.0359124755859375,0.03703967720449918,-0.023183187634978855,-0.04795614928268052,1.8199679851531982,2019-06-21 12:36:57:241
7.763678680419922,-1.156980255126953,-0.07661328125,0.03597441276846748,-0.02451476818001848,-0.04915457177321617,1.825023889541626,2019-06-21 12:36:57:246
7.774452423095703,-1.1581773376464843,-0.0598541259765625,0.03677336109549126,-0.025979506779562057,-0.0483556234461924,1.8300158977508545,2019-06-21 12:36:57:251
7.774452423095703,-1.1677539978027343,-0.08379577636718749,0.03570809665945956,-0.026512138997577903,-0.048621939555200326,1.835007905960083,2019-06-21 12:36:57:256
7.776846588134766,-1.1833160705566406,-0.0885841064453125,0.0355749386049556,-0.026778455106585827,-0.0476898331736726,1.8399999141693115,2019-06-21 12:36:57:261
7.776846588134766,-1.1737394104003906,-0.06823370361328125,0.035441780550451635,-0.024381610125514517,-0.04795614928268052,1.84499192237854,2019-06-21 12:36:57:266
7.804379486083985,-1.1845131530761719,-0.06583953857421875,0.03690651914999522,-0.026778455106585827,-0.04729035901016071,1.8499839305877686,2019-06-21 12:36:57:271
7.812759063720703,-1.171345245361328,-0.04429205322265625,0.03677336109549126,-0.026778455106585827,-0.04755667511916863,1.854975938796997,2019-06-21 12:36:57:276
7.786423248291015,-1.185710235595703,-0.033518310546875,0.03504230638693975,-0.026778455106585827,-0.04729035901016071,1.8599679470062256,2019-06-21 12:36:57:281
7.770861175537109,-1.1797248229980468,0.00359124755859375,0.03530862249594768,-0.02611266483406602,-0.04848878150069637,1.8650238513946533,2019-06-21 12:36:57:286
7.794802825927734,-1.1845131530761719,-0.032321228027343746,0.03570809665945956,-0.025846348725058095,-0.04915457177321617,1.8700158596038818,2019-06-21 12:36:57:291
7.782832000732422,-1.189301483154297,-0.03471539306640625,0.0355749386049556,-0.026645297052081865,-0.0483556234461924,1.8750078678131104,2019-06-21 12:36:57:296
7.78163491821289,-1.1689510803222656,-0.0263358154296875,0.03597441276846748,-0.026778455106585827,-0.04955404593672806,1.8799998760223389,2019-06-21 12:36:57:301
7.791211578369141,-1.1605715026855468,-0.0263358154296875,0.037305993313507105,-0.027444245379105635,-0.04848878150069637,1.8849918842315674,2019-06-21 12:36:57:306
7.769664093017578,-1.1725423278808593,-0.02035040283203125,0.035441780550451635,-0.02717792927009771,-0.048222465391688445,1.889983892440796,2019-06-21 12:36:57:311
7.76128451538086,-1.1593744201660157,-0.05386871337890625,0.03530862249594768,-0.026512138997577903,-0.04808930733718448,1.8949759006500244,2019-06-21 12:36:57:316
7.778043670654297,-1.1653598327636718,-0.01556207275390625,0.03411020000541202,-0.02637898094307394,-0.04808930733718448,1.899967908859253,2019-06-21 12:36:57:321
7.779240753173828,-1.1629656677246094,-0.0502774658203125,0.03504230638693975,-0.02544687456154621,-0.048621939555200326,1.9050240516662598,2019-06-21 12:36:57:326
7.79001449584961,-1.1773306579589844,-0.06823370361328125,0.03450967416892391,-0.025846348725058095,-0.04848878150069637,1.9100160598754883,2019-06-21 12:36:57:331
7.782832000732422,-1.141418182373047,-0.0454891357421875,0.033843883896404095,-0.02637898094307394,-0.047822991228176556,1.9150080680847168,2019-06-21 12:36:57:336
7.8019853210449215,-1.1342356872558594,-0.02992706298828125,0.035441780550451635,-0.02704477121559375,-0.047822991228176556,1.9200000762939453,2019-06-21 12:36:57:341
7.822335723876953,-1.0971261291503906,-0.04908038330078125,0.033843883896404095,-0.026512138997577903,-0.04755667511916863,1.9249918460845947,2019-06-21 12:36:57:346
7.815153228759765,-1.1246590270996093,-0.0407008056640625,0.03424335805991598,-0.025979506779562057,-0.04755667511916863,1.9299838542938232,2019-06-21 12:36:57:351
7.795999908447265,-1.1378269348144532,-0.01077374267578125,0.033044935569380325,-0.026645297052081865,-0.04795614928268052,1.9349758625030518,2019-06-21 12:36:57:356
7.757693267822265,-1.1462065124511718,-0.061051208496093745,0.033444409732892214,-0.027311087324601673,-0.04729035901016071,1.9400320053100586,2019-06-21 12:36:57:361
7.805576568603516,-1.1486006774902344,-0.06703662109375,0.03357756778739617,-0.026778455106585827,-0.04635825262863297,1.945024013519287,2019-06-21 12:36:57:366
7.815153228759765,-1.1689510803222656,-0.06583953857421875,0.03264546140586844,-0.026911613161089788,-0.04582562041061712,1.9500160217285156,2019-06-21 12:36:57:371
7.804379486083985,-1.1402210998535156,-0.06344537353515625,0.0317133550243407,-0.02704477121559375,-0.04622509457412901,1.9550719261169434,2019-06-21 12:36:57:376
7.775649505615235,-1.1354327697753905,-0.07781036376953125,0.031580196969836744,-0.024781084289026402,-0.04542614624710524,1.9600000381469727,2019-06-21 12:36:57:381
7.794802825927734,-1.1318415222167968,-0.01795623779296875,0.03251230335136447,-0.024781084289026402,-0.04622509457412901,1.9649920463562012,2019-06-21 12:36:57:386
7.784029083251953,-1.1390240173339843,-0.02035040283203125,0.03237914529686051,-0.025580032616050172,-0.046091936519625044,1.9699840545654297,2019-06-21 12:36:57:391
7.791211578369141,-1.1497977600097655,-0.05386871337890625,0.031580196969836744,-0.025580032616050172,-0.04569246235611316,1.9749760627746582,2019-06-21 12:36:57:396
7.762481597900391,-1.1665569152832032,-0.0574599609375,0.03251230335136447,-0.025979506779562057,-0.0455593043016092,1.980031967163086,2019-06-21 12:36:57:401
7.7732553405761715,-1.1821189880371092,-0.038306640625,0.03357756778739617,-0.025713190670554133,-0.04649141068313693,1.9850239753723145,2019-06-21 12:36:57:406
7.811561981201172,-1.1821189880371092,-0.051474548339843745,0.03371072584190014,-0.02611266483406602,-0.046091936519625044,1.990015983581543,2019-06-21 12:36:57:411
7.797196990966797,-1.1677539978027343,-0.08978118896484374,0.033044935569380325,-0.026512138997577903,-0.04542614624710524,1.9950079917907715,2019-06-21 12:36:57:416
7.792408660888672,-1.1773306579589844,-0.052671630859375,0.03331125167838825,-0.026512138997577903,-0.04542614624710524,2.0,2019-06-21 12:36:57:421
7.797196990966797,-1.1737394104003906,-0.0407008056640625,0.033444409732892214,-0.025580032616050172,-0.044360881811073546,2.0049920082092285,2019-06-21 12:36:57:426
7.763678680419922,-1.190498565673828,-0.0407008056640625,0.031979671133348625,-0.02637898094307394,-0.043695091538553735,2.009984016418457,2019-06-21 12:36:57:431
7.780437835693359,-1.1833160705566406,-0.0454891357421875,0.0327786194603724,-0.025713190670554133,-0.044360881811073546,2.0149760246276855,2019-06-21 12:36:57:436
7.774452423095703,-1.1773306579589844,-0.037109558105468746,0.03437651611441994,-0.026645297052081865,-0.04396140764756166,2.019968032836914,2019-06-21 12:36:57:441
7.774452423095703,-1.176133575439453,-0.06823370361328125,0.03477599027793183,-0.025979506779562057,-0.04476035597458543,2.025023937225342,2019-06-21 12:36:57:446
7.756496185302734,-1.1545860900878906,-0.04788330078125,0.03437651611441994,-0.025580032616050172,-0.045292988192601275,2.0300159454345703,2019-06-21 12:36:57:451
7.756496185302734,-1.1593744201660157,-0.0454891357421875,0.034642832223427865,-0.026645297052081865,-0.04422772375656958,2.035007953643799,2019-06-21 12:36:57:456
7.770861175537109,-1.1605715026855468,-0.061051208496093745,0.034642832223427865,-0.025979506779562057,-0.04396140764756166,2.0399999618530273,2019-06-21 12:36:57:461
7.779240753173828,-1.171345245361328,0.0023941650390625,0.033044935569380325,-0.025979506779562057,-0.04489351402908939,2.044991970062256,2019-06-21 12:36:57:466
7.80078823852539,-1.1581773376464843,-0.02753289794921875,0.03264546140586844,-0.026512138997577903,-0.044094565702065616,2.0499839782714844,2019-06-21 12:36:57:471
7.799591156005859,-1.171345245361328,-0.0359124755859375,0.03371072584190014,-0.026911613161089788,-0.044360881811073546,2.054975986480713,2019-06-21 12:36:57:476
7.775649505615235,-1.155783172607422,-0.0598541259765625,0.03371072584190014,-0.02637898094307394,-0.04542614624710524,2.0599679946899414,2019-06-21 12:36:57:481
7.775649505615235,-1.161768585205078,-0.00837957763671875,0.033843883896404095,-0.026645297052081865,-0.04476035597458543,2.065023899078369,2019-06-21 12:36:57:486
7.778043670654297,-1.1497977600097655,-0.051474548339843745,0.03397704195090806,-0.02611266483406602,-0.04396140764756166,2.0700159072875977,2019-06-21 12:36:57:491
7.794802825927734,-1.1545860900878906,-0.062248291015625,0.03397704195090806,-0.025979506779562057,-0.043695091538553735,2.075007915496826,2019-06-21 12:36:57:496
7.813956146240234,-1.1605715026855468,-0.06583953857421875,0.03517546444144371,-0.026645297052081865,-0.044360881811073546,2.0799999237060547,2019-06-21 12:36:57:501
7.79001449584961,-1.1641627502441405,-0.07062786865234374,0.03584125471396352,-0.025580032616050172,-0.04502667208359335,2.084991931915283,2019-06-21 12:36:57:506
7.768467010498047,-1.161768585205078,-0.052671630859375,0.036507044986483335,-0.02544687456154621,-0.0455593043016092,2.0899839401245117,2019-06-21 12:36:57:511
7.792408660888672,-1.1653598327636718,-0.05386871337890625,0.0355749386049556,-0.027710561488113558,-0.0455593043016092,2.0949759483337402,2019-06-21 12:36:57:516
7.792408660888672,-1.1581773376464843,-0.04429205322265625,0.03530862249594768,-0.027444245379105635,-0.045159830138097316,2.0999679565429688,2019-06-21 12:36:57:521
7.770861175537109,-1.1653598327636718,-0.08738702392578125,0.03530862249594768,-0.027311087324601673,-0.044360881811073546,2.1050238609313965,2019-06-21 12:36:57:526
7.78163491821289,-1.1809219055175781,-0.08499285888671874,0.034642832223427865,-0.02811003565162545,-0.04462719792008147,2.110015869140625,2019-06-21 12:36:57:531
7.778043670654297,-1.161768585205078,-0.07421911621093749,0.03597441276846748,-0.02824319370612941,-0.0455593043016092,2.1150078773498535,2019-06-21 12:36:57:536
7.769664093017578,-1.1737394104003906,-0.06464245605468749,0.03703967720449918,-0.025846348725058095,-0.045292988192601275,2.119999885559082,2019-06-21 12:36:57:541
7.779240753173828,-1.1881044006347656,-0.056262878417968745,0.036107570822971446,-0.026778455106585827,-0.045159830138097316,2.1249918937683105,2019-06-21 12:36:57:546
7.760087432861328,-1.1833160705566406,-0.07541619873046874,0.035441780550451635,-0.02531371650704225,-0.04489351402908939,2.129983901977539,2019-06-21 12:36:57:551
7.774452423095703,-1.1821189880371092,-0.05865704345703125,0.03624072887747541,-0.025713190670554133,-0.045159830138097316,2.1349759101867676,2019-06-21 12:36:57:556
7.7732553405761715,-1.1952868957519531,-0.0359124755859375,0.03717283525900315,-0.02717792927009771,-0.045292988192601275,2.139967918395996,2019-06-21 12:36:57:561
7.8019853210449215,-1.1940898132324218,-0.03950372314453125,0.03743915136801107,-0.02637898094307394,-0.04582562041061712,2.145024061203003,2019-06-21 12:36:57:566
7.794802825927734,-1.1689510803222656,-0.02274456787109375,0.036507044986483335,-0.026645297052081865,-0.04476035597458543,2.1500160694122314,2019-06-21 12:36:57:571
7.785226165771484,-1.161768585205078,-0.061051208496093745,0.036107570822971446,-0.027577403433609596,-0.04422772375656958,2.15500807762146,2019-06-21 12:36:57:576
7.776846588134766,-1.141418182373047,-0.06823370361328125,0.03637388693197938,-0.028775825924145258,-0.044094565702065616,2.1599998474121094,2019-06-21 12:36:57:581
7.795999908447265,-1.156980255126953,-0.033518310546875,0.03637388693197938,-0.027710561488113558,-0.04476035597458543,2.164991855621338,2019-06-21 12:36:57:586
7.799591156005859,-1.142615264892578,-0.032321228027343746,0.035441780550451635,-0.026512138997577903,-0.045958778465121086,2.1699838638305664,2019-06-21 12:36:57:591
7.805576568603516,-1.1438123474121094,-0.0598541259765625,0.03504230638693975,-0.028642667869641297,-0.04502667208359335,2.174975872039795,2019-06-21 12:36:57:596
7.795999908447265,-1.127053192138672,-0.08379577636718749,0.03490914833243579,-0.028509509815137335,-0.044094565702065616,2.1799678802490234,2019-06-21 12:36:57:601
7.768467010498047,-1.1486006774902344,-0.02872998046875,0.03450967416892391,-0.027444245379105635,-0.04422772375656958,2.1850240230560303,2019-06-21 12:36:57:606
7.793605743408203,-1.1653598327636718,-0.061051208496093745,0.03450967416892391,-0.02704477121559375,-0.045159830138097316,2.190016031265259,2019-06-21 12:36:57:611
7.8019853210449215,-1.185710235595703,-0.090978271484375,0.0355749386049556,-0.02704477121559375,-0.04462719792008147,2.1950080394744873,2019-06-21 12:36:57:616
7.784029083251953,-1.189301483154297,-0.081401611328125,0.036507044986483335,-0.02704477121559375,-0.043695091538553735,2.200000047683716,2019-06-21 12:36:57:621
7.755299102783203,-1.1773306579589844,-0.0957666015625,0.03783862553152295,-0.026911613161089788,-0.04422772375656958,2.2049920558929443,2019-06-21 12:36:57:626
7.788817413330078,-1.1821189880371092,-0.05386871337890625,0.036507044986483335,-0.027710561488113558,-0.045159830138097316,2.209984064102173,2019-06-21 12:36:57:631
7.780437835693359,-1.1797248229980468,-0.0598541259765625,0.03597441276846748,-0.027444245379105635,-0.04489351402908939,2.2149760723114014,2019-06-21 12:36:57:636
7.775649505615235,-1.1462065124511718,-0.02753289794921875,0.03637388693197938,-0.026778455106585827,-0.04542614624710524,2.220031976699829,2019-06-21 12:36:57:641
7.794802825927734,-1.141418182373047,-0.0550657958984375,0.03703967720449918,-0.025713190670554133,-0.04502667208359335,2.2250239849090576,2019-06-21 12:36:57:646
7.776846588134766,-1.1354327697753905,-0.06583953857421875,0.0355749386049556,-0.025580032616050172,-0.04422772375656958,2.230015993118286,2019-06-21 12:36:57:651
7.791211578369141,-1.1318415222167968,-0.07302203369140625,0.03597441276846748,-0.026512138997577903,-0.04462719792008147,2.2350080013275146,2019-06-21 12:36:57:656
7.782832000732422,-1.1174765319824218,-0.037109558105468746,0.035441780550451635,-0.026778455106585827,-0.04462719792008147,2.240000009536743,2019-06-21 12:36:57:661
7.81036489868164,-1.1258561096191406,-0.02513873291015625,0.03570809665945956,-0.02611266483406602,-0.04316245932053789,2.2449920177459717,2019-06-21 12:36:57:666
7.803182403564453,-1.147403594970703,-0.04429205322265625,0.03597441276846748,-0.025047400398034325,-0.042762985157026,2.2499840259552,2019-06-21 12:36:57:671
7.791211578369141,-1.1450094299316407,-0.0454891357421875,0.03717283525900315,-0.02611266483406602,-0.04262982710252204,2.2549760341644287,2019-06-21 12:36:57:676
7.788817413330078,-1.1450094299316407,-0.07421911621093749,0.0366402030409873,-0.02531371650704225,-0.04236351099351412,2.2599680423736572,2019-06-21 12:36:57:681
7.79001449584961,-1.1462065124511718,-0.07421911621093749,0.03411020000541202,-0.026512138997577903,-0.04183087877549827,2.265023946762085,2019-06-21 12:36:57:686
7.788817413330078,-1.1378269348144532,-0.07661328125,0.03424335805991598,-0.02704477121559375,-0.04196403683000223,2.2700159549713135,2019-06-21 12:36:57:691
7.755299102783203,-1.1402210998535156,-0.038306640625,0.03424335805991598,-0.02704477121559375,-0.04223035293901015,2.275007963180542,2019-06-21 12:36:57:696
7.77205825805664,-1.1450094299316407,-0.0502774658203125,0.03371072584190014,-0.02637898094307394,-0.04076561433946657,2.2799999713897705,2019-06-21 12:36:57:701
7.793605743408203,-1.147403594970703,-0.0167591552734375,0.03357756778739617,-0.026778455106585827,-0.04036614017595468,2.284991979598999,2019-06-21 12:36:57:706
7.793605743408203,-1.1509948425292968,-0.046686218261718745,0.03530862249594768,-0.026911613161089788,-0.040632456284962606,2.2899839878082275,2019-06-21 12:36:57:711
7.793605743408203,-1.147403594970703,-0.07781036376953125,0.03584125471396352,-0.027311087324601673,-0.039833507957938837,2.294975996017456,2019-06-21 12:36:57:716
7.795999908447265,-1.142615264892578,-0.0502774658203125,0.03450967416892391,-0.02611266483406602,-0.04036614017595468,2.2999680042266846,2019-06-21 12:36:57:721
7.807970733642578,-1.171345245361328,-0.04908038330078125,0.03397704195090806,-0.025846348725058095,-0.04156456266649034,2.3050239086151123,2019-06-21 12:36:57:726
7.791211578369141,-1.1581773376464843,-0.02872998046875,0.03437651611441994,-0.026645297052081865,-0.04223035293901015,2.310015916824341,2019-06-21 12:36:57:731
7.79001449584961,-1.1055057067871092,-0.051474548339843745,0.03437651611441994,-0.02531371650704225,-0.04076561433946657,2.3150079250335693,2019-06-21 12:36:57:736
7.795999908447265,-1.1402210998535156,-0.03950372314453125,0.034642832223427865,-0.025580032616050172,-0.04076561433946657,2.319999933242798,2019-06-21 12:36:57:741
7.799591156005859,-1.1521919250488282,-0.06464245605468749,0.03584125471396352,-0.02611266483406602,-0.04009982406694676,2.3249919414520264,2019-06-21 12:36:57:746
7.786423248291015,-1.1641627502441405,-0.05386871337890625,0.034642832223427865,-0.026645297052081865,-0.03956719184893091,2.329983949661255,2019-06-21 12:36:57:751
7.776846588134766,-1.1821189880371092,-0.06823370361328125,0.03490914833243579,-0.02637898094307394,-0.03970034990343488,2.3349759578704834,2019-06-21 12:36:57:756
7.764875762939453,-1.1593744201660157,-0.081401611328125,0.03450967416892391,-0.02637898094307394,-0.03930087573992299,2.339967966079712,2019-06-21 12:36:57:761
7.798394073486328,-1.156980255126953,-0.07781036376953125,0.03411020000541202,-0.02717792927009771,-0.039833507957938837,2.3450238704681396,2019-06-21 12:36:57:766
7.792408660888672,-1.1653598327636718,-0.0790074462890625,0.034642832223427865,-0.026512138997577903,-0.04076561433946657,2.350015878677368,2019-06-21 12:36:57:771
7.80078823852539,-1.1581773376464843,-0.062248291015625,0.03490914833243579,-0.02717792927009771,-0.0399666660124428,2.3550078868865967,2019-06-21 12:36:57:776
7.760087432861328,-1.1653598327636718,-0.08499285888671874,0.03411020000541202,-0.028509509815137335,-0.04009982406694676,2.359999895095825,2019-06-21 12:36:57:781
7.804379486083985,-1.147403594970703,-0.09217535400390625,0.033444409732892214,-0.027577403433609596,-0.0399666660124428,2.3649919033050537,2019-06-21 12:36:57:786
7.8019853210449215,-1.1629656677246094,-0.06464245605468749,0.03450967416892391,-0.02637898094307394,-0.039833507957938837,2.3699839115142822,2019-06-21 12:36:57:791
7.7732553405761715,-1.1665569152832032,-0.06344537353515625,0.034642832223427865,-0.025713190670554133,-0.04009982406694676,2.3749759197235107,2019-06-21 12:36:57:796
7.778043670654297,-1.1785277404785155,-0.061051208496093745,0.03397704195090806,-0.02624582288856998,-0.04009982406694676,2.3799679279327393,2019-06-21 12:36:57:801
7.778043670654297,-1.1821189880371092,-0.06823370361328125,0.03477599027793183,-0.024781084289026402,-0.039833507957938837,2.385024070739746,2019-06-21 12:36:57:806
7.788817413330078,-1.1665569152832032,-0.02274456787109375,0.03570809665945956,-0.025580032616050172,-0.03956719184893091,2.3900160789489746,2019-06-21 12:36:57:811
7.780437835693359,-1.1605715026855468,-0.0694307861328125,0.035441780550451635,-0.02637898094307394,-0.0399666660124428,2.395007848739624,2019-06-21 12:36:57:816
7.78163491821289,-1.170148162841797,-0.0598541259765625,0.03477599027793183,-0.026778455106585827,-0.04036614017595468,2.3999998569488525,2019-06-21 12:36:57:821
7.80078823852539,-1.1809219055175781,-0.052671630859375,0.03424335805991598,-0.027843719542617527,-0.03956719184893091,2.404991865158081,2019-06-21 12:36:57:826
7.797196990966797,-1.1833160705566406,-0.043094970703125,0.03371072584190014,-0.02717792927009771,-0.04049929823045865,2.4099838733673096,2019-06-21 12:36:57:831
7.776846588134766,-1.1689510803222656,-0.0263358154296875,0.03477599027793183,-0.026645297052081865,-0.040632456284962606,2.414975881576538,2019-06-21 12:36:57:836
7.776846588134766,-1.1677539978027343,-0.033518310546875,0.03437651611441994,-0.026645297052081865,-0.04129824655748242,2.4199678897857666,2019-06-21 12:36:57:841
7.767269927978515,-1.2000752258300782,-0.0550657958984375,0.035441780550451635,-0.02637898094307394,-0.04223035293901015,2.4250240325927734,2019-06-21 12:36:57:846
7.763678680419922,-1.1749364929199217,-0.07661328125,0.0355749386049556,-0.025580032616050172,-0.04169772072099431,2.430016040802002,2019-06-21 12:36:57:851
7.768467010498047,-1.1916956481933594,-0.062248291015625,0.036107570822971446,-0.025713190670554133,-0.04116508850297846,2.4350080490112305,2019-06-21 12:36:57:856
7.768467010498047,-1.204863555908203,-0.0359124755859375,0.036107570822971446,-0.026778455106585827,-0.04183087877549827,2.440000057220459,2019-06-21 12:36:57:861
7.776846588134766,-1.1940898132324218,-0.061051208496093745,0.03570809665945956,-0.027710561488113558,-0.04183087877549827,2.4449920654296875,2019-06-21 12:36:57:866
7.7732553405761715,-1.1677539978027343,-0.03471539306640625,0.03637388693197938,-0.027710561488113558,-0.042097194884506195,2.449984073638916,2019-06-21 12:36:57:871
7.77205825805664,-1.1797248229980468,-0.05865704345703125,0.03717283525900315,-0.028376351760633373,-0.04223035293901015,2.4549760818481445,2019-06-21 12:36:57:876
7.754102020263672,-1.1605715026855468,-0.0502774658203125,0.0366402030409873,-0.02717792927009771,-0.042896143211529965,2.4600319862365723,2019-06-21 12:36:57:881
7.750510772705078,-1.142615264892578,-0.03471539306640625,0.03637388693197938,-0.026911613161089788,-0.04316245932053789,2.465023994445801,2019-06-21 12:36:57:886
7.756496185302734,-1.1833160705566406,-0.0167591552734375,0.03597441276846748,-0.02797687759712149,-0.042896143211529965,2.4700160026550293,2019-06-21 12:36:57:891
7.738539947509765,-1.185710235595703,0.0167591552734375,0.03490914833243579,-0.02624582288856998,-0.04316245932053789,2.475008010864258,2019-06-21 12:36:57:896
7.78163491821289,-1.1869073181152343,-0.081401611328125,0.03517546444144371,-0.027843719542617527,-0.043295617375041846,2.4800000190734863,2019-06-21 12:36:57:901
7.794802825927734,-1.1809219055175781,-0.0454891357421875,0.03570809665945956,-0.02704477121559375,-0.04396140764756166,2.484992027282715,2019-06-21 12:36:57:906
7.823532806396484,-1.189301483154297,-0.0191533203125,0.03637388693197938,-0.027843719542617527,-0.042762985157026,2.4899840354919434,2019-06-21 12:36:57:911
7.817547393798828,-1.1785277404785155,-0.01795623779296875,0.03637388693197938,-0.027710561488113558,-0.04236351099351412,2.494976043701172,2019-06-21 12:36:57:916
7.778043670654297,-1.176133575439453,-0.056262878417968745,0.03584125471396352,-0.026778455106585827,-0.043695091538553735,2.5000319480895996,2019-06-21 12:36:57:921
7.7876203308105465,-1.185710235595703,-0.09217535400390625,0.03530862249594768,-0.026778455106585827,-0.042762985157026,2.505023956298828,2019-06-21 12:36:57:926
7.779240753173828,-1.1869073181152343,-0.0694307861328125,0.0355749386049556,-0.026512138997577903,-0.042896143211529965,2.5100159645080566,2019-06-21 12:36:57:931
7.80078823852539,-1.190498565673828,-0.056262878417968745,0.03584125471396352,-0.027577403433609596,-0.042896143211529965,2.515007972717285,2019-06-21 12:36:57:936
7.7876203308105465,-1.176133575439453,-0.06344537353515625,0.03624072887747541,-0.027444245379105635,-0.04462719792008147,2.5199999809265137,2019-06-21 12:36:57:941
7.797196990966797,-1.1881044006347656,-0.038306640625,0.03690651914999522,-0.02811003565162545,-0.04422772375656958,2.524991989135742,2019-06-21 12:36:57:946
7.811561981201172,-1.1809219055175781,-0.0119708251953125,0.036507044986483335,-0.027311087324601673,-0.045292988192601275,2.5299839973449707,2019-06-21 12:36:57:951
7.780437835693359,-1.1809219055175781,-0.0407008056640625,0.0355749386049556,-0.025580032616050172,-0.045292988192601275,2.534976005554199,2019-06-21 12:36:57:956
7.774452423095703,-1.1462065124511718,-0.06464245605468749,0.03517546444144371,-0.02704477121559375,-0.045292988192601275,2.5399680137634277,2019-06-21 12:36:57:961
7.749313690185547,-1.1629656677246094,-0.03471539306640625,0.03584125471396352,-0.026911613161089788,-0.04502667208359335,2.5450239181518555,2019-06-21 12:36:57:966
7.7876203308105465,-1.1689510803222656,-0.0574599609375,0.0355749386049556,-0.026645297052081865,-0.04489351402908939,2.550015926361084,2019-06-21 12:36:57:971
7.803182403564453,-1.1749364929199217,-0.06823370361328125,0.03637388693197938,-0.026778455106585827,-0.04382824959305769,2.5550079345703125,2019-06-21 12:36:57:976
7.78163491821289,-1.1725423278808593,-0.061051208496093745,0.037305993313507105,-0.02531371650704225,-0.044360881811073546,2.559999942779541,2019-06-21 12:36:57:981
7.792408660888672,-1.1533890075683593,-0.05386871337890625,0.03677336109549126,-0.025580032616050172,-0.045292988192601275,2.5649919509887695,2019-06-21 12:36:57:986
7.792408660888672,-1.1641627502441405,-0.02872998046875,0.03517546444144371,-0.026512138997577903,-0.04569246235611316,2.569983959197998,2019-06-21 12:36:57:991
7.784029083251953,-1.155783172607422,-0.0359124755859375,0.03424335805991598,-0.025979506779562057,-0.045292988192601275,2.5749759674072266,2019-06-21 12:36:57:996
7.778043670654297,-1.1677539978027343,-0.02753289794921875,0.03517546444144371,-0.025580032616050172,-0.04356193348404977,2.579967975616455,2019-06-21 12:36:58:001
7.782832000732422,-1.170148162841797,-0.051474548339843745,0.03597441276846748,-0.025580032616050172,-0.04262982710252204,2.585023880004883,2019-06-21 12:36:58:006
7.769664093017578,-1.1605715026855468,-0.04908038330078125,0.0355749386049556,-0.025580032616050172,-0.04422772375656958,2.5900158882141113,2019-06-21 12:36:58:011
7.780437835693359,-1.1366298522949219,-0.0191533203125,0.03437651611441994,-0.02637898094307394,-0.04316245932053789,2.59500789642334,2019-06-21 12:36:58:016
7.803182403564453,-1.141418182373047,-0.04429205322265625,0.033444409732892214,-0.026645297052081865,-0.04223035293901015,2.5999999046325684,2019-06-21 12:36:58:021
7.786423248291015,-1.1354327697753905,-0.02753289794921875,0.03397704195090806,-0.026645297052081865,-0.04316245932053789,2.604991912841797,2019-06-21 12:36:58:026
7.776846588134766,-1.1402210998535156,-0.023941650390625,0.033044935569380325,-0.027710561488113558,-0.04196403683000223,2.6099839210510254,2019-06-21 12:36:58:031
7.782832000732422,-1.1509948425292968,-0.041897888183593746,0.03397704195090806,-0.02797687759712149,-0.04223035293901015,2.614975929260254,2019-06-21 12:36:58:036
7.807970733642578,-1.1521919250488282,-0.03471539306640625,0.03331125167838825,-0.02611266483406602,-0.04223035293901015,2.6199679374694824,2019-06-21 12:36:58:041
7.798394073486328,-1.1605715026855468,-0.05865704345703125,0.03224598724235655,-0.026645297052081865,-0.04169772072099431,2.6250240802764893,2019-06-21 12:36:58:046
7.803182403564453,-1.176133575439453,-0.01077374267578125,0.033843883896404095,-0.025580032616050172,-0.042762985157026,2.6300158500671387,2019-06-21 12:36:58:051
7.769664093017578,-1.170148162841797,-0.03471539306640625,0.03450967416892391,-0.02797687759712149,-0.04143140461198638,2.635007858276367,2019-06-21 12:36:58:056
7.785226165771484,-1.1845131530761719,-0.051474548339843745,0.03331125167838825,-0.026778455106585827,-0.04156456266649034,2.6399998664855957,2019-06-21 12:36:58:061
7.778043670654297,-1.1785277404785155,-0.06583953857421875,0.03291177751487637,-0.02704477121559375,-0.042097194884506195,2.644991874694824,2019-06-21 12:36:58:066
7.766072845458984,-1.142615264892578,-0.0550657958984375,0.03317809362388429,-0.02637898094307394,-0.04129824655748242,2.6499838829040527,2019-06-21 12:36:58:071
7.784029083251953,-1.1390240173339843,-0.00119708251953125,0.03317809362388429,-0.02717792927009771,-0.04089877239397054,2.6549758911132812,2019-06-21 12:36:58:076
7.806773651123047,-1.1593744201660157,-0.004788330078125,0.03530862249594768,-0.025979506779562057,-0.04156456266649034,2.6599678993225098,2019-06-21 12:36:58:081
7.798394073486328,-1.1845131530761719,-0.02513873291015625,0.03371072584190014,-0.02704477121559375,-0.042097194884506195,2.6650240421295166,2019-06-21 12:36:58:086
7.7876203308105465,-1.1869073181152343,-0.056262878417968745,0.03331125167838825,-0.02890898397864922,-0.04316245932053789,2.670016050338745,2019-06-21 12:36:58:091
7.762481597900391,-1.1833160705566406,-0.032321228027343746,0.03397704195090806,-0.028509509815137335,-0.04196403683000223,2.6750080585479736,2019-06-21 12:36:58:096
7.788817413330078,-1.1809219055175781,-0.0502774658203125,0.033843883896404095,-0.026645297052081865,-0.04156456266649034,2.680000066757202,2019-06-21 12:36:58:101
7.779240753173828,-1.1869073181152343,-0.056262878417968745,0.03331125167838825,-0.026645297052081865,-0.041031930448474495,2.6849920749664307,2019-06-21 12:36:58:106
7.794802825927734,-1.1653598327636718,-0.08978118896484374,0.03371072584190014,-0.02624582288856998,-0.04143140461198638,2.68998384475708,2019-06-21 12:36:58:111
7.785226165771484,-1.1629656677246094,-0.12569366455078124,0.03424335805991598,-0.025846348725058095,-0.042097194884506195,2.6949758529663086,2019-06-21 12:36:58:116
7.778043670654297,-1.155783172607422,-0.056262878417968745,0.03530862249594768,-0.02611266483406602,-0.04156456266649034,2.699967861175537,2019-06-21 12:36:58:121
7.766072845458984,-1.1641627502441405,-0.04429205322265625,0.03450967416892391,-0.025713190670554133,-0.04183087877549827,2.705024003982544,2019-06-21 12:36:58:126
7.775649505615235,-1.1354327697753905,-0.0502774658203125,0.03437651611441994,-0.027577403433609596,-0.04143140461198638,2.7100160121917725,2019-06-21 12:36:58:131
7.775649505615235,-1.1497977600097655,-0.0550657958984375,0.03517546444144371,-0.026645297052081865,-0.04036614017595468,2.715008020401001,2019-06-21 12:36:58:136
7.78163491821289,-1.141418182373047,-0.05386871337890625,0.03530862249594768,-0.026911613161089788,-0.04036614017595468,2.7200000286102295,2019-06-21 12:36:58:141
7.799591156005859,-1.170148162841797,-0.07781036376953125,0.03397704195090806,-0.029175300087657143,-0.03903455963091507,2.724992036819458,2019-06-21 12:36:58:146
7.77205825805664,-1.1605715026855468,-0.056262878417968745,0.0327786194603724,-0.02797687759712149,-0.04009982406694676,2.7299840450286865,2019-06-21 12:36:58:151
7.763678680419922,-1.1533890075683593,-0.046686218261718745,0.03371072584190014,-0.02704477121559375,-0.03876824352190714,2.734976053237915,2019-06-21 12:36:58:156
7.75290493774414,-1.161768585205078,-0.07062786865234374,0.03411020000541202,-0.02624582288856998,-0.03916771768541903,2.7399680614471436,2019-06-21 12:36:58:161
7.7732553405761715,-1.1737394104003906,-0.06703662109375,0.03317809362388429,-0.026911613161089788,-0.03890140157641111,2.7450239658355713,2019-06-21 12:36:58:166
7.770861175537109,-1.1773306579589844,-0.07062786865234374,0.03237914529686051,-0.026778455106585827,-0.03956719184893091,2.7500159740448,2019-06-21 12:36:58:171
7.767269927978515,-1.1869073181152343,-0.02035040283203125,0.03317809362388429,-0.026911613161089788,-0.03903455963091507,2.7550079822540283,2019-06-21 12:36:58:176
7.7876203308105465,-1.1725423278808593,-0.062248291015625,0.03517546444144371,-0.026512138997577903,-0.03836876935839526,2.759999990463257,2019-06-21 12:36:58:181
7.792408660888672,-1.1737394104003906,-0.052671630859375,0.03490914833243579,-0.027311087324601673,-0.03890140157641111,2.7649919986724854,2019-06-21 12:36:58:186
7.809167816162109,-1.189301483154297,-0.0502774658203125,0.033444409732892214,-0.027444245379105635,-0.03903455963091507,2.769984006881714,2019-06-21 12:36:58:191
7.795999908447265,-1.1845131530761719,-0.0598541259765625,0.03411020000541202,-0.026911613161089788,-0.038635085467403185,2.7749760150909424,2019-06-21 12:36:58:196
7.795999908447265,-1.1821189880371092,-0.08259869384765625,0.03317809362388429,-0.026645297052081865,-0.038635085467403185,2.779968023300171,2019-06-21 12:36:58:201
7.79001449584961,-1.1677539978027343,-0.061051208496093745,0.03317809362388429,-0.027311087324601673,-0.03890140157641111,2.7850239276885986,2019-06-21 12:36:58:206
7.768467010498047,-1.161768585205078,-0.08618994140625,0.03397704195090806,-0.027444245379105635,-0.03730350492236356,2.790015935897827,2019-06-21 12:36:58:211
7.797196990966797,-1.190498565673828,-0.08259869384765625,0.033444409732892214,-0.02704477121559375,-0.036770872704347715,2.7950079441070557,2019-06-21 12:36:58:216
7.805576568603516,-1.1773306579589844,-0.0311241455078125,0.03397704195090806,-0.02704477121559375,-0.03703718881335564,2.799999952316284,2019-06-21 12:36:58:221
7.824729888916015,-1.1809219055175781,-0.0359124755859375,0.033444409732892214,-0.026645297052081865,-0.036770872704347715,2.8049919605255127,2019-06-21 12:36:58:226
7.809167816162109,-1.1725423278808593,-0.05386871337890625,0.0327786194603724,-0.02611266483406602,-0.03850192741289922,2.809983968734741,2019-06-21 12:36:58:231
7.797196990966797,-1.1928927307128907,-0.062248291015625,0.031580196969836744,-0.02637898094307394,-0.03850192741289922,2.8149759769439697,2019-06-21 12:36:58:236
7.769664093017578,-1.1809219055175781,-0.046686218261718745,0.033044935569380325,-0.02704477121559375,-0.03930087573992299,2.8199679851531982,2019-06-21 12:36:58:241
7.760087432861328,-1.203666473388672,-0.06344537353515625,0.03517546444144371,-0.02611266483406602,-0.04036614017595468,2.825023889541626,2019-06-21 12:36:58:246
7.80078823852539,-1.2024693908691406,-0.01077374267578125,0.03584125471396352,-0.02544687456154621,-0.04076561433946657,2.8300158977508545,2019-06-21 12:36:58:251
7.8019853210449215,-1.203666473388672,-0.0359124755859375,0.034642832223427865,-0.024781084289026402,-0.040232982121450725,2.835007905960083,2019-06-21 12:36:58:256
7.782832000732422,-1.1845131530761719,-0.05386871337890625,0.03490914833243579,-0.025180558452538287,-0.04036614017595468,2.8399999141693115,2019-06-21 12:36:58:261
7.81036489868164,-1.171345245361328,-0.04908038330078125,0.035441780550451635,-0.02464792623452244,-0.04089877239397054,2.84499192237854,2019-06-21 12:36:58:266
7.776846588134766,-1.1785277404785155,-0.014364990234375,0.035441780550451635,-0.025180558452538287,-0.041031930448474495,2.8499839305877686,2019-06-21 12:36:58:271
7.774452423095703,-1.170148162841797,-0.03950372314453125,0.03517546444144371,-0.025047400398034325,-0.04143140461198638,2.854975938796997,2019-06-21 12:36:58:276
7.776846588134766,-1.1773306579589844,-0.038306640625,0.03637388693197938,-0.024914242343530364,-0.04129824655748242,2.8599679470062256,2019-06-21 12:36:58:281
7.788817413330078,-1.1773306579589844,-0.0694307861328125,0.03677336109549126,-0.024248452071010555,-0.04223035293901015,2.8650238513946533,2019-06-21 12:36:58:286
7.81036489868164,-1.170148162841797,-0.0119708251953125,0.03584125471396352,-0.02531371650704225,-0.04129824655748242,2.870015859603882,2019-06-21 12:36:58:291
7.778043670654297,-1.1605715026855468,-0.06703662109375,0.03517546444144371,-0.02531371650704225,-0.04116508850297846,2.8750078678131104,2019-06-21 12:36:58:296
7.7732553405761715,-1.170148162841797,-0.041897888183593746,0.03530862249594768,-0.024248452071010555,-0.04089877239397054,2.879999876022339,2019-06-21 12:36:58:301
7.807970733642578,-1.1821189880371092,-0.06703662109375,0.03584125471396352,-0.024248452071010555,-0.041031930448474495,2.8849918842315674,2019-06-21 12:36:58:306
7.797196990966797,-1.1976810607910156,-0.0981607666015625,0.03530862249594768,-0.023715819852994702,-0.040632456284962606,2.889983892440796,2019-06-21 12:36:58:311
7.793605743408203,-1.1785277404785155,-0.041897888183593746,0.03584125471396352,-0.025047400398034325,-0.040632456284962606,2.8949759006500244,2019-06-21 12:36:58:316
7.804379486083985,-1.1773306579589844,-0.06344537353515625,0.036107570822971446,-0.025979506779562057,-0.04036614017595468,2.899967908859253,2019-06-21 12:36:58:321
7.813956146240234,-1.1821189880371092,-0.061051208496093745,0.0366402030409873,-0.02611266483406602,-0.0399666660124428,2.9050240516662598,2019-06-21 12:36:58:326
7.784029083251953,-1.1881044006347656,-0.038306640625,0.03570809665945956,-0.024914242343530364,-0.04129824655748242,2.9100160598754883,2019-06-21 12:36:58:331
7.766072845458984,-1.1797248229980468,-0.0407008056640625,0.03371072584190014,-0.02704477121559375,-0.04116508850297846,2.915008068084717,2019-06-21 12:36:58:336
7.750510772705078,-1.1785277404785155,-0.0550657958984375,0.03597441276846748,-0.026512138997577903,-0.041031930448474495,2.9200000762939453,2019-06-21 12:36:58:341
7.746919525146485,-1.1749364929199217,-0.051474548339843745,0.03597441276846748,-0.025846348725058095,-0.04076561433946657,2.9249918460845947,2019-06-21 12:36:58:346
7.785226165771484,-1.1964839782714844,-0.08738702392578125,0.03677336109549126,-0.025180558452538287,-0.04236351099351412,2.9299838542938232,2019-06-21 12:36:58:351
7.798394073486328,-1.1809219055175781,-0.046686218261718745,0.03637388693197938,-0.025713190670554133,-0.04223035293901015,2.9349758625030518,2019-06-21 12:36:58:356
7.7876203308105465,-1.2024693908691406,-0.02872998046875,0.03677336109549126,-0.025180558452538287,-0.04223035293901015,2.9399678707122803,2019-06-21 12:36:58:361
7.766072845458984,-1.1821189880371092,0.0119708251953125,0.03743915136801107,-0.02624582288856998,-0.04223035293901015,2.945024013519287,2019-06-21 12:36:58:366
7.75290493774414,-1.185710235595703,-0.0215474853515625,0.03637388693197938,-0.027444245379105635,-0.04169772072099431,2.9500160217285156,2019-06-21 12:36:58:371
7.7876203308105465,-1.156980255126953,-0.02035040283203125,0.035441780550451635,-0.028642667869641297,-0.04169772072099431,2.955008029937744,2019-06-21 12:36:58:376
7.786423248291015,-1.1988781433105469,-0.02992706298828125,0.03703967720449918,-0.027710561488113558,-0.042496669048018076,2.9600000381469727,2019-06-21 12:36:58:381
7.793605743408203,-1.2060606384277344,-0.041897888183593746,0.03717283525900315,-0.025979506779562057,-0.04223035293901015,2.9650559425354004,2019-06-21 12:36:58:386
7.785226165771484,-1.1845131530761719,-0.046686218261718745,0.03637388693197938,-0.026645297052081865,-0.042496669048018076,2.9699840545654297,2019-06-21 12:36:58:391
7.756496185302734,-1.2000752258300782,-0.0550657958984375,0.0355749386049556,-0.02704477121559375,-0.04316245932053789,2.974976062774658,2019-06-21 12:36:58:396
7.788817413330078,-1.1821189880371092,-0.0502774658203125,0.035441780550451635,-0.02717792927009771,-0.043695091538553735,2.9799680709838867,2019-06-21 12:36:58:401
7.779240753173828,-1.155783172607422,-0.07062786865234374,0.03637388693197938,-0.02717792927009771,-0.04342877542954581,2.9850239753723145,2019-06-21 12:36:58:406
7.770861175537109,-1.1665569152832032,-0.02753289794921875,0.03677336109549126,-0.02717792927009771,-0.04223035293901015,2.990015983581543,2019-06-21 12:36:58:411
7.799591156005859,-1.1641627502441405,-0.02992706298828125,0.03584125471396352,-0.025979506779562057,-0.04156456266649034,2.9950079917907715,2019-06-21 12:36:58:416
7.797196990966797,-1.1641627502441405,-0.046686218261718745,0.03637388693197938,-0.024914242343530364,-0.04223035293901015,3.0,2019-06-21 12:36:58:421
7.78163491821289,-1.156980255126953,-0.046686218261718745,0.03597441276846748,-0.02624582288856998,-0.042896143211529965,3.0049920082092285,2019-06-21 12:36:58:426
7.775649505615235,-1.1306444396972657,-0.0359124755859375,0.03530862249594768,-0.02611266483406602,-0.04156456266649034,3.009984016418457,2019-06-21 12:36:58:431
7.78163491821289,-1.156980255126953,-0.06703662109375,0.03584125471396352,-0.026645297052081865,-0.04049929823045865,3.0149760246276855,2019-06-21 12:36:58:436
7.7588903503417965,-1.155783172607422,-0.07661328125,0.03530862249594768,-0.026645297052081865,-0.04089877239397054,3.019968032836914,2019-06-21 12:36:58:441
7.792408660888672,-1.1605715026855468,-0.02872998046875,0.036107570822971446,-0.02824319370612941,-0.04129824655748242,3.025023937225342,2019-06-21 12:36:58:446
7.76128451538086,-1.1593744201660157,-0.033518310546875,0.03597441276846748,-0.029175300087657143,-0.04036614017595468,3.0300159454345703,2019-06-21 12:36:58:451
7.766072845458984,-1.1521919250488282,-0.023941650390625,0.03530862249594768,-0.028509509815137335,-0.040232982121450725,3.035007953643799,2019-06-21 12:36:58:456
7.79001449584961,-1.1629656677246094,-0.02274456787109375,0.035441780550451635,-0.02811003565162545,-0.03916771768541903,3.0399999618530273,2019-06-21 12:36:58:461
7.788817413330078,-1.170148162841797,-0.0359124755859375,0.03517546444144371,-0.029308458142161105,-0.03850192741289922,3.044991970062256,2019-06-21 12:36:58:466
7.788817413330078,-1.1533890075683593,-0.02992706298828125,0.034642832223427865,-0.02904214203315318,-0.038635085467403185,3.0499839782714844,2019-06-21 12:36:58:471
7.769664093017578,-1.1821189880371092,-0.04908038330078125,0.03490914833243579,-0.028376351760633373,-0.03916771768541903,3.054975986480713,2019-06-21 12:36:58:476
7.778043670654297,-1.1797248229980468,-0.023941650390625,0.03570809665945956,-0.028509509815137335,-0.03850192741289922,3.0599679946899414,2019-06-21 12:36:58:481
7.79001449584961,-1.1785277404785155,-0.02753289794921875,0.03584125471396352,-0.02824319370612941,-0.03930087573992299,3.065023899078369,2019-06-21 12:36:58:486
7.791211578369141,-1.1809219055175781,-0.032321228027343746,0.03477599027793183,-0.028509509815137335,-0.038635085467403185,3.0700159072875977,2019-06-21 12:36:58:491
7.754102020263672,-1.176133575439453,-0.051474548339843745,0.03424335805991598,-0.02811003565162545,-0.038635085467403185,3.075007915496826,2019-06-21 12:36:58:496
7.799591156005859,-1.170148162841797,-0.052671630859375,0.03424335805991598,-0.027710561488113558,-0.03836876935839526,3.0799999237060547,2019-06-21 12:36:58:501
7.848671539306641,-1.1533890075683593,-0.05865704345703125,0.03424335805991598,-0.026512138997577903,-0.03903455963091507,3.084991931915283,2019-06-21 12:36:58:506
7.813956146240234,-1.161768585205078,-0.07781036376953125,0.03437651611441994,-0.02824319370612941,-0.03890140157641111,3.0899839401245117,2019-06-21 12:36:58:511
7.779240753173828,-1.1677539978027343,-0.0454891357421875,0.033843883896404095,-0.027843719542617527,-0.03850192741289922,3.0949759483337402,2019-06-21 12:36:58:516
7.776846588134766,-1.1797248229980468,-0.02753289794921875,0.03357756778739617,-0.028775825924145258,-0.03810245324938733,3.100031852722168,2019-06-21 12:36:58:521
7.769664093017578,-1.1749364929199217,-0.0502774658203125,0.03371072584190014,-0.026512138997577903,-0.037569821031371485,3.1050238609313965,2019-06-21 12:36:58:526
7.786423248291015,-1.1641627502441405,-0.06344537353515625,0.03424335805991598,-0.026911613161089788,-0.03703718881335564,3.110015869140625,2019-06-21 12:36:58:531
7.784029083251953,-1.1677539978027343,-0.07062786865234374,0.033444409732892214,-0.026512138997577903,-0.03690403075885167,3.1150078773498535,2019-06-21 12:36:58:536
7.784029083251953,-1.155783172607422,-0.052671630859375,0.03411020000541202,-0.027843719542617527,-0.03623824048633187,3.119999885559082,2019-06-21 12:36:58:541
7.788817413330078,-1.1689510803222656,-0.0694307861328125,0.03450967416892391,-0.02824319370612941,-0.03623824048633187,3.1249918937683105,2019-06-21 12:36:58:546
7.784029083251953,-1.1809219055175781,-0.032321228027343746,0.03397704195090806,-0.02824319370612941,-0.03583876632281998,3.129983901977539,2019-06-21 12:36:58:551
7.779240753173828,-1.170148162841797,-0.02513873291015625,0.03317809362388429,-0.02890898397864922,-0.035172976050300175,3.1349759101867676,2019-06-21 12:36:58:556
7.780437835693359,-1.1821189880371092,-0.0359124755859375,0.03357756778739617,-0.028775825924145258,-0.03557245021381206,3.139967918395996,2019-06-21 12:36:58:561
7.780437835693359,-1.1976810607910156,-0.03950372314453125,0.033444409732892214,-0.027444245379105635,-0.03637139854083583,3.145024061203003,2019-06-21 12:36:58:566
7.764875762939453,-1.2000752258300782,-0.0359124755859375,0.03424335805991598,-0.02717792927009771,-0.03663771464984375,3.1500160694122314,2019-06-21 12:36:58:571
7.77205825805664,-1.2168343811035156,-0.0407008056640625,0.035441780550451635,-0.02797687759712149,-0.03730350492236356,3.15500807762146,2019-06-21 12:36:58:576
7.7732553405761715,-1.2024693908691406,-0.0502774658203125,0.034642832223427865,-0.027710561488113558,-0.0371703468678596,3.1599998474121094,2019-06-21 12:36:58:581
7.79001449584961,-1.2132431335449219,-0.06583953857421875,0.03450967416892391,-0.027444245379105635,-0.03703718881335564,3.164991855621338,2019-06-21 12:36:58:586
7.799591156005859,-1.1833160705566406,-0.0574599609375,0.03424335805991598,-0.02797687759712149,-0.03703718881335564,3.1699838638305664,2019-06-21 12:36:58:591
7.768467010498047,-1.2144402160644532,-0.033518310546875,0.03490914833243579,-0.02717792927009771,-0.03690403075885167,3.174975872039795,2019-06-21 12:36:58:596
7.79001449584961,-1.1845131530761719,-0.051474548339843745,0.03450967416892391,-0.028642667869641297,-0.03650455659533979,3.1799678802490234,2019-06-21 12:36:58:601
7.797196990966797,-1.1797248229980468,-0.07541619873046874,0.03437651611441994,-0.02797687759712149,-0.0354392921593081,3.1850240230560303,2019-06-21 12:36:58:606
7.784029083251953,-1.1952868957519531,-0.052671630859375,0.033444409732892214,-0.027577403433609596,-0.03583876632281998,3.190016031265259,2019-06-21 12:36:58:611
7.770861175537109,-1.1845131530761719,-0.0550657958984375,0.033843883896404095,-0.02717792927009771,-0.03477350188678829,3.1950080394744873,2019-06-21 12:36:58:616
7.785226165771484,-1.176133575439453,-0.0574599609375,0.034642832223427865,-0.027311087324601673,-0.035971924377323945,3.200000047683716,2019-06-21 12:36:58:621
7.780437835693359,-1.1773306579589844,-0.0981607666015625,0.03424335805991598,-0.02811003565162545,-0.03623824048633187,3.2049920558929443,2019-06-21 12:36:58:626
7.784029083251953,-1.1749364929199217,-0.11132867431640625,0.03331125167838825,-0.026512138997577903,-0.03663771464984375,3.209984064102173,2019-06-21 12:36:58:631
7.757693267822265,-1.1737394104003906,-0.08978118896484374,0.03357756778739617,-0.025846348725058095,-0.0361050824318279,3.2149760723114014,2019-06-21 12:36:58:636
7.757693267822265,-1.2156372985839843,-0.033518310546875,0.03371072584190014,-0.02544687456154621,-0.035971924377323945,3.21996808052063,2019-06-21 12:36:58:641
7.795999908447265,-1.2072577209472657,-0.04908038330078125,0.03264546140586844,-0.028376351760633373,-0.03637139854083583,3.2250239849090576,2019-06-21 12:36:58:646
7.766072845458984,-1.2000752258300782,-0.0191533203125,0.03184651307884467,-0.027710561488113558,-0.03583876632281998,3.230015993118286,2019-06-21 12:36:58:651
7.774452423095703,-1.1916956481933594,-0.062248291015625,0.03224598724235655,-0.027577403433609596,-0.035971924377323945,3.2350080013275146,2019-06-21 12:36:58:656
7.786423248291015,-1.203666473388672,-0.0502774658203125,0.033444409732892214,-0.026645297052081865,-0.036770872704347715,3.240000009536743,2019-06-21 12:36:58:661
7.77205825805664,-1.204863555908203,-0.02992706298828125,0.03437651611441994,-0.025846348725058095,-0.03703718881335564,3.2449920177459717,2019-06-21 12:36:58:666
7.813956146240234,-1.2407760314941405,-0.02035040283203125,0.03490914833243579,-0.02611266483406602,-0.03703718881335564,3.2499840259552,2019-06-21 12:36:58:671
7.794802825927734,-1.252746856689453,-0.0167591552734375,0.03490914833243579,-0.02637898094307394,-0.03690403075885167,3.2549760341644287,2019-06-21 12:36:58:676
7.778043670654297,-1.224016876220703,-0.046686218261718745,0.03424335805991598,-0.026778455106585827,-0.03690403075885167,3.2600319385528564,2019-06-21 12:36:58:681
7.746919525146485,-1.1916956481933594,-0.08020452880859374,0.03411020000541202,-0.027311087324601673,-0.0361050824318279,3.265023946762085,2019-06-21 12:36:58:686
7.760087432861328,-1.2096518859863281,-0.0215474853515625,0.03397704195090806,-0.025713190670554133,-0.03810245324938733,3.2700159549713135,2019-06-21 12:36:58:691
7.7732553405761715,-1.204863555908203,-0.07661328125,0.03570809665945956,-0.025846348725058095,-0.03810245324938733,3.275007963180542,2019-06-21 12:36:58:696
7.769664093017578,-1.232396453857422,-0.05865704345703125,0.03477599027793183,-0.02637898094307394,-0.038635085467403185,3.2799999713897705,2019-06-21 12:36:58:701
7.782832000732422,-1.2216227111816407,-0.10534326171875,0.03517546444144371,-0.026645297052081865,-0.03890140157641111,3.284991979598999,2019-06-21 12:36:58:706
7.768467010498047,-1.2252139587402344,-0.081401611328125,0.03477599027793183,-0.02717792927009771,-0.03903455963091507,3.2899839878082275,2019-06-21 12:36:58:711
7.754102020263672,-1.218031463623047,-0.0119708251953125,0.03504230638693975,-0.026645297052081865,-0.03876824352190714,3.294975996017456,2019-06-21 12:36:58:716
7.77205825805664,-1.1964839782714844,-0.02513873291015625,0.035441780550451635,-0.026512138997577903,-0.03876824352190714,3.2999680042266846,2019-06-21 12:36:58:721
7.767269927978515,-1.2120460510253905,-0.05386871337890625,0.03477599027793183,-0.02624582288856998,-0.039833507957938837,3.3050239086151123,2019-06-21 12:36:58:726
7.780437835693359,-1.2144402160644532,-0.02513873291015625,0.03570809665945956,-0.026512138997577903,-0.039434033794426955,3.310015916824341,2019-06-21 12:36:58:731
7.791211578369141,-1.2252139587402344,-0.00957666015625,0.0355749386049556,-0.025713190670554133,-0.04049929823045865,3.3150079250335693,2019-06-21 12:36:58:736
7.803182403564453,-1.2096518859863281,-0.01556207275390625,0.03584125471396352,-0.026911613161089788,-0.04036614017595468,3.319999933242798,2019-06-21 12:36:58:741
7.768467010498047,-1.190498565673828,-0.046686218261718745,0.03477599027793183,-0.027444245379105635,-0.039833507957938837,3.3249919414520264,2019-06-21 12:36:58:746
7.791211578369141,-1.218031463623047,-0.02872998046875,0.035441780550451635,-0.026645297052081865,-0.040232982121450725,3.329983949661255,2019-06-21 12:36:58:751
7.785226165771484,-1.233593536376953,-0.06464245605468749,0.03597441276846748,-0.02704477121559375,-0.03970034990343488,3.3349759578704834,2019-06-21 12:36:58:756
7.776846588134766,-1.2120460510253905,-0.0359124755859375,0.0355749386049556,-0.026512138997577903,-0.03916771768541903,3.339967966079712,2019-06-21 12:36:58:761
7.794802825927734,-1.2144402160644532,-0.0598541259765625,0.03477599027793183,-0.026512138997577903,-0.04036614017595468,3.3450238704681396,2019-06-21 12:36:58:766
7.794802825927734,-1.2395789489746094,-0.0311241455078125,0.034642832223427865,-0.027444245379105635,-0.04143140461198638,3.350015878677368,2019-06-21 12:36:58:771
7.774452423095703,-1.2216227111816407,-0.0191533203125,0.03424335805991598,-0.026911613161089788,-0.04196403683000223,3.3550078868865967,2019-06-21 12:36:58:776
7.779240753173828,-1.2156372985839843,-0.0071824951171875,0.03477599027793183,-0.025979506779562057,-0.042496669048018076,3.359999895095825,2019-06-21 12:36:58:781
7.76128451538086,-1.2216227111816407,-0.06823370361328125,0.03517546444144371,-0.026645297052081865,-0.042097194884506195,3.3649919033050537,2019-06-21 12:36:58:786
7.79001449584961,-1.219228546142578,-0.09217535400390625,0.034642832223427865,-0.025846348725058095,-0.04223035293901015,3.3699839115142822,2019-06-21 12:36:58:791
7.788817413330078,-1.232396453857422,-0.10414617919921874,0.03690651914999522,-0.025846348725058095,-0.04196403683000223,3.3749759197235107,2019-06-21 12:36:58:796
7.792408660888672,-1.232396453857422,-0.08020452880859374,0.03770546747701899,-0.02611266483406602,-0.04236351099351412,3.3799679279327393,2019-06-21 12:36:58:801
7.779240753173828,-1.2156372985839843,-0.09696368408203125,0.0383712577495388,-0.025047400398034325,-0.042097194884506195,3.385024070739746,2019-06-21 12:36:58:806
7.768467010498047,-1.2084548034667968,-0.08020452880859374,0.03743915136801107,-0.025180558452538287,-0.043295617375041846,3.3900160789489746,2019-06-21 12:36:58:811
7.778043670654297,-1.2216227111816407,-0.0598541259765625,0.038104941640530875,-0.024914242343530364,-0.042896143211529965,3.395007848739624,2019-06-21 12:36:58:816
7.754102020263672,-1.2084548034667968,-0.038306640625,0.03850441580404276,-0.024381610125514517,-0.04342877542954581,3.3999998569488525,2019-06-21 12:36:58:821
7.775649505615235,-1.2419731140136718,-0.0694307861328125,0.03917020607656257,-0.024248452071010555,-0.04462719792008147,3.404991865158081,2019-06-21 12:36:58:826
7.778043670654297,-1.2204256286621094,-0.07541619873046874,0.038903889967554645,-0.023848977907498663,-0.04569246235611316,3.4099838733673096,2019-06-21 12:36:58:831
7.77205825805664,-1.2491556091308593,-0.062248291015625,0.037971783586026917,-0.023982135962002625,-0.046091936519625044,3.414975881576538,2019-06-21 12:36:58:836
7.768467010498047,-1.2503526916503906,-0.07062786865234374,0.03690651914999522,-0.025180558452538287,-0.04662456873764089,3.4199678897857666,2019-06-21 12:36:58:841
7.775649505615235,-1.2647176818847656,-0.08259869384765625,0.03770546747701899,-0.024914242343530364,-0.04729035901016071,3.4250240325927734,2019-06-21 12:36:58:846
7.756496185302734,-1.265914764404297,-0.043094970703125,0.03770546747701899,-0.024781084289026402,-0.04875509760970429,3.430016040802002,2019-06-21 12:36:58:851
7.7732553405761715,-1.238381866455078,-0.06703662109375,0.03770546747701899,-0.026512138997577903,-0.04968720399123202,3.4350080490112305,2019-06-21 12:36:58:856
7.770861175537109,-1.2395789489746094,-0.05865704345703125,0.0366402030409873,-0.025580032616050172,-0.050219836209247866,3.440000057220459,2019-06-21 12:36:58:861
7.7588903503417965,-1.2419731140136718,0.00598541259765625,0.035441780550451635,-0.026512138997577903,-0.05075246842726371,3.4449920654296875,2019-06-21 12:36:58:866
7.751707855224609,-1.2419731140136718,-0.041897888183593746,0.03437651611441994,-0.026512138997577903,-0.051285100645279566,3.449984073638916,2019-06-21 12:36:58:871
7.76128451538086,-1.2096518859863281,-0.038306640625,0.03624072887747541,-0.02824319370612941,-0.05181773286329541,3.4549760818481445,2019-06-21 12:36:58:876
7.749313690185547,-1.2407760314941405,-0.01556207275390625,0.03570809665945956,-0.026911613161089788,-0.05261668119031918,3.459967851638794,2019-06-21 12:36:58:881
7.764875762939453,-1.233593536376953,-0.0359124755859375,0.03530862249594768,-0.02531371650704225,-0.053815103680854834,3.465023994445801,2019-06-21 12:36:58:886
7.779240753173828,-1.2395789489746094,-0.062248291015625,0.03504230638693975,-0.02624582288856998,-0.054747210062382576,3.4700798988342285,2019-06-21 12:36:58:891
7.780437835693359,-1.2455643615722656,-0.0550657958984375,0.03437651611441994,-0.025713190670554133,-0.05567931644391031,3.475008010864258,2019-06-21 12:36:58:896
7.766072845458984,-1.2347906188964843,-0.052671630859375,0.03397704195090806,-0.02544687456154621,-0.055945632552918234,3.4800000190734863,2019-06-21 12:36:58:901
7.782832000732422,-1.2395789489746094,-0.07781036376953125,0.03331125167838825,-0.025580032616050172,-0.057144055043453885,3.484992027282715,2019-06-21 12:36:58:906
7.763678680419922,-1.2264110412597655,-0.052671630859375,0.03371072584190014,-0.02637898094307394,-0.057943003370477655,3.4899840354919434,2019-06-21 12:36:58:911
7.762481597900391,-1.2204256286621094,-0.07781036376953125,0.033843883896404095,-0.02637898094307394,-0.059807216133533125,3.494976043701172,2019-06-21 12:36:58:916
7.768467010498047,-1.2395789489746094,-0.0694307861328125,0.034642832223427865,-0.025180558452538287,-0.0578098453159737,3.4999680519104004,2019-06-21 12:36:58:921
7.805576568603516,-1.233593536376953,0.0119708251953125,0.03411020000541202,-0.024914242343530364,-0.05767668726146973,3.505023956298828,2019-06-21 12:36:58:926
7.760087432861328,-1.2072577209472657,-0.004788330078125,0.033044935569380325,-0.025580032616050172,-0.059940374188037084,3.5100159645080566,2019-06-21 12:36:58:931
7.774452423095703,-1.2168343811035156,-0.0167591552734375,0.03237914529686051,-0.02464792623452244,-0.06153827084208462,3.515007972717285,2019-06-21 12:36:58:936
7.766072845458984,-1.218031463623047,0.00837957763671875,0.03397704195090806,-0.025713190670554133,-0.06193774500559652,3.5199999809265137,2019-06-21 12:36:58:941
7.750510772705078,-1.2132431335449219,0.00359124755859375,0.03357756778739617,-0.025846348725058095,-0.06180458695109256,3.524991989135742,2019-06-21 12:36:58:946
7.754102020263672,-1.190498565673828,0.02992706298828125,0.03184651307884467,-0.02611266483406602,-0.06233721916910841,3.5299839973449707,2019-06-21 12:36:58:951
7.764875762939453,-1.1809219055175781,-0.03471539306640625,0.030115458370293165,-0.02637898094307394,-0.06313616749613217,3.534976005554199,2019-06-21 12:36:58:956
7.7588903503417965,-1.204863555908203,-0.004788330078125,0.030115458370293165,-0.027311087324601673,-0.06286985138712425,3.5399680137634277,2019-06-21 12:36:58:961
7.778043670654297,-1.219228546142578,0.02035040283203125,0.029982300315789204,-0.02544687456154621,-0.06406827387765991,3.5450239181518555,2019-06-21 12:36:58:966
7.80078823852539,-1.2347906188964843,-0.00837957763671875,0.030115458370293165,-0.027577403433609596,-0.06566617053170745,3.550015926361084,2019-06-21 12:36:58:971
7.770861175537109,-1.1964839782714844,-0.03950372314453125,0.02918335198876543,-0.027577403433609596,-0.0651335383136916,3.5550079345703125,2019-06-21 12:36:58:976
7.784029083251953,-1.2120460510253905,-0.051474548339843745,0.029449668097773354,-0.027843719542617527,-0.0651335383136916,3.559999942779541,2019-06-21 12:36:58:981
7.782832000732422,-1.2120460510253905,-0.0311241455078125,0.03038177447930109,-0.027710561488113558,-0.06606564469521933,3.5649919509887695,2019-06-21 12:36:58:986
7.779240753173828,-1.2084548034667968,-0.081401611328125,0.02865071977074958,-0.027843719542617527,-0.06753038329476291,3.569983959197998,2019-06-21 12:36:58:991
7.755299102783203,-1.218031463623047,-0.10534326171875,0.028783877825253542,-0.028376351760633373,-0.06766354134926687,3.5749759674072266,2019-06-21 12:36:58:996
7.7876203308105465,-1.2216227111816407,-0.11252575683593749,0.02865071977074958,-0.026512138997577903,-0.06806301551277875,3.579967975616455,2019-06-21 12:36:59:001
7.786423248291015,-1.2024693908691406,-0.081401611328125,0.03131388086082882,-0.026911613161089788,-0.06806301551277875,3.585023880004883,2019-06-21 12:36:59:006
7.78163491821289,-1.185710235595703,-0.07781036376953125,0.030914406697316935,-0.02717792927009771,-0.06819617356728272,3.5900158882141113,2019-06-21 12:36:59:011
7.7732553405761715,-1.1809219055175781,-0.10414617919921874,0.028783877825253542,-0.02704477121559375,-0.0685956477307946,3.59500789642334,2019-06-21 12:36:59:016
7.75290493774414,-1.147403594970703,-0.0694307861328125,0.029582826152277315,-0.02704477121559375,-0.06819617356728272,3.5999999046325684,2019-06-21 12:36:59:021
7.769664093017578,-1.1605715026855468,-0.0407008056640625,0.030248616424797127,-0.026778455106585827,-0.0685956477307946,3.604991912841797,2019-06-21 12:36:59:026
7.780437835693359,-1.1330386047363281,-0.023941650390625,0.031047564751820897,-0.025580032616050172,-0.06806301551277875,3.6099839210510254,2019-06-21 12:36:59:031
7.774452423095703,-1.1162794494628907,-0.038306640625,0.031979671133348625,-0.026778455106585827,-0.06832933162178668,3.614975929260254,2019-06-21 12:36:59:036
7.794802825927734,-1.1186736145019531,-0.051474548339843745,0.03131388086082882,-0.026512138997577903,-0.0679298574582748,3.6199679374694824,2019-06-21 12:36:59:041
7.762481597900391,-1.1294473571777344,-0.07302203369140625,0.03211282918785259,-0.025979506779562057,-0.06659827691323518,3.6250240802764893,2019-06-21 12:36:59:046
7.78163491821289,-1.1521919250488282,-0.0407008056640625,0.03051493253380505,-0.025846348725058095,-0.06606564469521933,3.6300158500671387,2019-06-21 12:36:59:051
