ACCELEROMETER X (m/s²),ACCELEROMETER Y (m/s²),ACCELEROMETER Z (m/s²),GYROSCOPE X (rad/s),GYROSCOPE Y (rad/s),GYROSCOPE Z (rad/s),Time since start in ms ,YYYY-MO-DD HH-MI-SS_SSS
6.466041229248047,5.182768768310547,0.12808782958984374,0.027984929498229772,-0.029441616196665066,-0.07458776018347289,0.0,2019-06-21 12:48:51:558
6.497165374755859,5.187557098388671,0.10414617919921874,0.029316510043269392,-0.028509509815137335,-0.07485407629248082,0.004992008209228516,2019-06-21 12:48:51:563
6.461252899169922,5.1899512634277345,0.0694307861328125,0.02851756171624562,-0.028509509815137335,-0.07551986656500062,0.009984016418457031,2019-06-21 12:48:51:568
6.506742034912109,5.201922088623046,0.06583953857421875,0.028118087552733734,-0.030107406469184875,-0.07485407629248082,0.014976024627685547,2019-06-21 12:48:51:573
6.491179962158203,5.192345428466797,0.0957666015625,0.02785177144372581,-0.030373722578192798,-0.07591934072851252,0.019968032836914062,2019-06-21 12:48:51:578
6.482800384521484,5.203119171142578,0.071824951171875,0.02851756171624562,-0.031971619232240345,-0.07485407629248082,0.024960041046142578,2019-06-21 12:48:51:583
6.451676239013672,5.21508999633789,0.081401611328125,0.028917035879757504,-0.030773196741704683,-0.07392196991095308,0.029952049255371094,2019-06-21 12:48:51:588
6.455267486572265,5.225863739013672,0.10534326171875,0.027319139225709964,-0.029974248414680913,-0.07312302158392932,0.03494405746459961,2019-06-21 12:48:51:593
6.4887857971191405,5.213892913818359,0.1340732421875,0.027319139225709964,-0.0314389870142245,-0.07285670547492139,0.039936065673828125,2019-06-21 12:48:51:598
6.485194549560546,5.231849151611328,0.090978271484375,0.027984929498229772,-0.031572145068728456,-0.07205775714789762,0.04492807388305664,2019-06-21 12:48:51:603
6.472026641845703,5.219878326416016,0.07661328125,0.02785177144372581,-0.031172670905216568,-0.07112565076636988,0.049920082092285156,2019-06-21 12:48:51:608
6.505544952392578,5.2486083068847655,0.062248291015625,0.02705282311670204,-0.031572145068728456,-0.07059301854835404,0.05491209030151367,2019-06-21 12:48:51:613
6.482800384521484,5.245017059326171,0.09217535400390625,0.026387032844182232,-0.03303688366827204,-0.06952775411232234,0.06003212928771973,2019-06-21 12:48:51:618
6.493574127197266,5.241425811767578,0.06464245605468749,0.02558808451715846,-0.03303688366827204,-0.06886196383980253,0.06502413749694824,2019-06-21 12:48:51:623
6.49836245727539,5.239031646728516,0.07781036376953125,0.026786507007694117,-0.033170041722776,-0.06753038329476291,0.07001614570617676,2019-06-21 12:48:51:628
6.509136199951172,5.260579132080078,0.061051208496093745,0.026520190898686194,-0.031971619232240345,-0.06673143496773914,0.07500815391540527,2019-06-21 12:48:51:633
6.489982879638672,5.268958709716797,0.0407008056640625,0.027185981171206002,-0.03223793534124827,-0.06553301247720349,0.08000016212463379,2019-06-21 12:48:51:638
6.46963247680664,5.258184967041015,0.07062786865234374,0.024522820081126762,-0.032637409504760156,-0.0644677480411718,0.0849921703338623,2019-06-21 12:48:51:643
6.470829559326171,5.267761627197266,0.062248291015625,0.024655978135630724,-0.032637409504760156,-0.06260353527811632,0.08998417854309082,2019-06-21 12:48:51:648
6.494771209716797,5.241425811767578,0.06583953857421875,0.024789136190134686,-0.03223793534124827,-0.06047300640605293,0.09497594833374023,2019-06-21 12:48:51:653
6.476814971923828,5.260579132080078,0.114919921875,0.02359071369959903,-0.0349010964313275,-0.0595409000245252,0.09996795654296875,2019-06-21 12:48:51:658
6.472026641845703,5.265367462158203,0.12449658203125,0.022924923427079223,-0.03410214810430373,-0.0578098453159737,0.10495996475219727,2019-06-21 12:48:51:663
6.464844146728516,5.295294525146485,0.1508323974609375,0.024522820081126762,-0.034235306158807696,-0.05741037115246181,0.10995197296142578,2019-06-21 12:48:51:668
6.475617889404297,5.268958709716797,0.1651973876953125,0.023191239536087146,-0.03410214810430373,-0.05661142282543804,0.1149439811706543,2019-06-21 12:48:51:673
6.467238311767578,5.274944122314453,0.10175201416015625,0.022924923427079223,-0.03476793837682354,-0.05448089395337465,0.11993598937988281,2019-06-21 12:48:51:678
6.461252899169922,5.261776214599609,0.0502774658203125,0.022924923427079223,-0.03410214810430373,-0.05328247146283899,0.12492799758911133,2019-06-21 12:48:51:683
6.437311248779297,5.27254995727539,0.06583953857421875,0.021859658991047526,-0.034235306158807696,-0.05235036508131126,0.12992000579833984,2019-06-21 12:48:51:688
6.454070404052734,5.260579132080078,0.0790074462890625,0.022924923427079223,-0.033436357831783926,-0.0511519425907756,0.13491201400756836,2019-06-21 12:48:51:693
6.472026641845703,5.264170379638672,0.0550657958984375,0.022658607318071296,-0.03463478032231958,-0.047423517064664675,0.14003205299377441,2019-06-21 12:48:51:698
6.461252899169922,5.270155792236328,0.046686218261718745,0.02079439455501583,-0.035433728649343355,-0.04635825262863297,0.14502406120300293,2019-06-21 12:48:51:703
6.454070404052734,5.274944122314453,0.04908038330078125,0.021726500936543564,-0.03583320281285524,-0.04542614624710524,0.15001606941223145,2019-06-21 12:48:51:708
6.455267486572265,5.253396636962891,0.046686218261718745,0.021726500936543564,-0.035433728649343355,-0.043695091538553735,0.15500807762145996,2019-06-21 12:48:51:713
6.462449981689453,5.251002471923828,0.08738702392578125,0.021593342882039603,-0.03410214810430373,-0.04223035293901015,0.16000008583068848,2019-06-21 12:48:51:718
6.489982879638672,5.266564544677734,0.037109558105468746,0.02146018482753564,-0.033170041722776,-0.041031930448474495,0.164992094039917,2019-06-21 12:48:51:723
6.462449981689453,5.249805389404297,0.0215474853515625,0.021859658991047526,-0.03450162226781562,-0.040632456284962606,0.1699841022491455,2019-06-21 12:48:51:728
6.476814971923828,5.252199554443359,0.06823370361328125,0.022525449263567334,-0.033170041722776,-0.03890140157641111,0.17497611045837402,2019-06-21 12:48:51:733
6.468435394287109,5.2486083068847655,0.071824951171875,0.022658607318071296,-0.033569515886287885,-0.03663771464984375,0.17996811866760254,2019-06-21 12:48:51:738
6.455267486572265,5.225863739013672,0.06583953857421875,0.022525449263567334,-0.03410214810430373,-0.034107711614268475,0.18496012687683105,2019-06-21 12:48:51:743
6.476814971923828,5.24381997680664,0.0502774658203125,0.022924923427079223,-0.03370267394079185,-0.03370823745075659,0.18995213508605957,2019-06-21 12:48:51:748
6.461252899169922,5.24381997680664,0.052671630859375,0.024655978135630724,-0.03170530312323242,-0.033441921341748664,0.19494414329528809,2019-06-21 12:48:51:753
6.461252899169922,5.219878326416016,0.06583953857421875,0.02518861035364657,-0.03210477728674431,-0.032642973014724894,0.1999361515045166,2019-06-21 12:48:51:758
6.452873321533203,5.227060821533203,0.07661328125,0.024922294244638647,-0.03170530312323242,-0.03091191830617339,0.20492815971374512,2019-06-21 12:48:51:763
6.46963247680664,5.192345428466797,0.0359124755859375,0.02558808451715846,-0.03210477728674431,-0.031045076360677357,0.20992016792297363,2019-06-21 12:48:51:768
6.475617889404297,5.183965850830078,0.06583953857421875,0.025987558680670344,-0.03170530312323242,-0.03011296997914962,0.21491217613220215,2019-06-21 12:48:51:773
6.482800384521484,5.216287078857421,0.06464245605468749,0.02558808451715846,-0.029441616196665066,-0.02851507332510208,0.2200319766998291,2019-06-21 12:48:51:778
6.499559539794921,5.210301666259766,0.12808782958984374,0.027185981171206002,-0.029974248414680913,-0.027183492780062456,0.22502398490905762,2019-06-21 12:48:51:783
6.476814971923828,5.197133758544922,0.090978271484375,0.02771861338922185,-0.02970793230567299,-0.026517702507542647,0.23001599311828613,2019-06-21 12:48:51:788
6.486391632080078,5.192345428466797,0.10893450927734374,0.02851756171624562,-0.030107406469184875,-0.025718754180518878,0.23500800132751465,2019-06-21 12:48:51:793
6.485194549560546,5.176783355712891,0.07661328125,0.027319139225709964,-0.030107406469184875,-0.026517702507542647,0.24000000953674316,2019-06-21 12:48:51:798
6.485194549560546,5.169600860595703,0.0215474853515625,0.02865071977074958,-0.028775825924145258,-0.026118228344030762,0.24499201774597168,2019-06-21 12:48:51:803
6.512727447509765,5.176783355712891,0.05386871337890625,0.030115458370293165,-0.028642667869641297,-0.026251386398534724,0.2499840259552002,2019-06-21 12:48:51:808
6.515121612548828,5.187557098388671,0.0790074462890625,0.02971598420678128,-0.02797687759712149,-0.027183492780062456,0.2549760341644287,2019-06-21 12:48:51:813
6.53547201538086,5.185162933349609,0.0359124755859375,0.03144703891533278,-0.026645297052081865,-0.027050334725558494,0.2599680423736572,2019-06-21 12:48:51:818
6.530683685302734,5.198330841064453,0.10893450927734374,0.033044935569380325,-0.02704477121559375,-0.027449808889070386,0.26496005058288574,2019-06-21 12:48:51:823
6.523501190185547,5.182768768310547,0.07781036376953125,0.034642832223427865,-0.02611266483406602,-0.026384544453038686,0.26995205879211426,2019-06-21 12:48:51:828
6.509136199951172,5.163615447998047,0.07661328125,0.0355749386049556,-0.02624582288856998,-0.026384544453038686,0.2749440670013428,2019-06-21 12:48:51:833
6.505544952392578,5.155235870361328,0.051474548339843745,0.03437651611441994,-0.02624582288856998,-0.02678401861655057,0.2799360752105713,2019-06-21 12:48:51:838
6.510333282470703,5.1444621276855464,0.11132867431640625,0.036107570822971446,-0.026911613161089788,-0.027582966943574348,0.2849280834197998,2019-06-21 12:48:51:843
6.509136199951172,5.154038787841797,0.09217535400390625,0.03690651914999522,-0.025180558452538287,-0.02665086056204661,0.2899200916290283,2019-06-21 12:48:51:848
6.497165374755859,5.134885467529297,0.0790074462890625,0.037971783586026917,-0.02544687456154621,-0.027050334725558494,0.29491209983825684,2019-06-21 12:48:51:853
6.518712860107422,5.166009613037109,0.09696368408203125,0.03930336413106653,-0.025580032616050172,-0.025718754180518878,0.3000321388244629,2019-06-21 12:48:51:858
6.516318695068359,5.139673797607422,0.061051208496093745,0.041567051057633884,-0.024781084289026402,-0.026517702507542647,0.3050241470336914,2019-06-21 12:48:51:863
6.515121612548828,5.131294219970703,0.10294909667968749,0.04090126078511408,-0.023982135962002625,-0.027982441107086233,0.3100161552429199,2019-06-21 12:48:51:868
6.528289520263672,5.120520477294922,0.09456951904296874,0.041567051057633884,-0.02358266179849074,-0.028914547488613964,0.31500816345214844,2019-06-21 12:48:51:873
6.543851593017578,5.122914642333984,0.12329949951171874,0.04130073494862596,-0.022916871525970932,-0.029580337761133772,0.32000017166137695,2019-06-21 12:48:51:878
6.543851593017578,5.092987579345703,0.09696368408203125,0.043031789657177466,-0.022517397362459047,-0.02944717970662981,0.32499217987060547,2019-06-21 12:48:51:883
6.530683685302734,5.092987579345703,0.07781036376953125,0.04436337020221709,-0.02131897487192339,-0.029846653870141696,0.3299839496612549,2019-06-21 12:48:51:888
6.543851593017578,5.133688385009766,0.01795623779296875,0.04636074101977652,-0.019987394326883772,-0.030778760251669427,0.3349759578704834,2019-06-21 12:48:51:893
6.551034088134766,5.107352569580078,0.07421911621093749,0.04649389907428048,-0.020253710435891695,-0.031045076360677357,0.3399679660797119,2019-06-21 12:48:51:898
6.522304107666016,5.0870021667480465,0.052671630859375,0.04715968934680029,-0.01838949767283623,-0.03224349885121301,0.34495997428894043,2019-06-21 12:48:51:903
6.507939117431641,5.106155487060547,0.06583953857421875,0.047559163510312176,-0.018655813781844152,-0.03357507939625263,0.34995198249816895,2019-06-21 12:48:51:908
6.49836245727539,5.106155487060547,0.07302203369140625,0.04902390210985575,-0.018256339618332267,-0.033308763287244705,0.35494399070739746,2019-06-21 12:48:51:913
6.521107025146485,5.124111724853515,0.071824951171875,0.04942337627336764,-0.01719107518230057,-0.03397455355976452,0.359935998916626,2019-06-21 12:48:51:918
6.52709243774414,5.137279632568359,0.0598541259765625,0.050355482654895374,-0.016125810746268877,-0.03477350188678829,0.3649280071258545,2019-06-21 12:48:51:923
6.5175157775878905,5.162418365478516,0.046686218261718745,0.04942337627336764,-0.01585949463726095,-0.03637139854083583,0.369920015335083,2019-06-21 12:48:51:928
6.513924530029297,5.1612212829589845,0.0981607666015625,0.04982285043687952,-0.015593178528253027,-0.03637139854083583,0.3749120235443115,2019-06-21 12:48:51:933
6.534274932861328,5.150447540283203,0.1077374267578125,0.051553905145431025,-0.01572633658275699,-0.03663771464984375,0.3800320625305176,2019-06-21 12:48:51:938
6.539063262939453,5.124111724853515,0.10654034423828125,0.051154430981919144,-0.014661072146725296,-0.03730350492236356,0.3850240707397461,2019-06-21 12:48:51:943
6.536669097900391,5.106155487060547,0.110131591796875,0.05208653736344687,-0.01426159798321341,-0.03876824352190714,0.3900160789489746,2019-06-21 12:48:51:948
6.519909942626953,5.1444621276855464,0.0359124755859375,0.051953379308942914,-0.014794230201229257,-0.03916771768541903,0.3950080871582031,2019-06-21 12:48:51:953
6.5175157775878905,5.127702972412109,0.08020452880859374,0.05275232763596669,-0.014527914092221334,-0.03903455963091507,0.40000009536743164,2019-06-21 12:48:51:958
6.528289520263672,5.12890005493164,0.1316790771484375,0.051953379308942914,-0.016791601018788686,-0.0399666660124428,0.40499210357666016,2019-06-21 12:48:51:963
6.523501190185547,5.126505889892578,0.10294909667968749,0.05208653736344687,-0.01506054631023718,-0.04129824655748242,0.40998411178588867,2019-06-21 12:48:51:968
6.494771209716797,5.152841705322266,0.051474548339843745,0.05248601152695876,-0.014661072146725296,-0.04116508850297846,0.4149761199951172,2019-06-21 12:48:51:973
6.5175157775878905,5.166009613037109,0.04429205322265625,0.0534181179084865,-0.0135958077106936,-0.04156456266649034,0.4199681282043457,2019-06-21 12:48:51:978
6.518712860107422,5.160024200439453,0.08738702392578125,0.05474969845352612,-0.014794230201229257,-0.04156456266649034,0.4249601364135742,2019-06-21 12:48:51:983
6.483997467041015,5.200725006103515,0.0885841064453125,0.05408390818100631,-0.014128439928709446,-0.041031930448474495,0.42995214462280273,2019-06-21 12:48:51:988
6.493574127197266,5.192345428466797,0.110131591796875,0.05221969541795084,-0.013196333547181714,-0.04129824655748242,0.4350719451904297,2019-06-21 12:48:51:993
6.491179962158203,5.205513336181641,0.041897888183593746,0.051953379308942914,-0.01372896576519756,-0.042097194884506195,0.43993616104125977,2019-06-21 12:48:51:998
6.478012054443359,5.224666656494141,0.114919921875,0.05088811487291122,-0.015460020473749066,-0.040232982121450725,0.4449281692504883,2019-06-21 12:48:52:003
6.456464569091796,5.216287078857421,0.08020452880859374,0.05142074709092707,-0.015326862419245104,-0.03903455963091507,0.4499201774597168,2019-06-21 12:48:52:008
6.478012054443359,5.230652069091796,0.0598541259765625,0.049956008491383486,-0.016924759073292647,-0.03903455963091507,0.4549119472503662,2019-06-21 12:48:52:013
6.495968292236328,5.2330462341308595,0.06823370361328125,0.04862442794634387,-0.01625896880077284,-0.03876824352190714,0.46003198623657227,2019-06-21 12:48:52:018
6.4887857971191405,5.229454986572265,0.11372283935546874,0.0478254796193201,-0.015992652691764912,-0.03743666297686753,0.4650239944458008,2019-06-21 12:48:52:023
6.506742034912109,5.228257904052734,0.07421911621093749,0.046893373237792364,-0.016125810746268877,-0.03663771464984375,0.4700160026550293,2019-06-21 12:48:52:028
6.501953704833984,5.21508999633789,0.0454891357421875,0.04662705712878444,-0.015992652691764912,-0.03637139854083583,0.4750080108642578,2019-06-21 12:48:52:033
6.5031507873535155,5.181571685791016,0.0359124755859375,0.04715968934680029,-0.01572633658275699,-0.0361050824318279,0.48000001907348633,2019-06-21 12:48:52:038
6.479209136962891,5.198330841064453,0.07421911621093749,0.047692321564816134,-0.015992652691764912,-0.03650455659533979,0.48499202728271484,2019-06-21 12:48:52:043
6.495968292236328,5.207907501220703,0.09217535400390625,0.04542863463824879,-0.018655813781844152,-0.03477350188678829,0.48998403549194336,2019-06-21 12:48:52:048
6.4887857971191405,5.187557098388671,0.02753289794921875,0.0439638960387052,-0.01838949767283623,-0.0354392921593081,0.4949760437011719,2019-06-21 12:48:52:053
6.510333282470703,5.192345428466797,0.07302203369140625,0.044230212147713124,-0.017723707400316417,-0.0354392921593081,0.4999680519104004,2019-06-21 12:48:52:058
6.510333282470703,5.181571685791016,0.07302203369140625,0.0428986316026735,-0.018256339618332267,-0.035172976050300175,0.5049600601196289,2019-06-21 12:48:52:063
6.511530364990234,5.200725006103515,0.08738702392578125,0.04316494771168143,-0.019055287945356037,-0.0343740277232764,0.5099520683288574,2019-06-21 12:48:52:068
6.467238311767578,5.203119171142578,0.12210241699218749,0.04249915743916162,-0.019587920163371884,-0.03277613106922886,0.5149440765380859,2019-06-21 12:48:52:073
6.443296661376953,5.206710418701172,0.16280322265625,0.041433893003129926,-0.019987394326883772,-0.031844024687701124,0.5199360847473145,2019-06-21 12:48:52:078
6.486391632080078,5.195936676025391,0.12210241699218749,0.04170020911213785,-0.021185816817419427,-0.031710866633197166,0.524928092956543,2019-06-21 12:48:52:083
6.489982879638672,5.200725006103515,0.100554931640625,0.041167576894122,-0.021585290980931315,-0.030645602197165465,0.5299201011657715,2019-06-21 12:48:52:088
6.506742034912109,5.2043162536621095,0.0885841064453125,0.039969154403586345,-0.023050029580474894,-0.030778760251669427,0.5350401401519775,2019-06-21 12:48:52:093
6.499559539794921,5.209104583740234,0.114919921875,0.03770546747701899,-0.025047400398034325,-0.029713495815637734,0.540032148361206,2019-06-21 12:48:52:098
6.524698272705078,5.162418365478516,0.0981607666015625,0.03783862553152295,-0.025180558452538287,-0.02864823137960604,0.5450241565704346,2019-06-21 12:48:52:103
6.513924530029297,5.154038787841797,0.071824951171875,0.03703967720449918,-0.023982135962002625,-0.029846653870141696,0.5500161647796631,2019-06-21 12:48:52:108
6.485194549560546,5.158827117919921,0.09337243652343749,0.03517546444144371,-0.02358266179849074,-0.029846653870141696,0.5550081729888916,2019-06-21 12:48:52:113
6.49836245727539,5.192345428466797,0.100554931640625,0.036107570822971446,-0.025047400398034325,-0.02944717970662981,0.5600001811981201,2019-06-21 12:48:52:118
6.537866180419922,5.168403778076172,0.1077374267578125,0.03530862249594768,-0.02544687456154621,-0.029047705543117926,0.5649919509887695,2019-06-21 12:48:52:123
6.519909942626953,5.1899512634277345,0.08978118896484374,0.03251230335136447,-0.02704477121559375,-0.02851507332510208,0.569983959197998,2019-06-21 12:48:52:128
6.536669097900391,5.195936676025391,0.06464245605468749,0.03251230335136447,-0.02797687759712149,-0.02944717970662981,0.5749759674072266,2019-06-21 12:48:52:133
6.528289520263672,5.170797943115234,0.1077374267578125,0.034642832223427865,-0.02797687759712149,-0.02944717970662981,0.5799679756164551,2019-06-21 12:48:52:138
6.511530364990234,5.160024200439453,0.13766448974609374,0.03357756778739617,-0.02904214203315318,-0.02864823137960604,0.5849599838256836,2019-06-21 12:48:52:143
6.537866180419922,5.145659210205078,0.090978271484375,0.03118072280632486,-0.028642667869641297,-0.028914547488613964,0.5899519920349121,2019-06-21 12:48:52:148
6.52709243774414,5.1324913024902346,0.062248291015625,0.031979671133348625,-0.02890898397864922,-0.02851507332510208,0.5949440002441406,2019-06-21 12:48:52:153
6.525895355224609,5.154038787841797,0.119708251953125,0.033044935569380325,-0.02970793230567299,-0.028914547488613964,0.5999360084533691,2019-06-21 12:48:52:158
6.486391632080078,5.122914642333984,0.07781036376953125,0.030781248642812974,-0.03050688063269676,-0.029047705543117926,0.6049280166625977,2019-06-21 12:48:52:163
6.509136199951172,5.107352569580078,0.0598541259765625,0.029449668097773354,-0.03130582895972053,-0.028914547488613964,0.6099200248718262,2019-06-21 12:48:52:168
6.491179962158203,5.096578826904297,0.06344537353515625,0.02918335198876543,-0.03064003868720072,-0.03011296997914962,0.6150400638580322,2019-06-21 12:48:52:173
6.499559539794921,5.103761322021485,0.09935784912109374,0.02971598420678128,-0.03130582895972053,-0.03224349885121301,0.6200320720672607,2019-06-21 12:48:52:178
6.5175157775878905,5.079819671630859,0.10175201416015625,0.029849142261285242,-0.031572145068728456,-0.03277613106922886,0.6250240802764893,2019-06-21 12:48:52:183
6.500756622314453,5.084608001708984,0.13048199462890625,0.029982300315789204,-0.030906354796208645,-0.03304244717823678,0.6300160884857178,2019-06-21 12:48:52:188
6.529486602783203,5.075031341552735,0.08020452880859374,0.02785177144372581,-0.031039512850712606,-0.03490665994129225,0.6350080966949463,2019-06-21 12:48:52:193
6.523501190185547,5.102564239501953,0.0311241455078125,0.028118087552733734,-0.030373722578192798,-0.0354392921593081,0.6400001049041748,2019-06-21 12:48:52:198
6.5474428405761715,5.1013671569824215,0.07421911621093749,0.028118087552733734,-0.03064003868720072,-0.036770872704347715,0.6449921131134033,2019-06-21 12:48:52:203
6.54624575805664,5.124111724853515,0.08259869384765625,0.02865071977074958,-0.030773196741704683,-0.03703718881335564,0.6499841213226318,2019-06-21 12:48:52:208
6.553428253173828,5.10017007446289,0.0885841064453125,0.02785177144372581,-0.031572145068728456,-0.03783613714037941,0.6549761295318604,2019-06-21 12:48:52:213
6.568990325927734,5.091790496826172,0.09935784912109374,0.026520190898686194,-0.031039512850712606,-0.03916771768541903,0.6599681377410889,2019-06-21 12:48:52:218
6.558216583251953,5.106155487060547,0.06464245605468749,0.026120716735174306,-0.031039512850712606,-0.04009982406694676,0.6649601459503174,2019-06-21 12:48:52:223
6.552231170654297,5.075031341552735,0.04908038330078125,0.02625387478967827,-0.029175300087657143,-0.04129824655748242,0.6699521541595459,2019-06-21 12:48:52:228
6.549837005615235,5.079819671630859,0.046686218261718745,0.026520190898686194,-0.03050688063269676,-0.04342877542954581,0.6749441623687744,2019-06-21 12:48:52:233
6.554625335693359,5.0726371765136715,0.04908038330078125,0.02771861338922185,-0.029974248414680913,-0.044360881811073546,0.6799361705780029,2019-06-21 12:48:52:238
6.551034088134766,5.096578826904297,0.038306640625,0.029050193934261465,-0.029308458142161105,-0.04489351402908939,0.6849281787872314,2019-06-21 12:48:52:243
6.543851593017578,5.083410919189453,0.051474548339843745,0.02865071977074958,-0.027843719542617527,-0.04622509457412901,0.6899199485778809,2019-06-21 12:48:52:248
6.523501190185547,5.120520477294922,0.06344537353515625,0.02785177144372581,-0.02904214203315318,-0.04715720095565674,0.6949119567871094,2019-06-21 12:48:52:253
6.529486602783203,5.097775909423828,0.0359124755859375,0.02785177144372581,-0.028509509815137335,-0.04795614928268052,0.7000319957733154,2019-06-21 12:48:52:258
6.54624575805664,5.107352569580078,0.0598541259765625,0.029050193934261465,-0.027444245379105635,-0.04888825566420825,0.705024003982544,2019-06-21 12:48:52:263
6.56420199584961,5.116929229736328,0.08259869384765625,0.029050193934261465,-0.028642667869641297,-0.049420887882224096,0.7100160121917725,2019-06-21 12:48:52:268
6.577369903564453,5.149250457763672,0.08618994140625,0.02971598420678128,-0.025846348725058095,-0.05008667815474391,0.715008020401001,2019-06-21 12:48:52:273
6.539063262939453,5.163615447998047,0.10654034423828125,0.03051493253380505,-0.02717792927009771,-0.05075246842726371,0.7200000286102295,2019-06-21 12:48:52:278
6.49836245727539,5.145659210205078,0.12808782958984374,0.029316510043269392,-0.02704477121559375,-0.05088562648176768,0.724992036819458,2019-06-21 12:48:52:283
6.516318695068359,5.222272491455078,0.110131591796875,0.02865071977074958,-0.02544687456154621,-0.050219836209247866,0.7299840450286865,2019-06-21 12:48:52:288
6.478012054443359,5.185162933349609,0.08618994140625,0.028118087552733734,-0.02890898397864922,-0.04995352010023994,0.734976053237915,2019-06-21 12:48:52:293
6.486391632080078,5.212695831298828,0.07302203369140625,0.0317133550243407,-0.02637898094307394,-0.049420887882224096,0.7399680614471436,2019-06-21 12:48:52:298
6.499559539794921,5.205513336181641,0.08259869384765625,0.030781248642812974,-0.02544687456154621,-0.048222465391688445,0.7449600696563721,2019-06-21 12:48:52:303
6.525895355224609,5.2186812438964845,0.02513873291015625,0.028917035879757504,-0.029974248414680913,-0.04808930733718448,0.7499520778656006,2019-06-21 12:48:52:308
6.494771209716797,5.222272491455078,0.0502774658203125,0.029449668097773354,-0.02890898397864922,-0.04662456873764089,0.7549440860748291,2019-06-21 12:48:52:313
6.515121612548828,5.223469573974609,0.0694307861328125,0.02918335198876543,-0.026512138997577903,-0.044494039865577505,0.7599360942840576,2019-06-21 12:48:52:318
6.475617889404297,5.245017059326171,0.0502774658203125,0.028251245607237695,-0.027843719542617527,-0.042896143211529965,0.7649281024932861,2019-06-21 12:48:52:323
6.4600558166503905,5.199527923583984,0.08020452880859374,0.029849142261285242,-0.026911613161089788,-0.04089877239397054,0.7699201107025146,2019-06-21 12:48:52:328
6.4600558166503905,5.240228729248047,0.0694307861328125,0.03131388086082882,-0.025180558452538287,-0.03956719184893091,0.7749121189117432,2019-06-21 12:48:52:333
6.439705413818359,5.246214141845703,0.04788330078125,0.028251245607237695,-0.027444245379105635,-0.03916771768541903,0.7800321578979492,2019-06-21 12:48:52:338
6.464844146728516,5.2342433166503906,0.03950372314453125,0.027185981171206002,-0.02624582288856998,-0.03743666297686753,0.7850241661071777,2019-06-21 12:48:52:343
6.4744208068847655,5.260579132080078,0.062248291015625,0.030648090588309012,-0.024914242343530364,-0.035306134104804134,0.7900161743164062,2019-06-21 12:48:52:348
6.4600558166503905,5.27254995727539,0.08259869384765625,0.03038177447930109,-0.024914242343530364,-0.03131139246968528,0.7950081825256348,2019-06-21 12:48:52:353
6.462449981689453,5.271352874755859,0.09935784912109374,0.02971598420678128,-0.025580032616050172,-0.029047705543117926,0.7999999523162842,2019-06-21 12:48:52:358
6.4456908264160155,5.274944122314453,0.11851116943359374,0.030115458370293165,-0.025846348725058095,-0.027050334725558494,0.8049919605255127,2019-06-21 12:48:52:363
6.480406219482422,5.265367462158203,0.138861572265625,0.03038177447930109,-0.024914242343530364,-0.02665086056204661,0.8099839687347412,2019-06-21 12:48:52:368
6.486391632080078,5.229454986572265,0.16878863525390625,0.029982300315789204,-0.025979506779562057,-0.0231887511449436,0.8149759769439697,2019-06-21 12:48:52:373
6.452873321533203,5.2043162536621095,0.1340732421875,0.029449668097773354,-0.027710561488113558,-0.019992957836848516,0.8199679851531982,2019-06-21 12:48:52:378
6.470829559326171,5.216287078857421,0.12090533447265625,0.030781248642812974,-0.027577403433609596,-0.018661377291808896,0.8249599933624268,2019-06-21 12:48:52:383
6.479209136962891,5.18636001586914,0.10414617919921874,0.03224598724235655,-0.02904214203315318,-0.017329796746769276,0.8299520015716553,2019-06-21 12:48:52:388
6.467238311767578,5.167206695556641,0.1077374267578125,0.031979671133348625,-0.026778455106585827,-0.015865058147225698,0.8349440097808838,2019-06-21 12:48:52:393
6.468435394287109,5.176783355712891,0.10414617919921874,0.03131388086082882,-0.02637898094307394,-0.014267161493178153,0.8399360179901123,2019-06-21 12:48:52:398
6.473223724365234,5.156432952880859,0.056262878417968745,0.03264546140586844,-0.02544687456154621,-0.014400319547682115,0.8449280261993408,2019-06-21 12:48:52:403
6.49836245727539,5.152841705322266,0.10294909667968749,0.03291177751487637,-0.02531371650704225,-0.012269790675618725,0.8499200344085693,2019-06-21 12:48:52:408
6.492377044677734,5.124111724853515,0.11372283935546874,0.033044935569380325,-0.02637898094307394,-0.011870316512106838,0.8549120426177979,2019-06-21 12:48:52:413
6.495968292236328,5.070243011474609,0.1268907470703125,0.03411020000541202,-0.025580032616050172,-0.0120034745666108,0.8600320816040039,2019-06-21 12:48:52:418
6.539063262939453,5.046301361083985,0.11252575683593749,0.035441780550451635,-0.024115294016506587,-0.012402948730122687,0.8650240898132324,2019-06-21 12:48:52:423
6.534274932861328,5.049892608642578,0.0502774658203125,0.0366402030409873,-0.02344950374398678,-0.0120034745666108,0.8700160980224609,2019-06-21 12:48:52:428
6.5330778503417966,5.05228677368164,0.06344537353515625,0.03770546747701899,-0.022117923198947162,-0.01266926483913061,0.8750081062316895,2019-06-21 12:48:52:433
6.552231170654297,5.05228677368164,0.1316790771484375,0.04010231245809031,-0.022117923198947162,-0.013468213166154382,0.880000114440918,2019-06-21 12:48:52:438
6.56420199584961,5.035527618408203,0.14245281982421876,0.041567051057633884,-0.022251081253451124,-0.014400319547682115,0.8849921226501465,2019-06-21 12:48:52:443
6.588143646240234,5.029542205810547,0.100554931640625,0.041567051057633884,-0.02185160708993924,-0.01546558398371381,0.889984130859375,2019-06-21 12:48:52:448
6.583355316162109,5.0139801330566405,0.09217535400390625,0.042232841330153696,-0.02145213292642735,-0.015865058147225698,0.8949761390686035,2019-06-21 12:48:52:453
6.563004913330078,4.984053070068359,0.14484698486328124,0.044629686311225006,-0.020120552381387734,-0.01812874507379305,0.899968147277832,2019-06-21 12:48:52:458
6.568990325927734,4.99482681274414,0.13048199462890625,0.046760215183288406,-0.019454762108867922,-0.019859799782344555,0.9049601554870605,2019-06-21 12:48:52:463
6.589340728759765,4.978067657470703,0.12210241699218749,0.04729284740130425,-0.01918844599986,-0.021457696436392098,0.9099521636962891,2019-06-21 12:48:52:468
6.595326141357422,4.996023895263672,0.081401611328125,0.0495565343278716,-0.01918844599986,-0.0231887511449436,0.9149441719055176,2019-06-21 12:48:52:473
6.567793243408203,5.000812225341797,0.11611700439453125,0.051953379308942914,-0.017990023509324344,-0.025452438071510954,0.9199361801147461,2019-06-21 12:48:52:478
6.57497573852539,4.979264739990234,0.12210241699218749,0.05488285650803008,-0.017590549345812456,-0.028248757216094156,0.9249279499053955,2019-06-21 12:48:52:483
6.5618078308105465,4.991235565185547,0.12090533447265625,0.053817592071998384,-0.017990023509324344,-0.031045076360677357,0.929919958114624,2019-06-21 12:48:52:488
6.573778656005859,4.980461822509765,0.0694307861328125,0.054483382344518196,-0.017723707400316417,-0.03237665690571697,0.9349119663238525,2019-06-21 12:48:52:493
6.58455239868164,5.012783050537109,0.061051208496093745,0.05674706927108554,-0.016791601018788686,-0.033441921341748664,0.9400320053100586,2019-06-21 12:48:52:498
6.567793243408203,5.005600555419922,0.090978271484375,0.05874444008864497,-0.015326862419245104,-0.03650455659533979,0.9450240135192871,2019-06-21 12:48:52:503
6.582158233642578,5.019965545654297,0.03471539306640625,0.059277072306660815,-0.01506054631023718,-0.03690403075885167,0.9500160217285156,2019-06-21 12:48:52:508
6.585749481201172,5.007994720458984,0.02872998046875,0.05980970452467666,-0.014661072146725296,-0.03970034990343488,0.9550080299377441,2019-06-21 12:48:52:513
6.607296966552735,5.0139801330566405,0.06464245605468749,0.06100812701521233,-0.01372896576519756,-0.04129824655748242,0.9600000381469727,2019-06-21 12:48:52:518
6.583355316162109,5.0427101135253904,0.06703662109375,0.06154075923322817,-0.013462649656189637,-0.04356193348404977,0.9649920463562012,2019-06-21 12:48:52:523
6.610888214111328,5.036724700927734,0.0981607666015625,0.06207339145124402,-0.01279685938366983,-0.043695091538553735,0.9699840545654297,2019-06-21 12:48:52:528
6.588143646240234,5.054680938720703,0.10893450927734374,0.06327181394177968,-0.011864753002142094,-0.045292988192601275,0.9749760627746582,2019-06-21 12:48:52:533
6.583355316162109,5.046301361083985,0.07302203369140625,0.06313865588727571,-0.011864753002142094,-0.04715720095565674,0.9799680709838867,2019-06-21 12:48:52:538
6.571384490966797,5.051089691162109,0.08978118896484374,0.06340497199628364,-0.010932646620614361,-0.04848878150069637,0.9849600791931152,2019-06-21 12:48:52:543
6.552231170654297,5.046301361083985,0.08499285888671874,0.06393760421429949,-0.011065804675118323,-0.049820362045735984,0.9899520874023438,2019-06-21 12:48:52:548
6.57497573852539,5.037921783447265,0.09337243652343749,0.0646033944868193,-0.01146527883863021,-0.05048615231825579,0.9949440956115723,2019-06-21 12:48:52:553
6.563004913330078,5.051089691162109,0.07062786865234374,0.06593497503185891,-0.0107994885661104,-0.05155141675428749,0.9999361038208008,2019-06-21 12:48:52:558
6.548639923095703,5.073834259033203,0.09935784912109374,0.06553550086834703,-0.010266856348094553,-0.05168457480879145,1.0049281120300293,2019-06-21 12:48:52:563
6.54624575805664,5.112140899658203,0.08020452880859374,0.06473655254132325,-0.011598436893134171,-0.053815103680854834,1.0099201202392578,2019-06-21 12:48:52:568
6.530683685302734,5.122914642333984,0.1508323974609375,0.0646033944868193,-0.00933474996656682,-0.05314931340833503,1.0150401592254639,2019-06-21 12:48:52:573
6.558216583251953,5.107352569580078,0.114919921875,0.06447023643231534,-0.009201591912062856,-0.05488036811688654,1.0200321674346924,2019-06-21 12:48:52:578
6.534274932861328,5.138476715087891,0.0957666015625,0.06380444615979552,-0.010666330511606438,-0.055945632552918234,1.025024175643921,2019-06-21 12:48:52:583
6.524698272705078,5.150447540283203,0.12329949951171874,0.06393760421429949,-0.010666330511606438,-0.05541300033490239,1.0300159454345703,2019-06-21 12:48:52:588
6.505544952392578,5.148053375244141,0.10534326171875,0.06260602366925987,-0.013196333547181714,-0.05448089395337465,1.0350079536437988,2019-06-21 12:48:52:593
6.510333282470703,5.125308807373047,0.110131591796875,0.061407601178724215,-0.014394756037717372,-0.05448089395337465,1.0399999618530273,2019-06-21 12:48:52:598
6.4744208068847655,5.136082550048828,0.07421911621093749,0.06114128506971629,-0.01426159798321341,-0.05448089395337465,1.0449919700622559,2019-06-21 12:48:52:603
6.493574127197266,5.176783355712891,0.10414617919921874,0.06047549479719648,-0.012930017438173791,-0.05434773589887068,1.0499839782714844,2019-06-21 12:48:52:608
6.494771209716797,5.177980438232422,0.09456951904296874,0.05914391425215686,-0.01372896576519756,-0.05328247146283899,1.054975986480713,2019-06-21 12:48:52:613
6.513924530029297,5.187557098388671,0.1077374267578125,0.05861128203414101,-0.01426159798321341,-0.052217207026807294,1.0599679946899414,2019-06-21 12:48:52:618
6.510333282470703,5.179177520751953,0.0598541259765625,0.05781233370711724,-0.012530543274661906,-0.05341562951734295,1.06496000289917,2019-06-21 12:48:52:623
6.513924530029297,5.188754180908203,0.0454891357421875,0.056880227325589505,-0.014394756037717372,-0.05155141675428749,1.0699520111083984,2019-06-21 12:48:52:628
6.49836245727539,5.198330841064453,0.051474548339843745,0.05568180483505385,-0.014927388255733219,-0.05008667815474391,1.074944019317627,2019-06-21 12:48:52:633
6.494771209716797,5.197133758544922,0.0885841064453125,0.054483382344518196,-0.014128439928709446,-0.04875509760970429,1.0799360275268555,2019-06-21 12:48:52:638
6.491179962158203,5.21508999633789,0.0502774658203125,0.053684434017494426,-0.015193704364741142,-0.04808930733718448,1.084928035736084,2019-06-21 12:48:52:643
6.470829559326171,5.198330841064453,0.08020452880859374,0.051154430981919144,-0.014927388255733219,-0.04755667511916863,1.0899200439453125,2019-06-21 12:48:52:648
6.476814971923828,5.222272491455078,0.138861572265625,0.04968969238237556,-0.016924759073292647,-0.04569246235611316,1.0950400829315186,2019-06-21 12:48:52:653
6.501953704833984,5.209104583740234,0.1077374267578125,0.0478254796193201,-0.01838949767283623,-0.04462719792008147,1.100032091140747,2019-06-21 12:48:52:658
6.489982879638672,5.205513336181641,0.0957666015625,0.04622758296527256,-0.019587920163371884,-0.043695091538553735,1.1050240993499756,2019-06-21 12:48:52:663
6.483997467041015,5.221075408935547,0.11611700439453125,0.044097054093209166,-0.020253710435891695,-0.043295617375041846,1.110016107559204,2019-06-21 12:48:52:668
6.493574127197266,5.217484161376953,0.08738702392578125,0.04316494771168143,-0.021718449035435277,-0.04156456266649034,1.1150081157684326,2019-06-21 12:48:52:673
6.4744208068847655,5.210301666259766,0.081401611328125,0.04249915743916162,-0.023183187634978855,-0.04036614017595468,1.1200001239776611,2019-06-21 12:48:52:678
6.486391632080078,5.193542510986328,0.100554931640625,0.04170020911213785,-0.022251081253451124,-0.038635085467403185,1.1249921321868896,2019-06-21 12:48:52:683
6.493574127197266,5.187557098388671,0.10175201416015625,0.03850441580404276,-0.022517397362459047,-0.03783613714037941,1.1299841403961182,2019-06-21 12:48:52:688
6.522304107666016,5.212695831298828,0.110131591796875,0.03717283525900315,-0.024115294016506587,-0.036770872704347715,1.1349761486053467,2019-06-21 12:48:52:693
6.525895355224609,5.171995025634765,0.07781036376953125,0.03584125471396352,-0.024248452071010555,-0.03583876632281998,1.1399681568145752,2019-06-21 12:48:52:698
6.530683685302734,5.188754180908203,0.06703662109375,0.03450967416892391,-0.02464792623452244,-0.035172976050300175,1.1449601650238037,2019-06-21 12:48:52:703
6.512727447509765,5.168403778076172,0.037109558105468746,0.033444409732892214,-0.024248452071010555,-0.03370823745075659,1.1499521732330322,2019-06-21 12:48:52:708
6.511530364990234,5.162418365478516,0.06464245605468749,0.03251230335136447,-0.02531371650704225,-0.0343740277232764,1.1549441814422607,2019-06-21 12:48:52:713
6.501953704833984,5.156432952880859,0.07421911621093749,0.03224598724235655,-0.025047400398034325,-0.03384139550526055,1.1599359512329102,2019-06-21 12:48:52:718
6.521107025146485,5.167206695556641,0.09217535400390625,0.03211282918785259,-0.02637898094307394,-0.034107711614268475,1.1649279594421387,2019-06-21 12:48:52:723
6.53547201538086,5.138476715087891,0.10414617919921874,0.031047564751820897,-0.02717792927009771,-0.03357507939625263,1.1699199676513672,2019-06-21 12:48:52:728
6.522304107666016,5.133688385009766,0.0694307861328125,0.029849142261285242,-0.027311087324601673,-0.03397455355976452,1.1749119758605957,2019-06-21 12:48:52:733
6.529486602783203,5.12890005493164,0.0885841064453125,0.02865071977074958,-0.027577403433609596,-0.034507185777780364,1.1800320148468018,2019-06-21 12:48:52:738
6.5474428405761715,5.1157321472167965,0.05386871337890625,0.028783877825253542,-0.02797687759712149,-0.033441921341748664,1.1850240230560303,2019-06-21 12:48:52:743
6.530683685302734,5.112140899658203,0.08259869384765625,0.027185981171206002,-0.030240564523688836,-0.033441921341748664,1.1900160312652588,2019-06-21 12:48:52:748
6.543851593017578,5.10017007446289,0.07062786865234374,0.025454926462654494,-0.029308458142161105,-0.03503981799579621,1.1950080394744873,2019-06-21 12:48:52:753
6.545048675537109,5.067848846435547,0.07062786865234374,0.025321768408150532,-0.02904214203315318,-0.035971924377323945,1.2000000476837158,2019-06-21 12:48:52:758
6.553428253173828,5.076228424072266,0.061051208496093745,0.02558808451715846,-0.030373722578192798,-0.03623824048633187,1.2049920558929443,2019-06-21 12:48:52:763
6.5474428405761715,5.07144009399414,0.08738702392578125,0.02518861035364657,-0.029574774251169028,-0.03730350492236356,1.2099840641021729,2019-06-21 12:48:52:768
6.553428253173828,5.0726371765136715,0.07421911621093749,0.02518861035364657,-0.029308458142161105,-0.0382356113038913,1.2149760723114014,2019-06-21 12:48:52:773
6.549837005615235,5.051089691162109,0.0407008056640625,0.02425650397211884,-0.03050688063269676,-0.03916771768541903,1.2199680805206299,2019-06-21 12:48:52:778
6.560610748291015,5.054680938720703,0.0574599609375,0.0243896620266228,-0.029974248414680913,-0.04076561433946657,1.2249600887298584,2019-06-21 12:48:52:783
6.543851593017578,5.046301361083985,0.056262878417968745,0.02345755564509507,-0.029175300087657143,-0.04169772072099431,1.229952096939087,2019-06-21 12:48:52:788
6.545048675537109,5.073834259033203,0.046686218261718745,0.02425650397211884,-0.02904214203315318,-0.044094565702065616,1.2349441051483154,2019-06-21 12:48:52:793
6.54624575805664,5.077425506591797,0.090978271484375,0.022924923427079223,-0.028509509815137335,-0.043295617375041846,1.239936113357544,2019-06-21 12:48:52:798
6.553428253173828,5.0582721862792965,0.08020452880859374,0.02359071369959903,-0.028775825924145258,-0.045958778465121086,1.2449281215667725,2019-06-21 12:48:52:803
6.5474428405761715,5.036724700927734,0.09935784912109374,0.024123345917614877,-0.02811003565162545,-0.04729035901016071,1.249920129776001,2019-06-21 12:48:52:808
6.5318807678222655,5.049892608642578,0.09935784912109374,0.025987558680670344,-0.027444245379105635,-0.04795614928268052,1.2549121379852295,2019-06-21 12:48:52:813
6.553428253173828,5.048695526123047,0.081401611328125,0.024123345917614877,-0.02904214203315318,-0.049420887882224096,1.2600321769714355,2019-06-21 12:48:52:818
6.537866180419922,5.083410919189453,0.08738702392578125,0.023857029808606954,-0.028775825924145258,-0.04968720399123202,1.265023946762085,2019-06-21 12:48:52:823
6.522304107666016,5.077425506591797,0.08379577636718749,0.024789136190134686,-0.02824319370612941,-0.05088562648176768,1.2700159549713135,2019-06-21 12:48:52:828
6.499559539794921,5.0870021667480465,0.08499285888671874,0.024789136190134686,-0.031172670905216568,-0.05155141675428749,1.275007963180542,2019-06-21 12:48:52:833
6.523501190185547,5.107352569580078,0.08499285888671874,0.02425650397211884,-0.031039512850712606,-0.051418258699783524,1.2799999713897705,2019-06-21 12:48:52:838
6.5318807678222655,5.120520477294922,0.08499285888671874,0.023990187863110916,-0.031572145068728456,-0.05181773286329541,1.284991979598999,2019-06-21 12:48:52:843
6.52709243774414,5.094184661865234,0.10175201416015625,0.02505545229914261,-0.03130582895972053,-0.05195089091779937,1.2899839878082275,2019-06-21 12:48:52:848
6.522304107666016,5.1013671569824215,0.11611700439453125,0.02345755564509507,-0.031172670905216568,-0.05248352313581522,1.294975996017456,2019-06-21 12:48:52:853
6.500756622314453,5.143265045166015,0.100554931640625,0.022924923427079223,-0.030373722578192798,-0.05314931340833503,1.2999680042266846,2019-06-21 12:48:52:858
6.510333282470703,5.114535064697265,0.0790074462890625,0.023723871754102992,-0.031971619232240345,-0.05328247146283899,1.304960012435913,2019-06-21 12:48:52:863
6.499559539794921,5.1300971374511715,0.09696368408203125,0.023324397590591107,-0.032637409504760156,-0.0539482617353588,1.3099520206451416,2019-06-21 12:48:52:868
6.539063262939453,5.1324913024902346,0.05865704345703125,0.023990187863110916,-0.032637409504760156,-0.053016155353831064,1.3149440288543701,2019-06-21 12:48:52:873
6.553428253173828,5.11812631225586,0.08379577636718749,0.024123345917614877,-0.0314389870142245,-0.05328247146283899,1.3199360370635986,2019-06-21 12:48:52:878
6.5175157775878905,5.103761322021485,0.04429205322265625,0.024123345917614877,-0.031971619232240345,-0.05354878757184691,1.3249280452728271,2019-06-21 12:48:52:883
6.510333282470703,5.124111724853515,0.08379577636718749,0.0243896620266228,-0.031971619232240345,-0.05328247146283899,1.3299200534820557,2019-06-21 12:48:52:888
6.524698272705078,5.098972991943359,0.138861572265625,0.023857029808606954,-0.031572145068728456,-0.05341562951734295,1.3350400924682617,2019-06-21 12:48:52:893
6.511530364990234,5.127702972412109,0.0957666015625,0.023857029808606954,-0.031039512850712606,-0.05274983924482314,1.3400321006774902,2019-06-21 12:48:52:898
6.5031507873535155,5.1444621276855464,0.11132867431640625,0.023990187863110916,-0.033436357831783926,-0.05261668119031918,1.3450241088867188,2019-06-21 12:48:52:903
6.476814971923828,5.142067962646484,0.08379577636718749,0.02345755564509507,-0.033569515886287885,-0.05248352313581522,1.3500161170959473,2019-06-21 12:48:52:908
6.473223724365234,5.134885467529297,0.06344537353515625,0.02345755564509507,-0.03250425145025619,-0.053016155353831064,1.3550081253051758,2019-06-21 12:48:52:913
6.511530364990234,5.160024200439453,0.07541619873046874,0.024522820081126762,-0.03330319977727996,-0.05181773286329541,1.3600001335144043,2019-06-21 12:48:52:918
6.49836245727539,5.148053375244141,0.08738702392578125,0.023191239536087146,-0.031572145068728456,-0.05008667815474391,1.3649921417236328,2019-06-21 12:48:52:923
6.522304107666016,5.156432952880859,0.11132867431640625,0.024789136190134686,-0.031039512850712606,-0.04995352010023994,1.3699841499328613,2019-06-21 12:48:52:928
6.541457427978515,5.1300971374511715,0.09337243652343749,0.026120716735174306,-0.03130582895972053,-0.048621939555200326,1.3749761581420898,2019-06-21 12:48:52:933
6.525895355224609,5.1468562927246095,0.08978118896484374,0.025454926462654494,-0.03170530312323242,-0.04848878150069637,1.3799681663513184,2019-06-21 12:48:52:938
6.506742034912109,5.149250457763672,0.06703662109375,0.025987558680670344,-0.032637409504760156,-0.04808930733718448,1.3849601745605469,2019-06-21 12:48:52:943
6.500756622314453,5.139673797607422,0.08379577636718749,0.02572124257166242,-0.033170041722776,-0.047423517064664675,1.3899521827697754,2019-06-21 12:48:52:948
6.486391632080078,5.1468562927246095,0.06344537353515625,0.025321768408150532,-0.03290372561376808,-0.04702404290115278,1.3949439525604248,2019-06-21 12:48:52:953
6.49836245727539,5.150447540283203,0.05865704345703125,0.02558808451715846,-0.03183846117773638,-0.045292988192601275,1.3999359607696533,2019-06-21 12:48:52:958
6.509136199951172,5.148053375244141,0.11611700439453125,0.02572124257166242,-0.031971619232240345,-0.04502667208359335,1.4049279689788818,2019-06-21 12:48:52:963
6.512727447509765,5.155235870361328,0.0694307861328125,0.026786507007694117,-0.03170530312323242,-0.04622509457412901,1.4099199771881104,2019-06-21 12:48:52:968
6.521107025146485,5.12890005493164,0.02992706298828125,0.02625387478967827,-0.03130582895972053,-0.044494039865577505,1.4149119853973389,2019-06-21 12:48:52:973
6.497165374755859,5.131294219970703,0.08978118896484374,0.02705282311670204,-0.031039512850712606,-0.04382824959305769,1.420032024383545,2019-06-21 12:48:52:978
6.491179962158203,5.124111724853515,0.0957666015625,0.026786507007694117,-0.03170530312323242,-0.042762985157026,1.4250240325927734,2019-06-21 12:48:52:983
6.525895355224609,5.120520477294922,0.0885841064453125,0.026387032844182232,-0.031172670905216568,-0.042896143211529965,1.430016040802002,2019-06-21 12:48:52:988
6.539063262939453,5.131294219970703,0.14005865478515625,0.02625387478967827,-0.030107406469184875,-0.04183087877549827,1.4350080490112305,2019-06-21 12:48:52:993
6.497165374755859,5.149250457763672,0.13527032470703124,0.026786507007694117,-0.029974248414680913,-0.04223035293901015,1.440000057220459,2019-06-21 12:48:52:998
6.500756622314453,5.143265045166015,0.0790074462890625,0.027319139225709964,-0.030373722578192798,-0.042496669048018076,1.4449920654296875,2019-06-21 12:48:53:003
6.52709243774414,5.142067962646484,0.04788330078125,0.025987558680670344,-0.029974248414680913,-0.04129824655748242,1.449984073638916,2019-06-21 12:48:53:008
6.510333282470703,5.140870880126953,0.09337243652343749,0.026387032844182232,-0.0314389870142245,-0.041031930448474495,1.4549760818481445,2019-06-21 12:48:53:013
6.500756622314453,5.15763003540039,0.08499285888671874,0.027984929498229772,-0.029974248414680913,-0.04009982406694676,1.459968090057373,2019-06-21 12:48:53:018
6.516318695068359,5.156432952880859,0.12569366455078124,0.02771861338922185,-0.030773196741704683,-0.03890140157641111,1.4649600982666016,2019-06-21 12:48:53:023
6.510333282470703,5.140870880126953,0.110131591796875,0.027452297280213925,-0.030373722578192798,-0.03810245324938733,1.46995210647583,2019-06-21 12:48:53:028
6.523501190185547,5.139673797607422,0.12210241699218749,0.027452297280213925,-0.031971619232240345,-0.0382356113038913,1.4749441146850586,2019-06-21 12:48:53:033
6.529486602783203,5.131294219970703,0.11252575683593749,0.02785177144372581,-0.03237109339575223,-0.03810245324938733,1.479936122894287,2019-06-21 12:48:53:038
6.501953704833984,5.158827117919921,0.07062786865234374,0.02851756171624562,-0.03170530312323242,-0.03743666297686753,1.4849281311035156,2019-06-21 12:48:53:043
6.542654510498047,5.137279632568359,0.110131591796875,0.028917035879757504,-0.031572145068728456,-0.03623824048633187,1.4899201393127441,2019-06-21 12:48:53:048
6.523501190185547,5.1157321472167965,0.12210241699218749,0.028384403661741657,-0.03237109339575223,-0.03583876632281998,1.4949121475219727,2019-06-21 12:48:53:053
6.549837005615235,5.082213836669922,0.09456951904296874,0.029582826152277315,-0.033569515886287885,-0.03650455659533979,1.5000319480895996,2019-06-21 12:48:53:058
6.53547201538086,5.097775909423828,0.06703662109375,0.030248616424797127,-0.03210477728674431,-0.03663771464984375,1.5050239562988281,2019-06-21 12:48:53:063
6.539063262939453,5.106155487060547,0.08020452880859374,0.03118072280632486,-0.02984109036017695,-0.0371703468678596,1.5100159645080566,2019-06-21 12:48:53:068
6.545048675537109,5.091790496826172,0.08978118896484374,0.030248616424797127,-0.030773196741704683,-0.037569821031371485,1.5150079727172852,2019-06-21 12:48:53:073
6.525895355224609,5.073834259033203,0.10175201416015625,0.029050193934261465,-0.030240564523688836,-0.03916771768541903,1.5199999809265137,2019-06-21 12:48:53:078
6.542654510498047,5.076228424072266,0.13048199462890625,0.031047564751820897,-0.030373722578192798,-0.04009982406694676,1.5249919891357422,2019-06-21 12:48:53:083
6.551034088134766,5.083410919189453,0.0598541259765625,0.03131388086082882,-0.030107406469184875,-0.04129824655748242,1.5299839973449707,2019-06-21 12:48:53:088
6.57497573852539,5.079819671630859,0.0957666015625,0.030781248642812974,-0.029574774251169028,-0.04183087877549827,1.5349760055541992,2019-06-21 12:48:53:093
6.577369903564453,5.069045928955078,0.08499285888671874,0.03118072280632486,-0.030107406469184875,-0.04196403683000223,1.5399680137634277,2019-06-21 12:48:53:098
6.5618078308105465,5.051089691162109,0.06823370361328125,0.03118072280632486,-0.03130582895972053,-0.04476035597458543,1.5449600219726562,2019-06-21 12:48:53:103
6.565399078369141,5.035527618408203,0.038306640625,0.0317133550243407,-0.02797687759712149,-0.04502667208359335,1.5499520301818848,2019-06-21 12:48:53:108
6.588143646240234,5.019965545654297,0.03471539306640625,0.031979671133348625,-0.028509509815137335,-0.04702404290115278,1.5549440383911133,2019-06-21 12:48:53:113
6.585749481201172,5.025950958251953,0.08499285888671874,0.03264546140586844,-0.028509509815137335,-0.04875509760970429,1.5599360466003418,2019-06-21 12:48:53:118
6.583355316162109,5.03193637084961,0.08259869384765625,0.03331125167838825,-0.026911613161089788,-0.04995352010023994,1.5649280548095703,2019-06-21 12:48:53:123
6.58455239868164,5.0427101135253904,0.09217535400390625,0.03424335805991598,-0.025979506779562057,-0.05155141675428749,1.5699200630187988,2019-06-21 12:48:53:128
6.553428253173828,5.041513031005859,0.05386871337890625,0.034642832223427865,-0.02611266483406602,-0.052882997299327106,1.5749120712280273,2019-06-21 12:48:53:133
6.588143646240234,5.041513031005859,0.043094970703125,0.035441780550451635,-0.027577403433609596,-0.0539482617353588,1.5800321102142334,2019-06-21 12:48:53:138
6.596523223876953,5.041513031005859,0.0598541259765625,0.03597441276846748,-0.02531371650704225,-0.056744580879942004,1.585024118423462,2019-06-21 12:48:53:143
6.583355316162109,5.035527618408203,0.07661328125,0.03517546444144371,-0.025180558452538287,-0.05727721309795785,1.5900161266326904,2019-06-21 12:48:53:148
6.59293197631836,5.034330535888672,0.041897888183593746,0.0366402030409873,-0.024381610125514517,-0.0578098453159737,1.595008134841919,2019-06-21 12:48:53:153
6.5618078308105465,5.0439071960449215,0.0407008056640625,0.036507044986483335,-0.025047400398034325,-0.05967405807902916,1.6000001430511475,2019-06-21 12:48:53:158
6.567793243408203,5.049892608642578,0.07781036376953125,0.036507044986483335,-0.02451476818001848,-0.059807216133533125,1.604992151260376,2019-06-21 12:48:53:163
6.563004913330078,5.0726371765136715,0.0502774658203125,0.03717283525900315,-0.022916871525970932,-0.06113879667857274,1.6099841594696045,2019-06-21 12:48:53:168
6.57497573852539,5.073834259033203,0.10294909667968749,0.03677336109549126,-0.02278371347146697,-0.06406827387765991,1.614976167678833,2019-06-21 12:48:53:173
6.541457427978515,5.092987579345703,0.043094970703125,0.03783862553152295,-0.024115294016506587,-0.06526669636819557,1.6199681758880615,2019-06-21 12:48:53:178
6.56420199584961,5.0870021667480465,0.07062786865234374,0.03677336109549126,-0.02278371347146697,-0.06433458998666783,1.624959945678711,2019-06-21 12:48:53:183
6.5618078308105465,5.106155487060547,0.02872998046875,0.03823809969503484,-0.0219847651444432,-0.06539985442269952,1.6299519538879395,2019-06-21 12:48:53:188
6.56420199584961,5.12890005493164,0.08499285888671874,0.03823809969503484,-0.0219847651444432,-0.06699775107674706,1.634943962097168,2019-06-21 12:48:53:193
6.53547201538086,5.150447540283203,0.051474548339843745,0.03757230942251503,-0.021718449035435277,-0.06806301551277875,1.6399359703063965,2019-06-21 12:48:53:198
6.537866180419922,5.140870880126953,0.07421911621093749,0.03717283525900315,-0.02145213292642735,-0.06832933162178668,1.644927978515625,2019-06-21 12:48:53:203
6.515121612548828,5.1444621276855464,0.10175201416015625,0.03703967720449918,-0.02185160708993924,-0.06912827994881046,1.6499199867248535,2019-06-21 12:48:53:208
6.500756622314453,5.158827117919921,0.11851116943359374,0.03690651914999522,-0.022117923198947162,-0.06952775411232234,1.654911994934082,2019-06-21 12:48:53:213
6.479209136962891,5.163615447998047,0.08499285888671874,0.035441780550451635,-0.022384239307955085,-0.06939459605781839,1.660032033920288,2019-06-21 12:48:53:218
6.482800384521484,5.167206695556641,0.110131591796875,0.03584125471396352,-0.022384239307955085,-0.0679298574582748,1.6650240421295166,2019-06-21 12:48:53:223
6.501953704833984,5.163615447998047,0.11372283935546874,0.034642832223427865,-0.021052658762915465,-0.06886196383980253,1.6700160503387451,2019-06-21 12:48:53:228
6.495968292236328,5.179177520751953,0.119708251953125,0.03450967416892391,-0.022251081253451124,-0.06766354134926687,1.6750080585479736,2019-06-21 12:48:53:233
6.481603302001953,5.198330841064453,0.119708251953125,0.03450967416892391,-0.023316345689482817,-0.06633196080422726,1.6800000667572021,2019-06-21 12:48:53:238
6.472026641845703,5.2342433166503906,0.10175201416015625,0.03357756778739617,-0.023316345689482817,-0.0644677480411718,1.6849920749664307,2019-06-21 12:48:53:243
6.4744208068847655,5.227060821533203,0.119708251953125,0.03224598724235655,-0.024781084289026402,-0.0634024836051401,1.6899840831756592,2019-06-21 12:48:53:248
6.470829559326171,5.2330462341308595,0.07062786865234374,0.031979671133348625,-0.02451476818001848,-0.06087248056956482,1.6949760913848877,2019-06-21 12:48:53:253
6.463647064208984,5.225863739013672,0.110131591796875,0.03224598724235655,-0.02451476818001848,-0.059807216133533125,1.6999680995941162,2019-06-21 12:48:53:258
6.456464569091796,5.249805389404297,0.10175201416015625,0.03144703891533278,-0.025713190670554133,-0.057543529206965774,1.7049601078033447,2019-06-21 12:48:53:263
6.448084991455078,5.266564544677734,0.07661328125,0.030648090588309012,-0.02531371650704225,-0.055546158389406346,1.7099521160125732,2019-06-21 12:48:53:268
6.436114166259766,5.261776214599609,0.09456951904296874,0.029982300315789204,-0.025979506779562057,-0.05408141978986276,1.7149441242218018,2019-06-21 12:48:53:273
6.450479156494141,5.302477020263672,0.13527032470703124,0.028384403661741657,-0.027311087324601673,-0.05088562648176768,1.7199361324310303,2019-06-21 12:48:53:278
6.443296661376953,5.303674102783203,0.12928491210937498,0.027319139225709964,-0.02797687759712149,-0.04755667511916863,1.7249281406402588,2019-06-21 12:48:53:283
6.4600558166503905,5.294097442626953,0.1364674072265625,0.027185981171206002,-0.02970793230567299,-0.04502667208359335,1.7299201488494873,2019-06-21 12:48:53:288
6.457661651611328,5.276141204833984,0.10534326171875,0.026653348953190156,-0.03064003868720072,-0.04302930126603392,1.7349121570587158,2019-06-21 12:48:53:293
6.506742034912109,5.266564544677734,0.12210241699218749,0.026653348953190156,-0.031572145068728456,-0.04169772072099431,1.7400319576263428,2019-06-21 12:48:53:298
6.476814971923828,5.236637481689453,0.12449658203125,0.025321768408150532,-0.03290372561376808,-0.039833507957938837,1.7450239658355713,2019-06-21 12:48:53:303
6.507939117431641,5.231849151611328,0.07781036376953125,0.025454926462654494,-0.0349010964313275,-0.03836876935839526,1.7500159740447998,2019-06-21 12:48:53:308
6.473223724365234,5.224666656494141,0.10654034423828125,0.02558808451715846,-0.03530057059483939,-0.0361050824318279,1.7550079822540283,2019-06-21 12:48:53:313
6.497165374755859,5.217484161376953,0.1340732421875,0.02518861035364657,-0.03649899308537505,-0.03357507939625263,1.7599999904632568,2019-06-21 12:48:53:318
6.499559539794921,5.203119171142578,0.12928491210937498,0.02505545229914261,-0.03570004475835128,-0.03304244717823678,1.7649919986724854,2019-06-21 12:48:53:323
6.482800384521484,5.206710418701172,0.119708251953125,0.023324397590591107,-0.03716478335789486,-0.031710866633197166,1.7699840068817139,2019-06-21 12:48:53:328
6.525895355224609,5.167206695556641,0.12449658203125,0.02225913315455941,-0.03729794141239882,-0.031710866633197166,1.7749760150909424,2019-06-21 12:48:53:333
6.49836245727539,5.127702972412109,0.10294909667968749,0.022924923427079223,-0.0398279444479741,-0.031710866633197166,1.779968023300171,2019-06-21 12:48:53:338
6.545048675537109,5.110943817138672,0.110131591796875,0.024922294244638647,-0.04062689277499787,-0.030512444142661504,1.7849600315093994,2019-06-21 12:48:53:343
6.553428253173828,5.08939633178711,0.114919921875,0.0243896620266228,-0.038895838066446364,-0.031844024687701124,1.789952039718628,2019-06-21 12:48:53:348
6.577369903564453,5.075031341552735,0.0790074462890625,0.02345755564509507,-0.038496363902934476,-0.0315777085786932,1.7949440479278564,2019-06-21 12:48:53:353
6.554625335693359,5.066651763916015,0.08618994140625,0.025321768408150532,-0.038895838066446364,-0.03357507939625263,1.799936056137085,2019-06-21 12:48:53:358
6.549837005615235,5.07144009399414,0.0598541259765625,0.02572124257166242,-0.03823004779392655,-0.03477350188678829,1.8049280643463135,2019-06-21 12:48:53:363
6.558216583251953,5.049892608642578,0.043094970703125,0.02425650397211884,-0.037697415575910706,-0.035306134104804134,1.809920072555542,2019-06-21 12:48:53:368
6.53547201538086,5.037921783447265,0.06344537353515625,0.026120716735174306,-0.036898467248886936,-0.03730350492236356,1.8149120807647705,2019-06-21 12:48:53:373
6.543851593017578,5.034330535888672,0.1077374267578125,0.02771861338922185,-0.03570004475835128,-0.03956719184893091,1.8200321197509766,2019-06-21 12:48:53:378
6.54624575805664,5.010388885498047,0.056262878417968745,0.02691966506219808,-0.03450162226781562,-0.04143140461198638,1.825024127960205,2019-06-21 12:48:53:383
6.578566986083985,4.9708851623535155,0.0215474853515625,0.027984929498229772,-0.03210477728674431,-0.04316245932053789,1.8300161361694336,2019-06-21 12:48:53:388
6.580961151123047,4.973279327392578,0.014364990234375,0.02971598420678128,-0.03050688063269676,-0.04622509457412901,1.835008144378662,2019-06-21 12:48:53:393
6.55582241821289,4.993629730224609,0.041897888183593746,0.031047564751820897,-0.029175300087657143,-0.04808930733718448,1.8400001525878906,2019-06-21 12:48:53:398
6.596523223876953,4.981658905029297,0.02513873291015625,0.03264546140586844,-0.029441616196665066,-0.05008667815474391,1.8449921607971191,2019-06-21 12:48:53:403
6.586946563720703,4.981658905029297,0.01077374267578125,0.03371072584190014,-0.025580032616050172,-0.05408141978986276,1.8499841690063477,2019-06-21 12:48:53:408
6.568990325927734,4.968490997314453,-0.0071824951171875,0.033843883896404095,-0.024115294016506587,-0.056345106716430116,1.8549761772155762,2019-06-21 12:48:53:413
6.572581573486328,4.992432647705078,-0.00957666015625,0.03450967416892391,-0.021718449035435277,-0.05874195169750143,1.8599679470062256,2019-06-21 12:48:53:418
6.5905378112792965,5.021162628173828,0.0263358154296875,0.03637388693197938,-0.019587920163371884,-0.06100563862406878,1.864959955215454,2019-06-21 12:48:53:423
6.583355316162109,5.024753875732422,-0.01077374267578125,0.03770546747701899,-0.01852265572734019,-0.06366879971414802,1.8699519634246826,2019-06-21 12:48:53:428
6.554625335693359,5.039118865966797,0.0263358154296875,0.038770731913050686,-0.0163921268552768,-0.06593248664071537,1.8749439716339111,2019-06-21 12:48:53:433
6.55582241821289,5.073834259033203,0.014364990234375,0.04023547051259427,-0.015193704364741142,-0.06846248967629065,1.8799359798431396,2019-06-21 12:48:53:438
6.585749481201172,5.083410919189453,0.03950372314453125,0.04170020911213785,-0.01426159798321341,-0.06939459605781839,1.8849279880523682,2019-06-21 12:48:53:443
6.56420199584961,5.077425506591797,0.01316790771484375,0.040768102730610115,-0.014394756037717372,-0.07085933465736197,1.8899199962615967,2019-06-21 12:48:53:448
6.518712860107422,5.096578826904297,0.0071824951171875,0.04036862856709823,-0.014661072146725296,-0.07192459909339366,1.8950400352478027,2019-06-21 12:48:53:453
6.5330778503417966,5.134885467529297,0.05865704345703125,0.04329810576618539,-0.0135958077106936,-0.07232407325690554,1.9000320434570312,2019-06-21 12:48:53:458
6.518712860107422,5.134885467529297,0.12808782958984374,0.044097054093209166,-0.013196333547181714,-0.07205775714789762,1.9050240516662598,2019-06-21 12:48:53:463
6.479209136962891,5.18636001586914,0.09337243652343749,0.04263231549366558,-0.013462649656189637,-0.0724572313114095,1.9100160598754883,2019-06-21 12:48:53:468
6.479209136962891,5.195936676025391,0.09217535400390625,0.04369757992969728,-0.01426159798321341,-0.07192459909339366,1.9150080680847168,2019-06-21 12:48:53:473
6.487588714599609,5.222272491455078,0.08259869384765625,0.04449652825672105,-0.014128439928709446,-0.07099249271186593,1.9200000762939453,2019-06-21 12:48:53:478
6.497165374755859,5.245017059326171,0.11132867431640625,0.043031789657177466,-0.01426159798321341,-0.06912827994881046,1.9249920845031738,2019-06-21 12:48:53:483
6.472026641845703,5.230652069091796,0.10534326171875,0.04276547354816954,-0.016791601018788686,-0.06806301551277875,1.9299840927124023,2019-06-21 12:48:53:488
6.456464569091796,5.267761627197266,0.12928491210937498,0.042232841330153696,-0.017990023509324344,-0.06846248967629065,1.9349761009216309,2019-06-21 12:48:53:493
6.451676239013672,5.273747039794921,0.138861572265625,0.040768102730610115,-0.01932160405436396,-0.06566617053170745,1.9399681091308594,2019-06-21 12:48:53:498
6.433720001220703,5.288112030029297,0.11611700439453125,0.03903704802205861,-0.019454762108867922,-0.06420143193216386,1.944960117340088,2019-06-21 12:48:53:503
6.451676239013672,5.2773382873535155,0.119708251953125,0.03823809969503484,-0.020919500708411504,-0.0634024836051401,1.950080156326294,2019-06-21 12:48:53:508
6.450479156494141,5.267761627197266,0.12808782958984374,0.037305993313507105,-0.02278371347146697,-0.06073932251506085,1.954944133758545,2019-06-21 12:48:53:513
6.452873321533203,5.276141204833984,0.11132867431640625,0.03624072887747541,-0.023848977907498663,-0.058342477533989544,1.9599361419677734,2019-06-21 12:48:53:518
6.437311248779297,5.258184967041015,0.10893450927734374,0.033843883896404095,-0.024115294016506587,-0.05687773893444596,1.964928150177002,2019-06-21 12:48:53:523
6.46963247680664,5.2629732971191405,0.0981607666015625,0.033843883896404095,-0.025047400398034325,-0.05461405200787862,1.9699201583862305,2019-06-21 12:48:53:528
6.449282073974609,5.279732452392578,0.081401611328125,0.033843883896404095,-0.026778455106585827,-0.05261668119031918,1.974912166595459,2019-06-21 12:48:53:533
6.467238311767578,5.290506195068359,0.10654034423828125,0.03264546140586844,-0.026911613161089788,-0.05088562648176768,1.980031967163086,2019-06-21 12:48:53:538
6.462449981689453,5.265367462158203,0.119708251953125,0.03184651307884467,-0.027444245379105635,-0.049021413718712215,1.9850239753723145,2019-06-21 12:48:53:543
6.467238311767578,5.283323699951172,0.12449658203125,0.029316510043269392,-0.028509509815137335,-0.04649141068313693,1.990015983581543,2019-06-21 12:48:53:548
6.424143341064453,5.268958709716797,0.10175201416015625,0.02771861338922185,-0.02984109036017695,-0.04502667208359335,1.9950079917907715,2019-06-21 12:48:53:553
6.448084991455078,5.261776214599609,0.09456951904296874,0.028251245607237695,-0.02984109036017695,-0.042762985157026,2.0,2019-06-21 12:48:53:558
6.463647064208984,5.280929534912109,0.08738702392578125,0.027319139225709964,-0.03170530312323242,-0.04129824655748242,2.0049920082092285,2019-06-21 12:48:53:563
6.439705413818359,5.273747039794921,0.11611700439453125,0.025987558680670344,-0.033170041722776,-0.038635085467403185,2.009984016418457,2019-06-21 12:48:53:568
6.4301287536621095,5.251002471923828,0.15442364501953124,0.02505545229914261,-0.035433728649343355,-0.03637139854083583,2.0149760246276855,2019-06-21 12:48:53:573
6.434917083740234,5.235440399169922,0.10654034423828125,0.022924923427079223,-0.03756425752140674,-0.03370823745075659,2.019968032836914,2019-06-21 12:48:53:578
6.44090249633789,5.276141204833984,0.1508323974609375,0.023324397590591107,-0.036898467248886936,-0.031844024687701124,2.0249600410461426,2019-06-21 12:48:53:583
6.418157928466797,5.274944122314453,0.1604090576171875,0.02279176537257526,-0.036898467248886936,-0.029979811924645657,2.029952049255371,2019-06-21 12:48:53:588
6.422946258544922,5.259382049560546,0.16280322265625,0.02225913315455941,-0.037697415575910706,-0.02851507332510208,2.0349440574645996,2019-06-21 12:48:53:593
6.407384185791016,5.282126617431641,0.12329949951171874,0.022392291209063372,-0.03902899612095033,-0.026384544453038686,2.039936065673828,2019-06-21 12:48:53:598
6.432522918701172,5.267761627197266,0.11252575683593749,0.02212597510005545,-0.039694786393470134,-0.023455067253951523,2.0449280738830566,2019-06-21 12:48:53:603
6.4301287536621095,5.264170379638672,0.10534326171875,0.02225913315455941,-0.03942847028446221,-0.02252296087242379,2.049920082092285,2019-06-21 12:48:53:608
6.472026641845703,5.228257904052734,0.100554931640625,0.021859658991047526,-0.03996110250247806,-0.021191380327384175,2.0549120903015137,2019-06-21 12:48:53:613
6.4744208068847655,5.216287078857421,0.09696368408203125,0.021992817045551488,-0.04089320888400579,-0.01826190312829701,2.0600321292877197,2019-06-21 12:48:53:618
6.4744208068847655,5.235440399169922,0.08259869384765625,0.02092755260951979,-0.041958473320037486,-0.01693032258325739,2.0650241374969482,2019-06-21 12:48:53:623
6.499559539794921,5.183965850830078,0.09337243652343749,0.021992817045551488,-0.041159524993013716,-0.01613137425623362,2.0700161457061768,2019-06-21 12:48:53:628
6.480406219482422,5.195936676025391,0.07781036376953125,0.021992817045551488,-0.04076005082950183,-0.014533477602186077,2.0750081539154053,2019-06-21 12:48:53:633
6.487588714599609,5.176783355712891,0.09935784912109374,0.02212597510005545,-0.0398279444479741,-0.014400319547682115,2.080000162124634,2019-06-21 12:48:53:638
6.529486602783203,5.173192108154296,0.052671630859375,0.021726500936543564,-0.04062689277499787,-0.014267161493178153,2.0849921703338623,2019-06-21 12:48:53:643
6.541457427978515,5.121717559814453,0.06464245605468749,0.02345755564509507,-0.04089320888400579,-0.014267161493178153,2.089984178543091,2019-06-21 12:48:53:648
6.534274932861328,5.122914642333984,0.08978118896484374,0.02425650397211884,-0.04102636693850975,-0.014267161493178153,2.0949759483337402,2019-06-21 12:48:53:653
6.553428253173828,5.108549652099609,0.06583953857421875,0.02505545229914261,-0.038895838066446364,-0.014400319547682115,2.0999679565429688,2019-06-21 12:48:53:658
6.553428253173828,5.069045928955078,0.08499285888671874,0.02558808451715846,-0.03809688973942259,-0.015066109820201925,2.1049599647521973,2019-06-21 12:48:53:663
6.567793243408203,5.0427101135253904,0.08259869384765625,0.02625387478967827,-0.03796373168491863,-0.015332425929209848,2.109951972961426,2019-06-21 12:48:53:668
6.572581573486328,5.034330535888672,0.061051208496093745,0.027185981171206002,-0.03649899308537505,-0.015199267874705887,2.1149439811706543,2019-06-21 12:48:53:673
6.57497573852539,5.054680938720703,0.01556207275390625,0.028783877825253542,-0.03530057059483939,-0.015731900092721737,2.119935989379883,2019-06-21 12:48:53:678
6.571384490966797,5.0427101135253904,0.04788330078125,0.030781248642812974,-0.03370267394079185,-0.017862428964785126,2.1249279975891113,2019-06-21 12:48:53:683
6.567793243408203,5.065454681396484,0.10175201416015625,0.031979671133348625,-0.03170530312323242,-0.01906085145532078,2.12992000579834,2019-06-21 12:48:53:688
6.57497573852539,5.047498443603516,0.09935784912109374,0.03211282918785259,-0.031039512850712606,-0.01946032561883267,2.1349120140075684,2019-06-21 12:48:53:693
6.596523223876953,5.027148040771484,0.09337243652343749,0.03184651307884467,-0.03183846117773638,-0.022256644763415868,2.1400320529937744,2019-06-21 12:48:53:698
6.573778656005859,4.998418060302734,0.08259869384765625,0.034642832223427865,-0.0314389870142245,-0.02438717363547926,2.145024061203003,2019-06-21 12:48:53:703
6.591734893798828,5.007994720458984,0.0454891357421875,0.0366402030409873,-0.02890898397864922,-0.025452438071510954,2.1500160694122314,2019-06-21 12:48:53:708
6.59293197631836,5.016374298095703,0.014364990234375,0.038770731913050686,-0.029175300087657143,-0.027316650834566417,2.15500807762146,2019-06-21 12:48:53:713
6.5905378112792965,5.037921783447265,0.01795623779296875,0.03943652218557049,-0.025180558452538287,-0.02944717970662981,2.1600000858306885,2019-06-21 12:48:53:718
6.596523223876953,5.027148040771484,0.046686218261718745,0.040768102730610115,-0.025047400398034325,-0.02944717970662981,2.164992094039917,2019-06-21 12:48:53:723
6.594129058837891,5.009191802978515,0.0407008056640625,0.04196652522114577,-0.024381610125514517,-0.03277613106922886,2.1699841022491455,2019-06-21 12:48:53:728
6.620464874267578,4.976870574951172,0.0359124755859375,0.04316494771168143,-0.022384239307955085,-0.035306134104804134,2.174976110458374,2019-06-21 12:48:53:733
6.600114471435547,4.982855987548828,0.0263358154296875,0.04489600242023293,-0.020120552381387734,-0.03663771464984375,2.1799681186676025,2019-06-21 12:48:53:738
6.60370571899414,4.992432647705078,0.01077374267578125,0.04715968934680029,-0.01852265572734019,-0.038635085467403185,2.184960126876831,2019-06-21 12:48:53:743
6.557019500732422,5.011585968017578,0.06344537353515625,0.049290218218863674,-0.018123181563828306,-0.041031930448474495,2.1899521350860596,2019-06-21 12:48:53:748
6.549837005615235,5.037921783447265,0.037109558105468746,0.0495565343278716,-0.018123181563828306,-0.042762985157026,2.194944143295288,2019-06-21 12:48:53:753
6.583355316162109,5.059469268798828,0.0574599609375,0.04875758600084783,-0.016658442964284724,-0.045292988192601275,2.1999361515045166,2019-06-21 12:48:53:758
6.582158233642578,5.054680938720703,0.0359124755859375,0.050754956818407256,-0.01585949463726095,-0.045958778465121086,2.204928159713745,2019-06-21 12:48:53:763
6.586946563720703,5.067848846435547,0.0263358154296875,0.051553905145431025,-0.014927388255733219,-0.04755667511916863,2.2099201679229736,2019-06-21 12:48:53:768
6.577369903564453,5.061863433837891,0.0263358154296875,0.05275232763596669,-0.014527914092221334,-0.047822991228176556,2.214912176132202,2019-06-21 12:48:53:773
6.585749481201172,5.070243011474609,0.07781036376953125,0.052885485690470656,-0.014394756037717372,-0.049820362045735984,2.220031976699829,2019-06-21 12:48:53:778
6.57497573852539,5.1157321472167965,0.02274456787109375,0.05474969845352612,-0.011997911056646056,-0.05008667815474391,2.2250239849090576,2019-06-21 12:48:53:783
6.548639923095703,5.098972991943359,0.08379577636718749,0.055149172617038,-0.010666330511606438,-0.051285100645279566,2.230015993118286,2019-06-21 12:48:53:788
6.571384490966797,5.120520477294922,0.08020452880859374,0.056081278998565735,-0.01146527883863021,-0.051418258699783524,2.2350080013275146,2019-06-21 12:48:53:793
6.543851593017578,5.134885467529297,0.07302203369140625,0.056214437053069694,-0.0107994885661104,-0.051418258699783524,2.240000009536743,2019-06-21 12:48:53:798
6.519909942626953,5.126505889892578,0.06823370361328125,0.05661391121658158,-0.010666330511606438,-0.051285100645279566,2.2449920177459717,2019-06-21 12:48:53:803
6.511530364990234,5.145659210205078,0.051474548339843745,0.05634759510757366,-0.010400014402598514,-0.05088562648176768,2.2499840259552,2019-06-21 12:48:53:808
6.536669097900391,5.139673797607422,0.12090533447265625,0.05568180483505385,-0.00933474996656682,-0.051418258699783524,2.2549760341644287,2019-06-21 12:48:53:813
6.528289520263672,5.167206695556641,0.12329949951171874,0.056214437053069694,-0.010533172457102476,-0.05195089091779937,2.2599680423736572,2019-06-21 12:48:53:818
6.497165374755859,5.131294219970703,0.08020452880859374,0.05634759510757366,-0.01239738522015794,-0.05075246842726371,2.2649600505828857,2019-06-21 12:48:53:823
6.507939117431641,5.166009613037109,0.08020452880859374,0.05568180483505385,-0.012530543274661906,-0.04968720399123202,2.2699520587921143,2019-06-21 12:48:53:828
6.5031507873535155,5.191148345947266,0.0790074462890625,0.05488285650803008,-0.013862123819701522,-0.04968720399123202,2.2749440670013428,2019-06-21 12:48:53:833
6.507939117431641,5.192345428466797,0.09696368408203125,0.054616540399022154,-0.01239738522015794,-0.049820362045735984,2.2799360752105713,2019-06-21 12:48:53:838
6.5031507873535155,5.191148345947266,0.0981607666015625,0.05501601456253404,-0.012663701329165868,-0.04848878150069637,2.2849280834198,2019-06-21 12:48:53:843
6.4744208068847655,5.203119171142578,0.08738702392578125,0.053684434017494426,-0.0135958077106936,-0.046757726792144856,2.2899200916290283,2019-06-21 12:48:53:848
6.495968292236328,5.169600860595703,0.081401611328125,0.053018643744974614,-0.01226422716565398,-0.046890884846648814,2.2950401306152344,2019-06-21 12:48:53:853
6.463647064208984,5.181571685791016,0.0885841064453125,0.05221969541795084,-0.014394756037717372,-0.04462719792008147,2.300032138824463,2019-06-21 12:48:53:858
6.491179962158203,5.194739593505859,0.06703662109375,0.05102127292741518,-0.013462649656189637,-0.04356193348404977,2.3050241470336914,2019-06-21 12:48:53:863
6.507939117431641,5.195936676025391,0.09337243652343749,0.050355482654895374,-0.014794230201229257,-0.04223035293901015,2.31001615524292,2019-06-21 12:48:53:868
6.485194549560546,5.199527923583984,0.09456951904296874,0.051154430981919144,-0.01506054631023718,-0.04129824655748242,2.3150081634521484,2019-06-21 12:48:53:873
6.489982879638672,5.195936676025391,0.09696368408203125,0.0506217987639033,-0.01572633658275699,-0.04049929823045865,2.320000171661377,2019-06-21 12:48:53:878
6.462449981689453,5.1899512634277345,0.07661328125,0.04875758600084783,-0.01705791712779661,-0.039434033794426955,2.3249921798706055,2019-06-21 12:48:53:883
6.461252899169922,5.180374603271484,0.071824951171875,0.04795863767382406,-0.017723707400316417,-0.03743666297686753,2.329983949661255,2019-06-21 12:48:53:888
6.467238311767578,5.206710418701172,0.09935784912109374,0.04729284740130425,-0.018788971836348114,-0.035971924377323945,2.3349759578704834,2019-06-21 12:48:53:893
6.476814971923828,5.212695831298828,0.11252575683593749,0.04636074101977652,-0.017590549345812456,-0.03503981799579621,2.339967966079712,2019-06-21 12:48:53:898
6.491179962158203,5.192345428466797,0.09456951904296874,0.04489600242023293,-0.01918844599986,-0.03397455355976452,2.3449599742889404,2019-06-21 12:48:53:903
6.492377044677734,5.181571685791016,0.10175201416015625,0.04449652825672105,-0.019987394326883772,-0.03290928912373282,2.349951982498169,2019-06-21 12:48:53:908
6.515121612548828,5.199527923583984,0.0957666015625,0.04276547354816954,-0.021052658762915465,-0.03211034079670905,2.3549439907073975,2019-06-21 12:48:53:913
6.505544952392578,5.177980438232422,0.09337243652343749,0.04316494771168143,-0.021185816817419427,-0.030379286088157542,2.359935998916626,2019-06-21 12:48:53:918
6.515121612548828,5.170797943115234,0.0454891357421875,0.042365999384657654,-0.02145213292642735,-0.028914547488613964,2.3649280071258545,2019-06-21 12:48:53:923
6.519909942626953,5.1755862731933595,0.014364990234375,0.041433893003129926,-0.02358266179849074,-0.028781389434110002,2.369920015335083,2019-06-21 12:48:53:928
6.518712860107422,5.150447540283203,0.06583953857421875,0.041167576894122,-0.02344950374398678,-0.02665086056204661,2.3749120235443115,2019-06-21 12:48:53:933
6.529486602783203,5.134885467529297,0.09456951904296874,0.039569680240074456,-0.024381610125514517,-0.027582966943574348,2.3800320625305176,2019-06-21 12:48:53:938
6.559413665771484,5.140870880126953,0.10893450927734374,0.03823809969503484,-0.022384239307955085,-0.02678401861655057,2.385024070739746,2019-06-21 12:48:53:943
6.5175157775878905,5.1444621276855464,0.04429205322265625,0.03930336413106653,-0.022117923198947162,-0.02678401861655057,2.3900160789489746,2019-06-21 12:48:53:948
6.52709243774414,5.133688385009766,0.062248291015625,0.03930336413106653,-0.022117923198947162,-0.02851507332510208,2.395008087158203,2019-06-21 12:48:53:953
6.53547201538086,5.122914642333984,0.02992706298828125,0.03757230942251503,-0.021718449035435277,-0.02771612499807831,2.4000000953674316,2019-06-21 12:48:53:958
6.522304107666016,5.125308807373047,0.033518310546875,0.03717283525900315,-0.02344950374398678,-0.02784928305258227,2.40499210357666,2019-06-21 12:48:53:963
6.506742034912109,5.119323394775391,0.0550657958984375,0.036507044986483335,-0.024381610125514517,-0.028914547488613964,2.4099841117858887,2019-06-21 12:48:53:968
6.513924530029297,5.103761322021485,0.0598541259765625,0.03570809665945956,-0.02344950374398678,-0.028248757216094156,2.414976119995117,2019-06-21 12:48:53:973
6.53547201538086,5.11812631225586,0.09217535400390625,0.03570809665945956,-0.022916871525970932,-0.028381915270598117,2.4199681282043457,2019-06-21 12:48:53:978
6.541457427978515,5.1157321472167965,0.0598541259765625,0.03570809665945956,-0.022916871525970932,-0.02931402165212585,2.424960136413574,2019-06-21 12:48:53:983
6.551034088134766,5.069045928955078,0.04908038330078125,0.03517546444144371,-0.023316345689482817,-0.029979811924645657,2.4299521446228027,2019-06-21 12:48:53:988
6.5318807678222655,5.0582721862792965,0.09935784912109374,0.03530862249594768,-0.02344950374398678,-0.03131139246968528,2.4349441528320312,2019-06-21 12:48:53:993
6.543851593017578,5.054680938720703,0.114919921875,0.036507044986483335,-0.02358266179849074,-0.03144455052418924,2.4399361610412598,2019-06-21 12:48:53:998
6.534274932861328,5.055878021240234,0.1316790771484375,0.03517546444144371,-0.023715819852994702,-0.03304244717823678,2.4449281692504883,2019-06-21 12:48:54:003
6.57497573852539,5.040315948486328,0.09217535400390625,0.03530862249594768,-0.024115294016506587,-0.035306134104804134,2.449920177459717,2019-06-21 12:48:54:008
6.58455239868164,5.027148040771484,0.1077374267578125,0.03570809665945956,-0.022916871525970932,-0.03583876632281998,2.4550399780273438,2019-06-21 12:48:54:013
6.580961151123047,5.048695526123047,0.08738702392578125,0.03677336109549126,-0.02265055541696301,-0.03783613714037941,2.4600319862365723,2019-06-21 12:48:54:018
6.570187408447265,5.05228677368164,0.09696368408203125,0.03530862249594768,-0.022384239307955085,-0.03903455963091507,2.465023994445801,2019-06-21 12:48:54:023
6.568990325927734,5.051089691162109,0.0550657958984375,0.03584125471396352,-0.023848977907498663,-0.04049929823045865,2.4700160026550293,2019-06-21 12:48:54:028
6.570187408447265,5.057075103759765,0.07421911621093749,0.036107570822971446,-0.023715819852994702,-0.04223035293901015,2.475008010864258,2019-06-21 12:48:54:033
6.56420199584961,5.057075103759765,0.08618994140625,0.03624072887747541,-0.024115294016506587,-0.044094565702065616,2.4800000190734863,2019-06-21 12:48:54:038
6.579764068603516,5.045104278564453,0.11611700439453125,0.034642832223427865,-0.02358266179849074,-0.045292988192601275,2.484992027282715,2019-06-21 12:48:54:043
6.548639923095703,5.0582721862792965,0.07062786865234374,0.03504230638693975,-0.02451476818001848,-0.04702404290115278,2.4899840354919434,2019-06-21 12:48:54:048
6.5761728210449215,5.067848846435547,0.100554931640625,0.03517546444144371,-0.02344950374398678,-0.0476898331736726,2.494976043701172,2019-06-21 12:48:54:053
6.557019500732422,5.067848846435547,0.10175201416015625,0.03437651611441994,-0.023316345689482817,-0.04968720399123202,2.4999680519104004,2019-06-21 12:48:54:058
6.553428253173828,5.06066635131836,0.10175201416015625,0.03530862249594768,-0.024381610125514517,-0.04995352010023994,2.504960060119629,2019-06-21 12:48:54:063
6.540260345458984,5.0726371765136715,0.09337243652343749,0.03517546444144371,-0.02464792623452244,-0.050619310372759754,2.5099520683288574,2019-06-21 12:48:54:068
6.530683685302734,5.064257598876953,0.11611700439453125,0.033444409732892214,-0.025846348725058095,-0.052217207026807294,2.514944076538086,2019-06-21 12:48:54:073
6.5474428405761715,5.088199249267578,0.12210241699218749,0.03317809362388429,-0.027577403433609596,-0.053681945626350876,2.5199360847473145,2019-06-21 12:48:54:078
6.537866180419922,5.07144009399414,0.11611700439453125,0.033044935569380325,-0.02624582288856998,-0.05448089395337465,2.524928092956543,2019-06-21 12:48:54:083
6.516318695068359,5.079819671630859,0.09935784912109374,0.03184651307884467,-0.026911613161089788,-0.055146684225894464,2.5299201011657715,2019-06-21 12:48:54:088
6.55582241821289,5.084608001708984,0.090978271484375,0.033444409732892214,-0.02890898397864922,-0.054747210062382576,2.534912109375,2019-06-21 12:48:54:093
6.510333282470703,5.090593414306641,0.07661328125,0.03264546140586844,-0.026645297052081865,-0.056345106716430116,2.540032148361206,2019-06-21 12:48:54:098
6.549837005615235,5.103761322021485,0.10294909667968749,0.03184651307884467,-0.02717792927009771,-0.056744580879942004,2.5450241565704346,2019-06-21 12:48:54:103
6.5318807678222655,5.104958404541016,0.09935784912109374,0.030781248642812974,-0.027577403433609596,-0.05727721309795785,2.550016164779663,2019-06-21 12:48:54:108
6.548639923095703,5.090593414306641,0.06464245605468749,0.029849142261285242,-0.02704477121559375,-0.05687773893444596,2.5550081729888916,2019-06-21 12:48:54:113
6.536669097900391,5.122914642333984,0.07062786865234374,0.030115458370293165,-0.027311087324601673,-0.05847563558849351,2.56000018119812,2019-06-21 12:48:54:118
6.536669097900391,5.120520477294922,0.05865704345703125,0.029449668097773354,-0.02797687759712149,-0.05661142282543804,2.5649919509887695,2019-06-21 12:48:54:123
6.509136199951172,5.116929229736328,0.09696368408203125,0.029449668097773354,-0.028509509815137335,-0.058342477533989544,2.569983959197998,2019-06-21 12:48:54:128
6.537866180419922,5.125308807373047,0.07781036376953125,0.02918335198876543,-0.029175300087657143,-0.05887510975200539,2.5749759674072266,2019-06-21 12:48:54:133
6.5330778503417966,5.1300971374511715,0.07302203369140625,0.02851756171624562,-0.028775825924145258,-0.05807616142498162,2.579967975616455,2019-06-21 12:48:54:138
6.524698272705078,5.113337982177734,0.06464245605468749,0.028251245607237695,-0.030107406469184875,-0.05860879364299747,2.5849599838256836,2019-06-21 12:48:54:143
6.5175157775878905,5.126505889892578,0.06823370361328125,0.027585455334717887,-0.030773196741704683,-0.058342477533989544,2.589951992034912,2019-06-21 12:48:54:148
6.516318695068359,5.1157321472167965,0.08499285888671874,0.02771861338922185,-0.029974248414680913,-0.059807216133533125,2.5949440002441406,2019-06-21 12:48:54:153
6.518712860107422,5.12890005493164,0.06344537353515625,0.026786507007694117,-0.03050688063269676,-0.06047300640605293,2.599936008453369,2019-06-21 12:48:54:158
6.5175157775878905,5.133688385009766,0.0957666015625,0.02625387478967827,-0.030107406469184875,-0.06020669029704501,2.6049280166625977,2019-06-21 12:48:54:163
6.5330778503417966,5.119323394775391,0.10175201416015625,0.025854400626166382,-0.030107406469184875,-0.059807216133533125,2.609920024871826,2019-06-21 12:48:54:168
6.551034088134766,5.136082550048828,0.09935784912109374,0.02625387478967827,-0.029574774251169028,-0.059940374188037084,2.6149120330810547,2019-06-21 12:48:54:173
6.549837005615235,5.120520477294922,0.100554931640625,0.02425650397211884,-0.031039512850712606,-0.06073932251506085,2.6200320720672607,2019-06-21 12:48:54:178
6.525895355224609,5.138476715087891,0.056262878417968745,0.023058081481583184,-0.03064003868720072,-0.05940774197002124,2.6250240802764893,2019-06-21 12:48:54:183
6.501953704833984,5.136082550048828,0.0981607666015625,0.022525449263567334,-0.031572145068728456,-0.059807216133533125,2.6300160884857178,2019-06-21 12:48:54:188
6.507939117431641,5.119323394775391,0.09456951904296874,0.02079439455501583,-0.030773196741704683,-0.05967405807902916,2.6350080966949463,2019-06-21 12:48:54:193
6.528289520263672,5.120520477294922,0.10414617919921874,0.021859658991047526,-0.032637409504760156,-0.059940374188037084,2.640000104904175,2019-06-21 12:48:54:198
6.523501190185547,5.131294219970703,0.0885841064453125,0.021193868718527718,-0.032770567559264115,-0.05874195169750143,2.6449921131134033,2019-06-21 12:48:54:203
6.542654510498047,5.163615447998047,0.10534326171875,0.02225913315455941,-0.031039512850712606,-0.058342477533989544,2.649984121322632,2019-06-21 12:48:54:208
6.523501190185547,5.158827117919921,0.1508323974609375,0.021593342882039603,-0.03210477728674431,-0.05940774197002124,2.6549761295318604,2019-06-21 12:48:54:213
6.53547201538086,5.148053375244141,0.12928491210937498,0.02079439455501583,-0.03237109339575223,-0.05927458391551728,2.659968137741089,2019-06-21 12:48:54:218
6.540260345458984,5.158827117919921,0.06464245605468749,0.020528078446007906,-0.032637409504760156,-0.059008267806509355,2.6649601459503174,2019-06-21 12:48:54:223
6.521107025146485,5.156432952880859,0.056262878417968745,0.02079439455501583,-0.03237109339575223,-0.05940774197002124,2.669952154159546,2019-06-21 12:48:54:228
6.530683685302734,5.151644622802734,0.0694307861328125,0.019862288173488098,-0.03223793534124827,-0.05967405807902916,2.6749441623687744,2019-06-21 12:48:54:233
6.5330778503417966,5.142067962646484,0.07421911621093749,0.020261762336999983,-0.031971619232240345,-0.05860879364299747,2.679936170578003,2019-06-21 12:48:54:238
6.512727447509765,5.139673797607422,0.09217535400390625,0.02012860428249602,-0.033569515886287885,-0.05874195169750143,2.6849281787872314,2019-06-21 12:48:54:243
6.5330778503417966,5.122914642333984,0.09337243652343749,0.019063339846464324,-0.03463478032231958,-0.0612719547330767,2.689919948577881,2019-06-21 12:48:54:248
6.515121612548828,5.140870880126953,0.11132867431640625,0.018530707628448478,-0.03530057059483939,-0.06007353224254105,2.6949119567871094,2019-06-21 12:48:54:253
6.495968292236328,5.149250457763672,0.08978118896484374,0.019196497900968286,-0.03516741254033543,-0.05940774197002124,2.7000319957733154,2019-06-21 12:48:54:258
6.528289520263672,5.160024200439453,0.13527032470703124,0.017731759301424708,-0.035433728649343355,-0.059807216133533125,2.705024003982544,2019-06-21 12:48:54:263
6.52709243774414,5.160024200439453,0.1316790771484375,0.018530707628448478,-0.035433728649343355,-0.05967405807902916,2.7100160121917725,2019-06-21 12:48:54:268
6.5175157775878905,5.15763003540039,0.15681781005859374,0.01746544319241678,-0.03556688670384732,-0.05967405807902916,2.715008020401001,2019-06-21 12:48:54:273
6.504347869873047,5.166009613037109,0.09217535400390625,0.016799652919896973,-0.03556688670384732,-0.05727721309795785,2.7200000286102295,2019-06-21 12:48:54:278
6.521107025146485,5.181571685791016,0.13048199462890625,0.01746544319241678,-0.03636583503087109,-0.0578098453159737,2.724992036819458,2019-06-21 12:48:54:283
6.489982879638672,5.197133758544922,0.1508323974609375,0.016000704592873203,-0.03649899308537505,-0.057543529206965774,2.7299840450286865,2019-06-21 12:48:54:288
6.480406219482422,5.182768768310547,0.10414617919921874,0.016267020701881126,-0.03636583503087109,-0.0578098453159737,2.734976053237915,2019-06-21 12:48:54:293
6.493574127197266,5.203119171142578,0.07062786865234374,0.016400178756385088,-0.03809688973942259,-0.056744580879942004,2.7399680614471436,2019-06-21 12:48:54:298
6.492377044677734,5.194739593505859,0.06703662109375,0.016400178756385088,-0.03743109946690278,-0.05461405200787862,2.744960069656372,2019-06-21 12:48:54:303
6.486391632080078,5.193542510986328,0.10654034423828125,0.016400178756385088,-0.03809688973942259,-0.053681945626350876,2.7499520778656006,2019-06-21 12:48:54:308
6.494771209716797,5.187557098388671,0.08618994140625,0.016400178756385088,-0.03796373168491863,-0.05248352313581522,2.754944086074829,2019-06-21 12:48:54:313
6.492377044677734,5.183965850830078,0.081401611328125,0.016133862647377165,-0.03836320584843051,-0.05235036508131126,2.7599360942840576,2019-06-21 12:48:54:318
6.486391632080078,5.18636001586914,0.10534326171875,0.015601230429361316,-0.038895838066446364,-0.052084048972303336,2.764928102493286,2019-06-21 12:48:54:323
6.480406219482422,5.1899512634277345,0.07781036376953125,0.016400178756385088,-0.0398279444479741,-0.05048615231825579,2.7699201107025146,2019-06-21 12:48:54:328
6.487588714599609,5.1755862731933595,0.07781036376953125,0.016400178756385088,-0.04022741861148598,-0.049820362045735984,2.7750401496887207,2019-06-21 12:48:54:333
6.470829559326171,5.1899512634277345,0.08379577636718749,0.016133862647377165,-0.03836320584843051,-0.04848878150069637,2.780032157897949,2019-06-21 12:48:54:338
6.5031507873535155,5.182768768310547,0.0885841064453125,0.016267020701881126,-0.0387626800119424,-0.0483556234461924,2.7850241661071777,2019-06-21 12:48:54:343
6.5175157775878905,5.170797943115234,0.04429205322265625,0.017199127083408858,-0.039561628338966176,-0.0476898331736726,2.7900161743164062,2019-06-21 12:48:54:348
6.4887857971191405,5.197133758544922,0.12210241699218749,0.017199127083408858,-0.03676530919438297,-0.046757726792144856,2.7950081825256348,2019-06-21 12:48:54:353
6.486391632080078,5.200725006103515,0.09456951904296874,0.01666649486539301,-0.038629521957438434,-0.04542614624710524,2.799999952316284,2019-06-21 12:48:54:358
6.511530364990234,5.179177520751953,0.10175201416015625,0.01799807541043263,-0.037697415575910706,-0.046091936519625044,2.8049919605255127,2019-06-21 12:48:54:363
6.512727447509765,5.171995025634765,0.09456951904296874,0.018530707628448478,-0.037031625303390894,-0.046091936519625044,2.809983968734741,2019-06-21 12:48:54:368
6.528289520263672,5.152841705322266,0.08259869384765625,0.01999544622799206,-0.037031625303390894,-0.04662456873764089,2.8149759769439697,2019-06-21 12:48:54:373
6.543851593017578,5.151644622802734,0.06583953857421875,0.01932965595547225,-0.03743109946690278,-0.045159830138097316,2.8199679851531982,2019-06-21 12:48:54:378
6.52709243774414,5.12890005493164,0.09456951904296874,0.02092755260951979,-0.03676530919438297,-0.04489351402908939,2.8249599933624268,2019-06-21 12:48:54:383
6.516318695068359,5.142067962646484,0.09935784912109374,0.022392291209063372,-0.036232676976367124,-0.045292988192601275,2.8299520015716553,2019-06-21 12:48:54:388
6.528289520263672,5.140870880126953,0.04788330078125,0.022658607318071296,-0.03729794141239882,-0.045159830138097316,2.834944009780884,2019-06-21 12:48:54:393
6.5330778503417966,5.122914642333984,0.0263358154296875,0.023857029808606954,-0.03743109946690278,-0.04582562041061712,2.8399360179901123,2019-06-21 12:48:54:398
6.5175157775878905,5.124111724853515,0.0574599609375,0.023990187863110916,-0.03476793837682354,-0.045292988192601275,2.844928026199341,2019-06-21 12:48:54:403
6.515121612548828,5.137279632568359,0.0550657958984375,0.025321768408150532,-0.033569515886287885,-0.04635825262863297,2.8499200344085693,2019-06-21 12:48:54:408
6.5330778503417966,5.154038787841797,0.0790074462890625,0.025987558680670344,-0.03410214810430373,-0.0455593043016092,2.854912042617798,2019-06-21 12:48:54:413
6.511530364990234,5.151644622802734,0.04908038330078125,0.026653348953190156,-0.033170041722776,-0.04635825262863297,2.860032081604004,2019-06-21 12:48:54:418
6.530683685302734,5.1444621276855464,0.07421911621093749,0.02851756171624562,-0.031971619232240345,-0.04729035901016071,2.8650240898132324,2019-06-21 12:48:54:423
6.528289520263672,5.140870880126953,0.0598541259765625,0.028251245607237695,-0.031572145068728456,-0.04622509457412901,2.870016098022461,2019-06-21 12:48:54:428
6.519909942626953,5.148053375244141,0.06703662109375,0.028917035879757504,-0.0314389870142245,-0.045292988192601275,2.8750081062316895,2019-06-21 12:48:54:433
6.493574127197266,5.15763003540039,0.09935784912109374,0.030248616424797127,-0.030373722578192798,-0.044094565702065616,2.880000114440918,2019-06-21 12:48:54:438
6.505544952392578,5.177980438232422,0.06583953857421875,0.030115458370293165,-0.02811003565162545,-0.04382824959305769,2.8849921226501465,2019-06-21 12:48:54:443
6.513924530029297,5.18636001586914,0.0598541259765625,0.03237914529686051,-0.027710561488113558,-0.04316245932053789,2.889984130859375,2019-06-21 12:48:54:448
6.494771209716797,5.195936676025391,0.03950372314453125,0.03357756778739617,-0.029441616196665066,-0.04342877542954581,2.8949761390686035,2019-06-21 12:48:54:453
6.491179962158203,5.166009613037109,0.06703662109375,0.03504230638693975,-0.029441616196665066,-0.04183087877549827,2.899968147277832,2019-06-21 12:48:54:458
6.507939117431641,5.149250457763672,0.07421911621093749,0.03530862249594768,-0.027311087324601673,-0.04076561433946657,2.9049601554870605,2019-06-21 12:48:54:463
6.540260345458984,5.168403778076172,0.0598541259765625,0.03624072887747541,-0.026911613161089788,-0.04076561433946657,2.909952163696289,2019-06-21 12:48:54:468
6.519909942626953,5.168403778076172,0.081401611328125,0.036107570822971446,-0.026911613161089788,-0.04116508850297846,2.9149441719055176,2019-06-21 12:48:54:473
6.522304107666016,5.173192108154296,0.023941650390625,0.03903704802205861,-0.02797687759712149,-0.040232982121450725,2.919936180114746,2019-06-21 12:48:54:478
6.49836245727539,5.164812530517578,0.07541619873046874,0.03917020607656257,-0.024914242343530364,-0.038635085467403185,2.9249279499053955,2019-06-21 12:48:54:483
6.511530364990234,5.166009613037109,0.0550657958984375,0.03743915136801107,-0.025047400398034325,-0.03796929519488337,2.929919958114624,2019-06-21 12:48:54:488
6.492377044677734,5.197133758544922,0.06344537353515625,0.040768102730610115,-0.023715819852994702,-0.03663771464984375,2.9349119663238525,2019-06-21 12:48:54:493
6.5031507873535155,5.150447540283203,0.12329949951171874,0.041433893003129926,-0.023715819852994702,-0.03637139854083583,2.9400320053100586,2019-06-21 12:48:54:498
6.511530364990234,5.192345428466797,0.10294909667968749,0.042232841330153696,-0.02531371650704225,-0.0361050824318279,2.945024013519287,2019-06-21 12:48:54:503
6.486391632080078,5.174389190673828,0.09217535400390625,0.0428986316026735,-0.023183187634978855,-0.03477350188678829,2.9500160217285156,2019-06-21 12:48:54:508
6.492377044677734,5.183965850830078,0.071824951171875,0.04449652825672105,-0.022251081253451124,-0.033308763287244705,2.955008029937744,2019-06-21 12:48:54:513
6.49836245727539,5.205513336181641,0.10654034423828125,0.04489600242023293,-0.0219847651444432,-0.03197718274220509,2.9600000381469727,2019-06-21 12:48:54:518
6.482800384521484,5.187557098388671,0.09337243652343749,0.044629686311225006,-0.021185816817419427,-0.030379286088157542,2.964992046356201,2019-06-21 12:48:54:523
6.472026641845703,5.222272491455078,0.07541619873046874,0.04662705712878444,-0.021185816817419427,-0.028781389434110002,2.9699840545654297,2019-06-21 12:48:54:528
6.462449981689453,5.193542510986328,0.0598541259765625,0.046893373237792364,-0.020919500708411504,-0.02771612499807831,2.974976062774658,2019-06-21 12:48:54:533
6.4744208068847655,5.1899512634277345,0.08020452880859374,0.046893373237792364,-0.020919500708411504,-0.026118228344030762,2.9799680709838867,2019-06-21 12:48:54:538
6.489982879638672,5.200725006103515,0.10294909667968749,0.04795863767382406,-0.0219847651444432,-0.025452438071510954,2.9849600791931152,2019-06-21 12:48:54:543
6.500756622314453,5.197133758544922,0.09935784912109374,0.04942337627336764,-0.01972107821787585,-0.023455067253951523,2.9899520874023438,2019-06-21 12:48:54:548
6.489982879638672,5.201922088623046,0.04908038330078125,0.048491269891839904,-0.01985423627237981,-0.021457696436392098,2.9949440956115723,2019-06-21 12:48:54:553
6.509136199951172,5.191148345947266,0.03950372314453125,0.04875758600084783,-0.020386868490395657,-0.020126115891352478,2.999936103820801,2019-06-21 12:48:54:558
6.518712860107422,5.155235870361328,0.04429205322265625,0.051154430981919144,-0.019454762108867922,-0.019992957836848516,3.0049281120300293,2019-06-21 12:48:54:563
6.504347869873047,5.150447540283203,0.062248291015625,0.0512875890364231,-0.018788971836348114,-0.01826190312829701,3.009920120239258,2019-06-21 12:48:54:568
6.500756622314453,5.152841705322266,0.0790074462890625,0.051154430981919144,-0.018922129890852075,-0.017995587019289088,3.0149121284484863,2019-06-21 12:48:54:573
6.4744208068847655,5.160024200439453,0.062248291015625,0.05208653736344687,-0.019454762108867922,-0.01746295480127324,3.0200321674346924,2019-06-21 12:48:54:578
6.5175157775878905,5.142067962646484,0.06464245605468749,0.05395075012650235,-0.017990023509324344,-0.01812874507379305,3.025024175643921,2019-06-21 12:48:54:583
6.522304107666016,5.138476715087891,0.081401611328125,0.053018643744974614,-0.016924759073292647,-0.017729270910281165,3.0300159454345703,2019-06-21 12:48:54:588
6.525895355224609,5.11812631225586,0.08020452880859374,0.052352853472454795,-0.017590549345812456,-0.017196638692265315,3.035007953643799,2019-06-21 12:48:54:593
6.507939117431641,5.1300971374511715,0.037109558105468746,0.052885485690470656,-0.016125810746268877,-0.016530848419745506,3.0399999618530273,2019-06-21 12:48:54:598
6.512727447509765,5.120520477294922,0.07062786865234374,0.05488285650803008,-0.01585949463726095,-0.015598742038217771,3.044991970062256,2019-06-21 12:48:54:603
6.537866180419922,5.102564239501953,0.0981607666015625,0.055149172617038,-0.017590549345812456,-0.016264532310737583,3.0499839782714844,2019-06-21 12:48:54:608
6.5318807678222655,5.1013671569824215,0.07781036376953125,0.055282330671541965,-0.016525284909780762,-0.01693032258325739,3.054975986480713,2019-06-21 12:48:54:613
6.509136199951172,5.067848846435547,0.043094970703125,0.054616540399022154,-0.015460020473749066,-0.01679716452875343,3.0599679946899414,2019-06-21 12:48:54:618
6.524698272705078,5.0870021667480465,0.071824951171875,0.05594812094406177,-0.015460020473749066,-0.016530848419745506,3.06496000289917,2019-06-21 12:48:54:623
6.548639923095703,5.067848846435547,0.08738702392578125,0.05701338538009347,-0.015193704364741142,-0.017063480637761353,3.0699520111083984,2019-06-21 12:48:54:628
6.540260345458984,5.073834259033203,0.08259869384765625,0.05954338841566874,-0.013995281874205484,-0.01906085145532078,3.074944019317627,2019-06-21 12:48:54:633
6.567793243408203,5.048695526123047,0.04908038330078125,0.0600760206336846,-0.01239738522015794,-0.020525590054864363,3.0799360275268555,2019-06-21 12:48:54:638
6.568990325927734,5.047498443603516,0.052671630859375,0.0596765464701727,-0.010400014402598514,-0.020126115891352478,3.084928035736084,2019-06-21 12:48:54:643
6.554625335693359,5.054680938720703,0.04908038330078125,0.0600760206336846,-0.011332120784126248,-0.022256644763415868,3.0899200439453125,2019-06-21 12:48:54:648
6.595326141357422,5.063060516357422,0.08499285888671874,0.059277072306660815,-0.011864753002142094,-0.023055593090439638,3.094912052154541,2019-06-21 12:48:54:653
6.582158233642578,5.057075103759765,0.07421911621093749,0.060608652851700445,-0.010400014402598514,-0.023987699471967376,3.100032091140747,2019-06-21 12:48:54:658
6.579764068603516,5.066651763916015,0.07302203369140625,0.06087496896070837,-0.010932646620614361,-0.025452438071510954,3.1050240993499756,2019-06-21 12:48:54:663
6.585749481201172,5.055878021240234,0.11372283935546874,0.06127444312422025,-0.009601066075574743,-0.02665086056204661,3.110016107559204,2019-06-21 12:48:54:668
6.580961151123047,5.064257598876953,0.07062786865234374,0.06194023339674006,-0.010932646620614361,-0.027449808889070386,3.1150081157684326,2019-06-21 12:48:54:673
6.58455239868164,5.07144009399414,0.052671630859375,0.06087496896070837,-0.010266856348094553,-0.027316650834566417,3.120000123977661,2019-06-21 12:48:54:678
6.570187408447265,5.079819671630859,0.02513873291015625,0.0607418109062044,-0.009734224130078704,-0.028248757216094156,3.1249921321868896,2019-06-21 12:48:54:683
6.54624575805664,5.092987579345703,0.08499285888671874,0.06114128506971629,-0.009467908021070781,-0.02944717970662981,3.129984140396118,2019-06-21 12:48:54:688
6.5318807678222655,5.092987579345703,0.052671630859375,0.060608652851700445,-0.009068433857558894,-0.029979811924645657,3.1349761486053467,2019-06-21 12:48:54:693
6.560610748291015,5.076228424072266,0.0502774658203125,0.06047549479719648,-0.008535801639543048,-0.0315777085786932,3.139968156814575,2019-06-21 12:48:54:698
6.557019500732422,5.064257598876953,0.0598541259765625,0.05954338841566874,-0.00933474996656682,-0.03304244717823678,3.1449601650238037,2019-06-21 12:48:54:703
6.540260345458984,5.085805084228515,0.08259869384765625,0.05914391425215686,-0.010266856348094553,-0.033441921341748664,3.1499521732330322,2019-06-21 12:48:54:708
6.558216583251953,5.077425506591797,0.09696368408203125,0.0596765464701727,-0.009201591912062856,-0.03503981799579621,3.1549441814422607,2019-06-21 12:48:54:713
6.579764068603516,5.092987579345703,0.08020452880859374,0.058478123979637045,-0.009734224130078704,-0.0361050824318279,3.15993595123291,2019-06-21 12:48:54:718
6.5474428405761715,5.079819671630859,0.11611700439453125,0.05861128203414101,-0.010666330511606438,-0.03557245021381206,3.1649279594421387,2019-06-21 12:48:54:723
6.537866180419922,5.075031341552735,0.081401611328125,0.05874444008864497,-0.010932646620614361,-0.03703718881335564,3.169919967651367,2019-06-21 12:48:54:728
6.551034088134766,5.076228424072266,0.05865704345703125,0.05701338538009347,-0.011864753002142094,-0.03810245324938733,3.1749119758605957,2019-06-21 12:48:54:733
6.541457427978515,5.103761322021485,0.10175201416015625,0.056081278998565735,-0.011864753002142094,-0.03903455963091507,3.1800320148468018,2019-06-21 12:48:54:738
6.528289520263672,5.097775909423828,0.0885841064453125,0.055282330671541965,-0.01279685938366983,-0.03970034990343488,3.1850240230560303,2019-06-21 12:48:54:743
6.528289520263672,5.095381744384765,0.07661328125,0.056081278998565735,-0.013329491601685676,-0.040632456284962606,3.190016031265259,2019-06-21 12:48:54:748
6.537866180419922,5.085805084228515,0.0359124755859375,0.056081278998565735,-0.011198962729622286,-0.04129824655748242,3.1950080394744873,2019-06-21 12:48:54:753
6.541457427978515,5.127702972412109,0.07302203369140625,0.05488285650803008,-0.012663701329165868,-0.04089877239397054,3.200000047683716,2019-06-21 12:48:54:758
6.548639923095703,5.114535064697265,0.09935784912109374,0.05355127596299046,-0.013329491601685676,-0.04156456266649034,3.2049920558929443,2019-06-21 12:48:54:763
6.558216583251953,5.11812631225586,0.11132867431640625,0.05275232763596669,-0.01239738522015794,-0.04183087877549827,3.209984064102173,2019-06-21 12:48:54:768
6.537866180419922,5.103761322021485,0.071824951171875,0.05221969541795084,-0.013995281874205484,-0.042762985157026,3.2149760723114014,2019-06-21 12:48:54:773
6.52709243774414,5.10974673461914,0.08978118896484374,0.049956008491383486,-0.014527914092221334,-0.04236351099351412,3.21996808052063,2019-06-21 12:48:54:778
6.530683685302734,5.126505889892578,0.0598541259765625,0.04942337627336764,-0.014394756037717372,-0.04116508850297846,3.2249600887298584,2019-06-21 12:48:54:783
6.518712860107422,5.119323394775391,0.10534326171875,0.049290218218863674,-0.015326862419245104,-0.04116508850297846,3.229952096939087,2019-06-21 12:48:54:788
6.525895355224609,5.137279632568359,0.0598541259765625,0.049290218218863674,-0.016125810746268877,-0.042097194884506195,3.2349441051483154,2019-06-21 12:48:54:793
6.524698272705078,5.1444621276855464,0.08379577636718749,0.04809179572832802,-0.01705791712779661,-0.04223035293901015,3.239936113357544,2019-06-21 12:48:54:798
6.515121612548828,5.1444621276855464,0.08978118896484374,0.04702653129229633,-0.017590549345812456,-0.04143140461198638,3.2449281215667725,2019-06-21 12:48:54:803
6.499559539794921,5.139673797607422,0.08978118896484374,0.046094424910768594,-0.01852265572734019,-0.04316245932053789,3.249920129776001,2019-06-21 12:48:54:808
6.49836245727539,5.116929229736328,0.11372283935546874,0.04476284436572897,-0.01918844599986,-0.042496669048018076,3.2549121379852295,2019-06-21 12:48:54:813
6.524698272705078,5.125308807373047,0.09337243652343749,0.04356442187519331,-0.01972107821787585,-0.04183087877549827,3.2600321769714355,2019-06-21 12:48:54:818
6.515121612548828,5.133688385009766,0.1268907470703125,0.04183336716664181,-0.021052658762915465,-0.04156456266649034,3.265023946762085,2019-06-21 12:48:54:823
6.524698272705078,5.142067962646484,0.10175201416015625,0.042365999384657654,-0.02145213292642735,-0.04076561433946657,3.2700159549713135,2019-06-21 12:48:54:828
6.5474428405761715,5.134885467529297,0.11851116943359374,0.04103441883961804,-0.022117923198947162,-0.04049929823045865,3.275007963180542,2019-06-21 12:48:54:833
6.548639923095703,5.131294219970703,0.10534326171875,0.03917020607656257,-0.021052658762915465,-0.04009982406694676,3.2799999713897705,2019-06-21 12:48:54:838
6.515121612548828,5.12890005493164,0.1340732421875,0.03917020607656257,-0.022117923198947162,-0.041031930448474495,3.284991979598999,2019-06-21 12:48:54:843
6.522304107666016,5.112140899658203,0.07781036376953125,0.038903889967554645,-0.023183187634978855,-0.04129824655748242,3.2899839878082275,2019-06-21 12:48:54:848
6.494771209716797,5.1157321472167965,0.071824951171875,0.03783862553152295,-0.025979506779562057,-0.04076561433946657,3.294975996017456,2019-06-21 12:48:54:853
6.46963247680664,5.1324913024902346,0.09217535400390625,0.03637388693197938,-0.02544687456154621,-0.03956719184893091,3.2999680042266846,2019-06-21 12:48:54:858
6.522304107666016,5.148053375244141,0.0598541259765625,0.0355749386049556,-0.026512138997577903,-0.03956719184893091,3.304960012435913,2019-06-21 12:48:54:863
6.518712860107422,5.150447540283203,0.046686218261718745,0.03437651611441994,-0.02624582288856998,-0.04036614017595468,3.3099520206451416,2019-06-21 12:48:54:868
6.52709243774414,5.151644622802734,0.0574599609375,0.03424335805991598,-0.02611266483406602,-0.03956719184893091,3.31494402885437,2019-06-21 12:48:54:873
6.52709243774414,5.137279632568359,0.033518310546875,0.03437651611441994,-0.025180558452538287,-0.03903455963091507,3.3199360370635986,2019-06-21 12:48:54:878
6.523501190185547,5.112140899658203,0.071824951171875,0.03264546140586844,-0.025713190670554133,-0.03890140157641111,3.324928045272827,2019-06-21 12:48:54:883
6.540260345458984,5.119323394775391,0.071824951171875,0.031047564751820897,-0.02611266483406602,-0.03903455963091507,3.3299200534820557,2019-06-21 12:48:54:888
6.558216583251953,5.1300971374511715,0.043094970703125,0.030248616424797127,-0.02797687759712149,-0.039434033794426955,3.334912061691284,2019-06-21 12:48:54:893
6.524698272705078,5.11812631225586,0.04908038330078125,0.030248616424797127,-0.02890898397864922,-0.03956719184893091,3.3400321006774902,2019-06-21 12:48:54:898
6.505544952392578,5.116929229736328,0.07661328125,0.028783877825253542,-0.028775825924145258,-0.039434033794426955,3.3450241088867188,2019-06-21 12:48:54:903
6.530683685302734,5.102564239501953,0.11851116943359374,0.028384403661741657,-0.029574774251169028,-0.03903455963091507,3.3500161170959473,2019-06-21 12:48:54:908
6.530683685302734,5.07144009399414,0.061051208496093745,0.027452297280213925,-0.02970793230567299,-0.03930087573992299,3.355008125305176,2019-06-21 12:48:54:913
6.519909942626953,5.094184661865234,0.119708251953125,0.025987558680670344,-0.030773196741704683,-0.03970034990343488,3.3600001335144043,2019-06-21 12:48:54:918
6.545048675537109,5.096578826904297,0.114919921875,0.026520190898686194,-0.03064003868720072,-0.040232982121450725,3.364992141723633,2019-06-21 12:48:54:923
6.53547201538086,5.096578826904297,0.08978118896484374,0.02625387478967827,-0.03050688063269676,-0.040632456284962606,3.3699841499328613,2019-06-21 12:48:54:928
6.53547201538086,5.10017007446289,0.1173140869140625,0.026120716735174306,-0.031039512850712606,-0.04009982406694676,3.37497615814209,2019-06-21 12:48:54:933
6.54624575805664,5.073834259033203,0.12569366455078124,0.026653348953190156,-0.03170530312323242,-0.04129824655748242,3.3799681663513184,2019-06-21 12:48:54:938
6.539063262939453,5.088199249267578,0.09456951904296874,0.02558808451715846,-0.031039512850712606,-0.04262982710252204,3.384960174560547,2019-06-21 12:48:54:943
6.541457427978515,5.077425506591797,0.06703662109375,0.02518861035364657,-0.03210477728674431,-0.04183087877549827,3.3899521827697754,2019-06-21 12:48:54:948
6.551034088134766,5.106155487060547,0.0957666015625,0.02558808451715846,-0.03130582895972053,-0.04223035293901015,3.394943952560425,2019-06-21 12:48:54:953
6.540260345458984,5.103761322021485,0.0957666015625,0.024522820081126762,-0.03210477728674431,-0.04262982710252204,3.3999359607696533,2019-06-21 12:48:54:958
6.539063262939453,5.114535064697265,0.090978271484375,0.024123345917614877,-0.03303688366827204,-0.043295617375041846,3.404927968978882,2019-06-21 12:48:54:963
6.536669097900391,5.083410919189453,0.0885841064453125,0.023990187863110916,-0.03210477728674431,-0.04342877542954581,3.4099199771881104,2019-06-21 12:48:54:968
6.5474428405761715,5.098972991943359,0.05386871337890625,0.023990187863110916,-0.032770567559264115,-0.04396140764756166,3.414911985397339,2019-06-21 12:48:54:973
6.534274932861328,5.067848846435547,0.062248291015625,0.02425650397211884,-0.032770567559264115,-0.04569246235611316,3.420032024383545,2019-06-21 12:48:54:978
6.54624575805664,5.090593414306641,0.08020452880859374,0.025321768408150532,-0.034368464213311654,-0.045292988192601275,3.4250240325927734,2019-06-21 12:48:54:983
6.551034088134766,5.066651763916015,0.07661328125,0.026120716735174306,-0.03476793837682354,-0.045159830138097316,3.430016040802002,2019-06-21 12:48:54:988
6.565399078369141,5.070243011474609,0.041897888183593746,0.025854400626166382,-0.034235306158807696,-0.04635825262863297,3.4350080490112305,2019-06-21 12:48:54:993
6.5330778503417966,5.066651763916015,0.038306640625,0.025454926462654494,-0.033436357831783926,-0.04662456873764089,3.440000057220459,2019-06-21 12:48:54:998
6.54624575805664,5.07144009399414,0.061051208496093745,0.024522820081126762,-0.03396899004979977,-0.0483556234461924,3.4449920654296875,2019-06-21 12:48:55:003
6.529486602783203,5.069045928955078,0.06823370361328125,0.0243896620266228,-0.03396899004979977,-0.0476898331736726,3.449984073638916,2019-06-21 12:48:55:008
6.5618078308105465,5.088199249267578,0.0574599609375,0.02359071369959903,-0.031572145068728456,-0.04848878150069637,3.4549760818481445,2019-06-21 12:48:55:013
6.541457427978515,5.085805084228515,0.04908038330078125,0.023723871754102992,-0.03237109339575223,-0.04995352010023994,3.459968090057373,2019-06-21 12:48:55:018
6.525895355224609,5.1013671569824215,0.08618994140625,0.024789136190134686,-0.033569515886287885,-0.049021413718712215,3.465088129043579,2019-06-21 12:48:55:023
6.548639923095703,5.08939633178711,0.07781036376953125,0.02518861035364657,-0.03237109339575223,-0.049420887882224096,3.46995210647583,2019-06-21 12:48:55:028
6.552231170654297,5.08939633178711,0.08978118896484374,0.023857029808606954,-0.03170530312323242,-0.05088562648176768,3.4749441146850586,2019-06-21 12:48:55:033
6.54624575805664,5.094184661865234,0.11132867431640625,0.02359071369959903,-0.032637409504760156,-0.050619310372759754,3.479936122894287,2019-06-21 12:48:55:038
6.539063262939453,5.08101675415039,0.09217535400390625,0.024789136190134686,-0.03250425145025619,-0.049820362045735984,3.4849281311035156,2019-06-21 12:48:55:043
6.553428253173828,5.092987579345703,0.1364674072265625,0.024789136190134686,-0.032637409504760156,-0.051418258699783524,3.489920139312744,2019-06-21 12:48:55:048
6.53547201538086,5.078622589111328,0.14843823242187498,0.023990187863110916,-0.03370267394079185,-0.05048615231825579,3.4949121475219727,2019-06-21 12:48:55:053
6.53547201538086,5.092987579345703,0.061051208496093745,0.02425650397211884,-0.032637409504760156,-0.05155141675428749,3.5000319480895996,2019-06-21 12:48:55:058
6.5318807678222655,5.08101675415039,0.0574599609375,0.023191239536087146,-0.031971619232240345,-0.0511519425907756,3.505023956298828,2019-06-21 12:48:55:063
6.5318807678222655,5.084608001708984,0.1077374267578125,0.023857029808606954,-0.03237109339575223,-0.05261668119031918,3.5100159645080566,2019-06-21 12:48:55:068
6.542654510498047,5.102564239501953,0.07661328125,0.023990187863110916,-0.032637409504760156,-0.052882997299327106,3.515007972717285,2019-06-21 12:48:55:073
6.536669097900391,5.083410919189453,0.06583953857421875,0.023857029808606954,-0.031039512850712606,-0.05274983924482314,3.5199999809265137,2019-06-21 12:48:55:078
6.536669097900391,5.073834259033203,0.06703662109375,0.02505545229914261,-0.031572145068728456,-0.05248352313581522,3.524991989135742,2019-06-21 12:48:55:083
6.542654510498047,5.073834259033203,0.052671630859375,0.0243896620266228,-0.03210477728674431,-0.052882997299327106,3.5299839973449707,2019-06-21 12:48:55:088
6.524698272705078,5.10017007446289,0.09456951904296874,0.02518861035364657,-0.03183846117773638,-0.053016155353831064,3.534976005554199,2019-06-21 12:48:55:093
6.529486602783203,5.091790496826172,0.10414617919921874,0.02518861035364657,-0.03210477728674431,-0.053681945626350876,3.5399680137634277,2019-06-21 12:48:55:098
6.543851593017578,5.079819671630859,0.07661328125,0.02558808451715846,-0.03237109339575223,-0.053681945626350876,3.5449600219726562,2019-06-21 12:48:55:103
6.5330778503417966,5.078622589111328,0.08978118896484374,0.025454926462654494,-0.031039512850712606,-0.05421457784436672,3.5499520301818848,2019-06-21 12:48:55:108
6.541457427978515,5.098972991943359,0.07781036376953125,0.026120716735174306,-0.03130582895972053,-0.05448089395337465,3.5549440383911133,2019-06-21 12:48:55:113
6.529486602783203,5.088199249267578,0.052671630859375,0.02625387478967827,-0.030373722578192798,-0.05527984228039842,3.559936046600342,2019-06-21 12:48:55:118
6.52709243774414,5.0726371765136715,0.032321228027343746,0.026387032844182232,-0.031971619232240345,-0.05621194866192616,3.5649280548095703,2019-06-21 12:48:55:123
6.54624575805664,5.114535064697265,0.06583953857421875,0.027319139225709964,-0.030373722578192798,-0.05687773893444596,3.569920063018799,2019-06-21 12:48:55:128
6.509136199951172,5.124111724853515,0.037109558105468746,0.026120716735174306,-0.029175300087657143,-0.05727721309795785,3.5749120712280273,2019-06-21 12:48:55:133
6.518712860107422,5.107352569580078,0.07781036376953125,0.026120716735174306,-0.02984109036017695,-0.0578098453159737,3.5800321102142334,2019-06-21 12:48:55:138
6.529486602783203,5.124111724853515,0.07541619873046874,0.026786507007694117,-0.02984109036017695,-0.05741037115246181,3.585024118423462,2019-06-21 12:48:55:143
6.528289520263672,5.12890005493164,0.07661328125,0.02771861338922185,-0.030240564523688836,-0.057943003370477655,3.5900161266326904,2019-06-21 12:48:55:148
6.55582241821289,5.131294219970703,0.10893450927734374,0.026786507007694117,-0.029175300087657143,-0.05741037115246181,3.595008134841919,2019-06-21 12:48:55:153
6.52709243774414,5.125308807373047,0.046686218261718745,0.026653348953190156,-0.029308458142161105,-0.05741037115246181,3.6000001430511475,2019-06-21 12:48:55:158
6.558216583251953,5.136082550048828,0.08978118896484374,0.02505545229914261,-0.030906354796208645,-0.05687773893444596,3.604992151260376,2019-06-21 12:48:55:163
6.536669097900391,5.11812631225586,0.07661328125,0.02558808451715846,-0.030373722578192798,-0.055546158389406346,3.6099841594696045,2019-06-21 12:48:55:168
6.513924530029297,5.148053375244141,0.08379577636718749,0.026387032844182232,-0.030373722578192798,-0.055546158389406346,3.614976167678833,2019-06-21 12:48:55:173
6.54624575805664,5.150447540283203,0.119708251953125,0.025987558680670344,-0.02904214203315318,-0.056744580879942004,3.6199681758880615,2019-06-21 12:48:55:178
6.511530364990234,5.162418365478516,0.08259869384765625,0.026786507007694117,-0.03050688063269676,-0.05687773893444596,3.624959945678711,2019-06-21 12:48:55:183
6.505544952392578,5.148053375244141,0.0885841064453125,0.026387032844182232,-0.029574774251169028,-0.05607879060742219,3.6299519538879395,2019-06-21 12:48:55:188
6.540260345458984,5.119323394775391,0.09935784912109374,0.025854400626166382,-0.028376351760633373,-0.05607879060742219,3.634943962097168,2019-06-21 12:48:55:193
6.543851593017578,5.140870880126953,0.11611700439453125,0.026120716735174306,-0.029308458142161105,-0.055945632552918234,3.6399359703063965,2019-06-21 12:48:55:198
6.559413665771484,5.116929229736328,0.0790074462890625,0.026786507007694117,-0.02970793230567299,-0.05527984228039842,3.644927978515625,2019-06-21 12:48:55:203
6.54624575805664,5.125308807373047,0.038306640625,0.027319139225709964,-0.030240564523688836,-0.05488036811688654,3.6499199867248535,2019-06-21 12:48:55:208
6.516318695068359,5.107352569580078,0.06583953857421875,0.026786507007694117,-0.02970793230567299,-0.05527984228039842,3.654911994934082,2019-06-21 12:48:55:213
6.551034088134766,5.11812631225586,0.07421911621093749,0.02705282311670204,-0.028509509815137335,-0.0550135261713905,3.660032033920288,2019-06-21 12:48:55:218
6.512727447509765,5.133688385009766,0.08738702392578125,0.02705282311670204,-0.028509509815137335,-0.053681945626350876,3.6650240421295166,2019-06-21 12:48:55:223
6.500756622314453,5.1324913024902346,0.114919921875,0.026520190898686194,-0.029574774251169028,-0.0539482617353588,3.670016050338745,2019-06-21 12:48:55:228
6.491179962158203,5.127702972412109,0.09337243652343749,0.02691966506219808,-0.02797687759712149,-0.055146684225894464,3.6750080585479736,2019-06-21 12:48:55:233
6.528289520263672,5.125308807373047,0.0598541259765625,0.02705282311670204,-0.02890898397864922,-0.05354878757184691,3.680000066757202,2019-06-21 12:48:55:238
6.509136199951172,5.133688385009766,0.05386871337890625,0.027319139225709964,-0.029574774251169028,-0.053016155353831064,3.6849920749664307,2019-06-21 12:48:55:243
