ACCELEROMETER X (m/s²),ACCELEROMETER Y (m/s²),ACCELEROMETER Z (m/s²),GYROSCOPE X (rad/s),GYROSCOPE Y (rad/s),GYROSCOPE Z (rad/s),Time since start in ms ,YYYY-MO-DD HH-MI-SS_SSS
-7.6715033264160155,-7.762481597900391,-0.44172344970703126,0.03291177751487637,-0.02265055541696301,-0.05527984228039842,0.0,2019-06-21 12:52:11:580
-7.659532501220703,-7.760087432861328,-0.4273584594726562,0.03251230335136447,-0.02145213292642735,-0.052217207026807294,0.004992008209228516,2019-06-21 12:52:11:585
-7.648758758544922,-7.779240753173828,-0.46087677001953126,0.03237914529686051,-0.02185160708993924,-0.04928772982772014,0.009984016418457031,2019-06-21 12:52:11:590
-7.673897491455078,-7.77205825805664,-0.445314697265625,0.033843883896404095,-0.01972107821787585,-0.047423517064664675,0.014976024627685547,2019-06-21 12:52:11:595
-7.665517913818359,-7.764875762939453,-0.47524176025390624,0.03424335805991598,-0.020120552381387734,-0.046890884846648814,0.019968032836914062,2019-06-21 12:52:11:600
-7.691853729248047,-7.75290493774414,-0.4656651000976562,0.033444409732892214,-0.01972107821787585,-0.04542614624710524,0.024960041046142578,2019-06-21 12:52:11:605
-7.688262481689453,-7.77205825805664,-0.5003804931640625,0.033044935569380325,-0.019454762108867922,-0.04302930126603392,0.029952049255371094,2019-06-21 12:52:11:610
-7.705021636962891,-7.7445253601074215,-0.5183367309570313,0.03424335805991598,-0.01985423627237981,-0.04076561433946657,0.03494405746459961,2019-06-21 12:52:11:615
-7.709809967041015,-7.762481597900391,-0.53629296875,0.03450967416892391,-0.019587920163371884,-0.03956719184893091,0.039936065673828125,2019-06-21 12:52:11:620
-7.687065399169922,-7.745722442626953,-0.4860155029296875,0.03411020000541202,-0.01932160405436396,-0.03903455963091507,0.04505610466003418,2019-06-21 12:52:11:625
-7.691853729248047,-7.746919525146485,-0.4716505126953125,0.034642832223427865,-0.020253710435891695,-0.03730350492236356,0.050048112869262695,2019-06-21 12:52:11:630
-7.697839141845703,-7.763678680419922,-0.4584826049804687,0.03570809665945956,-0.02052002654489962,-0.03623824048633187,0.05504012107849121,2019-06-21 12:52:11:635
-7.697839141845703,-7.75290493774414,-0.44172344970703126,0.036107570822971446,-0.020253710435891695,-0.03464034383228433,0.06003212928771973,2019-06-21 12:52:11:640
-7.689459564208984,-7.732554534912109,-0.4584826049804687,0.0355749386049556,-0.019587920163371884,-0.03384139550526055,0.06502413749694824,2019-06-21 12:52:11:645
-7.672700408935547,-7.764875762939453,-0.4477088623046875,0.03504230638693975,-0.019587920163371884,-0.03131139246968528,0.07001614570617676,2019-06-21 12:52:11:650
-7.693050811767578,-7.775649505615235,-0.4668621826171875,0.03517546444144371,-0.01838949767283623,-0.03091191830617339,0.07500815391540527,2019-06-21 12:52:11:655
-7.701430389404297,-7.76128451538086,-0.4273584594726562,0.03530862249594768,-0.01838949767283623,-0.029047705543117926,0.08000016212463379,2019-06-21 12:52:11:660
-7.696642059326171,-7.755299102783203,-0.426161376953125,0.03530862249594768,-0.018123181563828306,-0.027582966943574348,0.0849921703338623,2019-06-21 12:52:11:665
-7.69544497680664,-7.736145782470703,-0.5003804931640625,0.03477599027793183,-0.017990023509324344,-0.025319280017006993,0.08998417854309082,2019-06-21 12:52:11:670
-7.737342864990234,-7.737342864990234,-0.48960675048828123,0.03517546444144371,-0.01705791712779661,-0.024653489744487184,0.09497618675231934,2019-06-21 12:52:11:675
-7.736145782470703,-7.770861175537109,-0.4596796875,0.036107570822971446,-0.018256339618332267,-0.023055593090439638,0.09996819496154785,2019-06-21 12:52:11:680
-7.775649505615235,-7.754102020263672,-0.46207385253906247,0.03411020000541202,-0.017324233236804532,-0.021990328654407944,0.10496020317077637,2019-06-21 12:52:11:685
-7.754102020263672,-7.7301603698730466,-0.49200091552734376,0.03397704195090806,-0.017990023509324344,-0.021058222272880213,0.10995221138000488,2019-06-21 12:52:11:690
-7.760087432861328,-7.696642059326171,-0.48122717285156247,0.03530862249594768,-0.017590549345812456,-0.021058222272880213,0.1149442195892334,2019-06-21 12:52:11:695
-7.782832000732422,-7.705021636962891,-0.521927978515625,0.03570809665945956,-0.01838949767283623,-0.020791906163872286,0.11993622779846191,2019-06-21 12:52:11:700
-7.804379486083985,-7.709809967041015,-0.5422783813476563,0.03597441276846748,-0.01785686545482038,-0.020126115891352478,0.12505602836608887,2019-06-21 12:52:11:705
-7.866627777099609,-7.706218719482422,-0.5470667114257812,0.03597441276846748,-0.018922129890852075,-0.02025927394585644,0.13004803657531738,2019-06-21 12:52:11:710
-7.91570816040039,-7.705021636962891,-0.5374900512695312,0.03597441276846748,-0.020253710435891695,-0.021857170599903983,0.1350400447845459,2019-06-21 12:52:11:715
-7.921693572998047,-7.679882904052734,-0.5769937744140625,0.03743915136801107,-0.020386868490395657,-0.022256644763415868,0.14003205299377441,2019-06-21 12:52:11:720
-8.009080596923829,-7.6571383361816405,-0.5722054443359375,0.0366402030409873,-0.020386868490395657,-0.024120857526471338,0.14502406120300293,2019-06-21 12:52:11:725
-8.066540557861329,-7.6427733459472655,-0.560234619140625,0.03570809665945956,-0.022251081253451124,-0.027449808889070386,0.15001606941223145,2019-06-21 12:52:11:730
-8.08689096069336,-7.592495880126953,-0.5949500122070313,0.03637388693197938,-0.022384239307955085,-0.03197718274220509,0.15500807762145996,2019-06-21 12:52:11:735
-8.137168426513671,-7.556583404541016,-0.6021325073242187,0.036507044986483335,-0.024248452071010555,-0.03637139854083583,0.16000008583068848,2019-06-21 12:52:11:740
-8.18505172729492,-7.482364288330078,-0.5997383422851562,0.036507044986483335,-0.02531371650704225,-0.042097194884506195,0.164992094039917,2019-06-21 12:52:11:745
-8.194628387451171,-7.439269317626953,-0.5734025268554688,0.03490914833243579,-0.028642667869641297,-0.048222465391688445,0.1699841022491455,2019-06-21 12:52:11:750
-8.198219635009766,-7.426101409912109,-0.6153004150390625,0.03411020000541202,-0.031172670905216568,-0.05461405200787862,0.17497611045837402,2019-06-21 12:52:11:755
-8.180263397216796,-7.427298492431641,-0.651212890625,0.03424335805991598,-0.03370267394079185,-0.06286985138712425,0.17996811866760254,2019-06-21 12:52:11:760
-8.187445892333985,-7.467999298095703,-0.6093150024414062,0.03450967416892391,-0.036099518921863166,-0.07019354438484215,0.18496012687683105,2019-06-21 12:52:11:765
-8.124000518798828,-7.46560513305664,-0.56502294921875,0.03477599027793183,-0.0387626800119424,-0.07631881489202441,0.18995213508605957,2019-06-21 12:52:11:770
-8.100058868408203,-7.506305938720703,-0.6153004150390625,0.03490914833243579,-0.04076005082950183,-0.08284355956271854,0.19494414329528809,2019-06-21 12:52:11:775
-8.017460174560547,-7.557780487060547,-0.598541259765625,0.03424335805991598,-0.044621634410116726,-0.08910198812440474,0.1999361515045166,2019-06-21 12:52:11:780
-7.999503936767578,-7.590101715087891,-0.5710083618164062,0.03584125471396352,-0.0460863730096603,-0.09336304586853152,0.20505619049072266,2019-06-21 12:52:11:785
-7.931270233154296,-7.618831695556641,-0.5231250610351562,0.03717283525900315,-0.04595321495515634,-0.09709147139464247,0.21004819869995117,2019-06-21 12:52:11:790
-7.865430694580078,-7.647561676025391,-0.47284759521484376,0.035441780550451635,-0.04661900522767615,-0.09895568415769793,0.2150402069091797,2019-06-21 12:52:11:795
-7.85824819946289,-7.634393768310547,-0.5159425659179687,0.03624072887747541,-0.04728479550019596,-0.1008198969207534,0.2200322151184082,2019-06-21 12:52:11:800
-7.831912384033203,-7.665517913818359,-0.47524176025390624,0.03690651914999522,-0.04795058577271578,-0.1036162160653366,0.22502422332763672,2019-06-21 12:52:11:805
-7.811561981201172,-7.672700408935547,-0.41059930419921875,0.03637388693197938,-0.046219531064164265,-0.10574674493739998,0.23001623153686523,2019-06-21 12:52:11:810
-7.7588903503417965,-7.683474151611328,-0.4333438720703125,0.036107570822971446,-0.043822686083092956,-0.10587990299190395,0.23500800132751465,2019-06-21 12:52:11:815
-7.703824554443359,-7.706218719482422,-0.42496429443359374,0.036107570822971446,-0.04355636997408503,-0.10654569326442374,0.24000000953674316,2019-06-21 12:52:11:820
-7.721780792236328,-7.715795379638672,-0.4465117797851562,0.036507044986483335,-0.041159524993013716,-0.1060130610464079,0.24499201774597168,2019-06-21 12:52:11:825
-7.696642059326171,-7.740934112548828,-0.445314697265625,0.03637388693197938,-0.04102636693850975,-0.10561358688289602,0.2499840259552002,2019-06-21 12:52:11:830
-7.684671234130859,-7.749313690185547,-0.40581097412109374,0.036107570822971446,-0.04009426055698202,-0.10508095466488017,0.2549760341644287,2019-06-21 12:52:11:835
-7.646364593505859,-7.780437835693359,-0.41299346923828123,0.0355749386049556,-0.04062689277499787,-0.10348305801083263,0.2599680423736572,2019-06-21 12:52:11:840
-7.6128462829589845,-7.798394073486328,-0.38546057128906247,0.03450967416892391,-0.03916215417545429,-0.10188516135678509,0.26496005058288574,2019-06-21 12:52:11:845
-7.557780487060547,-7.821138641357422,-0.3806722412109375,0.03597441276846748,-0.03716478335789486,-0.09882252610319396,0.26995205879211426,2019-06-21 12:52:11:850
-7.55179507446289,-7.8307153015136715,-0.41778179931640624,0.03437651611441994,-0.03556688670384732,-0.09655883917662662,0.2749440670013428,2019-06-21 12:52:11:855
-7.556583404541016,-7.86782485961914,-0.3950372314453125,0.03397704195090806,-0.03250425145025619,-0.09416199419555529,0.28006410598754883,2019-06-21 12:52:11:860
-7.531444671630859,-7.854656951904297,-0.39862847900390624,0.03530862249594768,-0.02970793230567299,-0.09109935894196416,0.28505611419677734,2019-06-21 12:52:11:865
-7.47518179321289,-7.866627777099609,-0.40581097412109374,0.03477599027793183,-0.029574774251169028,-0.08697145925234136,0.29004812240600586,2019-06-21 12:52:11:870
-7.47518179321289,-7.883386932373047,-0.3627160034179687,0.03371072584190014,-0.02797687759712149,-0.08204461123569476,0.2950401306152344,2019-06-21 12:52:11:875
-7.447648895263672,-7.903737335205078,-0.34116851806640625,0.034642832223427865,-0.025580032616050172,-0.07871565987309571,0.3000321388244629,2019-06-21 12:52:11:880
-7.448845977783203,-7.8750073547363275,-0.37468682861328123,0.03530862249594768,-0.023715819852994702,-0.07432144407446498,0.3050241470336914,2019-06-21 12:52:11:885
-7.430889739990234,-7.877401519775391,-0.40341680908203126,0.03570809665945956,-0.019587920163371884,-0.06886196383980253,0.3100161552429199,2019-06-21 12:52:11:890
-7.415327667236328,-7.8905694274902345,-0.39264306640625,0.0355749386049556,-0.019055287945356037,-0.06326932555063614,0.31500816345214844,2019-06-21 12:52:11:895
-7.444057647705078,-7.879795684814453,-0.4010226440429687,0.03570809665945956,-0.01625896880077284,-0.05741037115246181,0.32000017166137695,2019-06-21 12:52:11:900
-7.471590545654297,-7.865430694580078,-0.3890518188476562,0.03584125471396352,-0.013995281874205484,-0.05274983924482314,0.32499217987060547,2019-06-21 12:52:11:905
-7.448845977783203,-7.855854034423828,-0.3806722412109375,0.036107570822971446,-0.013063175492677753,-0.04915457177321617,0.329984188079834,2019-06-21 12:52:11:910
-7.477575958251953,-7.8618394470214845,-0.41299346923828123,0.0355749386049556,-0.01226422716565398,-0.045292988192601275,0.3349761962890625,2019-06-21 12:52:11:915
-7.488349700927734,-7.823532806396484,-0.41179638671874996,0.03597441276846748,-0.011864753002142094,-0.04129824655748242,0.339968204498291,2019-06-21 12:52:11:920
-7.531444671630859,-7.804379486083985,-0.421373046875,0.03624072887747541,-0.01013369829359059,-0.03743666297686753,0.34496021270751953,2019-06-21 12:52:11:925
-7.545809661865234,-7.785226165771484,-0.37708099365234377,0.03530862249594768,-0.010666330511606438,-0.03357507939625263,0.34995222091674805,2019-06-21 12:52:11:930
-7.563765899658203,-7.804379486083985,-0.41179638671874996,0.03477599027793183,-0.009601066075574743,-0.03091191830617339,0.35494422912597656,2019-06-21 12:52:11:935
-7.58052505493164,-7.798394073486328,-0.4285555419921875,0.03490914833243579,-0.0080031694215272,-0.02851507332510208,0.359935998916626,2019-06-21 12:52:11:940
-7.620028778076172,-7.766072845458984,-0.46087677001953126,0.03424335805991598,-0.007470537203511351,-0.026118228344030762,0.36505603790283203,2019-06-21 12:52:11:945
-7.664320831298828,-7.734948699951172,-0.4381322021484375,0.03490914833243579,-0.008935275803054933,-0.024919805853495108,0.37004804611206055,2019-06-21 12:52:11:950
-7.688262481689453,-7.69544497680664,-0.46327093505859374,0.03490914833243579,-0.010400014402598514,-0.024120857526471338,0.37504005432128906,2019-06-21 12:52:11:955
-7.7145982971191405,-7.706218719482422,-0.4908038330078125,0.03490914833243579,-0.011198962729622286,-0.024520331689983223,0.3800320625305176,2019-06-21 12:52:11:960
-7.745722442626953,-7.677488739013672,-0.5051688232421875,0.033843883896404095,-0.01239738522015794,-0.024653489744487184,0.3850240707397461,2019-06-21 12:52:11:965
-7.76128451538086,-7.675094573974609,-0.483621337890625,0.03437651611441994,-0.011864753002142094,-0.023588225308455484,0.3900160789489746,2019-06-21 12:52:11:970
-7.822335723876953,-7.688262481689453,-0.50756298828125,0.033444409732892214,-0.01239738522015794,-0.02518612196250303,0.3950080871582031,2019-06-21 12:52:11:975
-7.848671539306641,-7.670306243896484,-0.5255192260742187,0.03291177751487637,-0.012663701329165868,-0.026118228344030762,0.40000009536743164,2019-06-21 12:52:11:980
-7.878598602294922,-7.687065399169922,-0.5578404541015625,0.03371072584190014,-0.013862123819701522,-0.027582966943574348,0.40499210357666016,2019-06-21 12:52:11:985
-7.865430694580078,-7.670306243896484,-0.5470667114257812,0.03291177751487637,-0.01705791712779661,-0.03011296997914962,0.40998411178588867,2019-06-21 12:52:11:990
-7.869021942138672,-7.660729583740234,-0.5590375366210938,0.03251230335136447,-0.019055287945356037,-0.03197718274220509,0.4149761199951172,2019-06-21 12:52:11:995
-7.880992767333984,-7.661926666259766,-0.5494608764648438,0.031979671133348625,-0.020386868490395657,-0.035172976050300175,0.4199681282043457,2019-06-21 12:52:12:000
-7.9192994079589845,-7.663123748779297,-0.5578404541015625,0.0327786194603724,-0.02145213292642735,-0.0371703468678596,0.4249601364135742,2019-06-21 12:52:12:005
-7.914511077880859,-7.673897491455078,-0.569811279296875,0.03251230335136447,-0.023183187634978855,-0.03836876935839526,0.42995214462280273,2019-06-21 12:52:12:010
-7.880992767333984,-7.653547088623046,-0.5039717407226563,0.031047564751820897,-0.024248452071010555,-0.040632456284962606,0.43494415283203125,2019-06-21 12:52:12:015
-7.888175262451171,-7.654744171142578,-0.5183367309570313,0.031580196969836744,-0.02464792623452244,-0.04302930126603392,0.43993616104125977,2019-06-21 12:52:12:020
-7.880992767333984,-7.654744171142578,-0.56502294921875,0.03224598724235655,-0.02624582288856998,-0.04502667208359335,0.4450562000274658,2019-06-21 12:52:12:025
-7.880992767333984,-7.678685821533203,-0.5530521240234375,0.031580196969836744,-0.02704477121559375,-0.04702404290115278,0.45004820823669434,2019-06-21 12:52:12:030
-7.880992767333984,-7.719386627197266,-0.5638258666992187,0.03211282918785259,-0.028509509815137335,-0.049420887882224096,0.45504021644592285,2019-06-21 12:52:12:035
-7.864233612060547,-7.7002333068847655,-0.5398842163085937,0.0317133550243407,-0.03050688063269676,-0.051285100645279566,0.46003222465515137,2019-06-21 12:52:12:040
-7.822335723876953,-7.709809967041015,-0.5494608764648438,0.031979671133348625,-0.03064003868720072,-0.05261668119031918,0.4650242328643799,2019-06-21 12:52:12:045
-7.803182403564453,-7.718189544677734,-0.5291104736328125,0.0317133550243407,-0.03064003868720072,-0.05541300033490239,0.4700160026550293,2019-06-21 12:52:12:050
-7.798394073486328,-7.721780792236328,-0.5207308959960938,0.03211282918785259,-0.03237109339575223,-0.05687773893444596,0.4750080108642578,2019-06-21 12:52:12:055
-7.7732553405761715,-7.763678680419922,-0.48242425537109374,0.0317133550243407,-0.032637409504760156,-0.05807616142498162,0.48000001907348633,2019-06-21 12:52:12:060
-7.7588903503417965,-7.76128451538086,-0.50756298828125,0.03251230335136447,-0.031572145068728456,-0.05874195169750143,0.48499202728271484,2019-06-21 12:52:12:065
-7.734948699951172,-7.766072845458984,-0.5195338134765625,0.031979671133348625,-0.030240564523688836,-0.05807616142498162,0.48998403549194336,2019-06-21 12:52:12:070
-7.7445253601074215,-7.75290493774414,-0.48242425537109374,0.03264546140586844,-0.031572145068728456,-0.05727721309795785,0.4949760437011719,2019-06-21 12:52:12:075
-7.727766204833984,-7.78163491821289,-0.5063659057617187,0.03184651307884467,-0.030906354796208645,-0.05701089698894993,0.4999680519104004,2019-06-21 12:52:12:080
-7.74332827758789,-7.780437835693359,-0.493197998046875,0.03317809362388429,-0.0314389870142245,-0.05741037115246181,0.5049600601196289,2019-06-21 12:52:12:085
-7.736145782470703,-7.768467010498047,-0.4955921630859375,0.03411020000541202,-0.03050688063269676,-0.056744580879942004,0.5099520683288574,2019-06-21 12:52:12:090
-7.732554534912109,-7.768467010498047,-0.4776359252929687,0.03504230638693975,-0.02984109036017695,-0.05741037115246181,0.5149440765380859,2019-06-21 12:52:12:095
-7.696642059326171,-7.76128451538086,-0.4405263671875,0.03411020000541202,-0.030107406469184875,-0.05621194866192616,0.5199360847473145,2019-06-21 12:52:12:100
-7.646364593505859,-7.785226165771484,-0.435738037109375,0.03371072584190014,-0.029974248414680913,-0.05541300033490239,0.5250561237335205,2019-06-21 12:52:12:105
-7.640379180908203,-7.806773651123047,-0.49200091552734376,0.0327786194603724,-0.029574774251169028,-0.05328247146283899,0.530048131942749,2019-06-21 12:52:12:110
-7.654744171142578,-7.809167816162109,-0.4584826049804687,0.033444409732892214,-0.030240564523688836,-0.05314931340833503,0.5350401401519775,2019-06-21 12:52:12:115
-7.646364593505859,-7.788817413330078,-0.46087677001953126,0.03530862249594768,-0.030906354796208645,-0.052084048972303336,0.540032148361206,2019-06-21 12:52:12:120
-7.629605438232422,-7.778043670654297,-0.43693511962890624,0.03517546444144371,-0.02824319370612941,-0.05048615231825579,0.5450241565704346,2019-06-21 12:52:12:125
-7.639182098388671,-7.793605743408203,-0.4333438720703125,0.03411020000541202,-0.027843719542617527,-0.0483556234461924,0.5500161647796631,2019-06-21 12:52:12:130
-7.602072540283203,-7.805576568603516,-0.378278076171875,0.03424335805991598,-0.027710561488113558,-0.04635825262863297,0.5550081729888916,2019-06-21 12:52:12:135
-7.588904632568359,-7.797196990966797,-0.41538763427734376,0.03291177751487637,-0.027311087324601673,-0.044094565702065616,0.5600001811981201,2019-06-21 12:52:12:140
-7.543415496826172,-7.775649505615235,-0.4010226440429687,0.0327786194603724,-0.02611266483406602,-0.04156456266649034,0.5649921894073486,2019-06-21 12:52:12:145
-7.5410213317871095,-7.782832000732422,-0.39384014892578123,0.03424335805991598,-0.02464792623452244,-0.03903455963091507,0.5699841976165771,2019-06-21 12:52:12:150
-7.557780487060547,-7.780437835693359,-0.407008056640625,0.03504230638693975,-0.023183187634978855,-0.036770872704347715,0.5749762058258057,2019-06-21 12:52:12:155
-7.570948394775391,-7.762481597900391,-0.44411761474609374,0.035441780550451635,-0.021585290980931315,-0.0343740277232764,0.5799682140350342,2019-06-21 12:52:12:160
-7.600875457763672,-7.736145782470703,-0.40341680908203126,0.03624072887747541,-0.02052002654489962,-0.03224349885121301,0.5849602222442627,2019-06-21 12:52:12:165
-7.610452117919921,-7.749313690185547,-0.4584826049804687,0.03477599027793183,-0.021052658762915465,-0.03091191830617339,0.5899522304534912,2019-06-21 12:52:12:170
-7.647561676025391,-7.740934112548828,-0.5111542358398438,0.033444409732892214,-0.021052658762915465,-0.02851507332510208,0.5949440002441406,2019-06-21 12:52:12:175
-7.706218719482422,-7.731357452392578,-0.5159425659179687,0.036507044986483335,-0.022117923198947162,-0.027050334725558494,0.5999360084533691,2019-06-21 12:52:12:180
-7.739737030029297,-7.718189544677734,-0.48960675048828123,0.03757230942251503,-0.019987394326883772,-0.02678401861655057,0.6050560474395752,2019-06-21 12:52:12:185
-7.80078823852539,-7.690656646728516,-0.521927978515625,0.037971783586026917,-0.020253710435891695,-0.027050334725558494,0.6100480556488037,2019-06-21 12:52:12:190
-7.821138641357422,-7.703824554443359,-0.5530521240234375,0.03717283525900315,-0.021585290980931315,-0.02784928305258227,0.6150400638580322,2019-06-21 12:52:12:195
-7.828321136474609,-7.676291656494141,-0.5255192260742187,0.038104941640530875,-0.021585290980931315,-0.029580337761133772,0.6200320720672607,2019-06-21 12:52:12:200
-7.894160675048828,-7.640379180908203,-0.5255192260742187,0.03863757385854672,-0.022117923198947162,-0.030778760251669427,0.6250240802764893,2019-06-21 12:52:12:205
-7.913313995361328,-7.670306243896484,-0.5159425659179687,0.0383712577495388,-0.02358266179849074,-0.03370823745075659,0.6300160884857178,2019-06-21 12:52:12:210
-7.9635914611816405,-7.691853729248047,-0.5183367309570313,0.037971783586026917,-0.02358266179849074,-0.035971924377323945,0.6350080966949463,2019-06-21 12:52:12:215
-7.9492264709472655,-7.672700408935547,-0.5255192260742187,0.038770731913050686,-0.023316345689482817,-0.03890140157641111,0.6400001049041748,2019-06-21 12:52:12:220
-7.926481903076172,-7.60925503540039,-0.5350958862304688,0.038104941640530875,-0.025180558452538287,-0.04196403683000223,0.6449921131134033,2019-06-21 12:52:12:225
-7.926481903076172,-7.651152923583984,-0.5518550415039062,0.03690651914999522,-0.026778455106585827,-0.045292988192601275,0.6499841213226318,2019-06-21 12:52:12:230
-7.943241058349609,-7.655941253662109,-0.5255192260742187,0.03823809969503484,-0.027444245379105635,-0.04808930733718448,0.6549761295318604,2019-06-21 12:52:12:235
-7.926481903076172,-7.653547088623046,-0.4572855224609375,0.03850441580404276,-0.026512138997577903,-0.05235036508131126,0.6599681377410889,2019-06-21 12:52:12:240
-7.872613189697265,-7.658335418701172,-0.502774658203125,0.03624072887747541,-0.028775825924145258,-0.05567931644391031,0.6649601459503174,2019-06-21 12:52:12:245
-7.840291961669922,-7.654744171142578,-0.48960675048828123,0.034642832223427865,-0.02970793230567299,-0.057943003370477655,0.6699521541595459,2019-06-21 12:52:12:250
-7.857051116943359,-7.678685821533203,-0.46805926513671875,0.03597441276846748,-0.02904214203315318,-0.05940774197002124,0.6749441623687744,2019-06-21 12:52:12:255
-7.807970733642578,-7.694247894287109,-0.4201759643554687,0.0383712577495388,-0.029574774251169028,-0.059940374188037084,0.6799361705780029,2019-06-21 12:52:12:260
-7.774452423095703,-7.707415802001953,-0.47284759521484376,0.03570809665945956,-0.03170530312323242,-0.062470377223612365,0.685056209564209,2019-06-21 12:52:12:265
-7.749313690185547,-7.709809967041015,-0.48721258544921875,0.03477599027793183,-0.03210477728674431,-0.06313616749613217,0.6900482177734375,2019-06-21 12:52:12:270
-7.742131195068359,-7.736145782470703,-0.4393292846679687,0.03504230638693975,-0.030773196741704683,-0.06300300944162822,0.695040225982666,2019-06-21 12:52:12:275
-7.715795379638672,-7.77205825805664,-0.454891357421875,0.03584125471396352,-0.031172670905216568,-0.06273669333262029,0.7000322341918945,2019-06-21 12:52:12:280
-7.687065399169922,-7.762481597900391,-0.44411761474609374,0.03317809362388429,-0.03064003868720072,-0.06193774500559652,0.705024003982544,2019-06-21 12:52:12:285
-7.6571383361816405,-7.746919525146485,-0.45369427490234376,0.0317133550243407,-0.02970793230567299,-0.0612719547330767,0.7100160121917725,2019-06-21 12:52:12:290
-7.651152923583984,-7.766072845458984,-0.39862847900390624,0.034642832223427865,-0.028376351760633373,-0.060606164460556895,0.715008020401001,2019-06-21 12:52:12:295
-7.665517913818359,-7.748116607666016,-0.37468682861328123,0.03477599027793183,-0.027311087324601673,-0.059807216133533125,0.7200000286102295,2019-06-21 12:52:12:300
-7.639182098388671,-7.762481597900391,-0.4273584594726562,0.03397704195090806,-0.02811003565162545,-0.058342477533989544,0.724992036819458,2019-06-21 12:52:12:305
-7.6284083557128906,-7.767269927978515,-0.44890594482421875,0.03411020000541202,-0.02824319370612941,-0.056345106716430116,0.7299840450286865,2019-06-21 12:52:12:310
-7.6128462829589845,-7.785226165771484,-0.45369427490234376,0.03530862249594768,-0.026778455106585827,-0.05541300033490239,0.734976053237915,2019-06-21 12:52:12:315
-7.614043365478516,-7.760087432861328,-0.42257012939453126,0.03504230638693975,-0.026512138997577903,-0.05421457784436672,0.7399680614471436,2019-06-21 12:52:12:320
-7.6427733459472655,-7.769664093017578,-0.43094970703125,0.03371072584190014,-0.02797687759712149,-0.052084048972303336,0.7449600696563721,2019-06-21 12:52:12:325
-7.614043365478516,-7.779240753173828,-0.42975262451171875,0.033843883896404095,-0.02544687456154621,-0.04968720399123202,0.7499520778656006,2019-06-21 12:52:12:330
-7.630802520751953,-7.767269927978515,-0.445314697265625,0.0355749386049556,-0.02265055541696301,-0.048621939555200326,0.7549440860748291,2019-06-21 12:52:12:335
-7.624817108154296,-7.776846588134766,-0.4333438720703125,0.034642832223427865,-0.024115294016506587,-0.04582562041061712,0.7599360942840576,2019-06-21 12:52:12:340
-7.6284083557128906,-7.769664093017578,-0.39623431396484377,0.033444409732892214,-0.023848977907498663,-0.04382824959305769,0.7650561332702637,2019-06-21 12:52:12:345
-7.611649200439453,-7.768467010498047,-0.38546057128906247,0.03371072584190014,-0.024781084289026402,-0.04316245932053789,0.7700481414794922,2019-06-21 12:52:12:350
-7.620028778076172,-7.726569122314453,-0.4082051391601562,0.03504230638693975,-0.021718449035435277,-0.042097194884506195,0.7750401496887207,2019-06-21 12:52:12:355
-7.602072540283203,-7.74332827758789,-0.4273584594726562,0.03397704195090806,-0.02185160708993924,-0.039833507957938837,0.7800321578979492,2019-06-21 12:52:12:360
-7.640379180908203,-7.697839141845703,-0.46805926513671875,0.03331125167838825,-0.02278371347146697,-0.03770297908587545,0.7850241661071777,2019-06-21 12:52:12:365
-7.640379180908203,-7.69544497680664,-0.47045343017578123,0.03397704195090806,-0.020120552381387734,-0.03690403075885167,0.7900161743164062,2019-06-21 12:52:12:370
-7.669109161376953,-7.708612884521484,-0.4668621826171875,0.03570809665945956,-0.019454762108867922,-0.03690403075885167,0.7950081825256348,2019-06-21 12:52:12:375
-7.703824554443359,-7.712204132080078,-0.5279133911132813,0.0355749386049556,-0.020919500708411504,-0.03650455659533979,0.8000001907348633,2019-06-21 12:52:12:380
-7.78163491821289,-7.713401214599609,-0.4967892456054687,0.03490914833243579,-0.02185160708993924,-0.03703718881335564,0.8049921989440918,2019-06-21 12:52:12:385
-7.8019853210449215,-7.726569122314453,-0.4967892456054687,0.03624072887747541,-0.019987394326883772,-0.03810245324938733,0.8099842071533203,2019-06-21 12:52:12:390
-7.822335723876953,-7.722977874755859,-0.5662200317382813,0.038104941640530875,-0.01972107821787585,-0.03876824352190714,0.8149762153625488,2019-06-21 12:52:12:395
-7.8618394470214845,-7.734948699951172,-0.5530521240234375,0.03677336109549126,-0.02052002654489962,-0.039833507957938837,0.8199682235717773,2019-06-21 12:52:12:400
-7.892963592529297,-7.681079986572265,-0.5542492065429687,0.03637388693197938,-0.021718449035435277,-0.041031930448474495,0.8250880241394043,2019-06-21 12:52:12:405
-7.910919830322266,-7.697839141845703,-0.54586962890625,0.03757230942251503,-0.02278371347146697,-0.043695091538553735,0.8299520015716553,2019-06-21 12:52:12:410
-7.916905242919921,-7.691853729248047,-0.4764388427734375,0.038903889967554645,-0.023050029580474894,-0.04715720095565674,0.8349440097808838,2019-06-21 12:52:12:415
-7.908525665283203,-7.6858683166503905,-0.483621337890625,0.0383712577495388,-0.024115294016506587,-0.0483556234461924,0.8399360179901123,2019-06-21 12:52:12:420
-7.866627777099609,-7.679882904052734,-0.5111542358398438,0.03570809665945956,-0.02637898094307394,-0.049420887882224096,0.8450560569763184,2019-06-21 12:52:12:425
-7.871416107177734,-7.63798501586914,-0.49200091552734376,0.03783862553152295,-0.026911613161089788,-0.05195089091779937,0.8500480651855469,2019-06-21 12:52:12:430
-7.878598602294922,-7.6715033264160155,-0.4656651000976562,0.03823809969503484,-0.025713190670554133,-0.05541300033490239,0.8550400733947754,2019-06-21 12:52:12:435
-7.81874447631836,-7.675094573974609,-0.474044677734375,0.0366402030409873,-0.027444245379105635,-0.05701089698894993,0.8600320816040039,2019-06-21 12:52:12:440
-7.81874447631836,-7.699036224365234,-0.5303075561523437,0.03490914833243579,-0.02984109036017695,-0.059008267806509355,0.8650240898132324,2019-06-21 12:52:12:445
-7.792408660888672,-7.703824554443359,-0.5255192260742187,0.03624072887747541,-0.028509509815137335,-0.06113879667857274,0.8700160980224609,2019-06-21 12:52:12:450
-7.767269927978515,-7.720583709716797,-0.5111542358398438,0.03743915136801107,-0.029308458142161105,-0.062070903060100484,0.8750081062316895,2019-06-21 12:52:12:455
-7.738539947509765,-7.742131195068359,-0.5147454833984375,0.03504230638693975,-0.031172670905216568,-0.06260353527811632,0.880000114440918,2019-06-21 12:52:12:460
-7.716992462158203,-7.76128451538086,-0.49918341064453126,0.03291177751487637,-0.03130582895972053,-0.06286985138712425,0.8849921226501465,2019-06-21 12:52:12:465
-7.713401214599609,-7.788817413330078,-0.4596796875,0.03450967416892391,-0.031172670905216568,-0.062470377223612365,0.889984130859375,2019-06-21 12:52:12:470
-7.687065399169922,-7.785226165771484,-0.44890594482421875,0.03411020000541202,-0.03130582895972053,-0.06193774500559652,0.8949761390686035,2019-06-21 12:52:12:475
-7.688262481689453,-7.799591156005859,-0.48003009033203126,0.03211282918785259,-0.0314389870142245,-0.06047300640605293,0.899968147277832,2019-06-21 12:52:12:480
-7.661926666259766,-7.792408660888672,-0.47524176025390624,0.03211282918785259,-0.03183846117773638,-0.05927458391551728,0.9049601554870605,2019-06-21 12:52:12:485
-7.6571383361816405,-7.794802825927734,-0.44411761474609374,0.034642832223427865,-0.0314389870142245,-0.05767668726146973,0.9099521636962891,2019-06-21 12:52:12:490
-7.5984812927246095,-7.795999908447265,-0.43454095458984376,0.035441780550451635,-0.0314389870142245,-0.05727721309795785,0.9149441719055176,2019-06-21 12:52:12:495
-7.610452117919921,-7.792408660888672,-0.497986328125,0.033444409732892214,-0.032770567559264115,-0.055146684225894464,0.9199361801147461,2019-06-21 12:52:12:500
-7.602072540283203,-7.793605743408203,-0.4333438720703125,0.03317809362388429,-0.03170530312323242,-0.05341562951734295,0.9250562191009521,2019-06-21 12:52:12:505
-7.600875457763672,-7.831912384033203,-0.37468682861328123,0.03584125471396352,-0.030240564523688836,-0.05155141675428749,0.9300482273101807,2019-06-21 12:52:12:510
-7.6427733459472655,-7.831912384033203,-0.38665765380859374,0.03570809665945956,-0.027710561488113558,-0.04928772982772014,0.9350399971008301,2019-06-21 12:52:12:515
-7.614043365478516,-7.805576568603516,-0.39623431396484377,0.03264546140586844,-0.027843719542617527,-0.04635825262863297,0.9400320053100586,2019-06-21 12:52:12:520
-7.591298797607422,-7.794802825927734,-0.41059930419921875,0.033044935569380325,-0.028376351760633373,-0.04396140764756166,0.9450240135192871,2019-06-21 12:52:12:525
-7.5984812927246095,-7.7876203308105465,-0.4141905517578125,0.03504230638693975,-0.026778455106585827,-0.04223035293901015,0.9500160217285156,2019-06-21 12:52:12:530
-7.605663787841797,-7.779240753173828,-0.43094970703125,0.03450967416892391,-0.025047400398034325,-0.04076561433946657,0.9550080299377441,2019-06-21 12:52:12:535
-7.591298797607422,-7.799591156005859,-0.3710955810546875,0.03144703891533278,-0.025580032616050172,-0.03836876935839526,0.9600000381469727,2019-06-21 12:52:12:540
-7.597284210205078,-7.7732553405761715,-0.416584716796875,0.03131388086082882,-0.02464792623452244,-0.03770297908587545,0.9649920463562012,2019-06-21 12:52:12:545
-7.604466705322266,-7.7732553405761715,-0.40341680908203126,0.033444409732892214,-0.023982135962002625,-0.03424086966877244,0.9699840545654297,2019-06-21 12:52:12:550
-7.593692962646484,-7.778043670654297,-0.43693511962890624,0.03371072584190014,-0.023715819852994702,-0.032642973014724894,0.9749760627746582,2019-06-21 12:52:12:555
-7.633196685791016,-7.745722442626953,-0.43454095458984376,0.033044935569380325,-0.024115294016506587,-0.0315777085786932,0.9799680709838867,2019-06-21 12:52:12:560
-7.646364593505859,-7.756496185302734,-0.4668621826171875,0.03264546140586844,-0.023715819852994702,-0.02864823137960604,0.9849600791931152,2019-06-21 12:52:12:565
-7.673897491455078,-7.742131195068359,-0.48242425537109374,0.03437651611441994,-0.023050029580474894,-0.028248757216094156,0.9899520874023438,2019-06-21 12:52:12:570
-7.7002333068847655,-7.731357452392578,-0.4572855224609375,0.03504230638693975,-0.023050029580474894,-0.027449808889070386,0.9949440956115723,2019-06-21 12:52:12:575
-7.693050811767578,-7.732554534912109,-0.5003804931640625,0.03437651611441994,-0.023848977907498663,-0.027316650834566417,0.9999361038208008,2019-06-21 12:52:12:580
-7.726569122314453,-7.725372039794921,-0.512351318359375,0.03357756778739617,-0.024914242343530364,-0.02784928305258227,1.0050561428070068,2019-06-21 12:52:12:585
-7.75290493774414,-7.701430389404297,-0.52671630859375,0.03490914833243579,-0.02451476818001848,-0.02864823137960604,1.0100481510162354,2019-06-21 12:52:12:590
-7.75290493774414,-7.732554534912109,-0.5183367309570313,0.035441780550451635,-0.024381610125514517,-0.028115599161590194,1.0150401592254639,2019-06-21 12:52:12:595
-7.805576568603516,-7.754102020263672,-0.5255192260742187,0.03517546444144371,-0.02544687456154621,-0.027449808889070386,1.0200321674346924,2019-06-21 12:52:12:600
-7.81036489868164,-7.75290493774414,-0.5135484008789062,0.03490914833243579,-0.02611266483406602,-0.027582966943574348,1.025024175643921,2019-06-21 12:52:12:605
-7.782832000732422,-7.7301603698730466,-0.45369427490234376,0.036107570822971446,-0.02704477121559375,-0.02931402165212585,1.0300161838531494,2019-06-21 12:52:12:610
-7.7876203308105465,-7.725372039794921,-0.5039717407226563,0.03504230638693975,-0.02611266483406602,-0.029846653870141696,1.035008192062378,2019-06-21 12:52:12:615
-7.7876203308105465,-7.706218719482422,-0.445314697265625,0.03490914833243579,-0.025180558452538287,-0.03091191830617339,1.0400002002716064,2019-06-21 12:52:12:620
-7.82951821899414,-7.673897491455078,-0.4788330078125,0.03584125471396352,-0.023982135962002625,-0.033308763287244705,1.044992208480835,2019-06-21 12:52:12:625
-7.831912384033203,-7.687065399169922,-0.454891357421875,0.03411020000541202,-0.02624582288856998,-0.03317560523274074,1.0499842166900635,2019-06-21 12:52:12:630
-7.831912384033203,-7.663123748779297,-0.45608843994140624,0.03397704195090806,-0.02637898094307394,-0.0354392921593081,1.054976224899292,2019-06-21 12:52:12:635
-7.8331094665527345,-7.7002333068847655,-0.49918341064453126,0.03317809362388429,-0.02464792623452244,-0.03690403075885167,1.0599682331085205,2019-06-21 12:52:12:640
-7.799591156005859,-7.684671234130859,-0.45130010986328123,0.033444409732892214,-0.025047400398034325,-0.03783613714037941,1.06496000289917,2019-06-21 12:52:12:645
-7.793605743408203,-7.689459564208984,-0.497986328125,0.03251230335136447,-0.025580032616050172,-0.03890140157641111,1.0699520111083984,2019-06-21 12:52:12:650
-7.780437835693359,-7.696642059326171,-0.512351318359375,0.033044935569380325,-0.025846348725058095,-0.040232982121450725,1.074944019317627,2019-06-21 12:52:12:655
-7.79001449584961,-7.701430389404297,-0.5135484008789062,0.03224598724235655,-0.02717792927009771,-0.04223035293901015,1.0799360275268555,2019-06-21 12:52:12:660
-7.770861175537109,-7.69544497680664,-0.48242425537109374,0.03211282918785259,-0.02531371650704225,-0.042762985157026,1.0850560665130615,2019-06-21 12:52:12:665
-7.731357452392578,-7.736145782470703,-0.44411761474609374,0.03264546140586844,-0.02464792623452244,-0.04223035293901015,1.09004807472229,2019-06-21 12:52:12:670
-7.734948699951172,-7.762481597900391,-0.45608843994140624,0.03317809362388429,-0.024914242343530364,-0.04316245932053789,1.0950400829315186,2019-06-21 12:52:12:675
-7.742131195068359,-7.760087432861328,-0.416584716796875,0.03211282918785259,-0.02464792623452244,-0.04236351099351412,1.100032091140747,2019-06-21 12:52:12:680
-7.756496185302734,-7.7588903503417965,-0.4572855224609375,0.03264546140586844,-0.02278371347146697,-0.04169772072099431,1.1050240993499756,2019-06-21 12:52:12:685
-7.716992462158203,-7.775649505615235,-0.46207385253906247,0.0327786194603724,-0.022117923198947162,-0.042097194884506195,1.110016107559204,2019-06-21 12:52:12:690
-7.691853729248047,-7.779240753173828,-0.5099571533203124,0.03237914529686051,-0.022384239307955085,-0.04196403683000223,1.1150081157684326,2019-06-21 12:52:12:695
-7.697839141845703,-7.745722442626953,-0.483621337890625,0.03371072584190014,-0.023050029580474894,-0.04196403683000223,1.1200001239776611,2019-06-21 12:52:12:700
-7.711007049560546,-7.755299102783203,-0.512351318359375,0.033843883896404095,-0.02265055541696301,-0.04129824655748242,1.1249921321868896,2019-06-21 12:52:12:705
-7.7002333068847655,-7.745722442626953,-0.4381322021484375,0.03371072584190014,-0.021185816817419427,-0.04009982406694676,1.1299841403961182,2019-06-21 12:52:12:710
-7.7145982971191405,-7.725372039794921,-0.47045343017578123,0.033444409732892214,-0.021585290980931315,-0.03970034990343488,1.1349761486053467,2019-06-21 12:52:12:715
-7.691853729248047,-7.726569122314453,-0.435738037109375,0.03331125167838825,-0.02145213292642735,-0.03916771768541903,1.1399681568145752,2019-06-21 12:52:12:720
-7.716992462158203,-7.742131195068359,-0.435738037109375,0.03184651307884467,-0.022517397362459047,-0.03810245324938733,1.1449601650238037,2019-06-21 12:52:12:725
-7.713401214599609,-7.749313690185547,-0.4656651000976562,0.03224598724235655,-0.022916871525970932,-0.03730350492236356,1.1499521732330322,2019-06-21 12:52:12:730
-7.77205825805664,-7.740934112548828,-0.4393292846679687,0.03184651307884467,-0.02265055541696301,-0.03623824048633187,1.1549441814422607,2019-06-21 12:52:12:735
-7.756496185302734,-7.762481597900391,-0.42975262451171875,0.029982300315789204,-0.023982135962002625,-0.03810245324938733,1.1599361896514893,2019-06-21 12:52:12:740
-7.7145982971191405,-7.738539947509765,-0.45130010986328123,0.028783877825253542,-0.023848977907498663,-0.03770297908587545,1.1650562286376953,2019-06-21 12:52:12:745
-7.7002333068847655,-7.76128451538086,-0.435738037109375,0.02971598420678128,-0.024381610125514517,-0.037569821031371485,1.1700479984283447,2019-06-21 12:52:12:750
-7.720583709716797,-7.739737030029297,-0.47284759521484376,0.03051493253380505,-0.023183187634978855,-0.03770297908587545,1.1750400066375732,2019-06-21 12:52:12:755
-7.719386627197266,-7.726569122314453,-0.4405263671875,0.028384403661741657,-0.02265055541696301,-0.03650455659533979,1.1800320148468018,2019-06-21 12:52:12:760
-7.702627471923828,-7.702627471923828,-0.48721258544921875,0.028384403661741657,-0.023715819852994702,-0.036770872704347715,1.1850240230560303,2019-06-21 12:52:12:765
-7.721780792236328,-7.699036224365234,-0.5063659057617187,0.02918335198876543,-0.024914242343530364,-0.0361050824318279,1.1900160312652588,2019-06-21 12:52:12:770
-7.69544497680664,-7.672700408935547,-0.53629296875,0.03051493253380505,-0.025846348725058095,-0.03503981799579621,1.1950080394744873,2019-06-21 12:52:12:775
-7.691853729248047,-7.679882904052734,-0.5350958862304688,0.029982300315789204,-0.024115294016506587,-0.03503981799579621,1.2000000476837158,2019-06-21 12:52:12:780
-7.688262481689453,-7.681079986572265,-0.5422783813476563,0.03051493253380505,-0.025846348725058095,-0.03424086966877244,1.2049920558929443,2019-06-21 12:52:12:785
-7.703824554443359,-7.679882904052734,-0.54586962890625,0.02971598420678128,-0.025846348725058095,-0.03357507939625263,1.2099840641021729,2019-06-21 12:52:12:790
-7.720583709716797,-7.722977874755859,-0.50756298828125,0.03051493253380505,-0.026911613161089788,-0.034107711614268475,1.2149760723114014,2019-06-21 12:52:12:795
-7.734948699951172,-7.711007049560546,-0.4860155029296875,0.031580196969836744,-0.028509509815137335,-0.03317560523274074,1.2199680805206299,2019-06-21 12:52:12:800
-7.750510772705078,-7.703824554443359,-0.5327017211914062,0.0317133550243407,-0.02811003565162545,-0.03304244717823678,1.2249600887298584,2019-06-21 12:52:12:805
-7.78163491821289,-7.697839141845703,-0.5542492065429687,0.03424335805991598,-0.028509509815137335,-0.03424086966877244,1.229952096939087,2019-06-21 12:52:12:810
-7.804379486083985,-7.715795379638672,-0.5183367309570313,0.03504230638693975,-0.02904214203315318,-0.03490665994129225,1.2349441051483154,2019-06-21 12:52:12:815
-7.824729888916015,-7.693050811767578,-0.4524971923828125,0.03357756778739617,-0.031172670905216568,-0.0361050824318279,1.239936113357544,2019-06-21 12:52:12:820
-7.837897796630859,-7.719386627197266,-0.502774658203125,0.03357756778739617,-0.02984109036017695,-0.03650455659533979,1.24505615234375,2019-06-21 12:52:12:825
-7.819941558837891,-7.734948699951172,-0.512351318359375,0.03437651611441994,-0.030906354796208645,-0.03743666297686753,1.2500481605529785,2019-06-21 12:52:12:830
-7.805576568603516,-7.699036224365234,-0.502774658203125,0.03371072584190014,-0.03170530312323242,-0.03850192741289922,1.255040168762207,2019-06-21 12:52:12:835
-7.804379486083985,-7.72417495727539,-0.497986328125,0.03211282918785259,-0.0314389870142245,-0.039434033794426955,1.2600321769714355,2019-06-21 12:52:12:840
-7.831912384033203,-7.720583709716797,-0.45608843994140624,0.03357756778739617,-0.030773196741704683,-0.04183087877549827,1.265024185180664,2019-06-21 12:52:12:845
-7.795999908447265,-7.721780792236328,-0.445314697265625,0.03357756778739617,-0.03130582895972053,-0.04196403683000223,1.2700161933898926,2019-06-21 12:52:12:850
-7.8019853210449215,-7.7289632873535155,-0.4405263671875,0.03317809362388429,-0.030373722578192798,-0.04236351099351412,1.275008201599121,2019-06-21 12:52:12:855
-7.755299102783203,-7.726569122314453,-0.435738037109375,0.0327786194603724,-0.02904214203315318,-0.042896143211529965,1.2800002098083496,2019-06-21 12:52:12:860
-7.746919525146485,-7.742131195068359,-0.44890594482421875,0.03251230335136447,-0.03064003868720072,-0.04396140764756166,1.2849922180175781,2019-06-21 12:52:12:865
-7.749313690185547,-7.722977874755859,-0.49439508056640624,0.033444409732892214,-0.029175300087657143,-0.04382824959305769,1.2899842262268066,2019-06-21 12:52:12:870
-7.718189544677734,-7.754102020263672,-0.5207308959960938,0.03371072584190014,-0.02811003565162545,-0.042097194884506195,1.2949762344360352,2019-06-21 12:52:12:875
-7.687065399169922,-7.755299102783203,-0.5087600708007812,0.033843883896404095,-0.027311087324601673,-0.04236351099351412,1.2999680042266846,2019-06-21 12:52:12:880
-7.659532501220703,-7.784029083251953,-0.47284759521484376,0.033843883896404095,-0.02544687456154621,-0.04143140461198638,1.304960012435913,2019-06-21 12:52:12:885
-7.661926666259766,-7.822335723876953,-0.4848184204101562,0.03450967416892391,-0.02451476818001848,-0.039434033794426955,1.3099520206451416,2019-06-21 12:52:12:890
-7.641576263427734,-7.803182403564453,-0.4776359252929687,0.03477599027793183,-0.023982135962002625,-0.03810245324938733,1.3149440288543701,2019-06-21 12:52:12:895
-7.616437530517578,-7.7876203308105465,-0.4668621826171875,0.036107570822971446,-0.022384239307955085,-0.03650455659533979,1.3199360370635986,2019-06-21 12:52:12:900
-7.591298797607422,-7.8019853210449215,-0.4141905517578125,0.037305993313507105,-0.01918844599986,-0.03503981799579621,1.3250560760498047,2019-06-21 12:52:12:905
-7.608057952880859,-7.795999908447265,-0.3950372314453125,0.037971783586026917,-0.017324233236804532,-0.03290928912373282,1.3300480842590332,2019-06-21 12:52:12:910
-7.594890045166015,-7.786423248291015,-0.44411761474609374,0.03717283525900315,-0.0163921268552768,-0.030778760251669427,1.3350400924682617,2019-06-21 12:52:12:915
-7.572145477294922,-7.799591156005859,-0.43454095458984376,0.03757230942251503,-0.013995281874205484,-0.028381915270598117,1.3400321006774902,2019-06-21 12:52:12:920
-7.610452117919921,-7.803182403564453,-0.4405263671875,0.0383712577495388,-0.011598436893134171,-0.025718754180518878,1.3450241088867188,2019-06-21 12:52:12:925
-7.621225860595703,-7.806773651123047,-0.4584826049804687,0.040768102730610115,-0.010400014402598514,-0.022922435035935676,1.3500161170959473,2019-06-21 12:52:12:930
-7.614043365478516,-7.798394073486328,-0.48840966796874996,0.041167576894122,-0.008136327476031161,-0.02172401254540002,1.3550081253051758,2019-06-21 12:52:12:935
-7.633196685791016,-7.786423248291015,-0.497986328125,0.04276547354816954,-0.006005798603967771,-0.019859799782344555,1.3600001335144043,2019-06-21 12:52:12:940
-7.635590850830078,-7.768467010498047,-0.464468017578125,0.04449652825672105,-0.005206850276944,-0.017729270910281165,1.3649921417236328,2019-06-21 12:52:12:945
-7.652350006103515,-7.74332827758789,-0.4656651000976562,0.04516231852924085,-0.00454106000442419,-0.015865058147225698,1.3699841499328613,2019-06-21 12:52:12:950
-7.658335418701172,-7.749313690185547,-0.4860155029296875,0.044629686311225006,-0.006138956658471733,-0.01400084538417023,1.3749761581420898,2019-06-21 12:52:12:955
-7.66671499633789,-7.769664093017578,-0.46087677001953126,0.04476284436572897,-0.005340008331447961,-0.012935580948138533,1.3799681663513184,2019-06-21 12:52:12:960
-7.7145982971191405,-7.754102020263672,-0.4967892456054687,0.04622758296527256,-0.003076321404880609,-0.011470842348594952,1.3849601745605469,2019-06-21 12:52:12:965
-7.725372039794921,-7.7145982971191405,-0.47524176025390624,0.047559163510312176,-0.005206850276944,-0.010538735967067218,1.3899521827697754,2019-06-21 12:52:12:970
-7.702627471923828,-7.720583709716797,-0.5087600708007812,0.04649389907428048,-0.00454106000442419,-0.009473471531035524,1.394944190979004,2019-06-21 12:52:12:975
-7.734948699951172,-7.720583709716797,-0.48122717285156247,0.046760215183288406,-0.0024105311323608,-0.00854136514950779,1.3999361991882324,2019-06-21 12:52:12:980
-7.750510772705078,-7.721780792236328,-0.45608843994140624,0.047559163510312176,-0.0021442150233528757,-0.008674523204011752,1.4050559997558594,2019-06-21 12:52:12:985
-7.757693267822265,-7.709809967041015,-0.4776359252929687,0.04742600545580821,-0.0026768472413687236,-0.008674523204011752,1.410048007965088,2019-06-21 12:52:12:990
-7.751707855224609,-7.709809967041015,-0.5207308959960938,0.04702653129229633,-0.004274743895416266,-0.008275049040499867,1.4150400161743164,2019-06-21 12:52:12:995
-7.799591156005859,-7.703824554443359,-0.5231250610351562,0.0478254796193201,-0.00454106000442419,-0.008807681258515714,1.420032024383545,2019-06-21 12:52:13:000
-7.8163503112792965,-7.648758758544922,-0.5566433715820313,0.04902390210985575,-0.004674218058928152,-0.009606629585539485,1.4250240325927734,2019-06-21 12:52:13:005
-7.812759063720703,-7.667912078857421,-0.48003009033203126,0.04902390210985575,-0.0032094794593845715,-0.00987294569454741,1.430016040802002,2019-06-21 12:52:13:010
-7.843883209228515,-7.667912078857421,-0.49200091552734376,0.047559163510312176,-0.006005798603967771,-0.01133768429409099,1.4350080490112305,2019-06-21 12:52:13:015
-7.851065704345703,-7.696642059326171,-0.5434754638671875,0.0478254796193201,-0.007470537203511351,-0.01266926483913061,1.440000057220459,2019-06-21 12:52:13:020
-7.872613189697265,-7.687065399169922,-0.5255192260742187,0.04809179572832802,-0.008935275803054933,-0.014134003438674192,1.4449920654296875,2019-06-21 12:52:13:025
-7.88697817993164,-7.664320831298828,-0.5398842163085937,0.04862442794634387,-0.010400014402598514,-0.014932951765697961,1.449984073638916,2019-06-21 12:52:13:030
-7.85824819946289,-7.645167510986328,-0.5135484008789062,0.048358111837335946,-0.010932646620614361,-0.01546558398371381,1.4549760818481445,2019-06-21 12:52:13:035
-7.895357757568359,-7.60925503540039,-0.4967892456054687,0.04809179572832802,-0.01146527883863021,-0.01679716452875343,1.459968090057373,2019-06-21 12:52:13:040
-7.906131500244141,-7.599678375244141,-0.47284759521484376,0.048358111837335946,-0.013862123819701522,-0.019327167564328708,1.4649600982666016,2019-06-21 12:52:13:045
-7.926481903076172,-7.597284210205078,-0.4764388427734375,0.04702653129229633,-0.015593178528253027,-0.022789276981431714,1.46995210647583,2019-06-21 12:52:13:050
-7.9336643981933594,-7.596087127685546,-0.4465117797851562,0.04542863463824879,-0.016924759073292647,-0.025319280017006993,1.4749441146850586,2019-06-21 12:52:13:055
-7.936058563232422,-7.594890045166015,-0.4848184204101562,0.04356442187519331,-0.017723707400316417,-0.027582966943574348,1.479936122894287,2019-06-21 12:52:13:060
-7.979153533935547,-7.614043365478516,-0.4788330078125,0.04329810576618539,-0.019055287945356037,-0.028914547488613964,1.4850561618804932,2019-06-21 12:52:13:065
-7.958803131103515,-7.605663787841797,-0.47045343017578123,0.0439638960387052,-0.019454762108867922,-0.032642973014724894,1.4900481700897217,2019-06-21 12:52:13:070
-7.932467315673828,-7.623620025634765,-0.48721258544921875,0.04196652522114577,-0.02145213292642735,-0.03583876632281998,1.4950401782989502,2019-06-21 12:52:13:075
-7.922890655517578,-7.593692962646484,-0.49439508056640624,0.03970283829457842,-0.022517397362459047,-0.03810245324938733,1.5000321865081787,2019-06-21 12:52:13:080
-7.932467315673828,-7.610452117919921,-0.4584826049804687,0.038770731913050686,-0.02464792623452244,-0.039833507957938837,1.5050241947174072,2019-06-21 12:52:13:085
-7.920496490478516,-7.587707550048828,-0.454891357421875,0.03930336413106653,-0.025180558452538287,-0.04156456266649034,1.5100162029266357,2019-06-21 12:52:13:090
-7.864233612060547,-7.602072540283203,-0.416584716796875,0.03783862553152295,-0.02637898094307394,-0.04396140764756166,1.5150082111358643,2019-06-21 12:52:13:095
-7.873810272216796,-7.597284210205078,-0.48960675048828123,0.03597441276846748,-0.027577403433609596,-0.046091936519625044,1.5200002193450928,2019-06-21 12:52:13:100
-7.8893723449707025,-7.596087127685546,-0.4477088623046875,0.03597441276846748,-0.030373722578192798,-0.04875509760970429,1.5249922275543213,2019-06-21 12:52:13:105
-7.879795684814453,-7.5984812927246095,-0.421373046875,0.03570809665945956,-0.0314389870142245,-0.05155141675428749,1.5299839973449707,2019-06-21 12:52:13:110
-7.870219024658203,-7.631999603271484,-0.41179638671874996,0.033444409732892214,-0.032770567559264115,-0.053681945626350876,1.5349760055541992,2019-06-21 12:52:13:115
-7.8905694274902345,-7.611649200439453,-0.46207385253906247,0.030914406697316935,-0.03396899004979977,-0.05434773589887068,1.5399680137634277,2019-06-21 12:52:13:120
-7.85824819946289,-7.614043365478516,-0.4967892456054687,0.02971598420678128,-0.03330319977727996,-0.05687773893444596,1.5449600219726562,2019-06-21 12:52:13:125
-7.83909487915039,-7.646364593505859,-0.41059930419921875,0.02971598420678128,-0.03463478032231958,-0.057144055043453885,1.5499520301818848,2019-06-21 12:52:13:130
-7.864233612060547,-7.660729583740234,-0.36511016845703126,0.02971598420678128,-0.0349010964313275,-0.05767668726146973,1.5549440383911133,2019-06-21 12:52:13:135
-7.855854034423828,-7.663123748779297,-0.4189788818359375,0.028251245607237695,-0.03530057059483939,-0.06073932251506085,1.5599360466003418,2019-06-21 12:52:13:140
-7.865430694580078,-7.675094573974609,-0.48122717285156247,0.02705282311670204,-0.0359663608673592,-0.06167142889658859,1.5650560855865479,2019-06-21 12:52:13:145
-7.828321136474609,-7.6571383361816405,-0.47045343017578123,0.02625387478967827,-0.037031625303390894,-0.06260353527811632,1.5700480937957764,2019-06-21 12:52:13:150
-7.823532806396484,-7.687065399169922,-0.48242425537109374,0.025454926462654494,-0.03823004779392655,-0.06366879971414802,1.5750401020050049,2019-06-21 12:52:13:155
-7.853459869384765,-7.670306243896484,-0.5003804931640625,0.02505545229914261,-0.03796373168491863,-0.06460090609567576,1.5800321102142334,2019-06-21 12:52:13:160
-7.841489044189453,-7.665517913818359,-0.483621337890625,0.025454926462654494,-0.038895838066446364,-0.06500038025918764,1.585024118423462,2019-06-21 12:52:13:165
-7.843883209228515,-7.667912078857421,-0.45010302734374996,0.023857029808606954,-0.03996110250247806,-0.06473406415017971,1.5900161266326904,2019-06-21 12:52:13:170
-7.8019853210449215,-7.678685821533203,-0.4764388427734375,0.023723871754102992,-0.0398279444479741,-0.06686459302224311,1.595008134841919,2019-06-21 12:52:13:175
-7.812759063720703,-7.687065399169922,-0.4656651000976562,0.02345755564509507,-0.03996110250247806,-0.06779669940377084,1.6000001430511475,2019-06-21 12:52:13:180
-7.78163491821289,-7.687065399169922,-0.43693511962890624,0.023191239536087146,-0.04222478942904541,-0.06846248967629065,1.604992151260376,2019-06-21 12:52:13:185
-7.794802825927734,-7.705021636962891,-0.46805926513671875,0.023058081481583184,-0.04182531526553352,-0.06806301551277875,1.6099841594696045,2019-06-21 12:52:13:190
-7.788817413330078,-7.706218719482422,-0.45608843994140624,0.02146018482753564,-0.041159524993013716,-0.0689951218943065,1.614976167678833,2019-06-21 12:52:13:195
-7.756496185302734,-7.726569122314453,-0.5051688232421875,0.02212597510005545,-0.04222478942904541,-0.06766354134926687,1.6199681758880615,2019-06-21 12:52:13:200
-7.763678680419922,-7.689459564208984,-0.493197998046875,0.023058081481583184,-0.04169215721102956,-0.06753038329476291,1.62496018409729,2019-06-21 12:52:13:205
-7.780437835693359,-7.718189544677734,-0.4967892456054687,0.021193868718527718,-0.04182531526553352,-0.06713090913125103,1.6299521923065186,2019-06-21 12:52:13:210
-7.770861175537109,-7.72417495727539,-0.52671630859375,0.021859658991047526,-0.04289057970156522,-0.06779669940377084,1.634944200515747,2019-06-21 12:52:13:215
-7.7289632873535155,-7.711007049560546,-0.5171396484374999,0.022525449263567334,-0.043023737756069186,-0.0679298574582748,1.6399362087249756,2019-06-21 12:52:13:220
-7.731357452392578,-7.705021636962891,-0.5350958862304688,0.021593342882039603,-0.04275742164706126,-0.06806301551277875,1.6450560092926025,2019-06-21 12:52:13:225
-7.716992462158203,-7.708612884521484,-0.49439508056640624,0.021992817045551488,-0.04408900219210088,-0.06766354134926687,1.650048017501831,2019-06-21 12:52:13:230
-7.694247894287109,-7.719386627197266,-0.5063659057617187,0.021193868718527718,-0.0460863730096603,-0.06686459302224311,1.6550400257110596,2019-06-21 12:52:13:235
-7.716992462158203,-7.7145982971191405,-0.5063659057617187,0.02345755564509507,-0.04528742468263653,-0.06593248664071537,1.660032033920288,2019-06-21 12:52:13:240
-7.725372039794921,-7.738539947509765,-0.52671630859375,0.02359071369959903,-0.045420582737140495,-0.06566617053170745,1.6650240421295166,2019-06-21 12:52:13:245
-7.709809967041015,-7.733751617431641,-0.5063659057617187,0.023324397590591107,-0.04648584717317219,-0.0661988027497233,1.6700160503387451,2019-06-21 12:52:13:250
-7.707415802001953,-7.731357452392578,-0.4848184204101562,0.022924923427079223,-0.047018479391188035,-0.06553301247720349,1.6750080585479736,2019-06-21 12:52:13:255
-7.699036224365234,-7.749313690185547,-0.521927978515625,0.0243896620266228,-0.044621634410116726,-0.06406827387765991,1.6800000667572021,2019-06-21 12:52:13:260
-7.689459564208984,-7.737342864990234,-0.48122717285156247,0.024922294244638647,-0.043955844137596914,-0.06326932555063614,1.6849920749664307,2019-06-21 12:52:13:265
-7.689459564208984,-7.770861175537109,-0.493197998046875,0.024123345917614877,-0.043955844137596914,-0.06286985138712425,1.6899840831756592,2019-06-21 12:52:13:270
-7.678685821533203,-7.751707855224609,-0.53629296875,0.02572124257166242,-0.04342321191958107,-0.06100563862406878,1.6949760913848877,2019-06-21 12:52:13:275
-7.677488739013672,-7.774452423095703,-0.5111542358398438,0.027585455334717887,-0.043023737756069186,-0.059940374188037084,1.6999680995941162,2019-06-21 12:52:13:280
-7.655941253662109,-7.770861175537109,-0.5039717407226563,0.02771861338922185,-0.04289057970156522,-0.05847563558849351,1.7049601078033447,2019-06-21 12:52:13:285
-7.661926666259766,-7.763678680419922,-0.5099571533203124,0.028917035879757504,-0.04329005386507711,-0.05701089698894993,1.7099521160125732,2019-06-21 12:52:13:290
-7.645167510986328,-7.756496185302734,-0.502774658203125,0.030248616424797127,-0.0426242635925573,-0.05621194866192616,1.7149441242218018,2019-06-21 12:52:13:295
-7.640379180908203,-7.756496185302734,-0.5291104736328125,0.030781248642812974,-0.04275742164706126,-0.055146684225894464,1.7199361324310303,2019-06-21 12:52:13:300
-7.573342559814453,-7.751707855224609,-0.5015775756835937,0.03118072280632486,-0.041292683047517674,-0.05354878757184691,1.7250561714172363,2019-06-21 12:52:13:305
-7.56137173461914,-7.762481597900391,-0.4572855224609375,0.03144703891533278,-0.041292683047517674,-0.052084048972303336,1.7300481796264648,2019-06-21 12:52:13:310
-7.58052505493164,-7.81036489868164,-0.45369427490234376,0.0327786194603724,-0.041159524993013716,-0.05075246842726371,1.7350401878356934,2019-06-21 12:52:13:315
-7.58052505493164,-7.8307153015136715,-0.4333438720703125,0.034642832223427865,-0.03942847028446221,-0.046890884846648814,1.7400321960449219,2019-06-21 12:52:13:320
-7.58052505493164,-7.842686126708984,-0.42496429443359374,0.03584125471396352,-0.03649899308537505,-0.044360881811073546,1.7450242042541504,2019-06-21 12:52:13:325
-7.599678375244141,-7.823532806396484,-0.43693511962890624,0.036107570822971446,-0.03170530312323242,-0.04156456266649034,1.750016212463379,2019-06-21 12:52:13:330
-7.6284083557128906,-7.821138641357422,-0.46805926513671875,0.03757230942251503,-0.029308458142161105,-0.038635085467403185,1.7550082206726074,2019-06-21 12:52:13:335
-7.757693267822265,-7.79001449584961,-0.4716505126953125,0.039969154403586345,-0.02824319370612941,-0.035971924377323945,1.760000228881836,2019-06-21 12:52:13:340
-7.855854034423828,-7.701430389404297,-0.5518550415039062,0.040634944676106156,-0.030107406469184875,-0.0354392921593081,1.7649919986724854,2019-06-21 12:52:13:345
-7.706218719482422,-7.701430389404297,-0.5111542358398438,0.03983599634908238,-0.03210477728674431,-0.03637139854083583,1.7699840068817139,2019-06-21 12:52:13:350
-7.721780792236328,-7.750510772705078,-0.3710955810546875,0.03917020607656257,-0.023316345689482817,-0.03770297908587545,1.7749760150909424,2019-06-21 12:52:13:355
-7.7876203308105465,-7.8019853210449215,-0.47045343017578123,0.04209968327564973,-0.021585290980931315,-0.0382356113038913,1.779968023300171,2019-06-21 12:52:13:360
-7.8163503112792965,-7.738539947509765,-0.569811279296875,0.047692321564816134,-0.01506054631023718,-0.03916771768541903,1.7849600315093994,2019-06-21 12:52:13:365
-7.8618394470214845,-7.693050811767578,-0.407008056640625,0.04702653129229633,-0.010533172457102476,-0.03783613714037941,1.789952039718628,2019-06-21 12:52:13:370
-7.888175262451171,-7.665517913818359,-0.3232122802734375,0.04356442187519331,-0.018655813781844152,-0.039833507957938837,1.7949440479278564,2019-06-21 12:52:13:375
-7.936058563232422,-7.624817108154296,-0.5817821044921875,0.04249915743916162,-0.021585290980931315,-0.04169772072099431,1.799936056137085,2019-06-21 12:52:13:380
-7.617634613037109,-7.66671499633789,-0.6943078613281249,0.04103441883961804,-0.01932160405436396,-0.04422772375656958,1.805056095123291,2019-06-21 12:52:13:385
-7.655941253662109,-7.647561676025391,-0.49200091552734376,0.04636074101977652,-0.020919500708411504,-0.04542614624710524,1.8100481033325195,2019-06-21 12:52:13:390
-7.712204132080078,-7.736145782470703,-0.3627160034179687,0.051154430981919144,-0.01719107518230057,-0.046091936519625044,1.815040111541748,2019-06-21 12:52:13:395
-7.740934112548828,-7.75290493774414,-0.45608843994140624,0.053684434017494426,-0.003076321404880609,-0.046890884846648814,1.8200321197509766,2019-06-21 12:52:13:400
-7.763678680419922,-7.7002333068847655,-0.521927978515625,0.05248601152695876,-0.0029431633503766473,-0.04582562041061712,1.825024127960205,2019-06-21 12:52:13:405
-7.825926971435547,-7.702627471923828,-0.5291104736328125,0.050355482654895374,-0.0107994885661104,-0.04635825262863297,1.8300161361694336,2019-06-21 12:52:13:410
-7.888175262451171,-7.734948699951172,-0.43454095458984376,0.051953379308942914,-0.007736853312519276,-0.04649141068313693,1.835008144378662,2019-06-21 12:52:13:415
-7.817547393798828,-7.687065399169922,-0.48003009033203126,0.053018643744974614,-0.006138956658471733,-0.04875509760970429,1.8400001525878906,2019-06-21 12:52:13:420
-7.849868621826172,-7.660729583740234,-0.6141033325195312,0.05102127292741518,-0.007870011367023238,-0.050619310372759754,1.8449921607971191,2019-06-21 12:52:13:425
-7.927678985595703,-7.6272112731933595,-0.5446725463867187,0.05435022429001423,-0.005206850276944,-0.05261668119031918,1.8499841690063477,2019-06-21 12:52:13:430
-7.989927276611328,-7.591298797607422,-0.4381322021484375,0.06047549479719648,-0.0017447408598409903,-0.05567931644391031,1.8549761772155762,2019-06-21 12:52:13:435
-8.05935806274414,-7.517079681396484,-0.40581097412109374,0.06047549479719648,-0.003342637513888533,-0.06007353224254105,1.8599681854248047,2019-06-21 12:52:13:440
-8.037810577392579,-7.499123443603516,-0.5015775756835937,0.0534181179084865,-0.0038752697319043806,-0.06420143193216386,1.8649601936340332,2019-06-21 12:52:13:445
-8.025839752197266,-7.543415496826172,-0.4716505126953125,0.051553905145431025,-0.003076321404880609,-0.06886196383980253,1.8699522018432617,2019-06-21 12:52:13:450
-8.012671844482421,-7.529050506591797,-0.368701416015625,0.06100812701521233,-0.001877898914344952,-0.07472091823797686,1.8749442100524902,2019-06-21 12:52:13:455
-7.979153533935547,-7.529050506591797,-0.31483270263671875,0.06300549783277175,0.0030489491023016385,-0.081245662908671,1.8800640106201172,2019-06-21 12:52:13:460
-8.015066009521485,-7.527853424072266,-0.37947515869140624,0.05568180483505385,0.003448423265813524,-0.08683830119783739,1.8850560188293457,2019-06-21 12:52:13:465
-8.055766815185546,-7.543415496826172,-0.5398842163085937,0.05208653736344687,0.004114213538333334,-0.09336304586853152,1.8900480270385742,2019-06-21 12:52:13:470
-7.9492264709472655,-7.537430084228515,-0.6404391479492187,0.05581496288955781,0.005712110192380876,-0.09789041972166623,1.8950400352478027,2019-06-21 12:52:13:475
-8.035416412353515,-7.51229135131836,-0.5039717407226563,0.0607418109062044,0.004646845756349181,-0.10148568719327321,1.9000320434570312,2019-06-21 12:52:13:480
-8.164701324462891,-7.603269622802734,-0.42975262451171875,0.05834496592513309,-0.0004131603148013711,-0.10801043186396733,1.9050240516662598,2019-06-21 12:52:13:485
-8.007883514404297,-7.4524372253417965,-0.512351318359375,0.053018643744974614,-0.0009457925328172187,-0.11333675404412581,1.9100160598754883,2019-06-21 12:52:13:490
-7.859445281982421,-7.521868011474609,-0.5961470947265625,0.04968969238237556,-0.0028100052958726857,-0.11879623427878824,1.9150080680847168,2019-06-21 12:52:13:495
-7.852262786865234,-7.727766204833984,-0.4393292846679687,0.05315180179947858,-0.004141585840912305,-0.1227909759139071,1.9200000762939453,2019-06-21 12:52:13:500
-7.987533111572265,-7.751707855224609,-0.3890518188476562,0.0579454917616212,0.0031821071568056006,-0.12438887256795465,1.9249920845031738,2019-06-21 12:52:13:505
-7.8474744567871095,-7.690656646728516,-0.5925558471679687,0.05834496592513309,0.0053126360288689905,-0.1287830883665854,1.9299840927124023,2019-06-21 12:52:13:510
-7.834306549072266,-7.469196380615235,-0.5901616821289062,0.05954338841566874,0.003981055483829371,-0.1305141430751369,1.9349761009216309,2019-06-21 12:52:13:515
-7.834306549072266,-7.715795379638672,-0.39862847900390624,0.05634759510757366,-0.005206850276944,-0.13344362027422405,1.9399681091308594,2019-06-21 12:52:13:520
-7.785226165771484,-7.74332827758789,-0.32201519775390625,0.05741285954360535,-0.0013452666963291045,-0.13517467498277555,1.944960117340088,2019-06-21 12:52:13:525
-7.604466705322266,-7.779240753173828,-0.5997383422851562,0.05275232763596669,0.0007852621757342861,-0.1357073072007914,1.9499521255493164,2019-06-21 12:52:13:530
-7.4811672058105465,-7.841489044189453,-0.6739574584960938,0.055149172617038,0.0007852621757342861,-0.13597362330979934,1.954944133758545,2019-06-21 12:52:13:535
-7.470393463134766,-7.823532806396484,-0.31962103271484377,0.06713339752239458,0.009706851827499734,-0.13264467194720028,1.9599361419677734,2019-06-21 12:52:13:540
-7.348291046142578,-8.170686737060546,-0.158014892578125,0.06753287168590646,0.014234225680634437,-0.12998151085712106,1.9650561809539795,2019-06-21 12:52:13:545
-7.385400604248047,-7.823532806396484,-0.3435626831054687,0.06393760421429949,0.01782949315224141,-0.12465518867696258,1.970048189163208,2019-06-21 12:52:13:550
-7.4811672058105465,-7.821138641357422,-0.6392420654296875,0.05554864678054989,0.009307377663987848,-0.11813044400626843,1.9750401973724365,2019-06-21 12:52:13:555
-7.543415496826172,-7.9192994079589845,-0.5171396484374999,0.0618070753422361,0.005845268246884838,-0.11413570237114959,1.980032205581665,2019-06-21 12:52:13:560
-7.684671234130859,-7.883386932373047,-0.42376721191406247,0.06233970756025194,0.006244742410396725,-0.10974148657251885,1.9850242137908936,2019-06-21 12:52:13:565
-7.4081451721191405,-8.078511383056641,-0.9073885498046875,0.051553905145431025,-0.004008427786408342,-0.10801043186396733,1.990016222000122,2019-06-21 12:52:13:570
-7.372232696533203,-7.784029083251953,-0.9241477050781249,0.06020917868818856,0.0011847363392461718,-0.10334989995632866,1.9950082302093506,2019-06-21 12:52:13:575
-7.368641448974609,-7.883386932373047,-0.435738037109375,0.07285919386606493,0.003981055483829371,-0.09868936804869001,2.0,2019-06-21 12:52:13:580
-7.453634307861328,-7.9492264709472655,-0.177168212890625,0.07632130328316794,0.007043690737420496,-0.09336304586853152,2.0049920082092285,2019-06-21 12:52:13:585
-7.462013885498047,-8.009080596923829,-0.5255192260742187,0.06087496896070837,0.0038478974293254097,-0.08670514314333343,2.009984016418457,2019-06-21 12:52:13:590
-7.2034440612792965,-8.131183013916015,-0.881052734375,0.04889074405535179,-0.006138956658471733,-0.08071303069065515,2.0149760246276855,2019-06-21 12:52:13:595
-7.24534194946289,-7.928876068115234,-0.5183367309570313,0.06447023643231534,-0.008535801639543048,-0.07298986352942535,2.019968032836914,2019-06-21 12:52:13:600
-7.086129974365234,-8.13477426147461,-0.1340732421875,0.07099498110300947,-0.00933474996656682,-0.0661988027497233,2.0249600410461426,2019-06-21 12:52:13:605
-7.094509552001953,-8.078511383056641,-0.23941650390625,0.06034233674269252,-0.005073692222440038,-0.05607879060742219,2.029952049255371,2019-06-21 12:52:13:610
-7.093312469482422,-8.131183013916015,-0.7026874389648438,0.04436337020221709,-0.015593178528253027,-0.0455593043016092,2.0349440574645996,2019-06-21 12:52:13:615
-6.9712100524902345,-8.248497100830077,-0.7769065551757812,0.05208653736344687,-0.01918844599986,-0.03370823745075659,2.039936065673828,2019-06-21 12:52:13:620
-7.004728363037109,-8.139562591552734,-0.2849056396484375,0.069130768339954,-0.009068433857558894,-0.021058222272880213,2.045056104660034,2019-06-21 12:52:13:625
-6.831151397705078,-8.246102935791015,-0.20230694580078123,0.059942862579180634,-0.017990023509324344,-0.008807681258515714,2.0500481128692627,2019-06-21 12:52:13:630
-6.871852203369141,-8.162307159423827,-0.531504638671875,0.0428986316026735,-0.022916871525970932,0.0065054950094399055,2.055040121078491,2019-06-21 12:52:13:635
-6.764114776611328,-8.247300018310547,-0.7649357299804688,0.04103441883961804,-0.025047400398034325,0.021818671277395525,2.0600321292877197,2019-06-21 12:52:13:640
-6.774888519287109,-8.290394989013672,-0.5243221435546875,0.055415488726045924,-0.026645297052081865,0.03793079587237492,2.0650241374969482,2019-06-21 12:52:13:645
-6.80481558227539,-8.292789154052734,-0.28849688720703126,0.05634759510757366,-0.02984109036017695,0.05430923657636223,2.0700161457061768,2019-06-21 12:52:13:650
-6.691092742919921,-8.291592071533202,-0.3890518188476562,0.04103441883961804,-0.036232676976367124,0.07068767728034954,2.0750081539154053,2019-06-21 12:52:13:655
-6.723413970947266,-8.21258462524414,-0.6105120849609375,0.03624072887747541,-0.039694786393470134,0.08893033074739232,2.080000162124634,2019-06-21 12:52:13:660
-6.709048980712891,-8.222161285400391,-0.5003804931640625,0.04516231852924085,-0.04408900219210088,0.10530877145137964,2.0849921703338623,2019-06-21 12:52:13:665
-6.756932281494141,-8.252088348388671,-0.27892022705078123,0.04636074101977652,-0.043156895810573144,0.12301879270040658,2.089984178543091,2019-06-21 12:52:13:670
-6.738976043701172,-8.321519134521484,-0.3627160034179687,0.034642832223427865,-0.046219531064164265,0.1411282964353238,2.0949761867523193,2019-06-21 12:52:13:675
-6.715034393310547,-8.321519134521484,-0.5853733520507812,0.031979671133348625,-0.048083743827219735,0.15803936935732696,2.099968194961548,2019-06-21 12:52:13:680
-6.724611053466797,-8.315533721923828,-0.5255192260742187,0.03850441580404276,-0.044754792464620684,0.17601570671536182,2.1049602031707764,2019-06-21 12:52:13:685
-6.749749786376953,-8.34546078491211,-0.349548095703125,0.04010231245809031,-0.0460863730096603,0.1935925699098848,2.109952211380005,2019-06-21 12:52:13:690
-6.786859344482422,-8.31792788696289,-0.32919769287109374,0.03237914529686051,-0.04901585020874747,0.2110362750499038,2.1149442195892334,2019-06-21 12:52:13:695
-6.750946868896484,-8.325110382080078,-0.4524971923828125,0.02771861338922185,-0.0510132210263069,0.2295452446259545,2.119936227798462,2019-06-21 12:52:13:700
-6.773691436767578,-8.335884124755859,-0.43454095458984376,0.03118072280632486,-0.05021427269928313,0.24872000447452502,2.125056028366089,2019-06-21 12:52:13:705
-6.777282684326171,-8.369402435302733,-0.3902489013671875,0.03131388086082882,-0.05141269518981878,0.2676284482140876,2.1300480365753174,2019-06-21 12:52:13:710
-6.801224334716797,-8.399329498291015,-0.32800061035156247,0.025987558680670344,-0.05207848546233859,0.2865368919536502,2.135040044784546,2019-06-21 12:52:13:715
-6.772494354248047,-8.311942474365233,-0.3998255615234375,0.024522820081126762,-0.04968164048126728,0.3053121776387088,2.1400320529937744,2019-06-21 12:52:13:720
-6.786859344482422,-8.273635833740235,-0.45010302734374996,0.02705282311670204,-0.04728479550019596,0.3242206213782714,2.145024061203003,2019-06-21 12:52:13:725
-6.831151397705078,-8.29877456665039,-0.3806722412109375,0.02625387478967827,-0.048083743827219735,0.3423301167908102,2.1500160694122314,2019-06-21 12:52:13:730
-6.894596771240234,-8.352643280029296,-0.2849056396484375,0.02212597510005545,-0.05207848546233859,0.36230382496640456,2.15500807762146,2019-06-21 12:52:13:735
-6.879034698486328,-8.309548309326171,-0.349548095703125,0.01799807541043263,-0.0527442757348584,0.38254384925100676,2.1600000858306885,2019-06-21 12:52:13:740
-6.855093048095703,-8.291592071533202,-0.37708099365234377,0.01733228513791282,-0.05141269518981878,0.40171860909957724,2.164992094039917,2019-06-21 12:52:13:745
-6.843122222900391,-8.248497100830077,-0.3423656005859375,0.019729130118984136,-0.047018479391188035,0.4207602108936438,2.1699841022491455,2019-06-21 12:52:13:750
-6.832348480224609,-8.284409576416015,-0.22146026611328123,0.019196497900968286,-0.04675216328218011,0.44033444490572615,2.174976110458374,2019-06-21 12:52:13:755
-6.750946868896484,-8.311942474365233,-0.191533203125,0.017731759301424708,-0.041159524993013716,0.4608407852993363,2.1799681186676025,2019-06-21 12:52:13:760
-6.674333587646484,-8.37538784790039,-0.2549785766601562,0.015068598211345466,-0.03450162226781562,0.48307818040149797,2.184960126876831,2019-06-21 12:52:13:765
-6.680319000244141,-8.434044891357422,-0.3890518188476562,0.01653333681088905,-0.03170530312323242,0.5057150496671715,2.1899521350860596,2019-06-21 12:52:13:770
-6.646800689697265,-8.43165072631836,-0.25258441162109374,0.020661236500511868,-0.02451476818001848,0.5294171833688767,2.194944143295288,2019-06-21 12:52:13:775
-6.735384796142578,-8.465169036865234,-0.13287615966796876,0.021060710664023756,-0.020786342653907542,0.5559156362151652,2.1999361515045166,2019-06-21 12:52:13:780
-6.750946868896484,-8.361022857666015,-0.0981607666015625,0.017598601246920746,-0.017324233236804532,0.5794846118623664,2.2050561904907227,2019-06-21 12:52:13:785
-6.709048980712891,-8.274832916259765,-0.30765020751953126,0.013337543502793961,-0.01625896880077284,0.6047846422181191,2.210048198699951,2019-06-21 12:52:13:790
-6.792844757080078,-8.150336334228516,-0.4393292846679687,0.015601230429361316,-0.012930017438173791,0.6284867759198244,2.2150402069091797,2019-06-21 12:52:13:795
-6.845516387939453,-8.118015106201172,-0.43693511962890624,0.019462814009976213,-0.011198962729622286,0.6523220676760335,2.220032215118408,2019-06-21 12:52:13:800
-6.9568450622558595,-8.114423858642578,-0.292088134765625,0.01786491735592867,-0.0080031694215272,0.6741599886146833,2.2250242233276367,2019-06-21 12:52:13:805
-7.005925445556641,-8.031825164794922,-0.29687646484374997,0.01453596599332962,-0.007603695258015315,0.6970631739893648,2.2300162315368652,2019-06-21 12:52:13:810
-6.9424800720214845,-7.926481903076172,-0.4094022216796875,0.010674382412714725,-0.00587264054946381,0.7185016207645026,2.2350080013275146,2019-06-21 12:52:13:815
-6.944874237060547,-7.983941864013672,-0.6069208374023437,0.008144379377139448,-0.0024105311323608,0.7412716480846802,2.240000009536743,2019-06-21 12:52:13:820
-7.017896270751953,-8.17427798461914,-0.5686141967773437,0.012139121012258306,-0.003342637513888533,0.762710094859818,2.2449920177459717,2019-06-21 12:52:13:825
-7.020290435791016,-8.050978485107422,-0.4333438720703125,0.020661236500511868,-0.00014684420579344723,0.7865453866160272,2.2499840259552,2019-06-21 12:52:13:830
-6.9281150817871096,-7.8750073547363275,-0.35553350830078123,0.021726500936543564,0.007576322955436343,0.8099812042087244,2.2549760341644287,2019-06-21 12:52:13:835
-6.889808441162109,-7.936058563232422,-0.39623431396484377,0.015201756265849428,0.0073100068464284195,0.8344822862374535,2.2599680423736572,2019-06-21 12:52:13:840
-7.435678070068359,-8.283212493896484,-0.301664794921875,0.009475959922179067,0.0035815813203174864,0.8601817907567181,2.2649600505828857,2019-06-21 12:52:13:845
-7.852262786865234,-8.752468841552734,-0.2322340087890625,0.008144379377139448,0.001983684666269943,0.8830849761313996,2.2699520587921143,2019-06-21 12:52:13:850
-8.18385464477539,-8.894921661376953,-0.5291104736328125,0.011473330739738495,0.008242113227956153,0.9063876356695928,2.2749440670013428,2019-06-21 12:52:13:855
-8.047387237548827,-8.59565103149414,-0.6739574584960938,0.023324397590591107,0.016364754552697827,0.9258287116271714,2.2799360752105713,2019-06-21 12:52:13:860
-6.585749481201172,-7.932467315673828,-0.1723798828125,0.04036862856709823,0.021557918678352342,0.9462018939662774,2.2850561141967773,2019-06-21 12:52:13:865
-7.892963592529297,-7.8905694274902345,0.40581097412109374,0.036107570822971446,0.002782632993293715,0.9808229881373075,2.290048122406006,2019-06-21 12:52:13:870
-7.633196685791016,-7.325546478271484,-0.47524176025390624,0.0016196347064453146,-0.021718449035435277,0.993473003315184,2.2950401306152344,2019-06-21 12:52:13:875
-7.979153533935547,-7.410539337158203,-1.8351275024414062,-0.015824070433573697,0.034740566074244576,1.0149114500903218,2.300032138824463,2019-06-21 12:52:13:880
-7.515882598876953,-6.9700129699707025,-0.9624543457031249,0.050754956818407256,0.03380845969271684,1.021436194761016,2.3050241470336914,2019-06-21 12:52:13:885
-9.14152066040039,-7.476378875732422,0.4381322021484375,0.06886445223094607,-0.0038752697319043806,1.0342193679933962,2.31001615524292,2019-06-21 12:52:13:890
-8.71176803588867,-8.276029998779297,0.14843823242187498,-0.004372477746232971,-0.01013369829359059,1.0478014895528003,2.3150081634521484,2019-06-21 12:52:13:895
-7.764875762939453,-8.101255950927735,-1.0402647094726563,-0.052309377367659254,0.0011847363392461718,1.0681746718919065,2.320000171661377,2019-06-21 12:52:13:900
-7.294422332763672,-7.520670928955078,-1.613667236328125,0.008810169649659257,-0.04249110553805334,1.09081154115758,2.3249921798706055,2019-06-21 12:52:13:905
-8.024642669677734,-7.349488128662109,-0.6093150024414062,0.08178078351783039,-0.007736853312519276,1.105458927153016,2.329984188079834,2019-06-21 12:52:13:910
-7.573342559814453,-7.490743865966797,0.61290625,0.069130768339954,0.036471620782796074,1.1315578392567653,2.3349761962890625,2019-06-21 12:52:13:915
-8.09766470336914,-6.800027252197266,0.2082923583984375,0.011340172685234533,-0.006005798603967771,1.150466282996328,2.3400959968566895,2019-06-21 12:52:13:920
-8.607621856689454,-6.685107330322266,-1.4496669311523438,-0.019286179850676707,-0.047684269663707854,1.1695078847903944,2.3449602127075195,2019-06-21 12:52:13:925
-8.266453338623046,-7.604466705322266,-1.537053955078125,-0.0005108941656180758,-0.011731594947638133,1.1828236902407905,2.349952220916748,2019-06-21 12:52:13:930
-8.441227386474608,-6.826363067626953,-0.19273028564453124,0.053018643744974614,-0.018788971836348114,1.1949410732006511,2.3549442291259766,2019-06-21 12:52:13:935
-8.888936248779297,-6.791647674560546,0.08618994140625,0.026653348953190156,-0.05514112071592972,1.2053274014519602,2.3600640296936035,2019-06-21 12:52:13:940
-8.813520050048828,-6.959239227294922,-1.0546296997070312,-0.02820776950244215,-0.027710561488113558,1.2209068938289236,2.365056037902832,2019-06-21 12:52:13:945
-9.129549835205077,-7.023881683349609,-1.5885285034179688,-0.01808775736014105,-0.048882692154243505,1.2315595381892406,2.3700480461120605,2019-06-21 12:52:13:950
-9.646689483642579,-7.403356842041015,-0.6859282836914062,0.025454926462654494,-0.07990851469247742,1.237152176478407,2.375040054321289,2019-06-21 12:52:13:955
-9.048148223876954,-6.54624575805664,0.263358154296875,0.026653348953190156,-0.036898467248886936,1.2491364013837636,2.3800320625305176,2019-06-21 12:52:13:960
-8.35623452758789,-6.717428558349609,-0.9947755737304688,-0.02660987284839461,-0.04954848242676332,1.2569927265994973,2.385024070739746,2019-06-21 12:52:13:965
-8.371796600341797,-6.519909942626953,-1.4760027465820311,-0.021150392613732173,-0.09056115905279438,1.268976951504854,2.3900160789489746,2019-06-21 12:52:13:970
-8.20181088256836,-6.116493133544922,0.3423656005859375,0.016799652919896973,-0.06020112678708026,1.2841569697183055,2.395008087158203,2019-06-21 12:52:13:975
-8.446015716552735,-6.639618194580078,0.14245281982421876,0.004282795796524553,-0.0544753304434099,1.2981385654412216,2.4000000953674316,2019-06-21 12:52:13:980
-8.419679901123047,-6.340347564697265,-1.1863087768554688,-0.03313461751908874,-0.07112008309521593,1.3133185836546732,2.40499210357666,2019-06-21 12:52:13:985
-9.230104766845702,-6.62166195678711,-1.3227761840820311,-0.030604614483513468,-0.06472850064021497,1.3319607112852279,2.4099841117858887,2019-06-21 12:52:13:990
-9.309112213134766,-6.685107330322266,-0.16160614013671876,0.02558808451715846,-0.05420901433440198,1.342080723427529,2.414976119995117,2019-06-21 12:52:13:995
-9.078075286865234,-6.127266876220703,0.6548041381835937,0.01999544622799206,-0.036099518921863166,1.356195477204949,2.4199681282043457,2019-06-21 12:52:14:000
-8.150336334228516,-6.014741119384765,-0.43693511962890624,-0.04352094577039777,-0.06885640032983778,1.3711091793093926,2.424960136413574,2019-06-21 12:52:14:005
-8.720147613525391,-6.367880462646484,-1.73337548828125,-0.06922045028966242,-0.09122694932531418,1.395077629120106,2.4299521446228027,2019-06-21 12:52:14:010
-8.006686431884765,-6.311617584228515,-0.22624859619140625,-0.027675137284426304,-0.07471535056682291,1.4127876503691328,2.4349441528320312,2019-06-21 12:52:14:015
-8.801549224853515,-6.346332977294922,0.41778179931640624,0.008677011595155295,-0.08030798885598932,1.4335603068717508,2.4399361610412598,2019-06-21 12:52:14:020
-8.770425079345703,-6.463647064208984,-0.7266290893554688,-0.016356702651589543,-0.05793743986051292,1.4507376959027618,2.445056200027466,2019-06-21 12:52:14:025
-9.040965728759765,-6.399004608154296,-1.2270095825195313,-0.035398304445656094,-0.04275742164706126,1.478967203457602,2.4500482082366943,2019-06-21 12:52:14:030
-10.36733316040039,-6.886217193603516,-0.6631837158203124,-0.006902480781808247,-0.07178587336773576,1.495745118325101,2.455040216445923,2019-06-21 12:52:14:035
-10.034544219970703,-6.58455239868164,0.5494608764648438,0.019462814009976213,-0.055007962661425755,1.516517774827719,2.4600322246551514,2019-06-21 12:52:14:040
-9.61077700805664,-5.351557403564453,0.344759765625,-0.006369848563792399,-0.04169215721102956,1.5386220118753768,2.46502423286438,2019-06-21 12:52:14:045
-9.749638580322266,-5.375499053955078,-1.968003662109375,-0.05270885153117114,-0.08456904660011609,1.5471441273636304,2.4700160026550293,2019-06-21 12:52:14:050
-10.917991119384766,-6.573778656005859,-2.0242665405273437,-0.046849897132996816,-0.08190588551003686,1.5635225680676177,2.475008010864258,2019-06-21 12:52:14:055
-10.923976531982422,-6.979589630126953,0.20589819335937498,-0.007967745217839942,-0.07471535056682291,1.5884231242598585,2.4800000190734863,2019-06-21 12:52:14:060
-10.56724594116211,-5.663995941162109,0.20470111083984374,-0.015690912379069735,-0.10614065142975791,1.5920183917314656,2.484992027282715,2019-06-21 12:52:14:065
-9.091243194580079,-5.4221852722167965,-2.6838590087890624,-0.06216307340095244,-0.10467591283021434,1.5841620665157317,2.4899840354919434,2019-06-21 12:52:14:070
-9.070892791748047,-5.1755862731933595,-2.8718009643554687,-0.029539350047481774,-0.08470220465462006,1.5964126075300962,2.494976043701172,2019-06-21 12:52:14:075
-9.732879425048829,-4.706329925537109,0.08379577636718749,0.036107570822971446,-0.13197331400352652,1.604402090800334,2.4999680519104004,2019-06-21 12:52:14:080
-10.087215850830077,-5.137279632568359,1.757317138671875,0.024522820081126762,-0.15474334132370401,1.6070652518904132,2.504960060119629,2019-06-21 12:52:14:085
-9.597609100341797,-5.183965850830078,-0.32201519775390625,-0.07268255970676543,-0.09162642348882608,1.6137231546156114,2.5099520683288574,2019-06-21 12:52:14:090
-9.32467428588867,-5.562243927001953,-1.9404707641601562,-0.14418843497539297,-0.15194702217912082,1.642751610497475,2.514944076538086,2019-06-21 12:52:14:095
-10.123128326416015,-5.874682464599609,-1.5813460083007813,-0.10264312197015685,-0.17991021362495282,1.6587305770379503,2.5199360847473145,2019-06-21 12:52:14:100
-10.957494842529297,-5.629280548095703,0.5231250610351562,-0.011563012689446915,-0.12132066964320957,1.6884248231923338,2.5250561237335205,2019-06-21 12:52:14:105
-9.281579315185546,-5.114535064697265,1.0522355346679688,0.004016479687516629,-0.11439645080900357,1.7008085222612022,2.530048131942749,2019-06-21 12:52:14:110
-9.18820687866211,-4.263409393310547,-0.5757966918945312,-0.05736938343880981,-0.11919014077114619,1.7247769720719157,2.5350401401519775,2019-06-21 12:52:14:115
-9.768791900634765,-4.450154266357422,-1.3179878540039063,-0.12394841069079077,-0.15714018630477533,1.7355627744867363,2.540032148361206,2019-06-21 12:52:14:120
-9.999828826904297,-4.902651458740234,-0.138861572265625,-0.1354000033781315,-0.16366493097546947,1.7495443702096525,2.5450241565704346,2019-06-21 12:52:14:125
-10.895246551513672,-4.549512115478516,0.2178690185546875,-0.08732994570220123,-0.16206703432142192,1.7703170267122705,2.550016164779663,2019-06-21 12:52:14:130
-10.172208709716797,-4.80329360961914,-0.5171396484374999,-0.07121782110722186,-0.13676700396566915,1.786029677143738,2.5550081729888916,2019-06-21 12:52:14:135
-9.598806182861328,-4.332840179443359,-0.8008482055664062,-0.0975831158990063,-0.12012224715267392,1.8018754856297095,2.56000018119812,2019-06-21 12:52:14:140
-9.640704071044922,-4.020401641845703,-0.44890594482421875,-0.119687352946664,-0.17285283673624285,1.8218491938053039,2.5649921894073486,2019-06-21 12:52:14:145
-10.33860317993164,-5.221075408935547,-0.3136356201171875,-0.1186220885106323,-0.15247965439713665,1.8363634217462357,2.569984197616577,2019-06-21 12:52:14:150
-9.665842803955078,-5.652025115966797,-1.000760986328125,-0.11316260827596984,-0.11333118637297188,1.8619297682109963,2.5749762058258057,2019-06-21 12:52:14:155
-10.82581576538086,-6.366683380126953,-1.6184555664062499,-0.13979421917676224,-0.1639312470844774,1.887629272730261,2.579968214035034,2019-06-21 12:52:14:160
-10.282340301513672,-6.483997467041015,-0.45369427490234376,-0.11848893045612834,-0.20427813759917784,1.9274435310269455,2.5849602222442627,2019-06-21 12:52:14:165
-10.190164947509766,-5.315644927978515,0.8978118896484375,-0.05816833176583358,-0.1387643747832286,1.9736493759398204,2.589952230453491,2019-06-21 12:52:14:170
-9.394105072021484,-4.393891387939453,0.574599609375,-0.03446619806412836,-0.14835175470751386,2.002677831821684,2.5949440002441406,2019-06-21 12:52:14:175
-8.850629608154296,-4.26700064086914,-0.6619866333007812,-0.04139041689833438,-0.13729963618368501,2.02371680443331,2.599936008453369,2019-06-21 12:52:14:180
-9.774777313232422,-3.9030875549316404,-0.5087600708007812,-0.020617760395716327,-0.08590062714515571,2.057139476113804,2.605056047439575,2019-06-21 12:52:14:185
-10.409231048583985,-4.053919952392578,0.646424560546875,-0.004505635800736933,-0.0852348368726359,2.0904289897397947,2.6100480556488037,2019-06-21 12:52:14:190
-11.287889617919921,-4.2705918884277345,0.37348974609374996,-0.018620389578156895,-0.07990851469247742,2.1299769319274713,2.6150400638580322,2019-06-21 12:52:14:195
-10.776735382080078,-3.846824676513672,-1.3407324218749999,-0.0483146357325404,-0.060866917059600074,2.1410290504513005,2.6200320720672607,2019-06-21 12:52:14:200
-9.92680679321289,-4.6644320373535155,-1.086950927734375,-0.05097779682261964,-0.10813802224731735,2.1519480109206253,2.6250240802764893,2019-06-21 12:52:14:205
-10.651041717529298,-5.595762237548828,-0.33877435302734377,-0.06535886670904753,-0.14595490972644254,2.183772785947072,2.6300160884857178,2019-06-21 12:52:14:210
-10.540910125732422,-3.4960794982910155,-0.28849688720703126,-0.08932731651976068,-0.10654012559326981,2.2456914144494693,2.6350080966949463,2019-06-21 12:52:14:215
-10.728852081298827,-3.101042266845703,-0.6536070556640625,-0.08306888795807446,-0.11213276388243622,2.276184608930876,2.640000104904175,2019-06-21 12:52:14:220
-9.81188687133789,-4.47649008178711,-1.1839146118164061,0.00614700855958002,-0.15434386716019213,2.2693935481511742,2.6449921131134033,2019-06-21 12:52:14:225
-12.112679473876954,-4.483672576904297,-0.4584826049804687,0.0495565343278716,-0.06459534258571101,2.327317301860398,2.649984121322632,2019-06-21 12:52:14:230
-10.872501983642579,-2.1361937561035154,0.9840018310546875,0.05221969541795084,-0.05367638211638613,2.3587426027233325,2.6549761295318604,2019-06-21 12:52:14:235
-10.10876333618164,-3.0555531311035153,0.08499285888671874,0.033843883896404095,-0.09908327454104794,2.3471578519814877,2.659968137741089,2019-06-21 12:52:14:240
-10.694136688232422,-3.588254852294922,-1.1851116943359374,0.02625387478967827,-0.09961590675906379,2.36167207992242,2.6649601459503174,2019-06-21 12:52:14:245
-13.069148406982421,-2.674880889892578,0.10654034423828125,-0.008100903272343904,-0.06645955534876648,2.4286505813379127,2.669952154159546,2019-06-21 12:52:14:250
-11.15261929321289,-2.176894561767578,1.723798828125,-0.03073777253801743,-0.08390325632759628,2.4435642834423565,2.6749441623687744,2019-06-21 12:52:14:255
-9.854981842041015,-2.1218287658691404,-0.0263358154296875,-0.021416708722740097,-0.10161327757662322,2.449556395895035,2.679936170578003,2019-06-21 12:52:14:260
-12.41793551635742,-2.1601354064941405,-3.107626220703125,-0.02514513424885103,-0.05647270126096934,2.472725897378724,2.685056209564209,2019-06-21 12:52:14:265
-13.132593780517578,-3.1896263732910155,-1.4364990234375,0.0030843733059888953,-0.04488795051912465,2.4928327636088223,2.6900482177734375,2019-06-21 12:52:14:270
-10.657027130126952,-2.4199023132324218,2.421697937011719,0.05861128203414101,-0.12571488544184034,2.4915011830637828,2.695040225982666,2019-06-21 12:52:14:275
-10.516968475341796,-1.8213610534667968,0.37708099365234377,0.044629686311225006,-0.1265138337688641,2.518265952019079,2.7000322341918945,2019-06-21 12:52:14:280
-10.192559112548828,-1.281476837158203,-2.6886473388671877,0.006812798832099828,0.009307377663987848,2.5510228334270537,2.705024003982544,2019-06-21 12:52:14:285
-13.07633090209961,-0.13108053588867188,-2.1104564819335936,0.03038177447930109,-0.0426242635925573,2.561142845569355,2.7100160121917725,2019-06-21 12:52:14:290
-13.617412200927735,-0.11671554565429687,0.8738702392578125,0.07485656468362437,-0.18004337167945678,2.5588791586427875,2.715008020401001,2019-06-21 12:52:14:295
-10.977845245361328,-1.476601287841797,3.5409700927734375,0.055415488726045924,-0.088430630180731,2.5556833653346924,2.7200000286102295,2019-06-21 12:52:14:300
-8.84344711303711,0.5775923156738281,-0.0407008056640625,-0.0038398455282171234,-0.030906354796208645,2.5651375872044735,2.724992036819458,2019-06-21 12:52:14:305
-12.05282534790039,0.5967456359863281,-4.085642639160156,-0.05443990623972265,-0.08030798885598932,2.570463909384632,2.7299840450286865,2019-06-21 12:52:14:310
-11.364502899169922,-1.0887465515136718,-1.8937845458984375,0.03584125471396352,-0.05873638818753669,2.5556833653346924,2.734976053237915,2019-06-21 12:52:14:315
-11.732007232666016,-0.2938837585449219,2.561756591796875,0.08497657682592547,-0.0978848520505123,2.5805839215269333,2.7399680614471436,2019-06-21 12:52:14:320
-13.52763101196289,0.6314610290527344,0.7194465942382813,-0.02727566312091442,-0.15927071517683872,2.581915502071973,2.744960069656372,2019-06-21 12:52:14:325
-12.25393521118164,0.8349650573730468,-1.8399158325195313,-0.022881447322283678,-0.07005481865918424,2.574059176856239,2.7499520778656006,2019-06-21 12:52:14:330
-11.787073028564453,1.4430829772949219,-1.699857177734375,0.10042291114838506,-0.0460863730096603,2.5579470522612597,2.754944086074829,2019-06-21 12:52:14:335
-10.526545135498047,1.0528340759277344,-1.0941334228515625,0.12279346430505064,-0.13743279423818897,2.545297037083383,2.7599360942840576,2019-06-21 12:52:14:340
-9.525784149169922,-0.3633145446777344,1.5538131103515624,0.05674706927108554,-0.0789764083109497,2.539038608521697,2.7650561332702637,2019-06-21 12:52:14:345
-10.064471282958984,1.5077254333496093,1.877025390625,0.006546482723091905,-0.10081432924959945,2.5829807665080047,2.770048141479492,2019-06-21 12:52:14:350
-11.827773834228516,1.016921600341797,-1.393404052734375,-0.07667730134188429,-0.09602063928745681,2.5791191829273896,2.7750401496887207,2019-06-21 12:52:14:355
-10.417610626220704,-0.7978554992675781,-1.230600830078125,-0.025011976194347064,-0.07285113780376745,2.567667590240049,2.780032157897949,2019-06-21 12:52:14:360
-12.41793551635742,1.8740326843261719,-0.3124385375976562,0.00548121828706021,-0.09375695236088946,2.6214634442596494,2.7850241661071777,2019-06-21 12:52:14:365
-12.680096588134765,1.3640755310058594,-1.0929363403320311,-0.08599836515716162,-0.08936273656225872,2.60535131966467,2.7900161743164062,2019-06-21 12:52:14:370
-12.250343963623047,0.09157681274414062,0.32201519775390625,0.010274908249202838,-0.12012224715267392,2.60601710993719,2.7950081825256348,2019-06-21 12:52:14:375
-11.970226654052734,2.1170404357910155,2.3965592041015626,0.1128066102172535,-0.13783226840170085,2.618533967060562,2.8000001907348633,2019-06-21 12:52:14:380
-11.375276641845703,1.7878427429199217,-0.21667193603515625,0.015201756265849428,-0.029574774251169028,2.616137122079491,2.804992198944092,2019-06-21 12:52:14:385
-11.404006622314453,1.7974194030761719,-1.4915648193359374,-0.0005108941656180758,-0.050081114644779164,2.623194498968201,2.8099842071533203,2019-06-21 12:52:14:390
-12.426315093994141,3.5583277893066407,-0.08259869384765625,0.04170020911213785,-0.09415642652440134,2.6287871372573672,2.814976215362549,2019-06-21 12:52:14:395
-12.314986419677734,1.5699737243652343,0.46087677001953126,-0.03007198226549762,-0.07551429889384668,2.62079765398713,2.8199682235717773,2019-06-21 12:52:14:400
-9.929200958251952,2.5036980895996095,1.6986600952148436,-0.03087093059252139,-0.0555405948794416,2.6241266053497285,2.824960231781006,2019-06-21 12:52:14:405
-10.655830047607422,2.606647186279297,-1.881813720703125,-0.08879468430174482,-0.02890898397864922,2.633447669165006,2.8299520015716553,2019-06-21 12:52:14:410
-12.049234100341797,2.679669219970703,-3.2177578125,-0.062296231455456395,-0.06406271036769516,2.6169360704065148,2.834944009780884,2019-06-21 12:52:14:415
-13.052389251708984,3.302152130126953,1.4676231689453125,0.04662705712878444,-0.0555405948794416,2.63358082721951,2.8399360179901123,2019-06-21 12:52:14:420
-12.16654818725586,2.468982696533203,1.0151259765625,0.03517546444144371,-0.09335747819737758,2.6174687026245307,2.8450560569763184,2019-06-21 12:52:14:425
-12.079161163330077,3.614590667724609,-0.7254320068359374,0.009475959922179067,-0.05247795962585047,2.627056082548816,2.850048065185547,2019-06-21 12:52:14:430
-10.362544830322266,2.252310760498047,-1.0594180297851563,0.02625387478967827,-0.01372896576519756,2.633447669165006,2.8550400733947754,2019-06-21 12:52:14:435
-10.925173614501952,3.198005950927734,0.191533203125,0.08724026375249282,-0.08403641438210024,2.6186671251150666,2.860032081604004,2019-06-21 12:52:14:440
-12.409555938720702,4.158066131591797,-0.5829791870117187,0.009475959922179067,-0.0992164325955519,2.6460976843428825,2.8650240898132324,2019-06-21 12:52:14:445
-11.326196258544922,3.751058074951172,-0.04908038330078125,-0.025544608412362915,-0.020919500708411504,2.635578198037069,2.870016098022461,2019-06-21 12:52:14:450
-11.03769937133789,4.785337371826172,1.0306880493164061,0.06713339752239458,-0.07990851469247742,2.6285208211483595,2.8750081062316895,2019-06-21 12:52:14:455
-11.326196258544922,4.498037567138672,-1.4939589843749999,0.018397549573944516,-0.07524798278483875,2.61174290628086,2.880000114440918,2019-06-21 12:52:14:460
-11.425554107666015,4.23827066040039,-1.1432138061523438,0.007212272995611715,-0.007071063039999466,2.5998918394300077,2.8849921226501465,2019-06-21 12:52:14:465
-9.679010711669921,4.318475189208984,1.1480021362304687,0.053817592071998384,-0.09215905570684192,2.6040197391196305,2.889984130859375,2019-06-21 12:52:14:470
-10.38528939819336,3.6313498229980468,-0.33398602294921875,0.013337543502793961,-0.07484850862132687,2.580450763472429,2.8949761390686035,2019-06-21 12:52:14:475
-10.95150942993164,4.417833038330078,-1.2317979125976561,0.007878063268131523,-0.009201591912062856,2.585111295380068,2.899968147277832,2019-06-21 12:52:14:480
-11.844532989501953,5.278535369873047,-0.4393292846679687,0.01666649486539301,-0.07191903142223971,2.598027626666952,2.9049601554870605,2019-06-21 12:52:14:485
-11.854109649658202,5.679558013916015,-0.50756298828125,0.020394920391503944,-0.11679329579007487,2.573393386583719,2.909952163696289,2019-06-21 12:52:14:490
-10.311070281982422,5.711879241943359,-1.10131591796875,0.02212597510005545,-0.07777798582041404,2.564471796931954,2.9149441719055176,2019-06-21 12:52:14:495
-8.11562094116211,4.523176300048828,0.35792767333984377,0.02518861035364657,-0.07191903142223971,2.5434328243203277,2.919936180114746,2019-06-21 12:52:14:500
-10.005814239501953,4.836811920166015,1.0091405639648436,0.030248616424797127,-0.11732592800809072,2.545297037083383,2.925056219100952,2019-06-21 12:52:14:505
-11.044881866455079,6.128463958740234,-1.1563817138671875,-0.025544608412362915,-0.06446218453120706,2.525589645016797,2.9300482273101807,2019-06-21 12:52:14:510
-12.23478189086914,7.181896575927734,-0.41538763427734376,-0.025544608412362915,-0.02185160708993924,2.5201301647821346,2.93503999710083,2019-06-21 12:52:14:515
-11.298663360595702,6.995151702880859,-0.32800061035156247,-0.021150392613732173,-0.11586118940854714,2.5020206693695957,2.9400320053100586,2019-06-21 12:52:14:520
-11.13466305541992,6.600114471435547,-0.8020452880859374,-0.02581092452137084,-0.07711219554789422,2.4745901101417798,2.945024013519287,2019-06-21 12:52:14:525
-8.560935638427734,6.331967987060547,-0.5231250610351562,-0.009831957980895409,-0.056872175424481225,2.4563474566747368,2.9500160217285156,2019-06-21 12:52:14:530
-8.242511688232423,5.022359710693359,-0.02035040283203125,-0.005570900236768627,-0.09428958457890531,2.4299821618829522,2.955008029937744,2019-06-21 12:52:14:535
-7.902540252685546,5.15763003540039,0.29807354736328123,-0.008899851599367676,-0.11759224411709865,2.4295826877194404,2.9600000381469727,2019-06-21 12:52:14:540
-10.658224212646484,6.7377789611816405,0.7601473999023437,-0.04964621627758002,-0.03290372561376808,2.41613372421454,2.964992046356201,2019-06-21 12:52:14:545
-12.067190338134765,8.225752532958984,0.06703662109375,-0.05350779985819491,-0.07205218947674367,2.420794256122179,2.9699840545654297,2019-06-21 12:52:14:550
-10.96108609008789,7.853459869384765,-0.81401611328125,-0.06096465091041678,-0.04795058577271578,2.39629317409345,2.974976062774658,2019-06-21 12:52:14:555
-7.994715606689453,5.418594024658203,-2.002719055175781,-0.050711480713611715,-0.03743109946690278,2.3551473352517256,2.9799680709838867,2019-06-21 12:52:14:560
-8.085693878173828,6.345135894775391,-0.1532265625,-0.008234061326847866,-0.09482221679692115,2.3572778641237893,2.9849600791931152,2019-06-21 12:52:14:565
-9.46712710571289,7.017896270751953,1.144410888671875,-0.05350779985819491,-0.08829747212622703,2.3397010009292663,2.9899520874023438,2019-06-21 12:52:14:570
-10.99819564819336,8.343066619873047,0.64163623046875,-0.0416567330073423,-0.05514112071592972,2.3313120434955166,2.9949440956115723,2019-06-21 12:52:14:575
-9.673025299072265,7.519473846435547,-0.4381322021484375,-0.06975308250767827,-0.06446218453120706,2.305346222867244,2.999936103820801,2019-06-21 12:52:14:580
-8.053372650146484,5.290506195068359,1.2724987182617187,-0.06535886670904753,-0.05753796569700103,2.2887014660542486,3.005056142807007,2019-06-21 12:52:14:585
-7.359064788818359,6.349924224853515,1.0797684326171875,-0.019153021796172745,-0.07391640223979914,2.285239356637146,3.0100481510162354,2019-06-21 12:52:14:590
-9.659857391357422,7.579327972412109,-1.891390380859375,-0.027941453393434228,0.01223685486307501,2.2728556575682775,3.015040159225464,2019-06-21 12:52:14:595
-9.669434051513672,8.983505767822265,-3.442809326171875,0.001486476651941353,-0.021185816817419427,2.2516835269021476,3.0200321674346924,2019-06-21 12:52:14:600
-9.468324188232423,8.139562591552734,-2.2205880737304686,-0.04178989106184627,-0.09455590068791322,2.2290465244784192,3.025024175643921,2019-06-21 12:52:14:605
-8.809928802490234,7.156757843017578,0.75655615234375,-0.09385469037289537,-0.16646125012005267,2.2046786005041943,3.0300161838531494,2019-06-21 12:52:14:610
-7.499123443603516,6.829954315185547,3.367393127441406,-0.026210398684882726,-0.15527597354171987,2.2010833330325874,3.035008192062378,2019-06-21 12:52:14:615
-8.677052642822266,7.0298670959472656,1.2808782958984375,-0.01276143517998257,-0.018655813781844152,2.1871017373096713,3.0400002002716064,2019-06-21 12:52:14:620
-8.510658172607421,8.218570037841797,-2.09728857421875,-0.08373467823059426,-0.0049405341679360755,2.1871017373096713,3.044992208480835,2019-06-21 12:52:14:625
-7.272874847412109,6.4600558166503905,-3.297962341308594,-0.2045090336656877,-0.05301059184386632,2.1867022631461595,3.0499842166900635,2019-06-21 12:52:14:630
-6.768903106689453,4.817658599853515,-0.89062939453125,-0.17707847443787156,-0.04249110553805334,2.1716554029872115,3.054976224899292,2019-06-21 12:52:14:635
-9.791536468505859,6.062624420166015,2.6228078002929687,-0.0650925506000396,-0.015992652691764912,2.2036133360681625,3.0599682331085205,2019-06-21 12:52:14:640
-11.160998870849609,7.865430694580078,-0.84274609375,-0.1528437085181505,0.010905274318035391,2.2373024570157196,3.06496000289917,2019-06-21 12:52:14:645
-11.435130767822265,6.888611358642578,-1.9835657348632811,-0.22128694853318692,0.015299490116666134,2.267396177333615,3.0699520111083984,2019-06-21 12:52:14:650
-7.664320831298828,4.849979827880859,0.22505151367187498,-0.10171101558862912,-0.08416957243660421,2.260205642390401,3.074944019317627,2019-06-21 12:52:14:655
-8.434044891357422,1.7615069274902344,2.1367922973632814,-0.02927303393847385,-0.11466276691801149,2.3025499037226607,3.0799360275268555,2019-06-21 12:52:14:660
-9.365375091552734,4.494446319580078,3.233319885253906,-0.017555125142125202,-0.05540743682493764,2.367797350429602,3.0850560665130615,2019-06-21 12:52:14:665
-12.765089447021484,8.704585540771484,1.5909226684570312,-0.05723622538430585,-0.04275742164706126,2.4420995448428124,3.09004807472229,2019-06-21 12:52:14:670
-11.533291534423828,9.390513824462891,-0.07781036376953125,0.02359071369959903,-0.07365008613079121,2.461141146636879,3.0950400829315186,2019-06-21 12:52:14:675
-8.619592681884765,7.863036529541016,1.3108053588867188,0.11027660718167823,-0.059269020405552535,2.4848432803385845,3.100032091140747,2019-06-21 12:52:14:680
-7.81874447631836,8.952381622314453,-0.7146582641601562,-0.00011142000210619013,-0.07564745694835065,2.4988248760615006,3.1050240993499756,2019-06-21 12:52:14:685
-8.978717437744141,9.305520965576171,-2.0793323364257814,-0.06655728919958318,-0.06526113285823082,2.501354879097076,3.110016107559204,2019-06-21 12:52:14:690
-7.402159759521484,8.04858432006836,-0.03950372314453125,0.03490914833243579,-0.0873653657446993,2.4928327636088223,3.1150081157684326,2019-06-21 12:52:14:695
-6.876640533447265,6.128463958740234,1.3407324218749999,0.04170020911213785,-0.10773854808380547,2.5057490948957066,3.120000123977661,2019-06-21 12:52:14:700
-6.280493438720703,5.912989105224609,-0.49200091552734376,-0.011696170743950877,-0.0544753304434099,2.497226979407453,3.1249921321868896,2019-06-21 12:52:14:705
-8.003095184326172,7.384203521728516,-0.8618994140625,0.05221969541795084,-0.05873638818753669,2.5414354535027686,3.129984140396118,2019-06-21 12:52:14:710
-10.619917572021484,10.00222299194336,0.7122640991210938,0.07632130328316794,-0.0583369140240248,2.5558165233891965,3.1349761486053467,2019-06-21 12:52:14:715
-10.360150665283204,10.29071987915039,0.10175201416015625,0.009475959922179067,-0.05873638818753669,2.5701975932756245,3.139968156814575,2019-06-21 12:52:14:720
-8.90090707397461,8.726133026123046,-0.40461389160156247,-0.012894593234486532,-0.06539429091273478,2.598693416939472,3.1449601650238037,2019-06-21 12:52:14:725
-6.865866790771484,6.464844146728516,-0.11132867431640625,0.016400178756385088,-0.10547486115723811,2.625591343949272,3.1499521732330322,2019-06-21 12:52:14:730
-6.900582183837891,6.254157623291015,0.4716505126953125,0.07232656164804908,-0.13783226840170085,2.646896632669906,3.1549441814422607,2019-06-21 12:52:14:735
-6.767706024169922,8.812322967529298,0.9085856323242187,0.07046234888499361,-0.12291856629725711,2.6658050764094687,3.1599361896514893,2019-06-21 12:52:14:740
-7.834306549072266,8.162307159423827,-0.5937529296874999,-0.0018424747106576948,-0.07045429282269612,2.6921703712012532,3.1650562286376953,2019-06-21 12:52:14:745
-6.792844757080078,8.222161285400391,-0.9935784912109374,0.038104941640530875,-0.05940217846005649,2.6992277480899634,3.1700479984283447,2019-06-21 12:52:14:750
-7.882189849853515,5.916580352783203,-1.0330822143554688,0.02572124257166242,-0.06020112678708026,2.73877569027764,3.1750400066375732,2019-06-21 12:52:14:755
-9.644295318603515,9.362980926513671,0.6643807983398438,0.03530862249594768,-0.09934959065005587,2.7887099607166257,3.1800320148468018,2019-06-21 12:52:14:760
-9.852587677001953,11.26753921508789,1.259330810546875,0.015201756265849428,-0.0796421985834695,2.835714753956524,3.1850240230560303,2019-06-21 12:52:14:765
-8.370599517822265,9.16067398071289,-0.6967020263671875,0.02851756171624562,-0.058869546242040646,2.8536910913145594,3.190016031265259,2019-06-21 12:52:14:770
-7.343502716064453,8.180263397216796,-1.0163230590820311,0.03131388086082882,-0.1314406817855107,2.896301668755827,3.1950080394744873,2019-06-21 12:52:14:775
-6.365486297607422,8.723738861083984,0.684731201171875,-0.022082498995259905,-0.15953703128584665,2.931455395144873,3.200000047683716,2019-06-21 12:52:14:780
-6.918538421630859,9.809492706298828,2.1475660400390626,0.037971783586026917,-0.14102806170979595,2.9779275561667555,3.2049920558929443,2019-06-21 12:52:14:785
-5.884259124755859,6.7952389221191405,0.3890518188476562,0.08404447044439774,-0.08922957850775476,2.951162787211459,3.209984064102173,2019-06-21 12:52:14:790
-5.754974212646484,6.4456908264160155,-0.6212858276367187,0.07432393246560852,-0.07737851165690214,2.998433896560366,3.2149760723114014,2019-06-21 12:52:14:795
-6.2254276428222655,8.101255950927735,-1.6735213623046874,-0.027941453393434228,-0.03809688973942259,3.0454386898002643,3.21996808052063,2019-06-21 12:52:14:800
-7.375823944091796,10.135099151611328,0.6057237548828125,0.053817592071998384,-0.05820375596952084,3.078195571208239,3.2249600887298584,2019-06-21 12:52:14:805
-7.144787017822265,10.767158721923828,1.996733642578125,0.10801292025511088,-0.12678014987787203,3.102563495182464,3.229952096939087,2019-06-21 12:52:14:810
-7.574539642333984,9.611974090576172,-0.30884729003906247,0.003883321633012667,-0.08057430496499723,3.1212056228130183,3.2349441051483154,2019-06-21 12:52:14:815
-6.079383575439453,10.165026214599608,-1.52268896484375,0.03850441580404276,-0.130375417349479,3.1668788355078776,3.239936113357544,2019-06-21 12:52:14:820
-5.344374908447265,6.704260650634765,-1.0642063598632812,0.09389816647769092,-0.11266539610045206,3.1840562245388884,3.24505615234375,2019-06-21 12:52:14:825
-3.9461825256347653,8.305957061767577,0.574599609375,0.08883816040654037,-0.11506224108152338,3.2395831332670406,3.2500481605529785,2019-06-21 12:52:14:830
-6.128463958740234,10.368530242919922,0.7888773803710938,-0.054573064294226606,-0.062065339550135726,3.308026373282077,3.255040168762207,2019-06-21 12:52:14:835
-6.537866180419922,10.944326934814454,-0.349548095703125,-0.02993882421099366,-0.04102636693850975,3.2991047836303116,3.2600321769714355,2019-06-21 12:52:14:840
-7.223794464111328,12.868038543701172,-0.13766448974609374,0.10281975612945637,-0.11053486722838865,3.3265353428581275,3.265024185180664,2019-06-21 12:52:14:845
-5.471265655517578,11.755948883056641,-1.5478276977539063,0.012938069339282076,-0.13570173952963746,3.3462427349247146,3.2700161933898926,2019-06-21 12:52:14:850
-3.7594376525878905,8.479534027099609,0.17597113037109374,-0.021949340940755943,-0.11745908606259468,3.382195409640784,3.275008201599121,2019-06-21 12:52:14:855
-3.822883026123047,8.70099429321289,0.081401611328125,0.018930181791960363,-0.16659440817455662,3.3859238351668948,3.2800002098083496,2019-06-21 12:52:14:860
-4.958914337158203,7.7876203308105465,2.282836364746094,0.03584125471396352,-0.11186644777342829,3.469014461177367,3.284992218017578,2019-06-21 12:52:14:865
-3.030414398193359,6.577369903564453,-0.20709527587890625,-0.028340927556946113,0.06283691557458054,3.4518370721463563,3.2899842262268066,2019-06-21 12:52:14:870
-1.9602226257324218,11.218458831787109,-3.2405023803710935,-0.01063090630791918,-0.06020112678708026,3.4843276374453227,3.294976234436035,2019-06-21 12:52:14:875
-6.224230560302734,15.208334869384766,-0.5207308959960938,-0.017688283196629163,-0.19522338989290844,3.5085624033650435,3.2999680042266846,2019-06-21 12:52:14:880
-2.759873748779297,9.70654360961914,1.1527904663085937,0.07086182304850551,-0.18230705860602414,3.459560239307586,3.304960012435913,2019-06-21 12:52:14:885
-3.059144378662109,10.698925018310547,2.572530334472656,0.15049033964187472,-0.03942847028446221,3.545580342517145,3.3099520206451416,2019-06-21 12:52:14:890
-3.1561080627441407,9.888500152587891,-1.2198270874023438,-0.16576003980503481,0.012103696808571048,3.548243503607224,3.31494402885437,2019-06-21 12:52:14:895
-2.239142852783203,8.918863311767577,-0.8235927734374999,-0.15990108540686046,-0.07404956029430311,3.5800682786336715,3.3199360370635986,2019-06-21 12:52:14:900
-3.4996707458496092,10.660618377685546,0.9660455932617187,0.08630815737096509,-0.018655813781844152,3.590055132721468,3.3250560760498047,2019-06-21 12:52:14:905
0.005386871337890625,10.59717300415039,-0.0694307861328125,0.11240713605374161,-0.058470072078528765,3.576606169216568,3.330048084259033,2019-06-21 12:52:14:910
-2.721567108154297,9.434805877685546,-0.215474853515625,-0.05124411293162756,-0.11213276388243622,3.560627202676093,3.3350400924682617,2019-06-21 12:52:14:915
-0.43035116577148436,12.622636627197265,-0.36750433349609374,-0.07161729527073374,-0.14235964225483558,3.5722119534179373,3.3400321006774902,2019-06-21 12:52:14:920
-2.636574249267578,9.335448028564453,1.3347470092773437,0.017731759301424708,-0.030906354796208645,3.5798019625246633,3.3450241088867188,2019-06-21 12:52:14:925
-2.2954057312011718,6.857487213134766,0.6308624877929687,0.09762659200380185,-0.1209211954796977,3.5646219443112113,3.3500161170959473,2019-06-21 12:52:14:930
-1.9171276550292968,10.01299673461914,-1.0546296997070312,-0.031536720865041196,-0.060067968732576305,3.644117302850077,3.355008125305176,2019-06-21 12:52:14:935
-1.3688638610839843,10.24163949584961,-0.0550657958984375,-0.1507131796460871,-0.0135958077106936,3.6310678135086882,3.3600001335144043,2019-06-21 12:52:14:940
0.06763516235351562,13.72874087524414,2.6048515625,0.06114128506971629,-0.24688871504044563,3.6541041569378745,3.364992141723633,2019-06-21 12:52:14:945
-3.163290557861328,10.719275421142578,0.6787457885742187,0.05781233370711724,-0.16965704342814775,3.635861503470831,3.3699841499328613,2019-06-21 12:52:14:950
-0.4016211853027344,7.3506852111816405,-1.48438232421875,-0.013427225452502382,-0.07311745391277537,3.647046780049164,3.37497615814209,2019-06-21 12:52:14:955
-0.5823806457519531,8.005489349365234,0.16160614013671876,-0.10450733473321233,-0.06872324227533383,3.7490458497991987,3.3799681663513184,2019-06-21 12:52:14:960
-0.17297842407226563,9.395302154541016,-0.0957666015625,-0.08946047457426463,-0.14555543556293066,3.698845263251205,3.384960174560547,2019-06-21 12:52:14:965
-1.3209805603027343,10.623508819580078,0.4022197265625,0.12572294150413782,-0.2104034081063601,3.7084326431754904,3.3899521827697754,2019-06-21 12:52:14:970
0.043693511962890626,12.469410064697266,0.1077374267578125,0.038903889967554645,-0.10427643866670246,3.759299019996004,3.394944190979004,2019-06-21 12:52:14:975
2.1493616638183592,13.051192169189452,-0.42496429443359374,-0.15537371155372576,-0.06925587449334968,3.7747453543184633,3.3999361991882324,2019-06-21 12:52:14:980
-0.6158989562988281,11.159801788330078,2.1379893798828125,-0.025411450357858953,-0.22837974546439493,3.7684869257567772,3.4050559997558594,2019-06-21 12:52:14:985
-0.47344613647460937,8.125197601318359,1.59930224609375,0.04529547658374482,-0.20321287316314615,3.7719490351738805,3.410048007965088,2019-06-21 12:52:14:990
1.4909662780761719,8.198219635009766,-0.25976690673828123,-0.06362781200049603,-0.03383583199529581,3.826277521411497,3.4150400161743164,2019-06-21 12:52:14:995
1.2970389099121094,8.368205352783203,-1.8566749877929687,-0.12581262345384622,-0.15807229268630307,3.7971159074751295,3.420032024383545,2019-06-21 12:52:15:000
1.2719001770019531,9.406075897216796,-0.2130806884765625,0.01320438544829,-0.24569029254991,3.8229485700488977,3.4250240325927734,2019-06-21 12:52:15:005
0.7188480529785156,9.201374786376952,2.629990295410156,0.08444394460790962,-0.10614065142975791,3.8252122569754654,3.430016040802002,2019-06-21 12:52:15:010
5.297688690185547,11.494984893798827,-0.7002932739257812,0.008677011595155295,-0.11932329882565015,3.8308048952646314,3.4350080490112305,2019-06-21 12:52:15:015
1.3616813659667968,12.104299896240233,-1.7154192504882813,-0.04751568740551663,-0.1299759431859671,3.8375959560443333,3.440000057220459,2019-06-21 12:52:15:020
3.9892774963378907,9.705346527099609,0.5542492065429687,0.0495565343278716,-0.20467761176268973,3.813228032070109,3.4449920654296875,2019-06-21 12:52:15:025
1.018118682861328,8.812322967529298,2.0434198608398435,0.06620129114086684,-0.12345119851527296,3.835199111063262,3.449984073638916,2019-06-21 12:52:15:030
3.4242545471191406,8.856615020751953,-1.048644287109375,-0.03233566919206497,-0.14528911945392273,3.8174890898142357,3.4549760818481445,2019-06-21 12:52:15:035
2.0248650817871092,9.578455780029296,0.9516806030273437,0.00015489610690173368,-0.130375417349479,3.856903873947408,3.459968090057373,2019-06-21 12:52:15:040
4.644081634521484,9.981872589111328,2.725756896972656,0.024123345917614877,-0.17578231393533,3.8238806764304254,3.4649600982666016,2019-06-21 12:52:15:045
3.2147651062011717,8.763242584228516,0.5482637939453124,0.019063339846464324,-0.1848370616415994,3.825345415029969,3.46995210647583,2019-06-21 12:52:15:050
3.0208377380371094,7.734948699951172,-1.7944266967773437,0.01533491432035339,-0.1729859947907468,3.7929880077855063,3.4749441146850586,2019-06-21 12:52:15:055
2.6329830017089844,7.439269317626953,-0.3818693237304687,0.015734388483865276,-0.15421070910568815,3.8301391049921114,3.479936122894287,2019-06-21 12:52:15:060
3.277013397216797,7.142392852783203,1.7561200561523438,0.03637388693197938,-0.19642181238344408,3.8166901414872116,3.485056161880493,2019-06-21 12:52:15:065
3.7893647155761716,10.718078338623046,0.3567305908203125,0.03118072280632486,-0.18230705860602414,3.8063038132359024,3.4900481700897217,2019-06-21 12:52:15:070
4.9565201721191405,9.500645416259765,-1.7178134155273437,-0.03473251417313628,-0.16979020148265173,3.817888563977747,3.49504017829895,2019-06-21 12:52:15:075
3.5679044494628904,8.305957061767577,-0.38665765380859374,0.025854400626166382,-0.19655497043794806,3.826943311684017,3.5000321865081787,2019-06-21 12:52:15:080
4.713512420654297,10.081230438232422,0.6296654052734375,-0.010497748253415219,-0.1992181315280273,3.83613121744479,3.5050241947174072,2019-06-21 12:52:15:085
5.391061126708984,6.510333282470703,1.5059298095703124,-0.1035752283516846,-0.15567544770523176,3.829606472774096,3.5100162029266357,2019-06-21 12:52:15:090
2.909509063720703,6.373865875244141,-0.2549785766601562,-0.031536720865041196,-0.21506394001399876,3.790058530586419,3.5150082111358643,2019-06-21 12:52:15:095
4.162854461669922,6.13444937133789,-1.76210546875,0.02132702677303168,-0.2592724141093141,3.8039069682548314,3.5200002193450928,2019-06-21 12:52:15:100
4.597395416259766,8.113226776123046,1.584937255859375,-0.006902480781808247,-0.09974906481356775,3.8285412083380645,3.5249922275543213,2019-06-21 12:52:15:105
9.561696624755859,10.501406402587891,1.17792919921875,-0.0577688576023217,-0.19975076374604314,3.8140269803971325,3.5299839973449707,2019-06-21 12:52:15:110
5.149250457763672,7.804379486083985,-0.46087677001953126,-0.011163538525935027,-0.21186814670590368,3.804439600472847,3.534976005554199,2019-06-21 12:52:15:115
6.233807220458984,5.285717864990234,-1.5454335327148436,0.04356442187519331,-0.12531541127832843,3.784332734242749,3.5399680137634277,2019-06-21 12:52:15:120
2.5096835021972654,3.4134808044433593,-1.0115347290039063,-0.048048319623532475,-0.09801801010501625,3.797249065529633,3.5449600219726562,2019-06-21 12:52:15:125
4.719497833251953,5.839967071533203,1.3431265869140625,-0.0728157177612694,-0.2512829308390764,3.7754111445909833,3.5499520301818848,2019-06-21 12:52:15:130
6.103325225830078,8.00189810180664,0.7936657104492187,-0.00996511603539937,-0.13956332311025235,3.7647585002306667,3.5549440383911133,2019-06-21 12:52:15:135
7.558977569580078,6.77608560180664,0.24540191650390625,0.07525603884713625,-0.16259966653943778,3.7443853178915605,3.559936046600342,2019-06-21 12:52:15:140
6.190712249755859,7.3794151916503905,-0.12569366455078124,-0.028340927556946113,-0.18230705860602414,3.749578482017215,3.565056085586548,2019-06-21 12:52:15:145
7.021487518310547,5.106155487060547,-0.24300775146484374,-0.2021121886846164,-0.14915070303453762,3.73865952154789,3.5700480937957764,2019-06-21 12:52:15:150
4.249044403076172,5.85672622680664,-1.4640319213867188,-0.11396155660299362,-0.23490449013508907,3.696048944106622,3.575040102005005,2019-06-21 12:52:15:155
8.503475677490234,6.966421722412109,-0.50756298828125,0.016400178756385088,-0.20268024094513032,3.7288058255145966,3.5800321102142334,2019-06-21 12:52:15:160
7.220203216552735,3.7977442932128906,2.341493408203125,-0.0025082649831775043,-0.0617990234411278,3.728140035242077,3.585024118423462,2019-06-21 12:52:15:165
7.405751007080078,5.765747955322266,1.4329077758789062,-0.048048319623532475,-0.25181556305709224,3.67714050036706,3.5900161266326904,2019-06-21 12:52:15:170
10.221289093017578,7.323152313232422,-0.3818693237304687,-0.1070373377687876,-0.13117436567650276,3.7013752662867807,3.595008134841919,2019-06-21 12:52:15:175
6.308026336669922,2.497712677001953,-0.24300775146484374,-0.041523574952838344,-0.07245166364025556,3.6554357374829136,3.6000001430511475,2019-06-21 12:52:15:180
4.541132537841797,3.2722250671386717,1.413754455566406,0.10588239138304749,-0.27551769675879745,3.626939913819066,3.604992151260376,2019-06-21 12:52:15:185
0.6889209899902343,3.449393280029297,2.1715076904296873,-0.013294067397998417,-0.09815116815952021,3.638258348451903,3.6099841594696045,2019-06-21 12:52:15:190
9.652674896240233,3.219553436279297,0.03950372314453125,-0.09611837729946272,-0.11905698271664222,3.6145562147501975,3.614976167678833,2019-06-21 12:52:15:195
10.697727935791015,6.501953704833984,-3.5888533935546874,-0.02820776950244215,-0.12691330793237598,3.6008409351362896,3.6199681758880615,2019-06-21 12:52:15:200
10.817436187744141,4.375935150146485,-2.5557711791992186,-0.058301489820337546,-0.19828602514649954,3.555700354659446,3.62496018409729,2019-06-21 12:52:15:205
7.430889739990234,2.178091644287109,0.90978271484375,-0.10171101558862912,-0.22771395519187515,3.5092281936375636,3.6299521923065186,2019-06-21 12:52:15:210
8.982308685302733,3.038793975830078,2.2636830444335936,-0.10450733473321233,-0.12172014380672146,3.503768713402901,3.634944200515747,2019-06-21 12:52:15:215
7.324349395751953,0.38725619506835934,-1.2581337280273437,-0.15191160213662278,-0.06246481371364762,3.460226029580106,3.6399362087249756,2019-06-21 12:52:15:220
6.966421722412109,0.9020016784667969,-2.83469140625,-0.0756120369058526,-0.2337060676445534,3.404166488633938,3.6450560092926025,2019-06-21 12:52:15:225
2.652136322021484,3.0543560485839842,-0.3519422607421875,0.010008592140194915,-0.0684569261663259,3.4120228138496715,3.650048017501831,2019-06-21 12:52:15:230
5.103761322021485,1.5149079284667968,3.4882984619140625,0.12425820290459423,-0.023050029580474894,3.4365238958784006,3.6550400257110596,2019-06-21 12:52:15:235
5.039118865966797,6.014741119384765,0.4201759643554687,0.12652188983116158,-0.1299759431859671,3.4086938624870724,3.660032033920288,2019-06-21 12:52:15:240
9.588032440185547,7.658335418701172,-2.0541936035156247,-0.09465363869991915,-0.11692645384457884,3.4567639201630027,3.6650240421295166,2019-06-21 12:52:15:245
