ACCELEROMETER X (m/s²),ACCELEROMETER Y (m/s²),ACCELEROMETER Z (m/s²),GYROSCOPE X (rad/s),GYROSCOPE Y (rad/s),GYROSCOPE Z (rad/s),Time since start in ms ,YYYY-MO-DD HH-MI-SS_SSS
-7.898949005126953,7.956408966064453,-0.13527032470703124,0.028917035879757504,-0.011731594947638133,-0.13837046829087066,0.0,2019-06-21 12:50:30:366
-7.901343170166015,7.957606048583984,-0.14843823242187498,0.02851756171624562,-0.011864753002142094,-0.13876994245438254,0.004992008209228516,2019-06-21 12:50:30:371
-7.8905694274902345,7.960000213623046,-0.12808782958984374,0.02785177144372581,-0.01146527883863021,-0.13890310050888652,0.009984016418457031,2019-06-21 12:50:30:376
-7.892963592529297,7.958803131103515,-0.13287615966796876,0.02771861338922185,-0.009734224130078704,-0.1398351985680358,0.014976024627685547,2019-06-21 12:50:30:381
-7.909722747802734,7.937255645751953,-0.100554931640625,0.027185981171206002,-0.009467908021070781,-0.13970204051353186,0.019968032836914062,2019-06-21 12:50:30:386
-7.907328582763672,7.914511077880859,-0.1723798828125,0.026120716735174306,-0.009734224130078704,-0.14010151467704374,0.024960041046142578,2019-06-21 12:50:30:391
-7.912116912841797,7.926481903076172,-0.1508323974609375,0.02359071369959903,-0.007470537203511351,-0.14050098884055562,0.03007984161376953,2019-06-21 12:50:30:396
-7.920496490478516,7.943241058349609,-0.090978271484375,0.02518861035364657,-0.007603695258015315,-0.1395688907814063,0.03494405746459961,2019-06-21 12:50:30:401
-7.946832305908203,7.94443814086914,-0.13527032470703124,0.024123345917614877,-0.0073373791490073895,-0.14036783078605167,0.039936065673828125,2019-06-21 12:50:30:406
-7.922890655517578,7.928876068115234,-0.12808782958984374,0.023058081481583184,-0.005340008331447961,-0.14036783078605167,0.04492783546447754,2019-06-21 12:50:30:411
-7.940846893310547,7.916905242919921,-0.14364990234375,0.02146018482753564,-0.004274743895416266,-0.14023467273154772,0.049919843673706055,2019-06-21 12:50:30:416
-7.937255645751953,7.910919830322266,-0.14963531494140625,0.02092755260951979,-0.004141585840912305,-0.14076730494956355,0.05491185188293457,2019-06-21 12:50:30:421
-7.958803131103515,7.910919830322266,-0.15202947998046876,0.020261762336999983,-0.0028100052958726857,-0.13970204051353186,0.060031890869140625,2019-06-21 12:50:30:426
-7.970773956298828,7.900146087646484,-0.1508323974609375,0.02012860428249602,-0.003076321404880609,-0.13890310050888652,0.06502389907836914,2019-06-21 12:50:30:431
-7.9779564514160155,7.909722747802734,-0.1556207275390625,0.01932965595547225,-0.001877898914344952,-0.13916941661789442,0.07001590728759766,2019-06-21 12:50:30:436
-7.976759368896484,7.903737335205078,-0.14843823242187498,0.018530707628448478,-0.003076321404880609,-0.13916941661789442,0.07500791549682617,2019-06-21 12:50:30:441
-7.983941864013672,7.891766510009766,-0.1891390380859375,0.017598601246920746,-0.003076321404880609,-0.13837046829087066,0.07999992370605469,2019-06-21 12:50:30:446
-8.016263092041015,7.898949005126953,-0.18554779052734374,0.01666649486539301,-0.0016115828053370283,-0.1382373102363667,0.0849919319152832,2019-06-21 12:50:30:451
-8.02943099975586,7.883386932373047,-0.1460440673828125,0.016000704592873203,-0.0017447408598409903,-0.13837046829087066,0.08998394012451172,2019-06-21 12:50:30:456
-8.05935806274414,7.8606423645019525,-0.1364674072265625,0.016000704592873203,-0.0021442150233528757,-0.13690572969132705,0.09497594833374023,2019-06-21 12:50:30:461
-8.044993072509765,7.8163503112792965,-0.18794195556640625,0.016133862647377165,-0.0017447408598409903,-0.13490835887376765,0.09996795654296875,2019-06-21 12:50:30:466
-8.02943099975586,7.823532806396484,-0.158014892578125,0.01666649486539301,-0.0012121086418251424,-0.13410941054674386,0.10495996475219727,2019-06-21 12:50:30:471
-8.072525970458985,7.823532806396484,-0.11851116943359374,0.016400178756385088,-0.0002800022602974092,-0.13410941054674386,0.10995197296142578,2019-06-21 12:50:30:476
-8.070131805419921,7.824729888916015,-0.1651973876953125,0.016133862647377165,-0.0010789505873211806,-0.1322451977836884,0.1149439811706543,2019-06-21 12:50:30:481
-8.04858432006836,7.81036489868164,-0.12808782958984374,0.014935440156841505,-0.0017447408598409903,-0.12998151085712106,0.11993598937988281,2019-06-21 12:50:30:486
-8.066540557861329,7.798394073486328,-0.100554931640625,0.01533491432035339,-0.0017447408598409903,-0.12785098198505768,0.12492799758911133,2019-06-21 12:50:30:491
-8.070131805419921,7.80078823852539,-0.11851116943359374,0.01666649486539301,-0.0032094794593845715,-0.12745150782154577,0.12992000579833984,2019-06-21 12:50:30:496
-8.06893472290039,7.799591156005859,-0.12210241699218749,0.017065969028904896,-0.0014784247508330662,-0.12518782089497843,0.13491201400756836,2019-06-21 12:50:30:501
-8.080905548095703,7.791211578369141,-0.10534326171875,0.017731759301424708,-0.0026768472413687236,-0.12305729202291502,0.14003205299377441,2019-06-21 12:50:30:506
-8.108438446044921,7.78163491821289,-0.110131591796875,0.018930181791960363,-0.003076321404880609,-0.1217257114778754,0.14502406120300293,2019-06-21 12:50:30:511
-8.109635528564453,7.780437835693359,-0.13287615966796876,0.019196497900968286,-0.004141585840912305,-0.12012781482382787,0.15001583099365234,2019-06-21 12:50:30:516
-8.120409271240234,7.760087432861328,-0.13527032470703124,0.019063339846464324,-0.00587264054946381,-0.1171983376247407,0.15500783920288086,2019-06-21 12:50:30:521
-8.110832611083984,7.788817413330078,-0.11372283935546874,0.01999544622799206,-0.005473166385951924,-0.11493465069817335,0.15999984741210938,2019-06-21 12:50:30:526
-8.137168426513671,7.766072845458984,-0.1340732421875,0.020394920391503944,-0.005073692222440038,-0.11333675404412581,0.1649918556213379,2019-06-21 12:50:30:531
-8.135971343994141,7.754102020263672,-0.12808782958984374,0.02012860428249602,-0.006005798603967771,-0.11040727684503866,0.1699838638305664,2019-06-21 12:50:30:536
-8.14435092163086,7.738539947509765,-0.158014892578125,0.02079439455501583,-0.007071063039999466,-0.10747779964595149,0.17497587203979492,2019-06-21 12:50:30:541
-8.143153839111328,7.750510772705078,-0.1508323974609375,0.021593342882039603,-0.0080031694215272,-0.10548042882839205,0.17996788024902344,2019-06-21 12:50:30:546
-8.167095489501953,7.734948699951172,-0.16878863525390625,0.021060710664023756,-0.00933474996656682,-0.10308358384732075,0.18495988845825195,2019-06-21 12:50:30:551
-8.133577178955077,7.720583709716797,-0.19033612060546876,0.021859658991047526,-0.009734224130078704,-0.09935515832120981,0.18995189666748047,2019-06-21 12:50:30:556
-8.168292572021484,7.713401214599609,-0.19991278076171876,0.024123345917614877,-0.011598436893134171,-0.09589304890410681,0.19494390487670898,2019-06-21 12:50:30:561
-8.161110076904297,7.703824554443359,-0.1364674072265625,0.023990187863110916,-0.013196333547181714,-0.0937625200320434,0.1999359130859375,2019-06-21 12:50:30:566
-8.159912994384765,7.679882904052734,-0.138861572265625,0.024522820081126762,-0.01372896576519756,-0.09229778143249982,0.20492792129516602,2019-06-21 12:50:30:571
-8.159912994384765,7.688262481689453,-0.18195654296875,0.025454926462654494,-0.013862123819701522,-0.08803672368837305,0.20991992950439453,2019-06-21 12:50:30:576
-8.14435092163086,7.677488739013672,-0.16639447021484374,0.027452297280213925,-0.014394756037717372,-0.08590619481630966,0.21491193771362305,2019-06-21 12:50:30:581
-8.165898406982421,7.693050811767578,-0.1699857177734375,0.027452297280213925,-0.015326862419245104,-0.08337619178073438,0.2200319766998291,2019-06-21 12:50:30:586
-8.161110076904297,7.701430389404297,-0.1699857177734375,0.027585455334717887,-0.016658442964284724,-0.081245662908671,0.22502398490905762,2019-06-21 12:50:30:591
-8.146745086669922,7.721780792236328,-0.1364674072265625,0.027585455334717887,-0.016525284909780762,-0.0780498696005759,0.23001599311828613,2019-06-21 12:50:30:596
-8.151533416748046,7.688262481689453,-0.15681781005859374,0.028251245607237695,-0.017457391291308494,-0.07565302461950459,0.23500800132751465,2019-06-21 12:50:30:601
-8.167095489501953,7.697839141845703,-0.12569366455078124,0.029316510043269392,-0.01972107821787585,-0.07219091520240159,0.24000000953674316,2019-06-21 12:50:30:606
-8.180263397216796,7.725372039794921,-0.12569366455078124,0.029316510043269392,-0.020786342653907542,-0.07045986049385008,0.24499201774597168,2019-06-21 12:50:30:611
-8.167095489501953,7.742131195068359,-0.13527032470703124,0.030648090588309012,-0.021185816817419427,-0.06846248967629065,0.2499840259552002,2019-06-21 12:50:30:616
-8.193431304931641,7.732554534912109,-0.1747740478515625,0.03118072280632486,-0.02131897487192339,-0.06500038025918764,0.2549760341644287,2019-06-21 12:50:30:621
-8.186248809814453,7.726569122314453,-0.14484698486328124,0.030781248642812974,-0.021185816817419427,-0.06233721916910841,0.2599680423736572,2019-06-21 12:50:30:626
-8.187445892333985,7.731357452392578,-0.18075946044921876,0.03144703891533278,-0.02185160708993924,-0.059141425861013314,0.26496005058288574,2019-06-21 12:50:30:631
-8.181460479736328,7.727766204833984,-0.18195654296875,0.03184651307884467,-0.022251081253451124,-0.056345106716430116,0.26995205879211426,2019-06-21 12:50:30:636
-8.191037139892577,7.707415802001953,-0.1340732421875,0.03331125167838825,-0.024115294016506587,-0.05274983924482314,0.2749440670013428,2019-06-21 12:50:30:641
-8.199416717529298,7.690656646728516,-0.09217535400390625,0.03504230638693975,-0.02464792623452244,-0.05088562648176768,0.2799358367919922,2019-06-21 12:50:30:646
-8.21258462524414,7.701430389404297,-0.13048199462890625,0.03530862249594768,-0.024914242343530364,-0.048621939555200326,0.2849278450012207,2019-06-21 12:50:30:651
-8.197022552490234,7.709809967041015,-0.14005865478515625,0.03490914833243579,-0.027444245379105635,-0.045292988192601275,0.2899198532104492,2019-06-21 12:50:30:656
-8.198219635009766,7.727766204833984,-0.16639447021484374,0.03530862249594768,-0.027444245379105635,-0.04262982710252204,0.29491186141967773,2019-06-21 12:50:30:661
-8.198219635009766,7.699036224365234,-0.17118280029296876,0.03757230942251503,-0.02811003565162545,-0.03916771768541903,0.3000319004058838,2019-06-21 12:50:30:666
-8.18505172729492,7.688262481689453,-0.1316790771484375,0.03743915136801107,-0.02904214203315318,-0.03663771464984375,0.3050239086151123,2019-06-21 12:50:30:671
-8.18505172729492,7.7002333068847655,-0.11372283935546874,0.03743915136801107,-0.02890898397864922,-0.03304244717823678,0.3100159168243408,2019-06-21 12:50:30:676
-8.199416717529298,7.690656646728516,-0.12449658203125,0.037305993313507105,-0.030107406469184875,-0.030512444142661504,0.31500792503356934,2019-06-21 12:50:30:681
-8.181460479736328,7.677488739013672,-0.12569366455078124,0.03850441580404276,-0.030906354796208645,-0.027582966943574348,0.31999993324279785,2019-06-21 12:50:30:686
-8.187445892333985,7.684671234130859,-0.119708251953125,0.03970283829457842,-0.03170530312323242,-0.023588225308455484,0.32499194145202637,2019-06-21 12:50:30:691
-8.224555450439453,7.694247894287109,-0.1364674072265625,0.04036862856709823,-0.03183846117773638,-0.019859799782344555,0.3299839496612549,2019-06-21 12:50:30:696
-8.206599212646484,7.706218719482422,-0.18554779052734374,0.040634944676106156,-0.031572145068728456,-0.017063480637761353,0.3349759578704834,2019-06-21 12:50:30:701
-8.181460479736328,7.693050811767578,-0.16280322265625,0.04090126078511408,-0.03237109339575223,-0.014134003438674192,0.3399679660797119,2019-06-21 12:50:30:706
-8.186248809814453,7.7002333068847655,-0.18195654296875,0.04023547051259427,-0.03330319977727996,-0.010538735967067218,0.34495997428894043,2019-06-21 12:50:30:711
-8.180263397216796,7.696642059326171,-0.1939273681640625,0.04103441883961804,-0.03463478032231958,-0.006543994331948363,0.34995198249816895,2019-06-21 12:50:30:716
-8.206599212646484,7.689459564208984,-0.18554779052734374,0.04249915743916162,-0.034368464213311654,-0.003215042969349315,0.35494399070739746,2019-06-21 12:50:30:721
-8.206599212646484,7.676291656494141,-0.16639447021484374,0.04263231549366558,-0.035433728649343355,0.00024706644775369485,0.359935998916626,2019-06-21 12:50:30:726
-8.208993377685546,7.709809967041015,-0.14963531494140625,0.04276547354816954,-0.037031625303390894,0.0038423339193606664,0.3649280071258545,2019-06-21 12:50:30:731
-8.23173794555664,7.716992462158203,-0.17597113037109374,0.0428986316026735,-0.03716478335789486,0.008502865826999334,0.369920015335083,2019-06-21 12:50:30:736
-8.186248809814453,7.694247894287109,-0.14364990234375,0.04356442187519331,-0.037830573630414664,0.012231291353110267,0.3749120235443115,2019-06-21 12:50:30:741
-8.210190460205078,7.712204132080078,-0.1651973876953125,0.04383073798420124,-0.03929531222995825,0.015560242715709315,0.3800320625305176,2019-06-21 12:50:30:746
-8.18385464477539,7.691853729248047,-0.15681781005859374,0.04316494771168143,-0.03942847028446221,0.019954458514340058,0.385023832321167,2019-06-21 12:50:30:751
-8.189840057373047,7.691853729248047,-0.18794195556640625,0.04316494771168143,-0.03942847028446221,0.022883935713427218,0.3900158405303955,2019-06-21 12:50:30:756
-8.161110076904297,7.667912078857421,-0.177168212890625,0.044097054093209166,-0.04009426055698202,0.027278151512057962,0.395007848739624,2019-06-21 12:50:30:761
-8.179066314697266,7.667912078857421,-0.17357696533203124,0.04489600242023293,-0.04169215721102956,0.030340786765649084,0.39999985694885254,2019-06-21 12:50:30:766
-8.193431304931641,7.697839141845703,-0.158014892578125,0.04356442187519331,-0.041958473320037486,0.03486816061878379,0.40499186515808105,2019-06-21 12:50:30:771
-8.152730499267578,7.669109161376953,-0.15202947998046876,0.043431263820689354,-0.042091631374541444,0.03859658614489472,0.40998387336730957,2019-06-21 12:50:30:776
-8.137168426513671,7.6858683166503905,-0.16878863525390625,0.04329810576618539,-0.04355636997408503,0.04339027610703735,0.4149758815765381,2019-06-21 12:50:30:781
-8.164701324462891,7.673897491455078,-0.158014892578125,0.0428986316026735,-0.04355636997408503,0.045787121088108666,0.4199678897857666,2019-06-21 12:50:30:786
-8.146745086669922,7.676291656494141,-0.19751861572265625,0.04369757992969728,-0.043955844137596914,0.05058081105025129,0.4249598979949951,2019-06-21 12:50:30:791
-8.165898406982421,7.682277069091796,-0.191533203125,0.04329810576618539,-0.04515426662813257,0.055773975175905814,0.42995190620422363,2019-06-21 12:50:30:796
-8.146745086669922,7.672700408935547,-0.20110986328125,0.0428986316026735,-0.04648584717317219,0.059768716811024664,0.43494391441345215,2019-06-21 12:50:30:801
-8.171883819580078,7.712204132080078,-0.19033612060546876,0.04316494771168143,-0.04648584717317219,0.06216556179209599,0.43993592262268066,2019-06-21 12:50:30:806
-8.152730499267578,7.734948699951172,-0.16400030517578124,0.04329810576618539,-0.04728479550019596,0.06749188397225446,0.4449279308319092,2019-06-21 12:50:30:811
-8.158715911865235,7.718189544677734,-0.18674487304687498,0.0428986316026735,-0.04795058577271578,0.07108715144386143,0.4499199390411377,2019-06-21 12:50:30:816
-8.146745086669922,7.706218719482422,-0.17597113037109374,0.045029160474736894,-0.0482169018817237,0.07601399946050802,0.4549119472503662,2019-06-21 12:50:30:821
-8.143153839111328,7.718189544677734,-0.1891390380859375,0.04436337020221709,-0.049282166317755394,0.079609266932115,0.46003198623657227,2019-06-21 12:50:30:826
-8.143153839111328,7.731357452392578,-0.14484698486328124,0.044230212147713124,-0.04968164048126728,0.08280506024021009,0.4650239944458008,2019-06-21 12:50:30:831
-8.110832611083984,7.726569122314453,-0.18075946044921876,0.04489600242023293,-0.05221164351684255,0.08706611798433686,0.4700160026550293,2019-06-21 12:50:30:836
-8.08689096069336,7.733751617431641,-0.14484698486328124,0.04556179269275275,-0.05194532740783463,0.09052822740143986,0.4750080108642578,2019-06-21 12:50:30:841
-8.094073455810546,7.769664093017578,-0.1604090576171875,0.04542863463824879,-0.05194532740783463,0.09425665292755081,0.48000001907348633,2019-06-21 12:50:30:846
-8.07731430053711,7.760087432861328,-0.12449658203125,0.04569495074725671,-0.0516790112988267,0.09625402374511023,0.48499202728271484,2019-06-21 12:50:30:851
-8.043795989990235,7.750510772705078,-0.1412557373046875,0.04649389907428048,-0.053543224061882166,0.0991835009441974,0.48998403549194336,2019-06-21 12:50:30:856
-8.053372650146484,7.766072845458984,-0.12449658203125,0.04715968934680029,-0.05380954017089009,0.1026456103613004,0.4949760437011719,2019-06-21 12:50:30:861
-8.04858432006836,7.791211578369141,-0.14843823242187498,0.04822495378283198,-0.05301059184386632,0.10450982312435586,0.4999680519104004,2019-06-21 12:50:30:866
-8.043795989990235,7.797196990966797,-0.1651973876953125,0.04902390210985575,-0.0544753304434099,0.10664035199641925,0.5049600601196289,2019-06-21 12:50:30:871
-8.065343475341797,7.81036489868164,-0.14005865478515625,0.0478254796193201,-0.05514112071592972,0.11076825168604208,0.5099520683288574,2019-06-21 12:50:30:876
-8.02105142211914,7.828321136474609,-0.12808782958984374,0.047559163510312176,-0.05487480460692178,0.1120998322310817,0.5149438381195068,2019-06-21 12:50:30:881
-8.017460174560547,7.822335723876953,-0.1556207275390625,0.04795863767382406,-0.05487480460692178,0.11436351915764906,0.5199358463287354,2019-06-21 12:50:30:886
-8.012671844482421,7.852262786865234,-0.10654034423828125,0.04875758600084783,-0.0566058593154733,0.11636088997520848,0.5249278545379639,2019-06-21 12:50:30:891
-7.993518524169922,7.871416107177734,-0.1173140869140625,0.049290218218863674,-0.05700533347898518,0.11915720911979168,0.5299198627471924,2019-06-21 12:50:30:896
-7.999503936767578,7.86782485961914,-0.13287615966796876,0.0506217987639033,-0.05713849153348915,0.12128773799185506,0.5350399017333984,2019-06-21 12:50:30:901
-7.971971038818359,7.884584014892578,-0.14724114990234374,0.051154430981919144,-0.05740480764249707,0.1236845829729264,0.540031909942627,2019-06-21 12:50:30:906
-7.952817718505859,7.926481903076172,-0.17357696533203124,0.05142074709092707,-0.05780428180600895,0.12767932460804524,0.5450239181518555,2019-06-21 12:50:30:911
-7.967182708740234,7.9192994079589845,-0.12449658203125,0.05221969541795084,-0.06020112678708026,0.12834511488056505,0.550015926361084,2019-06-21 12:50:30:916
-7.943241058349609,7.938452728271484,-0.114919921875,0.052352853472454795,-0.059668494569064416,0.13034248569812448,0.5550079345703125,2019-06-21 12:50:30:921
-7.910919830322266,7.968379791259766,-0.15442364501953124,0.05275232763596669,-0.059269020405552535,0.1306088018071324,0.559999942779541,2019-06-21 12:50:30:926
-7.901343170166015,7.969576873779297,-0.12210241699218749,0.05315180179947858,-0.05993481067807234,0.13087511791614032,0.5649919509887695,2019-06-21 12:50:30:931
-7.878598602294922,7.987533111572265,-0.14843823242187498,0.052885485690470656,-0.05873638818753669,0.1312745920796522,0.569983959197998,2019-06-21 12:50:30:936
-7.8750073547363275,8.015066009521485,-0.1173140869140625,0.05328495985398254,-0.060467442896088186,0.13140775013415618,0.5749759674072266,2019-06-21 12:50:30:941
-7.851065704345703,7.993518524169922,-0.114919921875,0.05501601456253404,-0.060067968732576305,0.13074195986163636,0.5799679756164551,2019-06-21 12:50:30:946
-7.821138641357422,8.017460174560547,-0.14005865478515625,0.055282330671541965,-0.061133233168608,0.13114143402514825,0.5849599838256836,2019-06-21 12:50:30:951
-7.793605743408203,8.065343475341797,-0.14724114990234374,0.05474969845352612,-0.06073375900509611,0.1312745920796522,0.5899519920349121,2019-06-21 12:50:30:956
-7.769664093017578,8.076117218017577,-0.08379577636718749,0.055282330671541965,-0.05900270429654461,0.1302093276436205,0.5949440002441406,2019-06-21 12:50:30:961
-7.750510772705078,8.10604428100586,-0.1412557373046875,0.05421706623551027,-0.05900270429654461,0.12727985044453335,0.5999360084533691,2019-06-21 12:50:30:966
-7.726569122314453,8.121606353759766,-0.110131591796875,0.054616540399022154,-0.05913586235104857,0.12594826989949373,0.6049280166625977,2019-06-21 12:50:30:971
-7.726569122314453,8.121606353759766,-0.110131591796875,0.054616540399022154,-0.05913586235104857,0.12594826989949373,0.6078720092773438,2019-06-21 12:50:30:974
-7.679882904052734,8.14554800415039,-0.14843823242187498,0.05408390818100631,-0.05793743986051292,0.12155405410086298,0.6149120330810547,2019-06-21 12:50:30:981
-7.679882904052734,8.14554800415039,-0.14843823242187498,0.05408390818100631,-0.05793743986051292,0.12155405410086298,0.6178560256958008,2019-06-21 12:50:30:984
-7.6284083557128906,8.147942169189452,-0.10294909667968749,0.05248601152695876,-0.05514112071592972,0.11609457386620055,0.6250238418579102,2019-06-21 12:50:30:991
-7.6284083557128906,8.147942169189452,-0.10294909667968749,0.05248601152695876,-0.05514112071592972,0.11609457386620055,0.6278400421142578,2019-06-21 12:50:30:994
-7.610452117919921,8.164701324462891,-0.12569366455078124,0.05022232460039141,-0.05088006297180293,0.1086377228139787,0.6350078582763672,2019-06-21 12:50:31:001
-7.610452117919921,8.164701324462891,-0.12569366455078124,0.05022232460039141,-0.05088006297180293,0.1086377228139787,0.6378240585327148,2019-06-21 12:50:31:004
-7.617634613037109,8.181460479736328,-0.138861572265625,0.04875758600084783,-0.04901585020874747,0.10251245230679644,0.6449918746948242,2019-06-21 12:50:31:011
-7.617634613037109,8.181460479736328,-0.138861572265625,0.04875758600084783,-0.04901585020874747,0.10251245230679644,0.6478078365325928,2019-06-21 12:50:31:014
-7.586510467529297,8.198219635009766,-0.100554931640625,0.046893373237792364,-0.04648584717317219,0.09558823347259043,0.6549758911132812,2019-06-21 12:50:31:021
-7.5829192199707025,8.213781707763673,-0.12808782958984374,0.04529547658374482,-0.043955844137596914,0.09225928210999136,0.6599678993225098,2019-06-21 12:50:31:026
-7.562568817138672,8.182657562255859,-0.11851116943359374,0.04276547354816954,-0.043023737756069186,0.08759875020235271,0.6649599075317383,2019-06-21 12:50:31:031
-7.5266563415527346,8.219767120361327,-0.10893450927734374,0.04183336716664181,-0.042357947483549374,0.08426979883975366,0.6699519157409668,2019-06-21 12:50:31:036
-7.511094268798828,8.23054086303711,-0.1604090576171875,0.04183336716664181,-0.04089320888400579,0.08054137331364272,0.6749439239501953,2019-06-21 12:50:31:041
-7.488349700927734,8.279621246337891,-0.12449658203125,0.04130073494862596,-0.03902899612095033,0.07641347362401991,0.6799359321594238,2019-06-21 12:50:31:046
-7.4668022155761715,8.276029998779297,-0.09217535400390625,0.03850441580404276,-0.038496363902934476,0.07161978366187728,0.6849279403686523,2019-06-21 12:50:31:051
-7.507503021240234,8.28800082397461,-0.11851116943359374,0.03903704802205861,-0.03663215113987901,0.06709240980874256,0.6899199485778809,2019-06-21 12:50:31:056
-7.479970123291015,8.282015411376953,-0.12569366455078124,0.03743915136801107,-0.03663215113987901,0.06296451011911976,0.6950399875640869,2019-06-21 12:50:31:061
-7.459619720458984,8.279621246337891,-0.08738702392578125,0.03517546444144371,-0.03396899004979977,0.0579045040479692,0.7000319957733154,2019-06-21 12:50:31:066
-7.440466400146485,8.283212493896484,-0.0790074462890625,0.03397704195090806,-0.03250425145025619,0.0523118657588028,0.705024003982544,2019-06-21 12:50:31:071
-7.467999298095703,8.28919790649414,-0.14005865478515625,0.03237914529686051,-0.031172670905216568,0.0477844919056681,0.7100160121917725,2019-06-21 12:50:31:076
-7.470393463134766,8.319124969482422,-0.100554931640625,0.03264546140586844,-0.02984109036017695,0.0421918536165017,0.715008020401001,2019-06-21 12:50:31:081
-7.459619720458984,8.299971649169922,-0.08259869384765625,0.03131388086082882,-0.02637898094307394,0.03673237338183925,0.7200000286102295,2019-06-21 12:50:31:086
-7.4668022155761715,8.311942474365233,-0.0885841064453125,0.02971598420678128,-0.02637898094307394,0.03207184147420059,0.724992036819458,2019-06-21 12:50:31:091
-7.450043060302734,8.297577484130858,-0.14724114990234374,0.028384403661741657,-0.023982135962002625,0.029009206220609467,0.7299840450286865,2019-06-21 12:50:31:096
-7.457225555419922,8.311942474365233,-0.1077374267578125,0.02865071977074958,-0.022384239307955085,0.022883935713427218,0.734976053237915,2019-06-21 12:50:31:101
-7.477575958251953,8.329898712158203,-0.12569366455078124,0.02771861338922185,-0.02145213292642735,0.017158139369756856,0.7399680614471436,2019-06-21 12:50:31:106
-7.459619720458984,8.302365814208985,-0.0957666015625,0.02625387478967827,-0.01972107821787585,0.012630765516622152,0.744959831237793,2019-06-21 12:50:31:111
-7.459619720458984,8.309548309326171,-0.1316790771484375,0.024522820081126762,-0.017457391291308494,0.007038127227455752,0.7499518394470215,2019-06-21 12:50:31:116
-7.467999298095703,8.344263702392578,-0.11132867431640625,0.023723871754102992,-0.01572633658275699,0.002777069483328971,0.75494384765625,2019-06-21 12:50:31:121
-7.460816802978515,8.307154144287109,-0.1364674072265625,0.023191239536087146,-0.014794230201229257,-0.001617146315301772,0.7599358558654785,2019-06-21 12:50:31:126
-7.478773040771484,8.308351226806641,-0.110131591796875,0.022392291209063372,-0.013862123819701522,-0.006943468495460248,0.764927864074707,2019-06-21 12:50:31:131
-7.456028472900391,8.284409576416015,-0.12090533447265625,0.02212597510005545,-0.013862123819701522,-0.011604000403098915,0.7699198722839355,2019-06-21 12:50:31:136
-7.448845977783203,8.271241668701173,-0.12329949951171874,0.02012860428249602,-0.013329491601685676,-0.016530848419745506,0.7749118804931641,2019-06-21 12:50:31:141
-7.470393463134766,8.258073760986328,-0.12449658203125,0.02012860428249602,-0.012663701329165868,-0.021058222272880213,0.7800319194793701,2019-06-21 12:50:31:146
-7.4955321960449215,8.240117523193359,-0.100554931640625,0.02092755260951979,-0.01146527883863021,-0.025452438071510954,0.7850239276885986,2019-06-21 12:50:31:151
-7.518276763916015,8.261665008544922,-0.14005865478515625,0.020394920391503944,-0.009201591912062856,-0.028914547488613964,0.7900159358978271,2019-06-21 12:50:31:156
-7.462013885498047,8.25927084350586,-0.06583953857421875,0.019462814009976213,-0.009867382184582666,-0.03357507939625263,0.7950079441070557,2019-06-21 12:50:31:161
-7.473984710693359,8.243708770751953,-0.07421911621093749,0.019595972064480174,-0.009734224130078704,-0.03770297908587545,0.7999999523162842,2019-06-21 12:50:31:166
-7.50391177368164,8.256876678466798,-0.0981607666015625,0.019196497900968286,-0.01146527883863021,-0.04036614017595468,0.8049919605255127,2019-06-21 12:50:31:171
-7.5098971862792965,8.23173794555664,-0.081401611328125,0.01999544622799206,-0.01013369829359059,-0.04476035597458543,0.8099839687347412,2019-06-21 12:50:31:176
-7.556583404541016,8.23054086303711,-0.12449658203125,0.021593342882039603,-0.010666330511606438,-0.048621939555200326,0.8149759769439697,2019-06-21 12:50:31:181
-7.544612579345703,8.262862091064452,-0.09337243652343749,0.021193868718527718,-0.011198962729622286,-0.052217207026807294,0.8199679851531982,2019-06-21 12:50:31:186
-7.544612579345703,8.237723358154296,-0.09217535400390625,0.021060710664023756,-0.009734224130078704,-0.05647826477093408,0.8249599933624268,2019-06-21 12:50:31:191
-7.507503021240234,8.210190460205078,-0.11252575683593749,0.021992817045551488,-0.010533172457102476,-0.059141425861013314,0.8299520015716553,2019-06-21 12:50:31:196
-7.5266563415527346,8.197022552490234,-0.090978271484375,0.02225913315455941,-0.01239738522015794,-0.062070903060100484,0.8349440097808838,2019-06-21 12:50:31:201
-7.5398242492675775,8.219767120361327,-0.13766448974609374,0.023324397590591107,-0.012530543274661906,-0.06579932858621142,0.8399360179901123,2019-06-21 12:50:31:206
-7.5410213317871095,8.218570037841797,-0.10175201416015625,0.0243896620266228,-0.014794230201229257,-0.06846248967629065,0.8449280261993408,2019-06-21 12:50:31:211
-7.564962982177734,8.217372955322265,-0.110131591796875,0.02425650397211884,-0.01625896880077284,-0.07032670243934612,0.8499200344085693,2019-06-21 12:50:31:216
-7.548203826904297,8.200613800048828,-0.09337243652343749,0.024922294244638647,-0.014927388255733219,-0.07392196991095308,0.8550398349761963,2019-06-21 12:50:31:221
-7.550597991943359,8.18505172729492,-0.07661328125,0.02625387478967827,-0.01372896576519756,-0.07778355349156799,0.8600318431854248,2019-06-21 12:50:31:226
-7.5553863220214845,8.182657562255859,-0.110131591796875,0.027185981171206002,-0.013196333547181714,-0.08071303069065515,0.8650238513946533,2019-06-21 12:50:31:231
-7.567357147216796,8.223358367919921,-0.100554931640625,0.027319139225709964,-0.014128439928709446,-0.0825772434537106,0.8700158596038818,2019-06-21 12:50:31:236
-7.5541892395019525,8.197022552490234,-0.08020452880859374,0.027984929498229772,-0.014794230201229257,-0.0857730367618057,0.8750078678131104,2019-06-21 12:50:31:241
-7.578130889892578,8.165898406982421,-0.07781036376953125,0.028384403661741657,-0.015193704364741142,-0.08830303979738097,0.8799998760223389,2019-06-21 12:50:31:246
-7.578130889892578,8.191037139892577,-0.1077374267578125,0.029050193934261465,-0.016658442964284724,-0.0909662008874602,0.8849918842315674,2019-06-21 12:50:31:251
-7.570948394775391,8.188642974853515,-0.0957666015625,0.02918335198876543,-0.016658442964284724,-0.09389567808654736,0.8899838924407959,2019-06-21 12:50:31:256
-7.596087127685546,8.17308090209961,-0.090978271484375,0.030248616424797127,-0.017324233236804532,-0.09602620695861078,0.8949759006500244,2019-06-21 12:50:31:261
-7.620028778076172,8.189840057373047,-0.10893450927734374,0.031047564751820897,-0.01918844599986,-0.09842305193968208,0.8999679088592529,2019-06-21 12:50:31:266
-7.605663787841797,8.197022552490234,-0.11851116943359374,0.031580196969836744,-0.018922129890852075,-0.10028726470273755,0.9049599170684814,2019-06-21 12:50:31:271
-7.6128462829589845,8.151533416748046,-0.1316790771484375,0.031580196969836744,-0.021718449035435277,-0.102151477465793,0.90995192527771,2019-06-21 12:50:31:276
-7.6272112731933595,8.17308090209961,-0.11132867431640625,0.03251230335136447,-0.020386868490395657,-0.10481463855587224,0.9149439334869385,2019-06-21 12:50:31:281
-7.618831695556641,8.150336334228516,-0.114919921875,0.03237914529686051,-0.02065318459940358,-0.1077441157549594,0.919935941696167,2019-06-21 12:50:31:286
-7.639182098388671,8.15512466430664,-0.14724114990234374,0.03224598724235655,-0.021185816817419427,-0.10960832851801489,0.9249279499053955,2019-06-21 12:50:31:291
-7.6427733459472655,8.147942169189452,-0.15681781005859374,0.03437651611441994,-0.02065318459940358,-0.1120051734990862,0.929919958114624,2019-06-21 12:50:31:296
-7.629605438232422,8.152730499267578,-0.1532265625,0.03411020000541202,-0.021585290980931315,-0.11426886042565355,0.9349119663238525,2019-06-21 12:50:31:301
-7.631999603271484,8.14554800415039,-0.114919921875,0.034642832223427865,-0.02131897487192339,-0.1158667570797011,0.9400320053100586,2019-06-21 12:50:31:306
-7.626014190673828,8.138365509033203,-0.11372283935546874,0.03450967416892391,-0.022117923198947162,-0.11799728595176448,0.9450240135192871,2019-06-21 12:50:31:311
-7.616437530517578,8.12639468383789,-0.16280322265625,0.03624072887747541,-0.022117923198947162,-0.12039413093283578,0.9500160217285156,2019-06-21 12:50:31:316
-7.647561676025391,8.12759176635742,-0.13048199462890625,0.035441780550451635,-0.022117923198947162,-0.12225834369589125,0.9550080299377441,2019-06-21 12:50:31:321
-7.643970428466797,8.131183013916015,-0.11611700439453125,0.03490914833243579,-0.021052658762915465,-0.12225834369589125,0.9600000381469727,2019-06-21 12:50:31:326
-7.687065399169922,8.12759176635742,-0.09217535400390625,0.03490914833243579,-0.0219847651444432,-0.12465518867696258,0.9649920463562012,2019-06-21 12:50:31:331
-7.665517913818359,8.113226776123046,-0.14245281982421876,0.03530862249594768,-0.023050029580474894,-0.12572045311299426,0.9699840545654297,2019-06-21 12:50:31:336
-7.672700408935547,8.09766470336914,-0.14245281982421876,0.035441780550451635,-0.02131897487192339,-0.12678571754902596,0.9749760627746582,2019-06-21 12:50:31:341
-7.684671234130859,8.102453033447265,-0.14364990234375,0.03624072887747541,-0.02185160708993924,-0.12891624642108937,0.9799678325653076,2019-06-21 12:50:31:346
-7.6858683166503905,8.084496795654296,-0.14724114990234374,0.03597441276846748,-0.021718449035435277,-0.1294488786391052,0.9849598407745361,2019-06-21 12:50:31:351
-7.716992462158203,8.094073455810546,-0.13527032470703124,0.03411020000541202,-0.022916871525970932,-0.13078045918414483,0.9899518489837646,2019-06-21 12:50:31:356
-7.7002333068847655,8.12639468383789,-0.14005865478515625,0.03530862249594768,-0.02344950374398678,-0.13184572362017652,0.9949438571929932,2019-06-21 12:50:31:361
-7.719386627197266,8.096467620849609,-0.12090533447265625,0.03637388693197938,-0.024914242343530364,-0.1329109880562082,0.9999358654022217,2019-06-21 12:50:31:366
-7.712204132080078,8.10604428100586,-0.11611700439453125,0.037305993313507105,-0.023848977907498663,-0.13370993638323198,1.0049278736114502,2019-06-21 12:50:31:371
-7.733751617431641,8.114423858642578,-0.11851116943359374,0.03597441276846748,-0.022517397362459047,-0.13517467498277555,1.0099198818206787,2019-06-21 12:50:31:376
-7.7289632873535155,8.10604428100586,-0.119708251953125,0.03690651914999522,-0.02131897487192339,-0.1361067813643033,1.0149118900299072,2019-06-21 12:50:31:381
-7.734948699951172,8.067737640380859,-0.119708251953125,0.03637388693197938,-0.02131897487192339,-0.13597362330979934,1.0200319290161133,2019-06-21 12:50:31:386
-7.7145982971191405,8.065343475341797,-0.15681781005859374,0.035441780550451635,-0.022517397362459047,-0.1367725716368231,1.0250239372253418,2019-06-21 12:50:31:391
-7.715795379638672,8.073723052978515,-0.1412557373046875,0.03570809665945956,-0.02278371347146697,-0.13797099412735878,1.0300159454345703,2019-06-21 12:50:31:396
-7.748116607666016,8.052175567626954,-0.12569366455078124,0.036107570822971446,-0.022117923198947162,-0.1393025746723984,1.0350079536437988,2019-06-21 12:50:31:401
-7.750510772705078,8.074920135498047,-0.0981607666015625,0.03570809665945956,-0.02065318459940358,-0.1409004630040675,1.0399999618530273,2019-06-21 12:50:31:406
-7.775649505615235,8.091679290771484,-0.14484698486328124,0.03530862249594768,-0.021052658762915465,-0.1406341468950596,1.0449919700622559,2019-06-21 12:50:31:411
-7.74332827758789,8.050978485107422,-0.15681781005859374,0.03450967416892391,-0.020386868490395657,-0.14223204354910715,1.0499839782714844,2019-06-21 12:50:31:416
-7.75290493774414,8.052175567626954,-0.0981607666015625,0.035441780550451635,-0.02185160708993924,-0.14156625327658734,1.054975986480713,2019-06-21 12:50:31:421
-7.797196990966797,8.046190155029297,-0.12210241699218749,0.03424335805991598,-0.020120552381387734,-0.14276467576712298,1.0599679946899414,2019-06-21 12:50:31:426
-7.780437835693359,8.039007659912109,-0.12569366455078124,0.03530862249594768,-0.02065318459940358,-0.14196572744009922,1.06496000289917,2019-06-21 12:50:31:431
-7.798394073486328,8.031825164794922,-0.09935784912109374,0.0355749386049556,-0.022916871525970932,-0.1431641499306349,1.0699520111083984,2019-06-21 12:50:31:436
-7.80078823852539,8.033022247314452,-0.10893450927734374,0.035441780550451635,-0.02145213292642735,-0.14289783382162696,1.074944019317627,2019-06-21 12:50:31:441
-7.828321136474609,7.997109771728516,-0.14724114990234374,0.03477599027793183,-0.02065318459940358,-0.14183256938559527,1.0799360275268555,2019-06-21 12:50:31:446
-7.792408660888672,7.9923214416503905,-0.11252575683593749,0.03437651611441994,-0.02065318459940358,-0.14196572744009922,1.084928035736084,2019-06-21 12:50:31:451
-7.812759063720703,7.999503936767578,-0.14963531494140625,0.03450967416892391,-0.01972107821787585,-0.14183256938559527,1.0899200439453125,2019-06-21 12:50:31:456
-7.822335723876953,8.01147476196289,-0.1460440673828125,0.034642832223427865,-0.020786342653907542,-0.1409004630040675,1.094912052154541,2019-06-21 12:50:31:461
-7.83909487915039,7.995912689208984,-0.12569366455078124,0.03624072887747541,-0.01918844599986,-0.1393025746723984,1.100031852722168,2019-06-21 12:50:31:466
-7.842686126708984,8.01985433959961,-0.1173140869140625,0.03597441276846748,-0.019454762108867922,-0.1409004630040675,1.1050238609313965,2019-06-21 12:50:31:471
-7.8331094665527345,8.003095184326172,-0.14843823242187498,0.03530862249594768,-0.01918844599986,-0.1414330952220834,1.110015869140625,2019-06-21 12:50:31:476
-7.819941558837891,8.003095184326172,-0.1173140869140625,0.0355749386049556,-0.016924759073292647,-0.1409004630040675,1.1150078773498535,2019-06-21 12:50:31:481
-7.821138641357422,8.01985433959961,-0.14484698486328124,0.03570809665945956,-0.017723707400316417,-0.1398351985680358,1.119999885559082,2019-06-21 12:50:31:486
-7.8163503112792965,8.037810577392579,-0.14364990234375,0.03477599027793183,-0.018256339618332267,-0.13916941661789442,1.1249918937683105,2019-06-21 12:50:31:491
-7.863036529541016,8.02943099975586,-0.11611700439453125,0.034642832223427865,-0.017590549345812456,-0.1398351985680358,1.129983901977539,2019-06-21 12:50:31:496
-7.8618394470214845,8.00070101928711,-0.12329949951171874,0.03411020000541202,-0.01625896880077284,-0.14103362105857148,1.1349759101867676,2019-06-21 12:50:31:501
-7.879795684814453,8.00070101928711,-0.13527032470703124,0.03437651611441994,-0.01625896880077284,-0.13970204051353186,1.139967918395996,2019-06-21 12:50:31:506
-7.8750073547363275,8.013868927001953,-0.15921197509765625,0.034642832223427865,-0.016658442964284724,-0.14050098884055562,1.1449599266052246,2019-06-21 12:50:31:511
-7.81036489868164,8.00070101928711,-0.15442364501953124,0.03251230335136447,-0.01572633658275699,-0.14023467273154772,1.1499519348144531,2019-06-21 12:50:31:516
-7.849868621826172,8.003095184326172,-0.0957666015625,0.0327786194603724,-0.015460020473749066,-0.1406341468950596,1.1549439430236816,2019-06-21 12:50:31:521
-7.83909487915039,7.987533111572265,-0.12808782958984374,0.03291177751487637,-0.0163921268552768,-0.14023467273154772,1.1599359512329102,2019-06-21 12:50:31:526
-7.83909487915039,7.971971038818359,-0.14484698486328124,0.03184651307884467,-0.01585949463726095,-0.1406341468950596,1.1649279594421387,2019-06-21 12:50:31:531
-7.8474744567871095,7.995912689208984,-0.1723798828125,0.02971598420678128,-0.014128439928709446,-0.14076730494956355,1.1699199676513672,2019-06-21 12:50:31:536
-7.871416107177734,7.982744781494141,-0.14843823242187498,0.03038177447930109,-0.014927388255733219,-0.1409004630040675,1.1750400066375732,2019-06-21 12:50:31:541
-7.870219024658203,7.9635914611816405,-0.10893450927734374,0.029982300315789204,-0.014927388255733219,-0.14156625327658734,1.1800320148468018,2019-06-21 12:50:31:546
-7.896554840087891,7.958803131103515,-0.18674487304687498,0.029316510043269392,-0.015460020473749066,-0.14183256938559527,1.1850240230560303,2019-06-21 12:50:31:551
-7.896554840087891,7.952817718505859,-0.16639447021484374,0.029449668097773354,-0.014527914092221334,-0.14036783078605167,1.1900160312652588,2019-06-21 12:50:31:556
-7.880992767333984,7.942043975830078,-0.15681781005859374,0.02918335198876543,-0.01239738522015794,-0.1409004630040675,1.1950080394744873,2019-06-21 12:50:31:561
-7.88697817993164,7.94443814086914,-0.14364990234375,0.02865071977074958,-0.011332120784126248,-0.1409004630040675,1.2000000476837158,2019-06-21 12:50:31:566
-7.888175262451171,7.9492264709472655,-0.18195654296875,0.02785177144372581,-0.012131069111150018,-0.14036783078605167,1.2049920558929443,2019-06-21 12:50:31:571
-7.88697817993164,7.94443814086914,-0.16639447021484374,0.027452297280213925,-0.011864753002142094,-0.1409004630040675,1.2099840641021729,2019-06-21 12:50:31:576
-7.872613189697265,7.928876068115234,-0.1556207275390625,0.025987558680670344,-0.0107994885661104,-0.14103362105857148,1.2149758338928223,2019-06-21 12:50:31:581
-7.8893723449707025,7.9336643981933594,-0.16400030517578124,0.026520190898686194,-0.010000540239086628,-0.14103362105857148,1.2199678421020508,2019-06-21 12:50:31:586
-7.898949005126953,7.937255645751953,-0.18315362548828124,0.02558808451715846,-0.009201591912062856,-0.14116677911307543,1.2249598503112793,2019-06-21 12:50:31:591
-7.900146087646484,7.9336643981933594,-0.14843823242187498,0.0243896620266228,-0.008269485530535123,-0.14156625327658734,1.2299518585205078,2019-06-21 12:50:31:596
-7.920496490478516,7.925284820556641,-0.1891390380859375,0.024922294244638647,-0.008802117748550971,-0.1409004630040675,1.2349438667297363,2019-06-21 12:50:31:601
-7.926481903076172,7.931270233154296,-0.1532265625,0.024123345917614877,-0.0080031694215272,-0.14076730494956355,1.2399358749389648,2019-06-21 12:50:31:606
-7.925284820556641,7.920496490478516,-0.1508323974609375,0.023857029808606954,-0.008535801639543048,-0.1406341468950596,1.2449278831481934,2019-06-21 12:50:31:611
-7.9336643981933594,7.927678985595703,-0.1508323974609375,0.023990187863110916,-0.008269485530535123,-0.14036783078605167,1.2499198913574219,2019-06-21 12:50:31:616
-7.981547698974609,7.884584014892578,-0.12569366455078124,0.022924923427079223,-0.006138956658471733,-0.14010151467704374,1.2549118995666504,2019-06-21 12:50:31:621
-7.958803131103515,7.909722747802734,-0.18195654296875,0.02212597510005545,-0.006538430821983618,-0.1393025746723984,1.2600319385528564,2019-06-21 12:50:31:626
-7.965985626220703,7.907328582763672,-0.15921197509765625,0.02212597510005545,-0.006804746930991543,-0.13770467801835085,1.265023946762085,2019-06-21 12:50:31:631
-7.940846893310547,7.870219024658203,-0.1556207275390625,0.021593342882039603,-0.005206850276944,-0.13717204580033499,1.2700159549713135,2019-06-21 12:50:31:636
-7.971971038818359,7.895357757568359,-0.16878863525390625,0.02146018482753564,-0.0049405341679360755,-0.13690572969132705,1.275007963180542,2019-06-21 12:50:31:641
-7.951620635986328,7.903737335205078,-0.11372283935546874,0.02146018482753564,-0.004008427786408342,-0.13663941358231912,1.2799999713897705,2019-06-21 12:50:31:646
-7.979153533935547,7.900146087646484,-0.14245281982421876,0.020661236500511868,-0.004141585840912305,-0.13597362330979934,1.284991979598999,2019-06-21 12:50:31:651
-7.981547698974609,7.883386932373047,-0.1651973876953125,0.01999544622799206,-0.004141585840912305,-0.13703888774583103,1.2899839878082275,2019-06-21 12:50:31:656
-7.988730194091796,7.865430694580078,-0.1340732421875,0.020261762336999983,-0.0049405341679360755,-0.1367725716368231,1.294975996017456,2019-06-21 12:50:31:661
-7.999503936767578,7.854656951904297,-0.0957666015625,0.020661236500511868,-0.004674218058928152,-0.13410941054674386,1.2999680042266846,2019-06-21 12:50:31:666
-7.989927276611328,7.8474744567871095,-0.119708251953125,0.020661236500511868,-0.005739482494959848,-0.13344362027422405,1.304960012435913,2019-06-21 12:50:31:671
-8.01147476196289,7.834306549072266,-0.12329949951171874,0.01999544622799206,-0.005206850276944,-0.13197888167468047,1.3099520206451416,2019-06-21 12:50:31:676
-8.03062808227539,7.827124053955078,-0.14484698486328124,0.019729130118984136,-0.006005798603967771,-0.13171256556567254,1.3149440288543701,2019-06-21 12:50:31:681
-8.015066009521485,7.821138641357422,-0.16639447021484374,0.02012860428249602,-0.005473166385951924,-0.13011466891162501,1.3199360370635986,2019-06-21 12:50:31:686
-8.028233917236328,7.809167816162109,-0.1651973876953125,0.01999544622799206,-0.006138956658471733,-0.1277178239305537,1.3249280452728271,2019-06-21 12:50:31:691
-8.067737640380859,7.806773651123047,-0.17118280029296876,0.02012860428249602,-0.00587264054946381,-0.12731834976704182,1.3299200534820557,2019-06-21 12:50:31:696
-8.079708465576172,7.8163503112792965,-0.15921197509765625,0.02092755260951979,-0.006538430821983618,-0.12532097894948238,1.3349120616912842,2019-06-21 12:50:31:701
-8.05935806274414,7.7876203308105465,-0.18195654296875,0.020528078446007906,-0.006937904985495505,-0.12412255645894674,1.3400318622589111,2019-06-21 12:50:31:706
-8.103650115966797,7.779240753173828,-0.19033612060546876,0.019862288173488098,-0.007870011367023238,-0.12212518564138729,1.3450238704681396,2019-06-21 12:50:31:711
-8.066540557861329,7.77205825805664,-0.12090533447265625,0.02012860428249602,-0.008269485530535123,-0.1199946567693239,1.3500158786773682,2019-06-21 12:50:31:716
-8.109635528564453,7.775649505615235,-0.114919921875,0.021193868718527718,-0.007870011367023238,-0.11746465373374863,1.3550078868865967,2019-06-21 12:50:31:721
-8.135971343994141,7.769664093017578,-0.14484698486328124,0.021859658991047526,-0.008402643585039086,-0.1154672829161892,1.3599998950958252,2019-06-21 12:50:31:726
-8.153927581787109,7.769664093017578,-0.15442364501953124,0.021859658991047526,-0.008802117748550971,-0.11120622517206243,1.3649919033050537,2019-06-21 12:50:31:731
-8.122803436279296,7.751707855224609,-0.16280322265625,0.02225913315455941,-0.010266856348094553,-0.10827674797297525,1.3699839115142822,2019-06-21 12:50:31:736
-8.131183013916015,7.750510772705078,-0.177168212890625,0.023191239536087146,-0.008802117748550971,-0.10681200937343167,1.3749759197235107,2019-06-21 12:50:31:741
-8.15632174682617,7.718189544677734,-0.16160614013671876,0.02345755564509507,-0.00866895969404701,-0.10401569022884848,1.3799679279327393,2019-06-21 12:50:31:746
-8.14435092163086,7.732554534912109,-0.19033612060546876,0.024789136190134686,-0.010000540239086628,-0.10055358081174547,1.3849599361419678,2019-06-21 12:50:31:751
-8.151533416748046,7.740934112548828,-0.19033612060546876,0.024655978135630724,-0.01146527883863021,-0.09868936804869001,1.3899519443511963,2019-06-21 12:50:31:756
-8.157518829345703,7.739737030029297,-0.16639447021484374,0.026120716735174306,-0.01226422716565398,-0.09575989084960285,1.3949439525604248,2019-06-21 12:50:31:761
-8.137168426513671,7.7445253601074215,-0.15202947998046876,0.026786507007694117,-0.01239738522015794,-0.0926972555960117,1.3999359607696533,2019-06-21 12:50:31:766
-8.12759176635742,7.72417495727539,-0.1556207275390625,0.02691966506219808,-0.014661072146725296,-0.09056672672394832,1.4049279689788818,2019-06-21 12:50:31:771
-8.128788848876953,7.7289632873535155,-0.1556207275390625,0.02771861338922185,-0.01572633658275699,-0.08710461730684532,1.4099199771881104,2019-06-21 12:50:31:776
-8.140759674072266,7.738539947509765,-0.1460440673828125,0.028917035879757504,-0.017457391291308494,-0.08297671761722249,1.4149119853973389,2019-06-21 12:50:31:781
-8.15632174682617,7.731357452392578,-0.13766448974609374,0.029582826152277315,-0.017324233236804532,-0.08057987263615118,1.420032024383545,2019-06-21 12:50:31:786
-8.159912994384765,7.715795379638672,-0.15442364501953124,0.029849142261285242,-0.017723707400316417,-0.07791671154607195,1.4250240325927734,2019-06-21 12:50:31:791
-8.135971343994141,7.690656646728516,-0.16759155273437498,0.0317133550243407,-0.018655813781844152,-0.07432144407446498,1.430016040802002,2019-06-21 12:50:31:796
-8.147942169189452,7.681079986572265,-0.14245281982421876,0.03131388086082882,-0.019454762108867922,-0.07112565076636988,1.4350080490112305,2019-06-21 12:50:31:801
-8.188642974853515,7.689459564208984,-0.16759155273437498,0.03237914529686051,-0.01985423627237981,-0.06699775107674706,1.440000057220459,2019-06-21 12:50:31:806
-8.189840057373047,7.7002333068847655,-0.11372283935546874,0.03317809362388429,-0.021052658762915465,-0.06313616749613217,1.4449920654296875,2019-06-21 12:50:31:811
-8.188642974853515,7.720583709716797,-0.14245281982421876,0.03397704195090806,-0.020253710435891695,-0.06087248056956482,1.449983835220337,2019-06-21 12:50:31:816
-8.17427798461914,7.718189544677734,-0.1556207275390625,0.034642832223427865,-0.021185816817419427,-0.05741037115246181,1.4549758434295654,2019-06-21 12:50:31:821
-8.195825469970703,7.736145782470703,-0.13527032470703124,0.0355749386049556,-0.023183187634978855,-0.05328247146283899,1.459967851638794,2019-06-21 12:50:31:826
-8.23054086303711,7.719386627197266,-0.1316790771484375,0.03504230638693975,-0.02464792623452244,-0.04968720399123202,1.4649598598480225,2019-06-21 12:50:31:831
-8.22096420288086,7.713401214599609,-0.15442364501953124,0.03597441276846748,-0.025047400398034325,-0.04622509457412901,1.469951868057251,2019-06-21 12:50:31:836
-8.199416717529298,7.703824554443359,-0.13527032470703124,0.03717283525900315,-0.026778455106585827,-0.04302930126603392,1.4749438762664795,2019-06-21 12:50:31:841
-8.22096420288086,7.709809967041015,-0.16400030517578124,0.03743915136801107,-0.026512138997577903,-0.039434033794426955,1.479935884475708,2019-06-21 12:50:31:846
-8.199416717529298,7.711007049560546,-0.158014892578125,0.03783862553152295,-0.02797687759712149,-0.03650455659533979,1.4849278926849365,2019-06-21 12:50:31:851
-8.200613800048828,7.7145982971191405,-0.16639447021484374,0.03863757385854672,-0.027311087324601673,-0.032642973014724894,1.489919900894165,2019-06-21 12:50:31:856
-8.177869232177734,7.720583709716797,-0.1723798828125,0.03863757385854672,-0.029175300087657143,-0.029180863597621887,1.4949119091033936,2019-06-21 12:50:31:861
-8.176672149658202,7.715795379638672,-0.16160614013671876,0.038770731913050686,-0.028775825924145258,-0.025319280017006993,1.5000319480895996,2019-06-21 12:50:31:866
-8.193431304931641,7.722977874755859,-0.16878863525390625,0.0383712577495388,-0.029308458142161105,-0.022256644763415868,1.5050239562988281,2019-06-21 12:50:31:871
-8.197022552490234,7.7145982971191405,-0.23343109130859374,0.04010231245809031,-0.03130582895972053,-0.018528219237304935,1.5100159645080566,2019-06-21 12:50:31:876
-8.179066314697266,7.706218719482422,-0.18195654296875,0.040634944676106156,-0.03330319977727996,-0.014533477602186077,1.5150079727172852,2019-06-21 12:50:31:881
-8.180263397216796,7.703824554443359,-0.1699857177734375,0.040768102730610115,-0.0314389870142245,-0.01133768429409099,1.5199999809265137,2019-06-21 12:50:31:886
-8.179066314697266,7.697839141845703,-0.19512445068359374,0.04103441883961804,-0.032637409504760156,-0.00787557487698798,1.5249919891357422,2019-06-21 12:50:31:891
-8.179066314697266,7.693050811767578,-0.1843507080078125,0.040768102730610115,-0.03410214810430373,-0.0037476751873651627,1.5299839973449707,2019-06-21 12:50:31:896
-8.146745086669922,7.679882904052734,-0.17597113037109374,0.041167576894122,-0.03450162226781562,-0.0006850399337740385,1.5349760055541992,2019-06-21 12:50:31:901
-8.18385464477539,7.677488739013672,-0.1460440673828125,0.039569680240074456,-0.034368464213311654,0.004241808082872552,1.5399680137634277,2019-06-21 12:50:31:906
-8.176672149658202,7.690656646728516,-0.1532265625,0.03983599634908238,-0.0349010964313275,0.007038127227455752,1.5450880527496338,2019-06-21 12:50:31:911
-8.14554800415039,7.696642059326171,-0.177168212890625,0.040768102730610115,-0.03649899308537505,0.010899710808070647,1.5499520301818848,2019-06-21 12:50:31:916
-8.167095489501953,7.696642059326171,-0.17118280029296876,0.04090126078511408,-0.03809688973942259,0.015693400770213275,1.5549440383911133,2019-06-21 12:50:31:921
-8.13477426147461,7.711007049560546,-0.1651973876953125,0.040768102730610115,-0.037830573630414664,0.019155510187316285,1.5599360466003418,2019-06-21 12:50:31:926
-8.143153839111328,7.725372039794921,-0.12569366455078124,0.04103441883961804,-0.037830573630414664,0.021685513222891563,1.5649280548095703,2019-06-21 12:50:31:931
-8.139562591552734,7.720583709716797,-0.1412557373046875,0.04170020911213785,-0.0387626800119424,0.025946570967018343,1.5699200630187988,2019-06-21 12:50:31:936
-8.153927581787109,7.72417495727539,-0.1604090576171875,0.04170020911213785,-0.038496363902934476,0.029674996493129276,1.5749118328094482,2019-06-21 12:50:31:941
-8.107241363525391,7.74332827758789,-0.19751861572265625,0.04316494771168143,-0.040493734720493904,0.031539209256184746,1.5800318717956543,2019-06-21 12:50:31:946
-8.10604428100586,7.748116607666016,-0.20948944091796876,0.04263231549366558,-0.03996110250247806,0.034202370346263986,1.5850238800048828,2019-06-21 12:50:31:951
-8.094073455810546,7.776846588134766,-0.1556207275390625,0.04383073798420124,-0.0398279444479741,0.03753132170886302,1.5900158882141113,2019-06-21 12:50:31:956
-8.078511383056641,7.769664093017578,-0.11851116943359374,0.0439638960387052,-0.03996110250247806,0.03992816668993434,1.5950078964233398,2019-06-21 12:50:31:961
-8.054569732666016,7.779240753173828,-0.12090533447265625,0.04356442187519331,-0.03996110250247806,0.0421918536165017,1.5999999046325684,2019-06-21 12:50:31:966
-8.085693878173828,7.795999908447265,-0.15442364501953124,0.044629686311225006,-0.03996110250247806,0.04538764692459678,1.6049919128417969,2019-06-21 12:50:31:971
-8.067737640380859,7.8019853210449215,-0.1316790771484375,0.044097054093209166,-0.04062689277499787,0.047251859687652255,1.6099839210510254,2019-06-21 12:50:31:976
-8.02943099975586,7.82951821899414,-0.12210241699218749,0.04489600242023293,-0.040493734720493904,0.0495155466142196,1.614975929260254,2019-06-21 12:50:31:981
-8.033022247314452,7.859445281982421,-0.16639447021484374,0.04582810880176067,-0.0415589991565256,0.05058081105025129,1.6199679374694824,2019-06-21 12:50:31:986
-8.034219329833984,7.859445281982421,-0.177168212890625,0.043431263820689354,-0.04142584110202164,0.05071396910475526,1.624959945678711,2019-06-21 12:50:31:991
-8.025839752197266,7.865430694580078,-0.15442364501953124,0.04383073798420124,-0.043156895810573144,0.051912391595290916,1.6299519538879395,2019-06-21 12:50:31:996
-7.981547698974609,7.857051116943359,-0.1508323974609375,0.04383073798420124,-0.043023737756069186,0.0523118657588028,1.634943962097168,2019-06-21 12:50:32:001
-7.980350616455078,7.866627777099609,-0.1173140869140625,0.04356442187519331,-0.041958473320037486,0.052844497976818644,1.6399359703063965,2019-06-21 12:50:32:006
-8.00189810180664,7.872613189697265,-0.13048199462890625,0.0439638960387052,-0.04182531526553352,0.05404292046735431,1.644927978515625,2019-06-21 12:50:32:011
-8.00189810180664,7.880992767333984,-0.11372283935546874,0.044629686311225006,-0.041958473320037486,0.05430923657636223,1.6499199867248535,2019-06-21 12:50:32:016
-7.94443814086914,7.885781097412109,-0.1316790771484375,0.04476284436572897,-0.041292683047517674,0.054575552685370156,1.6550400257110596,2019-06-21 12:50:32:021
-7.938452728271484,7.8893723449707025,-0.10893450927734374,0.045029160474736894,-0.042357947483549374,0.05484186879437808,1.660032033920288,2019-06-21 12:50:32:026
-7.940846893310547,7.916905242919921,-0.09456951904296874,0.04476284436572897,-0.042357947483549374,0.055108184903386,1.6650240421295166,2019-06-21 12:50:32:031
-7.960000213623046,7.942043975830078,-0.0981607666015625,0.044230212147713124,-0.043023737756069186,0.055108184903386,1.6700160503387451,2019-06-21 12:50:32:036
-7.960000213623046,7.970773956298828,-0.1340732421875,0.04449652825672105,-0.043023737756069186,0.054176078521858274,1.6750080585479736,2019-06-21 12:50:32:041
-7.946832305908203,7.961197296142578,-0.13287615966796876,0.04436337020221709,-0.041958473320037486,0.05430923657636223,1.6800000667572021,2019-06-21 12:50:32:046
-7.914511077880859,7.9492264709472655,-0.16160614013671876,0.04542863463824879,-0.0426242635925573,0.05430923657636223,1.6849918365478516,2019-06-21 12:50:32:051
-7.891766510009766,7.94443814086914,-0.16160614013671876,0.04489600242023293,-0.04289057970156522,0.0544423946308662,1.68998384475708,2019-06-21 12:50:32:056
-7.907328582763672,7.945635223388671,-0.17357696533203124,0.044629686311225006,-0.041958473320037486,0.054176078521858274,1.6949758529663086,2019-06-21 12:50:32:061
-7.940846893310547,7.971971038818359,-0.15681781005859374,0.04489600242023293,-0.04329005386507711,0.05404292046735431,1.699967861175537,2019-06-21 12:50:32:066
-7.902540252685546,7.986336029052734,-0.1604090576171875,0.045029160474736894,-0.044621634410116726,0.05324397214033053,1.7049598693847656,2019-06-21 12:50:32:071
-7.909722747802734,7.974365203857421,-0.18195654296875,0.044629686311225006,-0.04515426662813257,0.0523118657588028,1.7099518775939941,2019-06-21 12:50:32:076
-7.8762044372558595,7.962394378662109,-0.14843823242187498,0.0439638960387052,-0.04582005690065238,0.052045549649794874,1.7149438858032227,2019-06-21 12:50:32:081
-7.879795684814453,7.942043975830078,-0.14364990234375,0.044097054093209166,-0.045420582737140495,0.05151291743177903,1.7199358940124512,2019-06-21 12:50:32:086
-7.9049344177246095,7.960000213623046,-0.16160614013671876,0.04569495074725671,-0.04528742468263653,0.050847127159259216,1.7249279022216797,2019-06-21 12:50:32:091
-7.903737335205078,7.954014801025391,-0.17836529541015625,0.04489600242023293,-0.044621634410116726,0.051912391595290916,1.7299199104309082,2019-06-21 12:50:32:096
-7.900146087646484,7.945635223388671,-0.15921197509765625,0.04489600242023293,-0.046352689118668224,0.051646075486282986,1.7349119186401367,2019-06-21 12:50:32:101
-7.866627777099609,7.964788543701172,-0.1364674072265625,0.045029160474736894,-0.04675216328218011,0.04991502077773149,1.7400319576263428,2019-06-21 12:50:32:106
-7.853459869384765,7.958803131103515,-0.1340732421875,0.045961266856264636,-0.04728479550019596,0.04991502077773149,1.7450239658355713,2019-06-21 12:50:32:111
-7.840291961669922,7.965985626220703,-0.1508323974609375,0.0478254796193201,-0.048083743827219735,0.050048178832235446,1.7500159740447998,2019-06-21 12:50:32:116
-7.851065704345703,7.9923214416503905,-0.12329949951171874,0.047692321564816134,-0.047018479391188035,0.05018133688673941,1.7550079822540283,2019-06-21 12:50:32:121
-7.854656951904297,7.981547698974609,-0.1412557373046875,0.047559163510312176,-0.047684269663707854,0.04938238855971564,1.7599999904632568,2019-06-21 12:50:32:126
-7.8163503112792965,7.9923214416503905,-0.12808782958984374,0.047692321564816134,-0.04781742771821181,0.04911607245070772,1.7649919986724854,2019-06-21 12:50:32:131
-7.8331094665527345,8.00189810180664,-0.15442364501953124,0.04742600545580821,-0.048083743827219735,0.04791764996017206,1.7699840068817139,2019-06-21 12:50:32:136
-7.8618394470214845,8.018657257080077,-0.17836529541015625,0.04622758296527256,-0.046352689118668224,0.04698554357864433,1.7749760150909424,2019-06-21 12:50:32:141
-7.852262786865234,8.033022247314452,-0.14843823242187498,0.04809179572832802,-0.04528742468263653,0.0477844919056681,1.779968023300171,2019-06-21 12:50:32:146
-7.857051116943359,8.004292266845702,-0.1604090576171875,0.046094424910768594,-0.04755111160920388,0.04791764996017206,1.7849600315093994,2019-06-21 12:50:32:151
-7.8331094665527345,7.995912689208984,-0.20110986328125,0.04516231852924085,-0.04755111160920388,0.046586069415132436,1.789952039718628,2019-06-21 12:50:32:156
-7.799591156005859,7.9635914611816405,-0.13766448974609374,0.04649389907428048,-0.04728479550019596,0.045121330815588855,1.7949440479278564,2019-06-21 12:50:32:161
-7.813956146240234,7.994715606689453,-0.08738702392578125,0.04516231852924085,-0.04715163744569199,0.04485501470658093,1.799936056137085,2019-06-21 12:50:32:166
-7.795999908447265,8.02105142211914,-0.110131591796875,0.045029160474736894,-0.04582005690065238,0.04485501470658093,1.8049280643463135,2019-06-21 12:50:32:171
-7.817547393798828,8.062949310302734,-0.1340732421875,0.04556179269275275,-0.0460863730096603,0.044721856652076966,1.809919834136963,2019-06-21 12:50:32:176
-7.778043670654297,8.044993072509765,-0.14843823242187498,0.04436337020221709,-0.04675216328218011,0.04378975027054924,1.815039873123169,2019-06-21 12:50:32:181
-7.763678680419922,8.072525970458985,-0.14245281982421876,0.043431263820689354,-0.046352689118668224,0.04259132778001358,1.8200318813323975,2019-06-21 12:50:32:186
-7.749313690185547,8.039007659912109,-0.1077374267578125,0.041567051057633884,-0.04661900522767615,0.04099343112596603,1.825023889541626,2019-06-21 12:50:32:191
-7.732554534912109,8.024642669677734,-0.114919921875,0.041433893003129926,-0.04488795051912465,0.03992816668993434,1.8300158977508545,2019-06-21 12:50:32:196
-7.763678680419922,8.04020474243164,-0.14245281982421876,0.03970283829457842,-0.04342321191958107,0.03912921836291057,1.835007905960083,2019-06-21 12:50:32:201
-7.764875762939453,8.034219329833984,-0.12210241699218749,0.04103441883961804,-0.04368952802858899,0.03793079587237492,1.8399999141693115,2019-06-21 12:50:32:206
-7.7445253601074215,8.050978485107422,-0.08259869384765625,0.04036862856709823,-0.04102636693850975,0.03619974116382341,1.84499192237854,2019-06-21 12:50:32:211
-7.769664093017578,8.047387237548827,-0.10294909667968749,0.03783862553152295,-0.042091631374541444,0.036599215327335295,1.8499839305877686,2019-06-21 12:50:32:216
-7.7445253601074215,8.031825164794922,-0.12449658203125,0.03743915136801107,-0.04142584110202164,0.03619974116382341,1.854975938796997,2019-06-21 12:50:32:221
-7.708612884521484,8.043795989990235,-0.10893450927734374,0.038770731913050686,-0.04102636693850975,0.035001318673287755,1.8599679470062256,2019-06-21 12:50:32:226
-7.7301603698730466,8.071328887939453,-0.1364674072265625,0.037305993313507105,-0.03902899612095033,0.03287078980122436,1.864959955215454,2019-06-21 12:50:32:231
-7.711007049560546,8.066540557861329,-0.11611700439453125,0.03717283525900315,-0.03809688973942259,0.03127289314717682,1.8699519634246826,2019-06-21 12:50:32:236
-7.718189544677734,8.066540557861329,-0.09456951904296874,0.03703967720449918,-0.03809688973942259,0.03047394482015305,1.8749439716339111,2019-06-21 12:50:32:241
-7.687065399169922,8.053372650146484,-0.10294909667968749,0.03570809665945956,-0.03676530919438297,0.028876048166105506,1.8799359798431396,2019-06-21 12:50:32:246
-7.699036224365234,8.08689096069336,-0.09696368408203125,0.03570809665945956,-0.035433728649343355,0.027278151512057962,1.8849279880523682,2019-06-21 12:50:32:251
-7.703824554443359,8.103650115966797,-0.09337243652343749,0.036507044986483335,-0.035433728649343355,0.025946570967018343,1.8899199962615967,2019-06-21 12:50:32:256
-7.705021636962891,8.121606353759766,-0.14724114990234374,0.0355749386049556,-0.034368464213311654,0.02368288404045099,1.8949120044708252,2019-06-21 12:50:32:261
-7.694247894287109,8.110832611083984,-0.10294909667968749,0.03517546444144371,-0.03370267394079185,0.02235130349541137,1.9000320434570312,2019-06-21 12:50:32:266
-7.669109161376953,8.10604428100586,-0.0885841064453125,0.03597441276846748,-0.03330319977727996,0.01942182629632421,1.9050240516662598,2019-06-21 12:50:32:271
-7.655941253662109,8.118015106201172,-0.10175201416015625,0.03530862249594768,-0.031971619232240345,0.016359191042733087,1.9100160598754883,2019-06-21 12:50:32:276
-7.649955841064453,8.131183013916015,-0.09217535400390625,0.03517546444144371,-0.030240564523688836,0.013696029952653848,1.9150080680847168,2019-06-21 12:50:32:281
-7.645167510986328,8.15512466430664,-0.11252575683593749,0.034642832223427865,-0.028775825924145258,0.010100762481046875,1.9199998378753662,2019-06-21 12:50:32:286
-7.653547088623046,8.176672149658202,-0.10893450927734374,0.035441780550451635,-0.02717792927009771,0.007038127227455752,1.9249918460845947,2019-06-21 12:50:32:291
-7.639182098388671,8.14554800415039,-0.0957666015625,0.03371072584190014,-0.027843719542617527,0.004108650028368591,1.9299838542938232,2019-06-21 12:50:32:296
-7.640379180908203,8.147942169189452,-0.11132867431640625,0.033444409732892214,-0.025580032616050172,0.001711805047297276,1.9349758625030518,2019-06-21 12:50:32:301
-7.633196685791016,8.14554800415039,-0.10893450927734374,0.03371072584190014,-0.025979506779562057,0.00024706644775369485,1.9399678707122803,2019-06-21 12:50:32:306
-7.631999603271484,8.162307159423827,-0.1173140869140625,0.031979671133348625,-0.02544687456154621,-0.003348201023853277,1.9449598789215088,2019-06-21 12:50:32:311
-7.624817108154296,8.181460479736328,-0.16400030517578124,0.03264546140586844,-0.024781084289026402,-0.006277678222940439,1.9499518871307373,2019-06-21 12:50:32:316
-7.603269622802734,8.165898406982421,-0.11252575683593749,0.03251230335136447,-0.02344950374398678,-0.010405577912563257,1.9549438953399658,2019-06-21 12:50:32:321
-7.599678375244141,8.188642974853515,-0.17118280029296876,0.03118072280632486,-0.023050029580474894,-0.01333505511165042,1.9599359035491943,2019-06-21 12:50:32:326
-7.603269622802734,8.189840057373047,-0.1173140869140625,0.03038177447930109,-0.021585290980931315,-0.016664006474249468,1.9649279117584229,2019-06-21 12:50:32:331
-7.614043365478516,8.18505172729492,-0.110131591796875,0.03051493253380505,-0.020253710435891695,-0.019726641727840593,1.9699199199676514,2019-06-21 12:50:32:336
-7.602072540283203,8.20181088256836,-0.1340732421875,0.029849142261285242,-0.02052002654489962,-0.02238980281791983,1.9749119281768799,2019-06-21 12:50:32:341
-7.635590850830078,8.204205047607422,-0.11851116943359374,0.029582826152277315,-0.020253710435891695,-0.027582966943574348,1.980031967163086,2019-06-21 12:50:32:346
-7.630802520751953,8.199416717529298,-0.14245281982421876,0.02971598420678128,-0.019587920163371884,-0.03024612803365358,1.9850239753723145,2019-06-21 12:50:32:351
-7.629605438232422,8.164701324462891,-0.12329949951171874,0.030781248642812974,-0.020386868490395657,-0.03290928912373282,1.990015983581543,2019-06-21 12:50:32:356
-7.631999603271484,8.151533416748046,-0.090978271484375,0.03118072280632486,-0.01932160405436396,-0.03583876632281998,1.9950079917907715,2019-06-21 12:50:32:361
-7.633196685791016,8.14554800415039,-0.09337243652343749,0.03051493253380505,-0.01985423627237981,-0.039833507957938837,2.0,2019-06-21 12:50:32:366
-7.615240447998047,8.140759674072266,-0.12569366455078124,0.030648090588309012,-0.019587920163371884,-0.04223035293901015,2.0049920082092285,2019-06-21 12:50:32:371
-7.645167510986328,8.129985931396485,-0.10414617919921874,0.031580196969836744,-0.01972107821787585,-0.04476035597458543,2.009984016418457,2019-06-21 12:50:32:376
-7.672700408935547,8.147942169189452,-0.10654034423828125,0.0317133550243407,-0.018123181563828306,-0.04715720095565674,2.0149760246276855,2019-06-21 12:50:32:381
-7.711007049560546,8.140759674072266,-0.14484698486328124,0.03224598724235655,-0.017457391291308494,-0.04955404593672806,2.019968032836914,2019-06-21 12:50:32:386
-7.684671234130859,8.137168426513671,-0.13766448974609374,0.031047564751820897,-0.01838949767283623,-0.05248352313581522,2.0249600410461426,2019-06-21 12:50:32:391
-7.677488739013672,8.149139251708984,-0.13048199462890625,0.03211282918785259,-0.017990023509324344,-0.05448089395337465,2.029952049255371,2019-06-21 12:50:32:396
-7.651152923583984,8.14554800415039,-0.10294909667968749,0.033044935569380325,-0.01932160405436396,-0.05687773893444596,2.0349440574645996,2019-06-21 12:50:32:401
-7.649955841064453,8.135971343994141,-0.09217535400390625,0.03317809362388429,-0.01918844599986,-0.059141425861013314,2.039936065673828,2019-06-21 12:50:32:406
-7.687065399169922,8.146745086669922,-0.1723798828125,0.03371072584190014,-0.020253710435891695,-0.06260353527811632,2.0449278354644775,2019-06-21 12:50:32:411
-7.683474151611328,8.146745086669922,-0.17357696533203124,0.033044935569380325,-0.021052658762915465,-0.06460090609567576,2.0500478744506836,2019-06-21 12:50:32:416
-7.681079986572265,8.149139251708984,-0.16759155273437498,0.033843883896404095,-0.0219847651444432,-0.06646511885873121,2.055039882659912,2019-06-21 12:50:32:421
-7.676291656494141,8.17308090209961,-0.16639447021484374,0.03371072584190014,-0.02131897487192339,-0.06992722827583424,2.0600318908691406,2019-06-21 12:50:32:426
-7.678685821533203,8.13477426147461,-0.18554779052734374,0.03291177751487637,-0.022517397362459047,-0.07325617963843328,2.065023899078369,2019-06-21 12:50:32:431
-7.665517913818359,8.141956756591796,-0.15442364501953124,0.03291177751487637,-0.02344950374398678,-0.07485407629248082,2.0700159072875977,2019-06-21 12:50:32:436
-7.660729583740234,8.102453033447265,-0.12090533447265625,0.033843883896404095,-0.02344950374398678,-0.07698460516454421,2.075007915496826,2019-06-21 12:50:32:441
-7.663123748779297,8.118015106201172,-0.11611700439453125,0.03437651611441994,-0.024115294016506587,-0.08044671458164722,2.0799999237060547,2019-06-21 12:50:32:446
-7.66671499633789,8.112029693603516,-0.15202947998046876,0.03570809665945956,-0.02464792623452244,-0.08377566594424628,2.084991931915283,2019-06-21 12:50:32:451
-7.679882904052734,8.138365509033203,-0.1651973876953125,0.03490914833243579,-0.024115294016506587,-0.08537356259829382,2.0899839401245117,2019-06-21 12:50:32:456
-7.673897491455078,8.149139251708984,-0.0981607666015625,0.03437651611441994,-0.024248452071010555,-0.08737093341585324,2.0949759483337402,2019-06-21 12:50:32:461
-7.690656646728516,8.135971343994141,-0.07781036376953125,0.033843883896404095,-0.024115294016506587,-0.08963462034242059,2.0999679565429688,2019-06-21 12:50:32:466
-7.693050811767578,8.125197601318359,-0.1077374267578125,0.03517546444144371,-0.024781084289026402,-0.09283041365051567,2.1049599647521973,2019-06-21 12:50:32:471
-7.6715033264160155,8.095270538330078,-0.16759155273437498,0.03450967416892391,-0.02544687456154621,-0.09536041668609097,2.109951972961426,2019-06-21 12:50:32:476
-7.691853729248047,8.073723052978515,-0.114919921875,0.03597441276846748,-0.026778455106585827,-0.09855620999418604,2.1149439811706543,2019-06-21 12:50:32:481
-7.6427733459472655,8.095270538330078,-0.10414617919921874,0.036107570822971446,-0.02611266483406602,-0.10002094859372962,2.119935989379883,2019-06-21 12:50:32:486
-7.665517913818359,8.110832611083984,-0.12928491210937498,0.03477599027793183,-0.02464792623452244,-0.10308358384732075,2.1249279975891113,2019-06-21 12:50:32:491
-7.672700408935547,8.082102630615234,-0.12808782958984374,0.03530862249594768,-0.02637898094307394,-0.10428200633785639,2.12992000579834,2019-06-21 12:50:32:496
-7.683474151611328,8.107241363525391,-0.14724114990234374,0.03504230638693975,-0.027311087324601673,-0.10827674797297525,2.1349120140075684,2019-06-21 12:50:32:501
-7.691853729248047,8.061752227783202,-0.14963531494140625,0.03504230638693975,-0.02531371650704225,-0.11120622517206243,2.1400320529937744,2019-06-21 12:50:32:506
-7.690656646728516,8.080905548095703,-0.1316790771484375,0.03450967416892391,-0.024115294016506587,-0.112670963771606,2.145024061203003,2019-06-21 12:50:32:511
-7.690656646728516,8.074920135498047,-0.14005865478515625,0.034642832223427865,-0.025580032616050172,-0.11400254431664562,2.1500158309936523,2019-06-21 12:50:32:516
-7.708612884521484,8.079708465576172,-0.14724114990234374,0.03477599027793183,-0.02611266483406602,-0.11573359902519713,2.155007839202881,2019-06-21 12:50:32:521
-7.732554534912109,8.076117218017577,-0.07781036376953125,0.03624072887747541,-0.026645297052081865,-0.11693202151573279,2.1599998474121094,2019-06-21 12:50:32:526
-7.7445253601074215,8.065343475341797,-0.14484698486328124,0.03570809665945956,-0.025846348725058095,-0.11906255038779617,2.164991855621338,2019-06-21 12:50:32:531
-7.721780792236328,8.047387237548827,-0.16400030517578124,0.0366402030409873,-0.025713190670554133,-0.12052728898733975,2.1699838638305664,2019-06-21 12:50:32:536
-7.72417495727539,8.055766815185546,-0.1173140869140625,0.0366402030409873,-0.026512138997577903,-0.12345676618642693,2.174975872039795,2019-06-21 12:50:32:541
-7.718189544677734,8.05935806274414,-0.09456951904296874,0.03584125471396352,-0.02637898094307394,-0.12358992424093089,2.1799678802490234,2019-06-21 12:50:32:546
-7.706218719482422,8.066540557861329,-0.081401611328125,0.0355749386049556,-0.027577403433609596,-0.12532097894948238,2.184959888458252,2019-06-21 12:50:32:551
-7.738539947509765,8.050978485107422,-0.138861572265625,0.03783862553152295,-0.02717792927009771,-0.1287830883665854,2.1899518966674805,2019-06-21 12:50:32:556
-7.726569122314453,8.071328887939453,-0.13048199462890625,0.03823809969503484,-0.025047400398034325,-0.1305141430751369,2.194943904876709,2019-06-21 12:50:32:561
-7.706218719482422,8.065343475341797,-0.15681781005859374,0.03770546747701899,-0.023183187634978855,-0.13370993638323198,2.1999359130859375,2019-06-21 12:50:32:566
-7.720583709716797,8.08689096069336,-0.11372283935546874,0.037305993313507105,-0.02278371347146697,-0.13517467498277555,2.204927921295166,2019-06-21 12:50:32:571
-7.721780792236328,8.065343475341797,-0.11851116943359374,0.03823809969503484,-0.024115294016506587,-0.13743836190934292,2.2099199295043945,2019-06-21 12:50:32:576
-7.689459564208984,8.085693878173828,-0.14245281982421876,0.03717283525900315,-0.02278371347146697,-0.13970204051353186,2.214911937713623,2019-06-21 12:50:32:581
-7.750510772705078,8.080905548095703,-0.16400030517578124,0.03530862249594768,-0.02185160708993924,-0.14289783382162696,2.220031976699829,2019-06-21 12:50:32:586
-7.750510772705078,8.092876373291016,-0.18075946044921876,0.03450967416892391,-0.020386868490395657,-0.1458273110207141,2.2250239849090576,2019-06-21 12:50:32:591
-7.768467010498047,8.08689096069336,-0.15202947998046876,0.03251230335136447,-0.019454762108867922,-0.14755836572926562,2.230015993118286,2019-06-21 12:50:32:596
-7.738539947509765,8.066540557861329,-0.14364990234375,0.03184651307884467,-0.01972107821787585,-0.14942257849232107,2.2350080013275146,2019-06-21 12:50:32:601
-7.731357452392578,8.044993072509765,-0.14245281982421876,0.031047564751820897,-0.01972107821787585,-0.1507541590373607,2.240000009536743,2019-06-21 12:50:32:606
-7.767269927978515,8.047387237548827,-0.10893450927734374,0.031979671133348625,-0.020253710435891695,-0.1524852137459122,2.2449920177459717,2019-06-21 12:50:32:611
-7.776846588134766,8.03062808227539,-0.071824951171875,0.03184651307884467,-0.017990023509324344,-0.15621363927202314,2.2499840259552,2019-06-21 12:50:32:616
-7.742131195068359,8.01985433959961,-0.07541619873046874,0.03184651307884467,-0.016125810746268877,-0.15900995841660634,2.2549760341644287,2019-06-21 12:50:32:621
-7.775649505615235,8.03062808227539,-0.07541619873046874,0.030115458370293165,-0.01585949463726095,-0.1615399614521816,2.2599680423736572,2019-06-21 12:50:32:626
-7.798394073486328,8.034219329833984,-0.10294909667968749,0.030914406697316935,-0.014128439928709446,-0.16193943561569352,2.2649600505828857,2019-06-21 12:50:32:631
-7.8019853210449215,8.062949310302734,-0.09456951904296874,0.030781248642812974,-0.012663701329165868,-0.1632710161607331,2.2699520587921143,2019-06-21 12:50:32:636
-7.821138641357422,8.035416412353515,-0.10654034423828125,0.03038177447930109,-0.011598436893134171,-0.1654015450327965,2.2749440670013428,2019-06-21 12:50:32:641
-7.813956146240234,8.010277679443359,-0.071824951171875,0.030914406697316935,-0.010932646620614361,-0.16673312557783612,2.279935836791992,2019-06-21 12:50:32:646
-7.813956146240234,8.02105142211914,-0.0981607666015625,0.031047564751820897,-0.010533172457102476,-0.16846418028638763,2.2849278450012207,2019-06-21 12:50:32:651
-7.821138641357422,8.024642669677734,-0.09696368408203125,0.030115458370293165,-0.008535801639543048,-0.16873049639539556,2.289919853210449,2019-06-21 12:50:32:656
-7.851065704345703,8.007883514404297,-0.081401611328125,0.02971598420678128,-0.008269485530535123,-0.17046155110394706,2.2950398921966553,2019-06-21 12:50:32:661
-7.854656951904297,7.995912689208984,-0.12569366455078124,0.02865071977074958,-0.007603695258015315,-0.17219260581249857,2.300031900405884,2019-06-21 12:50:32:666
-7.849868621826172,7.995912689208984,-0.09456951904296874,0.027319139225709964,-0.006272114712975695,-0.1748557669025778,2.3050239086151123,2019-06-21 12:50:32:671
-7.864233612060547,8.004292266845702,-0.13527032470703124,0.027585455334717887,-0.005473166385951924,-0.1763205055021214,2.310015916824341,2019-06-21 12:50:32:676
-7.8474744567871095,8.010277679443359,-0.14245281982421876,0.02691966506219808,-0.005340008331447961,-0.17831787631968082,2.3150079250335693,2019-06-21 12:50:32:681
-7.857051116943359,8.012671844482421,-0.13766448974609374,0.02691966506219808,-0.004407901949920228,-0.17991577297372838,2.319999933242798,2019-06-21 12:50:32:686
-7.891766510009766,8.009080596923829,-0.14963531494140625,0.026387032844182232,-0.0021442150233528757,-0.18217945990029571,2.3249919414520264,2019-06-21 12:50:32:691
-7.879795684814453,8.006686431884765,-0.15442364501953124,0.026120716735174306,-0.0014784247508330662,-0.1843099887723591,2.329983949661255,2019-06-21 12:50:32:696
-7.86782485961914,7.993518524169922,-0.1556207275390625,0.026120716735174306,-0.0009457925328172187,-0.184709462935871,2.3349759578704834,2019-06-21 12:50:32:701
-7.907328582763672,7.976759368896484,-0.18554779052734374,0.02518861035364657,-0.0014784247508330662,-0.18803841429847,2.339967966079712,2019-06-21 12:50:32:706
-7.88697817993164,7.979153533935547,-0.15921197509765625,0.02425650397211884,-0.0005463183693053329,-0.1891036787345017,2.3449599742889404,2019-06-21 12:50:32:711
-7.920496490478516,7.943241058349609,-0.16160614013671876,0.023723871754102992,0.001983684666269943,-0.19030210122503738,2.349951982498169,2019-06-21 12:50:32:716
-7.9348614807128905,7.975562286376953,-0.114919921875,0.022924923427079223,0.0011847363392461718,-0.19256578815160477,2.3549439907073975,2019-06-21 12:50:32:721
-7.932467315673828,7.952817718505859,-0.1532265625,0.02146018482753564,0.0013178943937501336,-0.19349789453313246,2.359935998916626,2019-06-21 12:50:32:726
-7.948029388427734,7.9348614807128905,-0.1508323974609375,0.020661236500511868,0.0025163168842857906,-0.19363105258763647,2.3649280071258545,2019-06-21 12:50:32:731
-7.971971038818359,7.900146087646484,-0.15442364501953124,0.019862288173488098,0.0026494749387897527,-0.19403052675114832,2.369920015335083,2019-06-21 12:50:32:736
-7.967182708740234,7.863036529541016,-0.19751861572265625,0.019729130118984136,0.0025163168842857906,-0.19496263313267606,2.3749120235443115,2019-06-21 12:50:32:741
-7.981547698974609,7.82951821899414,-0.20948944091796876,0.018530707628448478,0.0014510524482540957,-0.19562842340519587,2.3800320625305176,2019-06-21 12:50:32:746
-7.998306854248047,7.82951821899414,-0.16878863525390625,0.018131233464936593,0.0026494749387897527,-0.19656052978672361,2.385023832321167,2019-06-21 12:50:32:751
-8.028233917236328,7.8462773742675775,-0.16639447021484374,0.016400178756385088,0.0035815813203174864,-0.1972263200592434,2.3900158405303955,2019-06-21 12:50:32:756
-8.018657257080077,7.845080291748046,-0.196321533203125,0.01666649486539301,0.004646845756349181,-0.19682684589573154,2.395007848739624,2019-06-21 12:50:32:761
-8.039007659912109,7.831912384033203,-0.18075946044921876,0.01666649486539301,0.002782632993293715,-0.1961610556232117,2.3999998569488525,2019-06-21 12:50:32:766
-8.027036834716796,7.809167816162109,-0.16280322265625,0.014669124047833581,0.003981055483829371,-0.19536210729618794,2.404991865158081,2019-06-21 12:50:32:771
-8.02105142211914,7.809167816162109,-0.20230694580078123,0.014402807938825658,0.005046319919861067,-0.19469631702366816,2.4099838733673096,2019-06-21 12:50:32:776
-8.064146392822266,7.803182403564453,-0.1723798828125,0.014136491829817735,0.004913161865357105,-0.1941636848056523,2.414975881576538,2019-06-21 12:50:32:781
-8.078511383056641,7.788817413330078,-0.16400030517578124,0.013470701557297923,0.005046319919861067,-0.1926989462061087,2.4199678897857666,2019-06-21 12:50:32:786
-8.121606353759766,7.7876203308105465,-0.196321533203125,0.013470701557297923,0.005445794083372953,-0.19083473344305324,2.424959897994995,2019-06-21 12:50:32:791
-8.112029693603516,7.764875762939453,-0.1508323974609375,0.013337543502793961,0.005046319919861067,-0.18936999484350964,2.4299519062042236,2019-06-21 12:50:32:796
-8.119212188720702,7.748116607666016,-0.158014892578125,0.013470701557297923,0.0042473715928372955,-0.18857104651648587,2.434943914413452,2019-06-21 12:50:32:801
-8.17308090209961,7.755299102783203,-0.17836529541015625,0.012671753230274153,0.0031821071568056006,-0.1868399918079344,2.4399359226226807,2019-06-21 12:50:32:806
-8.179066314697266,7.736145782470703,-0.2106865234375,0.011606488794242456,0.0038478974293254097,-0.18510893709938286,2.444927930831909,2019-06-21 12:50:32:811
-8.177869232177734,7.705021636962891,-0.1891390380859375,0.010940698521722648,0.0042473715928372955,-0.18364419849983932,2.4499199390411377,2019-06-21 12:50:32:816
-8.182657562255859,7.690656646728516,-0.16639447021484374,0.011473330739738495,0.001983684666269943,-0.18111419546426402,2.454911947250366,2019-06-21 12:50:32:821
-8.199416717529298,7.693050811767578,-0.18075946044921876,0.010674382412714725,0.0013178943937501336,-0.17898366659220064,2.4600319862365723,2019-06-21 12:50:32:826
-8.23173794555664,7.667912078857421,-0.22983984375,0.01107385657622661,0.0017173685572620194,-0.17538839912059365,2.465023994445801,2019-06-21 12:50:32:831
-8.232935028076172,7.648758758544922,-0.1795623779296875,0.013603859611801885,-0.0009457925328172187,-0.17219260581249857,2.4700160026550293,2019-06-21 12:50:32:836
-8.237723358154296,7.621225860595703,-0.17597113037109374,0.013870175720809811,-0.0024105311323608,-0.1689968125044035,2.475008010864258,2019-06-21 12:50:32:841
-8.274832916259765,7.606860870361328,-0.177168212890625,0.015068598211345466,-0.004274743895416266,-0.1654015450327965,2.4800000190734863,2019-06-21 12:50:32:846
-8.264059173583984,7.596087127685546,-0.18195654296875,0.016133862647377165,-0.005473166385951924,-0.16193943561569352,2.484992027282715,2019-06-21 12:50:32:851
-8.307154144287109,7.567357147216796,-0.13287615966796876,0.016932810974400934,-0.008136327476031161,-0.15754521981706276,2.4899840354919434,2019-06-21 12:50:32:856
-8.308351226806641,7.578130889892578,-0.110131591796875,0.017199127083408858,-0.007870011367023238,-0.15488205872698352,2.494976043701172,2019-06-21 12:50:32:861
-8.304759979248047,7.558977569580078,-0.15681781005859374,0.01932965595547225,-0.00933474996656682,-0.14915626238331317,2.4999680519104004,2019-06-21 12:50:32:866
-8.32750454711914,7.56137173461914,-0.1723798828125,0.022392291209063372,-0.009734224130078704,-0.14529467880269828,2.504960060119629,2019-06-21 12:50:32:871
-8.332292877197265,7.576933807373047,-0.16878863525390625,0.02345755564509507,-0.01279685938366983,-0.14036783078605167,2.5099520683288574,2019-06-21 12:50:32:876
-8.32750454711914,7.566160064697265,-0.14724114990234374,0.024522820081126762,-0.01426159798321341,-0.13557414914628743,2.514943838119507,2019-06-21 12:50:32:881
-8.357431610107422,7.56137173461914,-0.16280322265625,0.026653348953190156,-0.0135958077106936,-0.13171256556567254,2.5199358463287354,2019-06-21 12:50:32:886
-8.340672454833983,7.562568817138672,-0.1532265625,0.02705282311670204,-0.014527914092221334,-0.12718519171253787,2.524927854537964,2019-06-21 12:50:32:891
-8.329898712158203,7.575736724853515,-0.10654034423828125,0.029050193934261465,-0.0163921268552768,-0.12239150175039522,2.5299198627471924,2019-06-21 12:50:32:896
-8.335884124755859,7.5398242492675775,-0.13766448974609374,0.029316510043269392,-0.01932160405436396,-0.11759781178825258,2.534911870956421,2019-06-21 12:50:32:901
-8.359825775146485,7.5553863220214845,-0.13527032470703124,0.031580196969836744,-0.021585290980931315,-0.11426886042565355,2.540031909942627,2019-06-21 12:50:32:906
-8.321519134521484,7.536233001708984,-0.16160614013671876,0.03397704195090806,-0.023715819852994702,-0.10974148657251885,2.5450239181518555,2019-06-21 12:50:32:911
-8.328701629638672,7.547006744384765,-0.15442364501953124,0.033444409732892214,-0.024248452071010555,-0.10441516439236036,2.550015926361084,2019-06-21 12:50:32:916
-8.334687042236327,7.567357147216796,-0.16639447021484374,0.03317809362388429,-0.024115294016506587,-0.10055358081174547,2.5550079345703125,2019-06-21 12:50:32:921
-8.333489959716797,7.544612579345703,-0.1747740478515625,0.03517546444144371,-0.024914242343530364,-0.0980235777761702,2.559999942779541,2019-06-21 12:50:32:926
-8.359825775146485,7.55179507446289,-0.138861572265625,0.036507044986483335,-0.024914242343530364,-0.09322988781402755,2.5649919509887695,2019-06-21 12:50:32:931
-8.380176177978516,7.542218414306641,-0.1364674072265625,0.03743915136801107,-0.02611266483406602,-0.0885693559063889,2.569983959197998,2019-06-21 12:50:32:936
-8.35623452758789,7.558977569580078,-0.1651973876953125,0.03863757385854672,-0.02797687759712149,-0.084707772325774,2.5749759674072266,2019-06-21 12:50:32:941
-8.320322052001952,7.573342559814453,-0.16400030517578124,0.040768102730610115,-0.02717792927009771,-0.08071303069065515,2.579967975616455,2019-06-21 12:50:32:946
-8.284409576416015,7.574539642333984,-0.16160614013671876,0.038903889967554645,-0.02811003565162545,-0.07565302461950459,2.5849599838256836,2019-06-21 12:50:32:951
-8.301168731689453,7.55179507446289,-0.16280322265625,0.03930336413106653,-0.029574774251169028,-0.07365565380194516,2.589951992034912,2019-06-21 12:50:32:956
-8.283212493896484,7.572145477294922,-0.12210241699218749,0.041167576894122,-0.03064003868720072,-0.07006038633033819,2.5949440002441406,2019-06-21 12:50:32:961
-8.266453338623046,7.603269622802734,-0.1556207275390625,0.04090126078511408,-0.030373722578192798,-0.06686459302224311,2.599936008453369,2019-06-21 12:50:32:966
-8.28800082397461,7.636787933349609,-0.2035040283203125,0.041167576894122,-0.031039512850712606,-0.06353564165964407,2.6049280166625977,2019-06-21 12:50:32:971
-8.314336639404297,7.6128462829589845,-0.17836529541015625,0.041433893003129926,-0.03130582895972053,-0.06113879667857274,2.609920024871826,2019-06-21 12:50:32:976
-8.290394989013672,7.646364593505859,-0.15442364501953124,0.041167576894122,-0.033436357831783926,-0.058342477533989544,2.6150400638580322,2019-06-21 12:50:32:981
-8.302365814208985,7.653547088623046,-0.1891390380859375,0.04196652522114577,-0.03396899004979977,-0.055945632552918234,2.6200318336486816,2019-06-21 12:50:32:986
-8.277227081298827,7.648758758544922,-0.20230694580078123,0.04263231549366558,-0.033170041722776,-0.05421457784436672,2.62502384185791,2019-06-21 12:50:32:991
-8.307154144287109,7.63798501586914,-0.16400030517578124,0.04183336716664181,-0.03396899004979977,-0.04915457177321617,2.6300158500671387,2019-06-21 12:50:32:996
-8.299971649169922,7.615240447998047,-0.16759155273437498,0.041433893003129926,-0.03290372561376808,-0.046890884846648814,2.635007858276367,2019-06-21 12:50:33:001
-8.286803741455078,7.63798501586914,-0.2035040283203125,0.041433893003129926,-0.03290372561376808,-0.0455593043016092,2.6399998664855957,2019-06-21 12:50:33:006
-8.290394989013672,7.645167510986328,-0.16878863525390625,0.040768102730610115,-0.03450162226781562,-0.042496669048018076,2.644991874694824,2019-06-21 12:50:33:011
-8.268847503662109,7.629605438232422,-0.18075946044921876,0.03983599634908238,-0.03396899004979977,-0.03930087573992299,2.6499838829040527,2019-06-21 12:50:33:016
-8.274832916259765,7.652350006103515,-0.1939273681640625,0.03970283829457842,-0.03476793837682354,-0.03770297908587545,2.6549758911132812,2019-06-21 12:50:33:021
-8.268847503662109,7.639182098388671,-0.16160614013671876,0.03983599634908238,-0.03583320281285524,-0.03503981799579621,2.6599678993225098,2019-06-21 12:50:33:026
-8.28800082397461,7.610452117919921,-0.1604090576171875,0.041433893003129926,-0.03636583503087109,-0.03131139246968528,2.6649599075317383,2019-06-21 12:50:33:031
-8.283212493896484,7.643970428466797,-0.12449658203125,0.03983599634908238,-0.03649899308537505,-0.029047705543117926,2.669951915740967,2019-06-21 12:50:33:036
-8.273635833740235,7.6272112731933595,-0.17118280029296876,0.038770731913050686,-0.03450162226781562,-0.02665086056204661,2.6749439239501953,2019-06-21 12:50:33:041
-8.266453338623046,7.617634613037109,-0.14364990234375,0.039569680240074456,-0.03516741254033543,-0.024653489744487184,2.679935932159424,2019-06-21 12:50:33:046
-8.258073760986328,7.636787933349609,-0.1460440673828125,0.03983599634908238,-0.0359663608673592,-0.021990328654407944,2.6849279403686523,2019-06-21 12:50:33:051
-8.291592071533202,7.652350006103515,-0.1556207275390625,0.04023547051259427,-0.03463478032231958,-0.019194009509824743,2.689919948577881,2019-06-21 12:50:33:056
-8.274832916259765,7.648758758544922,-0.1747740478515625,0.03943652218557049,-0.0349010964313275,-0.015332425929209848,2.6949119567871094,2019-06-21 12:50:33:061
-8.271241668701173,7.636787933349609,-0.18674487304687498,0.03903704802205861,-0.035433728649343355,-0.012802422893634572,2.7000319957733154,2019-06-21 12:50:33:066
-8.262862091064452,7.630802520751953,-0.14364990234375,0.039569680240074456,-0.03636583503087109,-0.010938210130579105,2.705024003982544,2019-06-21 12:50:33:071
-8.262862091064452,7.631999603271484,-0.138861572265625,0.038770731913050686,-0.03476793837682354,-0.0092071554220276,2.7100160121917725,2019-06-21 12:50:33:076
-8.24131460571289,7.6284083557128906,-0.12090533447265625,0.03983599634908238,-0.031971619232240345,-0.006810310440956286,2.715008020401001,2019-06-21 12:50:33:081
-8.268847503662109,7.652350006103515,-0.1532265625,0.03850441580404276,-0.03210477728674431,-0.002948726860341391,2.7200000286102295,2019-06-21 12:50:33:086
-8.276029998779297,7.646364593505859,-0.17357696533203124,0.03770546747701899,-0.034368464213311654,-0.0009513560427819623,2.724992036819458,2019-06-21 12:50:33:091
-8.23173794555664,7.6272112731933595,-0.16400030517578124,0.038104941640530875,-0.03303688366827204,0.0011791728292814283,2.7299840450286865,2019-06-21 12:50:33:096
-8.24969418334961,7.635590850830078,-0.22983984375,0.0383712577495388,-0.03210477728674431,0.004641282246384438,2.734976053237915,2019-06-21 12:50:33:101
-8.266453338623046,7.634393768310547,-0.20470111083984374,0.03863757385854672,-0.03250425145025619,0.007171285281959714,2.7399680614471436,2019-06-21 12:50:33:106
-8.262862091064452,7.659532501220703,-0.13287615966796876,0.03743915136801107,-0.032637409504760156,0.009834446372038952,2.744959831237793,2019-06-21 12:50:33:111
-8.240117523193359,7.639182098388671,-0.14005865478515625,0.037971783586026917,-0.03237109339575223,0.013163397734637998,2.7499518394470215,2019-06-21 12:50:33:116
-8.23173794555664,7.630802520751953,-0.13287615966796876,0.03757230942251503,-0.030906354796208645,0.015427084661205353,2.75494384765625,2019-06-21 12:50:33:121
-8.254482513427734,7.640379180908203,-0.13048199462890625,0.03743915136801107,-0.03170530312323242,0.01662550715174101,2.7599358558654785,2019-06-21 12:50:33:126
-8.224555450439453,7.649955841064453,-0.158014892578125,0.03690651914999522,-0.03237109339575223,0.019554984350828173,2.764927864074707,2019-06-21 12:50:33:131
-8.265256256103516,7.648758758544922,-0.1604090576171875,0.036107570822971446,-0.032770567559264115,0.021818671277395525,2.7699198722839355,2019-06-21 12:50:33:136
-8.244905853271485,7.6427733459472655,-0.1340732421875,0.03703967720449918,-0.03250425145025619,0.02488130653098665,2.7750399112701416,2019-06-21 12:50:33:141
-8.237723358154296,7.6272112731933595,-0.16400030517578124,0.03717283525900315,-0.03170530312323242,0.027544467621065886,2.78003191947937,2019-06-21 12:50:33:146
-8.238920440673828,7.677488739013672,-0.1508323974609375,0.038104941640530875,-0.03250425145025619,0.030740260929160972,2.7850239276885986,2019-06-21 12:50:33:151
-8.234132110595702,7.687065399169922,-0.114919921875,0.0383712577495388,-0.030773196741704683,0.03353658007374417,2.790015935897827,2019-06-21 12:50:33:156
-8.222161285400391,7.709809967041015,-0.14724114990234374,0.0383712577495388,-0.030773196741704683,0.034335528400767944,2.7950079441070557,2019-06-21 12:50:33:161
-8.218570037841797,7.705021636962891,-0.19033612060546876,0.037305993313507105,-0.0314389870142245,0.035933425054815483,2.799999952316284,2019-06-21 12:50:33:166
-8.198219635009766,7.69544497680664,-0.1364674072265625,0.037305993313507105,-0.03183846117773638,0.037398163654359065,2.8049919605255127,2019-06-21 12:50:33:171
-8.210190460205078,7.703824554443359,-0.15442364501953124,0.03703967720449918,-0.03237109339575223,0.03992816668993434,2.809983968734741,2019-06-21 12:50:33:176
-8.177869232177734,7.720583709716797,-0.14963531494140625,0.0383712577495388,-0.03183846117773638,0.043123959998029426,2.8149759769439697,2019-06-21 12:50:33:181
-8.176672149658202,7.72417495727539,-0.13048199462890625,0.03770546747701899,-0.03170530312323242,0.04445554054306904,2.8199679851531982,2019-06-21 12:50:33:186
-8.15632174682617,7.719386627197266,-0.18075946044921876,0.03690651914999522,-0.031039512850712606,0.045787121088108666,2.8249599933624268,2019-06-21 12:50:33:191
-8.18505172729492,7.74332827758789,-0.16759155273437498,0.037305993313507105,-0.03183846117773638,0.04738501774215621,2.8299520015716553,2019-06-21 12:50:33:196
-8.194628387451171,7.739737030029297,-0.1532265625,0.03717283525900315,-0.03237109339575223,0.04858344023269187,2.834944009780884,2019-06-21 12:50:33:201
-8.193431304931641,7.75290493774414,-0.18315362548828124,0.03743915136801107,-0.03250425145025619,0.050048178832235446,2.8399360179901123,2019-06-21 12:50:33:206
-8.170686737060546,7.739737030029297,-0.16759155273437498,0.037971783586026917,-0.033170041722776,0.05177923354078695,2.844928026199341,2019-06-21 12:50:33:211
-8.171883819580078,7.757693267822265,-0.14724114990234374,0.03743915136801107,-0.034235306158807696,0.052711339922314686,2.8499200344085693,2019-06-21 12:50:33:216
-8.157518829345703,7.736145782470703,-0.12329949951171874,0.037305993313507105,-0.03330319977727996,0.0544423946308662,2.854912042617798,2019-06-21 12:50:33:221
-8.147942169189452,7.734948699951172,-0.14484698486328124,0.036507044986483335,-0.03383583199529581,0.056972397666441466,2.860031843185425,2019-06-21 12:50:33:226
-8.14554800415039,7.726569122314453,-0.17357696533203124,0.03624072887747541,-0.03250425145025619,0.05830397821148108,2.8650238513946533,2019-06-21 12:50:33:231
-8.159912994384765,7.727766204833984,-0.20948944091796876,0.03717283525900315,-0.03223793534124827,0.06003503292003259,2.870015859603882,2019-06-21 12:50:33:236
-8.132380096435547,7.737342864990234,-0.16400030517578124,0.03743915136801107,-0.03450162226781562,0.06283135206461579,2.8750078678131104,2019-06-21 12:50:33:241
-8.137168426513671,7.740934112548828,-0.15681781005859374,0.038104941640530875,-0.035433728649343355,0.06442924871866333,2.879999876022339,2019-06-21 12:50:33:246
-8.129985931396485,7.74332827758789,-0.18794195556640625,0.038903889967554645,-0.03450162226781562,0.06642661953622277,2.8849918842315674,2019-06-21 12:50:33:251
-8.129985931396485,7.762481597900391,-0.2082923583984375,0.03770546747701899,-0.03530057059483939,0.06775820008126238,2.889983892440796,2019-06-21 12:50:33:256
-8.14435092163086,7.726569122314453,-0.16878863525390625,0.03703967720449918,-0.03570004475835128,0.06882346451729408,2.8949759006500244,2019-06-21 12:50:33:261
-8.104847198486327,7.760087432861328,-0.15442364501953124,0.037971783586026917,-0.03530057059483939,0.07228557393439708,2.899967908859253,2019-06-21 12:50:33:266
-8.119212188720702,7.763678680419922,-0.1699857177734375,0.03757230942251503,-0.0349010964313275,0.07348399642493274,2.9049599170684814,2019-06-21 12:50:33:271
-8.124000518798828,7.749313690185547,-0.16280322265625,0.03677336109549126,-0.0359663608673592,0.07614715751501198,2.90995192527771,2019-06-21 12:50:33:276
-8.109635528564453,7.751707855224609,-0.158014892578125,0.03690651914999522,-0.036232676976367124,0.0792097927686031,2.9149439334869385,2019-06-21 12:50:33:281
-8.11562094116211,7.736145782470703,-0.1508323974609375,0.03770546747701899,-0.037031625303390894,0.08040821525913876,2.919935941696167,2019-06-21 12:50:33:286
-8.101255950927735,7.727766204833984,-0.1508323974609375,0.03850441580404276,-0.03836320584843051,0.08160663774967442,2.9249279499053955,2019-06-21 12:50:33:291
-8.112029693603516,7.762481597900391,-0.18075946044921876,0.038770731913050686,-0.039694786393470134,0.08280506024021009,2.929919958114624,2019-06-21 12:50:33:296
-8.101255950927735,7.776846588134766,-0.14484698486328124,0.0383712577495388,-0.03942847028446221,0.08493558911227347,2.9349119663238525,2019-06-21 12:50:33:301
-8.10604428100586,7.784029083251953,-0.15921197509765625,0.03770546747701899,-0.039561628338966176,0.08706611798433686,2.9400320053100586,2019-06-21 12:50:33:306
-8.092876373291016,7.776846588134766,-0.1699857177734375,0.03770546747701899,-0.041292683047517674,0.08853085658388044,2.945024013519287,2019-06-21 12:50:33:311
-8.100058868408203,7.79001449584961,-0.19033612060546876,0.03703967720449918,-0.039694786393470134,0.09092770156495175,2.9500160217285156,2019-06-21 12:50:33:316
-8.112029693603516,7.77205825805664,-0.1891390380859375,0.03703967720449918,-0.04062689277499787,0.09345770460052702,2.955008029937744,2019-06-21 12:50:33:321
-8.09766470336914,7.785226165771484,-0.1412557373046875,0.03597441276846748,-0.04022741861148598,0.09545507541808647,2.9600000381469727,2019-06-21 12:50:33:326
-8.096467620849609,7.812759063720703,-0.19033612060546876,0.03570809665945956,-0.04089320888400579,0.09851771067167758,2.964992046356201,2019-06-21 12:50:33:331
-8.08808804321289,7.795999908447265,-0.15442364501953124,0.0366402030409873,-0.04102636693850975,0.10064823954374097,2.9699840545654297,2019-06-21 12:50:33:336
-8.067737640380859,7.786423248291015,-0.13527032470703124,0.03717283525900315,-0.042357947483549374,0.10291192647030832,2.974976062774658,2019-06-21 12:50:33:341
-8.072525970458985,7.762481597900391,-0.14364990234375,0.036107570822971446,-0.04275742164706126,0.10544192950588359,2.9799678325653076,2019-06-21 12:50:33:346
-8.070131805419921,7.76128451538086,-0.1556207275390625,0.03703967720449918,-0.04222478942904541,0.10810509059596285,2.984959840774536,2019-06-21 12:50:33:351
-8.03062808227539,7.763678680419922,-0.13287615966796876,0.03703967720449918,-0.04355636997408503,0.11223299028558566,2.9899518489837646,2019-06-21 12:50:33:356
-8.066540557861329,7.77205825805664,-0.18195654296875,0.036107570822971446,-0.04329005386507711,0.11502930943016886,2.994943857192993,2019-06-21 12:50:33:361
-8.05935806274414,7.77205825805664,-0.1651973876953125,0.03717283525900315,-0.04329005386507711,0.11849141884727186,2.9999358654022217,2019-06-21 12:50:33:366
-8.033022247314452,7.768467010498047,-0.16280322265625,0.037971783586026917,-0.04355636997408503,0.12088826382834318,3.00492787361145,2019-06-21 12:50:33:371
-8.04858432006836,7.81036489868164,-0.1843507080078125,0.0383712577495388,-0.0460863730096603,0.12461668935445412,3.0099198818206787,2019-06-21 12:50:33:376
-8.04858432006836,7.828321136474609,-0.18674487304687498,0.03943652218557049,-0.044754792464620684,0.1274130084990373,3.0149118900299072,2019-06-21 12:50:33:381
-8.044993072509765,7.828321136474609,-0.12928491210937498,0.04050178662160219,-0.04741795355469992,0.13047564375262843,3.0200319290161133,2019-06-21 12:50:33:386
-8.027036834716796,7.824729888916015,-0.1364674072265625,0.04050178662160219,-0.04941532437225936,0.1327393306791958,3.025023937225342,2019-06-21 12:50:33:391
-8.007883514404297,7.848671539306641,-0.13527032470703124,0.04050178662160219,-0.04901585020874747,0.13540249176927502,3.0300159454345703,2019-06-21 12:50:33:396
-7.995912689208984,7.840291961669922,-0.18315362548828124,0.040634944676106156,-0.049282166317755394,0.13739986258683448,3.035007953643799,2019-06-21 12:50:33:401
-8.003095184326172,7.870219024658203,-0.18554779052734374,0.04103441883961804,-0.051545853244322745,0.1407288222718119,3.0399999618530273,2019-06-21 12:50:33:406
-7.964788543701172,7.896554840087891,-0.16400030517578124,0.04196652522114577,-0.05207848546233859,0.14365829947089906,3.044991970062256,2019-06-21 12:50:33:411
-7.97316812133789,7.913313995361328,-0.15202947998046876,0.0428986316026735,-0.054741646552417825,0.14592198639746642,3.0499839782714844,2019-06-21 12:50:33:416
-7.951620635986328,7.914511077880859,-0.16160614013671876,0.042365999384657654,-0.054741646552417825,0.1467209347244902,3.054975986480713,2019-06-21 12:50:33:421
-7.926481903076172,7.91570816040039,-0.15442364501953124,0.04023547051259427,-0.0544753304434099,0.14805251526952984,3.0599679946899414,2019-06-21 12:50:33:426
-7.91570816040039,7.925284820556641,-0.1747740478515625,0.04196652522114577,-0.05527427877043368,0.15004988608708925,3.06496000289917,2019-06-21 12:50:33:431
-7.916905242919921,7.942043975830078,-0.10534326171875,0.043431263820689354,-0.05607322709745745,0.15124830857762492,3.0699520111083984,2019-06-21 12:50:33:436
-7.86782485961914,7.952817718505859,-0.0981607666015625,0.04369757992969728,-0.05540743682493764,0.15297936328617642,3.074944019317627,2019-06-21 12:50:33:441
-7.852262786865234,8.024642669677734,-0.10654034423828125,0.045029160474736894,-0.0555405948794416,0.15284620523167244,3.0799360275268555,2019-06-21 12:50:33:446
-7.822335723876953,8.053372650146484,-0.0574599609375,0.04569495074725671,-0.057271649587993106,0.15284620523167244,3.084928035736084,2019-06-21 12:50:33:451
-7.8331094665527345,8.100058868408203,-0.09696368408203125,0.045029160474736894,-0.05514112071592972,0.1525798891226645,3.0899200439453125,2019-06-21 12:50:33:456
-7.77205825805664,8.143153839111328,-0.07302203369140625,0.044097054093209166,-0.053942698225394055,0.15311252134068037,3.094912052154541,2019-06-21 12:50:33:461
-7.751707855224609,8.13477426147461,-0.09935784912109374,0.04449652825672105,-0.05567375293394557,0.15204725690464868,3.100031852722168,2019-06-21 12:50:33:466
-7.709809967041015,8.150336334228516,-0.11851116943359374,0.043031789657177466,-0.053942698225394055,0.15124830857762492,3.1050238609313965,2019-06-21 12:50:33:471
-7.676291656494141,8.169489654541016,-0.158014892578125,0.043031789657177466,-0.053143749898370285,0.14805251526952984,3.110015869140625,2019-06-21 12:50:33:476
-7.646364593505859,8.150336334228516,-0.1077374267578125,0.0428986316026735,-0.052344801571346515,0.14578882834296245,3.1150078773498535,2019-06-21 12:50:33:481
-7.635590850830078,8.153927581787109,-0.0957666015625,0.04130073494862596,-0.05221164351684255,0.14312566725288323,3.119999885559082,2019-06-21 12:50:33:486
-7.621225860595703,8.168292572021484,-0.090978271484375,0.04090126078511408,-0.05048058880829105,0.13926407534988994,3.1249918937683105,2019-06-21 12:50:33:491
-7.618831695556641,8.17308090209961,-0.110131591796875,0.040768102730610115,-0.048483217990731624,0.13526933371477107,3.129983901977539,2019-06-21 12:50:33:496
-7.572145477294922,8.157518829345703,-0.08499285888671874,0.04050178662160219,-0.04914900826325143,0.132073540406676,3.1349759101867676,2019-06-21 12:50:33:501
-7.587707550048828,8.162307159423827,-0.090978271484375,0.04050178662160219,-0.048083743827219735,0.12967669542560467,3.139967918395996,2019-06-21 12:50:33:506
-7.593692962646484,8.19223422241211,-0.0790074462890625,0.040634944676106156,-0.04741795355469992,0.12581511184498978,3.1449599266052246,2019-06-21 12:50:33:511
-7.578130889892578,8.195825469970703,-0.08020452880859374,0.04036862856709823,-0.04582005690065238,0.12275247659139867,3.149951934814453,2019-06-21 12:50:33:516
-7.573342559814453,8.222161285400391,-0.0981607666015625,0.03983599634908238,-0.04422216024660484,0.1200893155013194,3.1549439430236816,2019-06-21 12:50:33:521
-7.5697513122558595,8.22096420288086,-0.07421911621093749,0.04010231245809031,-0.043822686083092956,0.11715983830223224,3.15993595123291,2019-06-21 12:50:33:526
-7.55179507446289,8.20300796508789,-0.08738702392578125,0.03930336413106653,-0.043822686083092956,0.11289878055810547,3.1649279594421387,2019-06-21 12:50:33:531
-7.544612579345703,8.187445892333985,-0.0694307861328125,0.039969154403586345,-0.0426242635925573,0.10943667114100247,3.169919967651367,2019-06-21 12:50:33:536
-7.505108856201172,8.237723358154296,-0.038306640625,0.04050178662160219,-0.04062689277499787,0.1043766650698519,3.1749119758605957,2019-06-21 12:50:33:541
-7.46560513305664,8.250891265869141,-0.06823370361328125,0.04090126078511408,-0.040493734720493904,0.10104771370725286,3.1800320148468018,2019-06-21 12:50:33:546
-7.472787628173828,8.266453338623046,-0.03950372314453125,0.04130073494862596,-0.0387626800119424,0.09585454958159835,3.1850240230560303,2019-06-21 12:50:33:551
-7.44645181274414,8.28800082397461,-0.07421911621093749,0.04090126078511408,-0.038895838066446364,0.09159349183747155,3.190016031265259,2019-06-21 12:50:33:556
-7.440466400146485,8.31673080444336,-0.08978118896484374,0.040768102730610115,-0.03636583503087109,0.08746559214784874,3.1950080394744873,2019-06-21 12:50:33:561
-7.426101409912109,8.325110382080078,-0.04788330078125,0.038903889967554645,-0.03450162226781562,0.08267190218570611,3.200000047683716,2019-06-21 12:50:33:566
-7.3650502014160155,8.31673080444336,-0.07302203369140625,0.03943652218557049,-0.03237109339575223,0.07667978973302783,3.2049920558929443,2019-06-21 12:50:33:571
-7.405751007080078,8.311942474365233,-0.08978118896484374,0.03717283525900315,-0.0314389870142245,0.07201925782538916,3.209984064102173,2019-06-21 12:50:33:576
-7.397371429443359,8.291592071533202,-0.0598541259765625,0.0355749386049556,-0.02970793230567299,0.06669293564523068,3.2149758338928223,2019-06-21 12:50:33:581
-7.412933502197266,8.326307464599608,-0.08020452880859374,0.0355749386049556,-0.02611266483406602,0.06110029735606428,3.219967842102051,2019-06-21 12:50:33:586
-7.397371429443359,8.343066619873047,-0.12569366455078124,0.03504230638693975,-0.023848977907498663,0.05550765906689789,3.2249598503112793,2019-06-21 12:50:33:591
-7.38899185180664,8.349052032470702,-0.10294909667968749,0.03437651611441994,-0.02265055541696301,0.05071396910475526,3.229951858520508,2019-06-21 12:50:33:596
-7.367444366455078,8.340672454833983,-0.071824951171875,0.03264546140586844,-0.02052002654489962,0.04552080497910074,3.2349438667297363,2019-06-21 12:50:33:601
-7.362656036376953,8.326307464599608,-0.10534326171875,0.03144703891533278,-0.018922129890852075,0.03912921836291057,3.239935874938965,2019-06-21 12:50:33:606
-7.373429779052734,8.339475372314453,-0.11611700439453125,0.03038177447930109,-0.017324233236804532,0.03353658007374417,3.2449278831481934,2019-06-21 12:50:33:611
-7.362656036376953,8.332292877197265,-0.09935784912109374,0.02971598420678128,-0.015593178528253027,0.02834341594808966,3.249919891357422,2019-06-21 12:50:33:616
-7.363853118896484,8.328701629638672,-0.08499285888671874,0.028917035879757504,-0.013462649656189637,0.022484461549915333,3.2549118995666504,2019-06-21 12:50:33:621
-7.380612274169922,8.302365814208985,-0.11132867431640625,0.028251245607237695,-0.013329491601685676,0.01795708769678063,3.2600319385528564,2019-06-21 12:50:33:626
-7.397371429443359,8.332292877197265,-0.08379577636718749,0.026120716735174306,-0.01146527883863021,0.012098133298606305,3.265023946762085,2019-06-21 12:50:33:631
-7.342305633544922,8.332292877197265,-0.11611700439453125,0.0243896620266228,-0.008935275803054933,0.00690496917295179,3.2700159549713135,2019-06-21 12:50:33:636
-7.359064788818359,8.32750454711914,-0.07062786865234374,0.023857029808606954,-0.0080031694215272,0.0013123308837853901,3.275007963180542,2019-06-21 12:50:33:641
-7.363853118896484,8.331095794677735,-0.12329949951171874,0.022658607318071296,-0.005606324440455885,-0.004812939623396858,3.2799999713897705,2019-06-21 12:50:33:646
-7.377021026611328,8.311942474365233,-0.1268907470703125,0.021726500936543564,-0.0049405341679360755,-0.010006103749051372,3.284991979598999,2019-06-21 12:50:33:651
-7.374626861572265,8.326307464599608,-0.158014892578125,0.020528078446007906,-0.004141585840912305,-0.014799793711194,3.2899839878082275,2019-06-21 12:50:33:656
-7.371035614013672,8.339475372314453,-0.22026318359375,0.01932965595547225,-0.003742111677400419,-0.019859799782344555,3.294975996017456,2019-06-21 12:50:33:661
-7.362656036376953,8.361022857666015,-0.19751861572265625,0.018131233464936593,-0.0025436891868647615,-0.02518612196250303,3.2999680042266846,2019-06-21 12:50:33:666
-7.367444366455078,8.355037445068358,-0.14843823242187498,0.01653333681088905,-0.001877898914344952,-0.03091191830617339,3.304960012435913,2019-06-21 12:50:33:671
-7.384203521728516,8.34546078491211,-0.177168212890625,0.014802282102337543,-0.00014684420579344723,-0.03650455659533979,3.3099520206451416,2019-06-21 12:50:33:676
-7.384203521728516,8.338278289794921,-0.13287615966796876,0.01453596599332962,0.0018505266117659813,-0.04236351099351412,3.31494402885437,2019-06-21 12:50:33:681
-7.369838531494141,8.357431610107422,-0.12928491210937498,0.013071227393786038,0.0013178943937501336,-0.04729035901016071,3.3199360370635986,2019-06-21 12:50:33:686
-7.384203521728516,8.34546078491211,-0.14364990234375,0.013071227393786038,0.001983684666269943,-0.052882997299327106,3.324928045272827,2019-06-21 12:50:33:691
-7.404553924560546,8.353840362548828,-0.110131591796875,0.011473330739738495,0.0026494749387897527,-0.05807616142498162,3.3299200534820557,2019-06-21 12:50:33:696
-7.412933502197266,8.339475372314453,-0.13766448974609374,0.010541224358210761,0.0017173685572620194,-0.06353564165964407,3.334912061691284,2019-06-21 12:50:33:701
-7.448845977783203,8.313139556884765,-0.1532265625,0.011207014630730571,0.0035815813203174864,-0.0689951218943065,3.340031862258911,2019-06-21 12:50:33:706
-7.421313079833984,8.307154144287109,-0.1316790771484375,0.011739646848746418,0.002782632993293715,-0.07365565380194516,3.3450238704681396,2019-06-21 12:50:33:711
-7.444057647705078,8.311942474365233,-0.11851116943359374,0.010541224358210761,0.0030489491023016385,-0.07884881792759968,3.350015878677368,2019-06-21 12:50:33:716
-7.450043060302734,8.313139556884765,-0.12808782958984374,0.010674382412714725,0.0021168427207739053,-0.08337619178073438,3.3550078868865967,2019-06-21 12:50:33:721
-7.442860565185547,8.350249114990234,-0.15202947998046876,0.012272279066762268,0.003981055483829371,-0.08723777536134927,3.359999895095825,2019-06-21 12:50:33:726
-7.488349700927734,8.321519134521484,-0.1364674072265625,0.013071227393786038,0.00451368770184522,-0.0926972555960117,3.3649919033050537,2019-06-21 12:50:33:731
-7.482364288330078,8.28919790649414,-0.15681781005859374,0.012272279066762268,0.0021168427207739053,-0.09735778750365039,3.3699839115142822,2019-06-21 12:50:33:736
-7.493138031005859,8.283212493896484,-0.16400030517578124,0.011739646848746418,0.0021168427207739053,-0.10161884524777716,3.3749759197235107,2019-06-21 12:50:33:741
-7.499123443603516,8.272438751220703,-0.14724114990234374,0.01187280490325038,0.0009184202302382479,-0.10534727077388809,3.3799679279327393,2019-06-21 12:50:33:746
-7.506305938720703,8.293986236572266,-0.08978118896484374,0.01187280490325038,0.0021168427207739053,-0.10827674797297525,3.3849599361419678,2019-06-21 12:50:33:751
-7.530247589111328,8.250891265869141,-0.110131591796875,0.012272279066762268,0.0021168427207739053,-0.11000780268152677,3.3899519443511963,2019-06-21 12:50:33:756
-7.506305938720703,8.21258462524414,-0.08978118896484374,0.013337543502793961,0.001983684666269943,-0.11333675404412581,3.394943952560425,2019-06-21 12:50:33:761
-7.557780487060547,8.238920440673828,-0.08259869384765625,0.01240543712126623,0.0006521041212303242,-0.11679886346122882,3.3999359607696533,2019-06-21 12:50:33:766
-7.592495880126953,8.226949615478516,-0.07541619873046874,0.012005962957754345,-0.0005463183693053329,-0.1199946567693239,3.404927968978882,2019-06-21 12:50:33:771
-7.591298797607422,8.195825469970703,-0.11252575683593749,0.013470701557297923,-0.0004131603148013711,-0.12119307925985956,3.4099199771881104,2019-06-21 12:50:33:776
-7.605663787841797,8.17308090209961,-0.07541619873046874,0.016133862647377165,-0.0024105311323608,-0.12332360813192296,3.414911985397339,2019-06-21 12:50:33:781
-7.661926666259766,8.151533416748046,-0.09217535400390625,0.018131233464936593,-0.0028100052958726857,-0.1249215047859705,3.420032024383545,2019-06-21 12:50:33:786
-7.6715033264160155,8.11681802368164,-0.10175201416015625,0.019196497900968286,-0.0036089536228964565,-0.12611992727650617,3.4250240325927734,2019-06-21 12:50:33:791
-7.690656646728516,8.120409271240234,-0.08020452880859374,0.020261762336999983,-0.005606324440455885,-0.12691887560352993,3.430016040802002,2019-06-21 12:50:33:796
-7.6858683166503905,8.121606353759766,-0.08618994140625,0.022392291209063372,-0.006671588876487581,-0.12785098198505768,3.4350080490112305,2019-06-21 12:50:33:801
-7.675094573974609,8.108438446044921,-0.10534326171875,0.023857029808606954,-0.008535801639543048,-0.1277178239305537,3.440000057220459,2019-06-21 12:50:33:806
-7.661926666259766,8.114423858642578,-0.13766448974609374,0.02625387478967827,-0.0107994885661104,-0.12785098198505768,3.4449920654296875,2019-06-21 12:50:33:811
-7.6715033264160155,8.110832611083984,-0.14963531494140625,0.027185981171206002,-0.012131069111150018,-0.12918256253009727,3.449983835220337,2019-06-21 12:50:33:816
-7.677488739013672,8.107241363525391,-0.1460440673828125,0.028251245607237695,-0.014128439928709446,-0.12998151085712106,3.4549758434295654,2019-06-21 12:50:33:821
-7.722977874755859,8.102453033447265,-0.12808782958984374,0.02865071977074958,-0.014527914092221334,-0.12998151085712106,3.459967851638794,2019-06-21 12:50:33:826
-7.6858683166503905,8.100058868408203,-0.14843823242187498,0.030248616424797127,-0.017457391291308494,-0.1311799333476567,3.4649598598480225,2019-06-21 12:50:33:831
-7.691853729248047,8.096467620849609,-0.10294909667968749,0.03211282918785259,-0.018788971836348114,-0.1311799333476567,3.469951868057251,2019-06-21 12:50:33:836
-7.690656646728516,8.107241363525391,-0.110131591796875,0.03317809362388429,-0.019454762108867922,-0.13011466891162501,3.4749438762664795,2019-06-21 12:50:33:841
-7.732554534912109,8.074920135498047,-0.100554931640625,0.03317809362388429,-0.02131897487192339,-0.13011466891162501,3.479935884475708,2019-06-21 12:50:33:846
-7.715795379638672,8.05816098022461,-0.11252575683593749,0.033843883896404095,-0.02145213292642735,-0.12958203669360915,3.4849278926849365,2019-06-21 12:50:33:851
-7.715795379638672,8.06893472290039,-0.09935784912109374,0.03597441276846748,-0.02185160708993924,-0.13038098502063294,3.489919900894165,2019-06-21 12:50:33:856
-7.736145782470703,8.036613494873047,-0.10893450927734374,0.03637388693197938,-0.023715819852994702,-0.1305141430751369,3.4949119091033936,2019-06-21 12:50:33:861
-7.734948699951172,8.049781402587891,-0.09217535400390625,0.03717283525900315,-0.024381610125514517,-0.1305141430751369,3.5000319480895996,2019-06-21 12:50:33:866
-7.75290493774414,8.04020474243164,-0.13048199462890625,0.038770731913050686,-0.024781084289026402,-0.12958203669360915,3.505023956298828,2019-06-21 12:50:33:871
-7.749313690185547,8.01985433959961,-0.119708251953125,0.038770731913050686,-0.025580032616050172,-0.12864993031208144,3.5100159645080566,2019-06-21 12:50:33:876
-7.786423248291015,8.041401824951171,-0.07661328125,0.039569680240074456,-0.026778455106585827,-0.12904940447559332,3.515007972717285,2019-06-21 12:50:33:881
-7.77205825805664,8.027036834716796,-0.09456951904296874,0.041567051057633884,-0.027577403433609596,-0.12705203365803389,3.5199999809265137,2019-06-21 12:50:33:886
-7.786423248291015,8.028233917236328,-0.12329949951171874,0.04183336716664181,-0.030240564523688836,-0.12611992727650617,3.524991989135742,2019-06-21 12:50:33:891
-7.782832000732422,8.004292266845702,-0.09935784912109374,0.04183336716664181,-0.03050688063269676,-0.12545413700398636,3.5299839973449707,2019-06-21 12:50:33:896
-7.775649505615235,7.987533111572265,-0.1651973876953125,0.0428986316026735,-0.029574774251169028,-0.1242557145134507,3.534976005554199,2019-06-21 12:50:33:901
-7.805576568603516,8.007883514404297,-0.138861572265625,0.0439638960387052,-0.0314389870142245,-0.12265781785940313,3.5399680137634277,2019-06-21 12:50:33:906
-7.815153228759765,8.003095184326172,-0.12449658203125,0.04369757992969728,-0.03250425145025619,-0.12052728898733975,3.5449600219726562,2019-06-21 12:50:33:911
-7.817547393798828,7.9923214416503905,-0.12569366455078124,0.04489600242023293,-0.03237109339575223,-0.11799728595176448,3.5499520301818848,2019-06-21 12:50:33:916
-7.807970733642578,8.017460174560547,-0.15681781005859374,0.04556179269275275,-0.033569515886287885,-0.1171983376247407,3.5549440383911133,2019-06-21 12:50:33:921
-7.811561981201172,7.993518524169922,-0.13766448974609374,0.045961266856264636,-0.033436357831783926,-0.11506780875267732,3.559936046600342,2019-06-21 12:50:33:926
-7.82951821899414,8.007883514404297,-0.10414617919921874,0.04622758296527256,-0.03383583199529581,-0.11373622820763771,3.5650558471679688,2019-06-21 12:50:33:931
-7.831912384033203,8.007883514404297,-0.11252575683593749,0.04715968934680029,-0.035034254485831466,-0.11160569933557431,3.569920063018799,2019-06-21 12:50:33:936
-7.8307153015136715,8.009080596923829,-0.14484698486328124,0.04649389907428048,-0.033436357831783926,-0.11054043489954261,3.5749118328094482,2019-06-21 12:50:33:941
-7.813956146240234,8.034219329833984,-0.17357696533203124,0.04649389907428048,-0.03330319977727996,-0.10894253824549507,3.5800318717956543,2019-06-21 12:50:33:946
-7.807970733642578,8.012671844482421,-0.06823370361328125,0.04715968934680029,-0.03290372561376808,-0.10854306408198318,3.585023880004883,2019-06-21 12:50:33:951
-7.792408660888672,8.006686431884765,-0.10294909667968749,0.046094424910768594,-0.03290372561376808,-0.10761095770045544,3.5900158882141113,2019-06-21 12:50:33:956
-7.8163503112792965,8.004292266845702,-0.1077374267578125,0.04729284740130425,-0.0314389870142245,-0.10587990299190395,3.59500789642334,2019-06-21 12:50:33:961
-7.819941558837891,7.9923214416503905,-0.14484698486328124,0.0478254796193201,-0.033569515886287885,-0.10468148050136829,3.5999999046325684,2019-06-21 12:50:33:966
-7.81874447631836,8.018657257080077,-0.1340732421875,0.04622758296527256,-0.032637409504760156,-0.1036162160653366,3.604991912841797,2019-06-21 12:50:33:971
-7.821138641357422,8.01985433959961,-0.1604090576171875,0.045961266856264636,-0.032637409504760156,-0.10175200330228112,3.6099839210510254,2019-06-21 12:50:33:976
-7.841489044189453,8.016263092041015,-0.18794195556640625,0.04569495074725671,-0.035433728649343355,-0.10108621302976131,3.614975929260254,2019-06-21 12:50:33:981
-7.824729888916015,7.997109771728516,-0.12569366455078124,0.04622758296527256,-0.032637409504760156,-0.09962147443021774,3.6199679374694824,2019-06-21 12:50:33:986
-7.812759063720703,8.003095184326172,-0.20709527587890625,0.04436337020221709,-0.03183846117773638,-0.09789041972166623,3.624959945678711,2019-06-21 12:50:33:991
-7.834306549072266,8.01147476196289,-0.1651973876953125,0.04449652825672105,-0.03170530312323242,-0.09589304890410681,3.6299519538879395,2019-06-21 12:50:33:996
-7.841489044189453,8.010277679443359,-0.1532265625,0.0439638960387052,-0.030240564523688836,-0.09456146835906719,3.634943962097168,2019-06-21 12:50:34:001
-7.819941558837891,7.998306854248047,-0.1843507080078125,0.042232841330153696,-0.029574774251169028,-0.09389567808654736,3.6399359703063965,2019-06-21 12:50:34:006
-7.825926971435547,7.994715606689453,-0.17118280029296876,0.04249915743916162,-0.029441616196665066,-0.09176514921448398,3.644927978515625,2019-06-21 12:50:34:011
-7.837897796630859,7.987533111572265,-0.1699857177734375,0.04209968327564973,-0.028509509815137335,-0.09083304283295625,3.6499199867248535,2019-06-21 12:50:34:016
-7.8331094665527345,7.991124359130859,-0.14843823242187498,0.041167576894122,-0.027311087324601673,-0.08950146228791662,3.654911994934082,2019-06-21 12:50:34:021
-7.853459869384765,7.987533111572265,-0.18794195556640625,0.040768102730610115,-0.027444245379105635,-0.08923514617890871,3.660032033920288,2019-06-21 12:50:34:026
