ACCELEROMETER X (m/s²),ACCELEROMETER Y (m/s²),ACCELEROMETER Z (m/s²),GYROSCOPE X (rad/s),GYROSCOPE Y (rad/s),GYROSCOPE Z (rad/s),Time since start in ms ,YYYY-MO-DD HH-MI-SS_SSS,MagX,MagY,MagZ
0.20648729801177979,-0.17583449184894562,9.68349838256836,-0.00031033404615073726,5.327622958150625e-05,-0.0034415112704726026,0.0,2019-06-21 12:52:05:365,0.0,0.0,0.0
0.1729608029127121,-0.15907125174999237,9.736183166503906,-0.0007099057700438648,0.0032498500166628654,0.0008205870960478969,0.004120826721191406,2019-06-21 12:52:05:369,0.0,0.0,0.0
0.16098704934120178,-0.15188699960708618,9.702656745910645,-0.0031073360483840485,-0.003676059820805624,0.007480115740908581,0.010004043579101562,2019-06-21 12:52:05:375,0.0,0.0,0.0
0.22325053811073303,-0.10878150165081024,9.69547176361084,-0.0036400983035624977,0.002317516070100579,0.002685255184228213,0.015019893646240234,2019-06-21 12:52:05:380,0.0,0.0,0.0
0.20169779658317566,-0.1111762523651123,9.688287734985352,-0.001642239716606151,0.0025838971976898037,0.0032180174394066618,0.019109249114990234,2019-06-21 12:52:05:384,0.0,0.0,0.0
0.20648729801177979,-0.13512374460697174,9.707446098327637,0.0006219999979394207,0.008977044779979845,-0.0014436525534790934,0.025003910064697266,2019-06-21 12:52:05:390,0.0,0.0,0.0
0.18493454158306122,-0.14230799674987793,9.743367195129395,-0.0009762868976330894,0.002450706633895191,0.002019302235217989,0.02911233901977539,2019-06-21 12:52:05:394,0.0,0.0,0.0
0.22325053811073303,-0.16146600246429443,9.750551223754883,0.0010215716893232575,0.002450706633895191,0.004949494768736622,0.03500032424926758,2019-06-21 12:52:05:400,0.0,0.0,0.0
0.18493454158306122,-0.14709749817848206,9.673919677734375,0.0011547622531178697,0.0005860385457148754,0.0024188740566389883,0.03911161422729492,2019-06-21 12:52:05:404,0.0,0.0,0.0
0.19690829515457153,-0.16146600246429443,9.748156547546387,0.003285811533905992,0.0003196573856163601,0.0036175891307904987,0.04500913619995117,2019-06-21 12:52:05:410,0.0,0.0,0.0
0.1993030458688736,-0.14470274746418,9.731393814086914,-0.003906479431151722,-0.0012786295424654405,0.0008205870960478969,0.04912996292114258,2019-06-21 12:52:05:414,0.0,0.0,0.0
0.1921187937259674,-0.1566765010356903,9.77449893951416,8.92376858697129e-05,0.005913661552629436,0.005881828975373233,0.055001258850097656,2019-06-21 12:52:05:420,0.0,0.0,0.0
0.16817130148410797,-0.12315000593662262,9.731393814086914,0.000755190561734033,-0.0004794860621698949,0.0036175891307904987,0.05913400650024414,2019-06-21 12:52:05:424,0.0,0.0,0.0
0.17535555362701416,-0.1303342580795288,9.781682968139648,-0.0032405266121786607,0.0064464238078078846,0.008146068299807315,0.06501007080078125,2019-06-21 12:52:05:430,0.0,0.0,0.0
0.16098704934120178,-0.1303342580795288,9.748156547546387,0.0014211433807070943,0.0020511348124741917,0.006680972358140907,0.06911134719848633,2019-06-21 12:52:05:434,0.0,0.0,0.0
0.20888204872608185,-0.11596575379371643,9.78647232055664,-0.001775430280400763,0.0025838971976898037,0.006414591230551682,0.07499933242797852,2019-06-21 12:52:05:440,0.0,0.0,0.0
0.1993030458688736,-0.15428175032138824,9.728999137878418,0.003019430146242442,-0.0010122483498576347,0.009877545889211602,0.07911348342895508,2019-06-21 12:52:05:444,0.0,0.0,0.0
0.18253979086875916,-0.1375184953212738,9.757735252380371,0.002619858454858605,0.001251991429706518,0.006680972358140907,0.08502388000488281,2019-06-21 12:52:05:450,0.0,0.0,0.0
0.21606628596782684,-0.1638607531785965,9.740972518920898,-0.0011094774614277016,0.00298346888907364,0.007879687172218092,0.08911275863647461,2019-06-21 12:52:05:454,0.0,0.0,0.0
0.18253979086875916,-0.15428175032138824,9.714630126953125,-0.0005767152062492525,0.004048993399430539,0.0034843985669958865,0.09502363204956055,2019-06-21 12:52:05:460,0.0,0.0,0.0
0.20169779658317566,-0.1638607531785965,9.712235450744629,0.0018207150720909312,0.003915802835635926,0.006814162661861195,0.09911060333251953,2019-06-21 12:52:05:464,0.0,0.0,0.0
0.18253979086875916,-0.14709749817848206,9.755340576171875,0.0003556188378409054,-0.003143297565627175,0.0036175891307904987,0.10500574111938477,2019-06-21 12:52:05:470,0.0,0.0,0.0
0.1993030458688736,-0.1566765010356903,9.693077087402344,0.0018207150720909312,0.00298346888907364,0.006414591230551682,0.1091151237487793,2019-06-21 12:52:05:474,0.0,0.0,0.0
0.17056605219841003,-0.12793950736522675,9.757735252380371,-0.000843096333838477,0.006979186062986335,0.004949494768736622,0.11501455307006836,2019-06-21 12:52:05:480,0.0,0.0,0.0
0.1921187937259674,-0.1375184953212738,9.760130882263184,0.000755190561734033,0.0049813273459928245,0.0028184457480228253,0.11911201477050781,2019-06-21 12:52:05:484,0.0,0.0,0.0
0.1466185450553894,-0.11357100307941437,9.738577842712402,0.0008883811255286454,0.0007192291095094877,0.005215875896325846,0.12500524520874023,2019-06-21 12:52:05:490,0.0,0.0,0.0
0.13464480638504028,-0.19259774684906006,9.72420883178711,0.0022202867634747683,-0.0012786295424654405,0.0033512080032012744,0.12911176681518555,2019-06-21 12:52:05:494,0.0,0.0,0.0
0.16098704934120178,-0.1638607531785965,9.769709587097168,0.000755190561734033,-0.0011454389786708283,0.002685255184228213,0.1350255012512207,2019-06-21 12:52:05:500,0.0,0.0,0.0
0.17056605219841003,-0.19499249756336212,9.760130882263184,0.001287952816912482,0.0005860385457148754,0.005082685592605559,0.13912153244018555,2019-06-21 12:52:05:504,0.0,0.0,0.0
0.18972404301166534,-0.14709749817848206,9.740972518920898,0.0020870961996801557,0.003116659452868253,0.006015019279093521,0.1450042724609375,2019-06-21 12:52:05:510,0.0,0.0,0.0
0.1394343078136444,-0.15428175032138824,9.743367195129395,0.001287952816912482,0.002717087761484416,-0.0007776997345060318,0.14911413192749023,2019-06-21 12:52:05:514,0.0,0.0,0.0
0.16098704934120178,-0.1710449904203415,9.764920234680176,0.003019430146242442,0.00298346888907364,0.004816304465016335,0.15501928329467773,2019-06-21 12:52:05:520,0.0,0.0,0.0
0.16817130148410797,-0.13512374460697174,9.784077644348145,0.0015543339445017069,0.0035162311442520897,0.00428354194976356,0.15911579132080078,2019-06-21 12:52:05:524,0.0,0.0,0.0
0.1394343078136444,-0.17583449184894562,9.740972518920898,-0.0011094774614277016,0.0009856102370987122,0.006814162661861195,0.16410589218139648,2019-06-21 12:52:05:529,0.0,0.0,0.0
0.19451354444026947,-0.16625550389289856,9.73378849029541,0.0027530490186532175,0.003915802835635926,0.0037507796945851113,0.17000579833984375,2019-06-21 12:52:05:535,0.0,0.0,0.0
0.1729608029127121,-0.14949224889278412,9.776893615722656,0.0015543339445017069,0.006313232983938947,-0.0006445091707114195,0.17410993576049805,2019-06-21 12:52:05:539,0.0,0.0,0.0
0.17535555362701416,-0.14949224889278412,9.781682968139648,0.0011547622531178697,0.0004528479494109724,0.0018861116714233767,0.1800065040588379,2019-06-21 12:52:05:545,0.0,0.0,0.0
0.16098704934120178,-0.11596575379371643,9.796051979064941,0.0018207150720909312,0.003116659452868253,0.007746496868497805,0.18503141403198242,2019-06-21 12:52:05:550,0.0,0.0,0.0
0.1801450401544571,-0.14230799674987793,9.712235450744629,-0.0019086208441953755,0.0008524196733041,-0.00011174689115100237,0.18911218643188477,2019-06-21 12:52:05:554,0.0,0.0,0.0
0.17535555362701416,-0.1303342580795288,9.707446098327637,0.00435133604426289,0.0015183725572957428,0.0001546342608201902,0.19500255584716797,2019-06-21 12:52:05:560,0.0,0.0,0.0
0.22804003953933716,-0.15188699960708618,9.757735252380371,0.0011547622531178697,-0.0028769164380379507,0.004683113641147397,0.19911813735961914,2019-06-21 12:52:05:564,0.0,0.0,0.0
0.18253979086875916,-0.1566765010356903,9.728999137878418,0.0036853832252898284,0.0009856102370987122,0.0006873965322532847,0.2050032615661621,2019-06-21 12:52:05:570,0.0,0.0,0.0
0.17056605219841003,-0.17583449184894562,9.72420883178711,-0.002840954920794824,0.0017847536848849673,0.002685255184228213,0.20911073684692383,2019-06-21 12:52:05:574,0.0,0.0,0.0
0.18253979086875916,-0.16146600246429443,9.79126262664795,8.92376858697129e-05,0.0005860385457148754,0.0014865399800395396,0.21500444412231445,2019-06-21 12:52:05:580,0.0,0.0,0.0
0.16338180005550385,-0.13991324603557587,9.709840774536133,0.0004888094016355178,-0.0010122483498576347,0.004949494768736622,0.21911096572875977,2019-06-21 12:52:05:584,0.0,0.0,0.0
0.1801450401544571,-0.14230799674987793,9.738577842712402,-0.0013758585890169264,-0.001944582361438502,0.0029516363118174374,0.22500371932983398,2019-06-21 12:52:05:590,0.0,0.0,0.0
0.18493454158306122,-0.15428175032138824,9.796051979064941,0.003285811533905992,0.0009856102370987122,0.0018861116714233767,0.2291107177734375,2019-06-21 12:52:05:594,0.0,0.0,0.0
0.1801450401544571,-0.1375184953212738,9.738577842712402,0.0031526207100370544,0.001651563121090355,0.00308482687561205,0.23500299453735352,2019-06-21 12:52:05:600,0.0,0.0,0.0
0.1729608029127121,-0.14470274746418,9.700262069702148,8.92376858697129e-05,-0.000213104918326025,0.00548225702391507,0.23910856246948242,2019-06-21 12:52:05:604,0.0,0.0,0.0
0.16817130148410797,-0.14230799674987793,9.750551223754883,0.0011547622531178697,0.0025838971976898037,-0.002642367627630604,0.24500322341918945,2019-06-21 12:52:05:610,0.0,0.0,0.0
0.17056605219841003,-0.12075525522232056,9.788866996765137,0.0003556188378409054,0.001651563121090355,0.005215875896325846,0.2503218650817871,2019-06-21 12:52:05:616,0.0,0.0,0.0
0.15140804648399353,-0.1375184953212738,9.812814712524414,0.004484526608057502,-0.0003462954983752826,0.0018861116714233767,0.2542691230773926,2019-06-21 12:52:05:620,0.0,0.0,0.0
0.1729608029127121,-0.13512374460697174,9.736183166503906,-0.00017714346610147965,0.0008524196733041,0.004150351385968948,0.2600083351135254,2019-06-21 12:52:05:625,0.0,0.0,0.0
0.16817130148410797,-0.12554475665092468,9.728999137878418,0.0020870961996801557,0.0004528479494109724,0.0013533494162449274,0.2641158103942871,2019-06-21 12:52:05:629,0.0,0.0,0.0
0.1801450401544571,-0.15428175032138824,9.772104263305664,0.0028862395824478296,0.003649421708046702,-0.0006445091707114195,0.27002429962158203,2019-06-21 12:52:05:635,0.0,0.0,0.0
0.1993030458688736,-0.15188699960708618,9.728999137878418,0.0028862395824478296,0.0004528479494109724,0.004949494768736622,0.27411413192749023,2019-06-21 12:52:05:639,0.0,0.0,0.0
0.21606628596782684,-0.14949224889278412,9.728999137878418,0.0010215716893232575,5.327622958150625e-05,0.0038839702583797235,0.27999305725097656,2019-06-21 12:52:05:645,0.0,0.0,0.0
0.1657765507698059,-0.1375184953212738,9.79126262664795,0.0015543339445017069,0.006313232983938947,0.0036175891307904987,0.28410863876342773,2019-06-21 12:52:05:649,0.0,0.0,0.0
0.22085578739643097,-0.16865025460720062,9.827183723449707,0.0010215716893232575,0.0003196573856163601,0.0002878248408694478,0.2891378402709961,2019-06-21 12:52:05:654,0.0,0.0,0.0
0.1538027971982956,-0.1375184953212738,9.659550666809082,0.006748766452640236,0.0017847536848849673,0.002152492799012601,0.29500436782836914,2019-06-21 12:52:05:660,0.0,0.0,0.0
0.23043479025363922,-0.13272900879383087,9.731393814086914,-0.00044352460994534954,-0.0004794860621698949,-0.0014436525534790934,0.29910993576049805,2019-06-21 12:52:05:664,0.0,0.0,0.0
0.17775028944015503,-0.13512374460697174,9.8319730758667,0.0028862395824478296,0.0041821839632251515,0.0014865399800395396,0.30499887466430664,2019-06-21 12:52:05:670,0.0,0.0,0.0
0.2184610366821289,-0.1638607531785965,9.649971961975098,0.0028862395824478296,0.0028502783252790285,0.0053490667201947836,0.30911874771118164,2019-06-21 12:52:05:674,0.0,0.0,0.0
0.14182904362678528,-0.15188699960708618,9.779288291931152,0.004484526608057502,0.001251991429706518,0.0006873965322532847,0.3150172233581543,2019-06-21 12:52:05:680,0.0,0.0,0.0
0.22325053811073303,-0.15907125174999237,9.726603507995605,-0.00031033404615073726,0.003383040580457477,0.0025520646204336005,0.31911516189575195,2019-06-21 12:52:05:684,0.0,0.0,0.0
0.17056605219841003,-0.14709749817848206,9.690682411193848,-0.000843096333838477,0.0028502783252790285,0.005615447847784009,0.3249959945678711,2019-06-21 12:52:05:690,0.0,0.0,0.0
0.17775028944015503,-0.15428175032138824,9.776893615722656,0.0031526207100370544,0.00298346888907364,0.0018861116714233767,0.3291144371032715,2019-06-21 12:52:05:694,0.0,0.0,0.0
0.18972404301166534,-0.16146600246429443,9.755340576171875,-0.00044352460994534954,0.0007192291095094877,0.0004210154046640601,0.33501482009887695,2019-06-21 12:52:05:700,0.0,0.0,0.0
0.21367153525352478,-0.1303342580795288,9.697867393493652,0.00022242825779164786,0.005114518169861762,0.004150351385968948,0.339113712310791,2019-06-21 12:52:05:704,0.0,0.0,0.0
0.23282954096794128,-0.18541349470615387,9.776893615722656,0.001687524508296319,0.0035162311442520897,-0.0005113186069168071,0.3449978828430176,2019-06-21 12:52:05:710,0.0,0.0,0.0
0.20648729801177979,-0.14230799674987793,9.755340576171875,0.006349194501182075,0.001651563121090355,0.005881828975373233,0.34911346435546875,2019-06-21 12:52:05:714,0.0,0.0,0.0
0.16098704934120178,-0.13991324603557587,9.700262069702148,-0.00017714346610147965,0.0020511348124741917,0.00548225702391507,0.3550262451171875,2019-06-21 12:52:05:720,0.0,0.0,0.0
0.18972404301166534,-0.15188699960708618,9.76252555847168,-0.001242668025222314,0.0003196573856163601,0.002019302235217989,0.3591270446777344,2019-06-21 12:52:05:724,0.0,0.0,0.0
0.17535555362701416,-0.14949224889278412,9.743367195129395,0.0020870961996801557,-0.0032764881294217877,0.008146068299807315,0.36499643325805664,2019-06-21 12:52:05:730,0.0,0.0,0.0
0.17056605219841003,-0.14470274746418,9.73378849029541,-0.002308192665616375,0.00298346888907364,0.0010869682236371214,0.36912012100219727,2019-06-21 12:52:05:734,0.0,0.0,0.0
0.18732929229736328,-0.1375184953212738,9.72420883178711,0.0003556188378409054,0.002317516070100579,0.005082685592605559,0.37501955032348633,2019-06-21 12:52:05:740,0.0,0.0,0.0
0.17535555362701416,-0.14709749817848206,9.798446655273438,-0.00017714346610147965,0.0041821839632251515,0.00308482687561205,0.380007266998291,2019-06-21 12:52:05:745,0.0,0.0,0.0
0.1801450401544571,-0.16146600246429443,9.73378849029541,-0.0015090491528115383,0.008577472828521681,0.0033512080032012744,0.3841085433959961,2019-06-21 12:52:05:749,0.0,0.0,0.0
0.18732929229736328,-0.17822924256324768,9.73378849029541,-0.002840954920794824,0.0007192291095094877,0.004949494768736622,0.3891301155090332,2019-06-21 12:52:05:754,0.0,0.0,0.0
0.2184610366821289,-0.16146600246429443,9.726603507995605,0.0019539056358855436,-7.991434640409003e-05,-0.0006445091707114195,0.39499950408935547,2019-06-21 12:52:05:760,0.0,0.0,0.0
0.14182904362678528,-0.1710449904203415,9.700262069702148,-0.00044352460994534954,0.0020511348124741917,0.00454992333742711,0.3991208076477051,2019-06-21 12:52:05:764,0.0,0.0,0.0
0.16338180005550385,-0.17343974113464355,9.719419479370117,0.0027530490186532175,0.004315374527019763,0.0032180174394066618,0.40500736236572266,2019-06-21 12:52:05:770,0.0,0.0,0.0
0.16817130148410797,-0.19978199899196625,9.73378849029541,0.0008883811255286454,0.001651563121090355,0.006148210102962458,0.40911197662353516,2019-06-21 12:52:05:774,0.0,0.0,0.0
0.1657765507698059,-0.1111762523651123,9.714630126953125,-0.0019086208441953755,-0.002210963619064889,0.0010869682236371214,0.4149971008300781,2019-06-21 12:52:05:780,0.0,0.0,0.0
0.22325053811073303,-0.1566765010356903,9.700262069702148,-0.000843096333838477,-0.0012786295424654405,0.010543498448110339,0.4191250801086426,2019-06-21 12:52:05:784,0.0,0.0,0.0
0.18493454158306122,-0.15188699960708618,9.776893615722656,-0.000843096333838477,0.0020511348124741917,0.002152492799012601,0.4250020980834961,2019-06-21 12:52:05:790,0.0,0.0,0.0
0.19690829515457153,-0.13272900879383087,9.736183166503906,0.0056832419422833385,-7.991434640409003e-05,0.006281400406682744,0.4291110038757324,2019-06-21 12:52:05:794,0.0,0.0,0.0
0.20169779658317566,-0.11596575379371643,9.76252555847168,0.0011547622531178697,0.0001864668055671025,0.002019302235217989,0.434999942779541,2019-06-21 12:52:05:800,0.0,0.0,0.0
0.16817130148410797,-0.13512374460697174,9.726603507995605,0.0028862395824478296,0.0004528479494109724,0.007879687172218092,0.4391160011291504,2019-06-21 12:52:05:804,0.0,0.0,0.0
0.1921187937259674,-0.1638607531785965,9.702656745910645,0.001687524508296319,-0.0011454389786708283,0.013074119420282295,0.445004940032959,2019-06-21 12:52:05:810,0.0,0.0,0.0
0.15140804648399353,-0.15428175032138824,9.736183166503906,-0.001642239716606151,5.327622958150625e-05,0.00801287799608703,0.4491133689880371,2019-06-21 12:52:05:814,0.0,0.0,0.0
0.20409254729747772,-0.1638607531785965,9.80323600769043,0.0035521926614952163,0.0001864668055671025,0.0038839702583797235,0.45499658584594727,2019-06-21 12:52:05:820,0.0,0.0,0.0
0.20409254729747772,-0.15428175032138824,9.755340576171875,-0.00017714346610147965,0.0009856102370987122,0.0028184457480228253,0.45911645889282227,2019-06-21 12:52:05:824,0.0,0.0,0.0
0.18972404301166534,-0.1111762523651123,9.793657302856445,-0.004306051122535559,0.0003196573856163601,0.0014865399800395396,0.4641537666320801,2019-06-21 12:52:05:829,0.0,0.0,0.0
0.1657765507698059,-0.11596575379371643,9.726603507995605,0.001287952816912482,-0.0003462954983752826,0.009344783634033153,0.46999597549438477,2019-06-21 12:52:05:835,0.0,0.0,0.0
0.1657765507698059,-0.1183605045080185,9.697867393493652,0.0010215716893232575,0.005514089601171274,-0.0009108902983006441,0.47411155700683594,2019-06-21 12:52:05:839,0.0,0.0,0.0
0.1801450401544571,-0.14949224889278412,9.743367195129395,0.0008883811255286454,0.0013851819935011304,0.007480115740908581,0.48000001907348633,2019-06-21 12:52:05:845,0.0,0.0,0.0
0.16338180005550385,-0.14230799674987793,9.74576187133789,-0.00031033404615073726,0.0017847536848849673,0.00548225702391507,0.4850001335144043,2019-06-21 12:52:05:850,0.0,0.0,0.0
0.1801450401544571,-0.14230799674987793,9.736183166503906,-0.000843096333838477,-0.0003462954983752826,0.006281400406682744,0.4900350570678711,2019-06-21 12:52:05:855,0.0,0.0,0.0
0.21606628596782684,-0.14470274746418,9.738577842712402,0.0011547622531178697,0.001651563121090355,0.004816304465016335,0.49413251876831055,2019-06-21 12:52:05:859,0.0,0.0,0.0
0.19451354444026947,-0.17343974113464355,9.731393814086914,-0.0019086208441953755,0.0020511348124741917,0.0038839702583797235,0.49999332427978516,2019-06-21 12:52:05:865,0.0,0.0,0.0
0.18253979086875916,-0.15907125174999237,9.76252555847168,-4.395289011588339e-05,0.0041821839632251515,0.0037507796945851113,0.5041093826293945,2019-06-21 12:52:05:869,0.0,0.0,0.0
0.18732929229736328,-0.14230799674987793,9.796051979064941,-0.001775430280400763,-0.0034096786932164,0.004816304465016335,0.5093159675598145,2019-06-21 12:52:05:875,0.0,0.0,0.0
0.1466185450553894,-0.17822924256324768,9.73378849029541,-0.0036400983035624977,0.0011188008659119059,0.008545640251265479,0.5151667594909668,2019-06-21 12:52:05:880,0.0,0.0,0.0
0.12506580352783203,-0.12315000593662262,9.769709587097168,0.004884098039367014,0.0047149462184036,0.00548225702391507,0.5191211700439453,2019-06-21 12:52:05:884,0.0,0.0,0.0
0.16817130148410797,-0.14709749817848206,9.748156547546387,-0.00044352460994534954,0.0007192291095094877,0.005748638151504296,0.524996280670166,2019-06-21 12:52:05:890,0.0,0.0,0.0
0.17535555362701416,-0.1638607531785965,9.707446098327637,0.0006219999979394207,0.002450706633895191,0.007080543789450418,0.5291109085083008,2019-06-21 12:52:05:894,0.0,0.0,0.0
0.1729608029127121,-0.16625550389289856,9.721814155578613,0.0024866678910639927,-7.991434640409003e-05,0.007080543789450418,0.5350089073181152,2019-06-21 12:52:05:900,0.0,0.0,0.0
0.16338180005550385,-0.12075525522232056,9.755340576171875,-0.000843096333838477,-0.0004794860621698949,0.007879687172218092,0.5391225814819336,2019-06-21 12:52:05:904,0.0,0.0,0.0
0.22325053811073303,-0.16865025460720062,9.750551223754883,0.0027530490186532175,-0.0014118201062600529,0.011875404606205111,0.5450029373168945,2019-06-21 12:52:05:910,0.0,0.0,0.0
0.1801450401544571,-0.15188699960708618,9.714630126953125,-0.0007099057700438648,0.004315374527019763,0.010676689792127925,0.5491108894348145,2019-06-21 12:52:05:914,0.0,0.0,0.0
0.17775028944015503,-0.13512374460697174,9.74576187133789,-0.0035069077397678855,0.0001864668055671025,0.008678831075134416,0.5549979209899902,2019-06-21 12:52:05:920,0.0,0.0,0.0
0.16338180005550385,-0.1375184953212738,9.740972518920898,0.000755190561734033,0.00298346888907364,0.00894521168257499,0.5591835975646973,2019-06-21 12:52:05:925,0.0,0.0,0.0
0.16817130148410797,-0.1638607531785965,9.678709030151367,0.00022242825779164786,-0.0018113917976438896,0.00894521168257499,0.5650086402893066,2019-06-21 12:52:05:930,0.0,0.0,0.0
0.1993030458688736,-0.14470274746418,9.707446098327637,-0.000843096333838477,-7.991434640409003e-05,0.009078403026592578,0.5699934959411621,2019-06-21 12:52:05:935,0.0,0.0,0.0
0.21606628596782684,-0.1638607531785965,9.719419479370117,0.0014211433807070943,-0.0003462954983752826,0.004150351385968948,0.5741071701049805,2019-06-21 12:52:05:939,0.0,0.0,0.0
0.1993030458688736,-0.15428175032138824,9.808025360107422,-0.001242668025222314,0.0028502783252790285,0.01041030814439005,0.5800018310546875,2019-06-21 12:52:05:945,0.0,0.0,0.0
0.16338180005550385,-0.19259774684906006,9.738577842712402,0.0018207150720909312,0.0017847536848849673,0.010543498448110339,0.5841150283813477,2019-06-21 12:52:05:949,0.0,0.0,0.0
0.1466185450553894,-0.16865025460720062,9.736183166503906,0.001287952816912482,0.006579614111528172,0.012008594909925398,0.5900192260742188,2019-06-21 12:52:05:955,0.0,0.0,0.0
0.1801450401544571,-0.17343974113464355,9.750551223754883,-0.0011094774614277016,-0.000213104918326025,0.008146068299807315,0.594113826751709,2019-06-21 12:52:05:959,0.0,0.0,0.0
0.19451354444026947,-0.1375184953212738,9.72420883178711,-4.395289011588339e-05,-0.0006126766584737978,0.008146068299807315,0.5999927520751953,2019-06-21 12:52:05:965,0.0,0.0,0.0
0.20648729801177979,-0.14230799674987793,9.693077087402344,0.002619858454858605,-0.0012786295424654405,0.010676689792127925,0.6041092872619629,2019-06-21 12:52:05:969,0.0,0.0,0.0
0.1921187937259674,-0.16625550389289856,9.788866996765137,0.003951764352879053,-0.004208822075984073,0.012141785213645687,0.6091384887695312,2019-06-21 12:52:05:974,0.0,0.0,0.0
0.18972404301166534,-0.15428175032138824,9.669130325317383,0.0024866678910639927,-0.0008790577860630224,0.010143927536949477,0.6149992942810059,2019-06-21 12:52:05:980,0.0,0.0,0.0
0.20888204872608185,-0.16865025460720062,9.712235450744629,-0.0037732888673571103,-0.0012786295424654405,0.010543498448110339,0.6191110610961914,2019-06-21 12:52:05:984,0.0,0.0,0.0
0.16338180005550385,-0.14709749817848206,9.736183166503906,-0.000843096333838477,-0.0004794860621698949,0.008279259123676254,0.6249957084655762,2019-06-21 12:52:05:990,0.0,0.0,0.0
0.1538027971982956,-0.13272900879383087,9.796051979064941,0.0006219999979394207,0.0047149462184036,0.00947797393775344,0.6291165351867676,2019-06-21 12:52:05:994,0.0,0.0,0.0
0.1394343078136444,-0.12075525522232056,9.793657302856445,0.0006219999979394207,0.0032498500166628654,0.010676689792127925,0.6350007057189941,2019-06-21 12:52:06:000,0.0,0.0,0.0
0.21367153525352478,-0.13991324603557587,9.736183166503906,0.0022202867634747683,0.0025838971976898037,0.005748638151504296,0.6391181945800781,2019-06-21 12:52:06:004,0.0,0.0,0.0
0.13464480638504028,-0.1303342580795288,9.73378849029541,-4.395289011588339e-05,5.327622958150625e-05,0.007080543789450418,0.6450181007385254,2019-06-21 12:52:06:010,0.0,0.0,0.0
0.20409254729747772,-0.14230799674987793,9.767314910888672,0.002619858454858605,-0.0032764881294217877,0.011875404606205111,0.6491150856018066,2019-06-21 12:52:06:014,0.0,0.0,0.0
0.15619754791259766,-0.15188699960708618,9.805630683898926,0.0004888094016355178,0.0017847536848849673,0.006015019279093521,0.6541342735290527,2019-06-21 12:52:06:019,0.0,0.0,0.0
0.16817130148410797,-0.1710449904203415,9.752945899963379,-0.0019086208441953755,-0.000213104918326025,0.010143927536949477,0.6599898338317871,2019-06-21 12:52:06:025,0.0,0.0,0.0
0.0939340591430664,-0.12554475665092468,9.740972518920898,0.0042181454804682775,0.0028502783252790285,0.008279259123676254,0.6641092300415039,2019-06-21 12:52:06:029,0.0,0.0,0.0
0.11309205740690231,-0.11357100307941437,9.760130882263184,-0.0007099057700438648,0.0025838971976898037,0.008279259123676254,0.6700000762939453,2019-06-21 12:52:06:035,0.0,0.0,0.0
0.06280230730772018,-0.14709749817848206,9.702656745910645,0.0027530490186532175,-0.0034096786932164,0.012141785213645687,0.6741132736206055,2019-06-21 12:52:06:039,0.0,0.0,0.0
0.04603906348347664,-0.11596575379371643,9.896631240844727,-0.0024413832294109873,0.00298346888907364,0.008545640251265479,0.6799883842468262,2019-06-21 12:52:06:045,0.0,0.0,0.0
0.11309205740690231,-0.14949224889278412,9.796051979064941,0.004750907735646727,0.008311091700932456,0.01147583265474695,0.6841111183166504,2019-06-21 12:52:06:049,0.0,0.0,0.0
0.050828561186790466,-0.11357100307941437,9.664340019226074,0.008347053218175584,0.005514089601171274,0.010943070399568499,0.6891493797302246,2019-06-21 12:52:06:054,0.0,0.0,0.0
0.15619754791259766,-0.07046551257371902,9.697867393493652,-0.0019086208441953755,-0.0010122483498576347,0.007480115740908581,0.6949992179870605,2019-06-21 12:52:06:060,0.0,0.0,0.0
-0.0018559310119599104,-0.2165452390909195,9.77449893951416,0.004750907735646727,-0.0011454389786708283,0.006015019279093521,0.6991429328918457,2019-06-21 12:52:06:064,0.0,0.0,0.0
0.1202763020992279,-0.13512374460697174,9.839157104492188,-0.00044352460994534954,5.327622958150625e-05,0.007480115740908581,0.7050051689147949,2019-06-21 12:52:06:070,0.0,0.0,0.0
0.022091565653681755,-0.12793950736522675,9.8319730758667,0.0035521926614952163,0.007778329445754008,0.005082685592605559,0.7099967002868652,2019-06-21 12:52:06:075,0.0,0.0,0.0
0.08196030557155609,-0.2093609869480133,9.731393814086914,0.0076811001391281965,0.01204042800733025,0.007746496868497805,0.714108943939209,2019-06-21 12:52:06:079,0.0,0.0,0.0
-0.03777717798948288,-0.08243925869464874,9.661945343017578,0.004484526608057502,0.0007192291095094877,0.004683113641147397,0.7199969291687012,2019-06-21 12:52:06:085,0.0,0.0,0.0
0.0029335683211684227,-0.0656760111451149,9.659550666809082,0.0046177169117777896,-0.006473061660492482,0.0065477815342719695,0.7241120338439941,2019-06-21 12:52:06:089,0.0,0.0,0.0
0.026881065219640732,-0.1830187439918518,9.726603507995605,0.004484526608057502,-0.007804967298438606,0.00308482687561205,0.7299909591674805,2019-06-21 12:52:06:095,0.0,0.0,0.0
0.11069730669260025,-0.1375184953212738,9.855920791625977,0.001687524508296319,0.0041821839632251515,0.0017529211076287644,0.7343907356262207,2019-06-21 12:52:06:100,0.0,0.0,0.0
0.14422379434108734,-0.13512374460697174,9.906209945678711,0.0058164322460036244,0.014304667331764335,0.00428354194976356,0.7405562400817871,2019-06-21 12:52:06:106,0.0,0.0,0.0
0.06998655945062637,-0.17822924256324768,9.748156547546387,0.004750907735646727,0.0136387147728656,0.004816304465016335,0.7457079887390137,2019-06-21 12:52:06:111,0.0,0.0,0.0
0.036460064351558685,-0.10638675838708878,9.671525001525879,0.0008883811255286454,0.0001864668055671025,0.00308482687561205,0.7505936622619629,2019-06-21 12:52:06:116,0.0,0.0,0.0
0.0077230678871273994,-0.1638607531785965,9.611656188964844,0.0034190020977006037,-0.0063398713567721955,0.005748638151504296,0.7554726600646973,2019-06-21 12:52:06:121,0.0,0.0,0.0
0.06519705802202225,-0.14949224889278412,9.779288291931152,0.0010215716893232575,-0.011534303604836399,0.0012201588524503152,0.7600059509277344,2019-06-21 12:52:06:125,0.0,0.0,0.0
0.08674980700016022,-0.1710449904203415,9.848735809326172,0.005017288863235951,-0.0018113917976438896,0.005881828975373233,0.7649998664855957,2019-06-21 12:52:06:130,0.0,0.0,0.0
0.20169779658317566,-0.15907125174999237,9.829578399658203,0.0036853832252898284,0.0060468518563497236,0.006414591230551682,0.7690997123718262,2019-06-21 12:52:06:134,0.0,0.0,0.0
0.09632880985736847,-0.13512374460697174,9.77449893951416,0.0034190020977006037,0.002717087761484416,0.013207310764299884,0.7750039100646973,2019-06-21 12:52:06:140,0.0,0.0,0.0
0.36454078555107117,-0.06088650971651077,9.681103706359863,0.01047810223888938,-0.005940299405314034,0.014406025578377071,0.7791123390197754,2019-06-21 12:52:06:144,0.0,0.0,0.0
0.6375422477722168,0.09237746894359589,9.666735649108887,0.003951764352879053,-0.0015450106700546653,0.01746940880572748,0.7851195335388184,2019-06-21 12:52:06:150,0.0,0.0,0.0
0.43877801299095154,-0.05849176272749901,9.9229736328125,-0.008434958860242866,0.006979186062986335,0.02279703135751197,0.7906632423400879,2019-06-21 12:52:06:156,0.0,0.0,0.0
0.3765145242214203,-0.2692297399044037,9.834367752075195,0.010611292542609667,0.010974903496973354,0.02266384001349438,0.7956228256225586,2019-06-21 12:52:06:161,0.0,0.0,0.0
0.22325053811073303,-0.20696623623371124,9.664340019226074,0.003019430146242442,0.017368050559114744,0.019334077219000698,0.8005881309509277,2019-06-21 12:52:06:166,0.0,0.0,0.0
0.1394343078136444,-0.23809799551963806,9.53502368927002,-0.0025745737932055994,0.004448565090814376,0.016137502647632706,0.8054709434509277,2019-06-21 12:52:06:171,0.0,0.0,0.0
0.11788155138492584,-0.3219142258167267,9.549392700195312,0.00608281337359285,-0.002210963619064889,0.026393176840040826,0.8100066184997559,2019-06-21 12:52:06:175,0.0,0.0,0.0
0.23282954096794128,-0.242887482047081,9.484734535217285,0.0054168602945454634,-0.008870492328944154,0.02226427014263082,0.8141093254089355,2019-06-21 12:52:06:179,0.0,0.0,0.0
0.1993030458688736,-0.09680775552988052,9.805630683898926,0.004750907735646727,-0.0030101070018325625,0.02519446098566634,0.8199892044067383,2019-06-21 12:52:06:185,0.0,0.0,0.0
0.39088302850723267,-0.10638675838708878,9.891841888427734,-4.395289011588339e-05,0.0015183725572957428,0.016004312343912416,0.8241024017333984,2019-06-21 12:52:06:189,0.0,0.0,0.0
0.2903035283088684,-0.09920250624418259,9.884657859802246,0.007414719011538973,0.01457104897950221,0.020799173680815762,0.8300399780273438,2019-06-21 12:52:06:195,0.0,0.0,0.0
0.2663560211658478,-0.005807267967611551,9.834367752075195,-0.006170719015660131,0.01843357506947164,0.016537074599090866,0.8350167274475098,2019-06-21 12:52:06:200,0.0,0.0,0.0
0.20169779658317566,-0.12315000593662262,9.669130325317383,0.0019539056358855436,0.002317516070100579,0.022397459406053807,0.8395228385925293,2019-06-21 12:52:06:205,0.0,0.0,0.0
0.15859229862689972,-0.13512374460697174,9.616445541381836,0.0034190020977006037,-0.00460839376736791,0.023862555867868864,0.845740795135498,2019-06-21 12:52:06:211,0.0,0.0,0.0
0.3118562698364258,-0.0848340094089508,9.681103706359863,-0.0009762868976330894,-0.0023441541828595016,0.023596175260428294,0.8507218360900879,2019-06-21 12:52:06:216,0.0,0.0,0.0
0.3358037769794464,-0.2093609869480133,9.74576187133789,0.0023534773272693805,0.0013851819935011304,0.02332979465298772,0.8554644584655762,2019-06-21 12:52:06:221,0.0,0.0,0.0
0.3046720325946808,-0.09441300481557846,9.755340576171875,-0.002308192665616375,0.005114518169861762,0.01920088587498311,0.8591198921203613,2019-06-21 12:52:06:224,0.0,0.0,0.0
0.2663560211658478,-0.14709749817848206,9.776893615722656,-0.0033737171759732733,0.007378757494295846,0.01773578941316805,0.8649978637695312,2019-06-21 12:52:06:230,0.0,0.0,0.0
0.3429880142211914,-0.3219142258167267,9.671525001525879,0.0054168602945454634,0.004581755914683313,0.02226427014263082,0.8691020011901855,2019-06-21 12:52:06:234,0.0,0.0,0.0
0.26875078678131104,-0.21175573766231537,9.752945899963379,0.0014211433807070943,0.0035162311442520897,0.01986683843388185,0.8750061988830566,2019-06-21 12:52:06:240,0.0,0.0,0.0
0.3094615340232849,-0.22612424194812775,9.652366638183594,-0.0007099057700438648,0.0047149462184036,0.017602600149745067,0.8791098594665527,2019-06-21 12:52:06:244,0.0,0.0,0.0
0.29988253116607666,-0.22372949123382568,9.714630126953125,0.004884098039367014,5.327622958150625e-05,0.022131078798613233,0.8850536346435547,2019-06-21 12:52:06:250,0.0,0.0,0.0
0.3046720325946808,-0.10878150165081024,9.748156547546387,-0.00577114758435062,0.001651563121090355,0.019067694530965525,0.8891291618347168,2019-06-21 12:52:06:254,0.0,0.0,0.0
0.29988253116607666,-0.29078248143196106,9.755340576171875,0.001687524508296319,0.0011188008659119059,0.018668124660101964,0.894996166229248,2019-06-21 12:52:06:260,0.0,0.0,0.0
0.30706676840782166,-0.26683497428894043,9.84394645690918,0.0020870961996801557,0.010042569290336742,0.019600457826441275,0.8991131782531738,2019-06-21 12:52:06:264,0.0,0.0,0.0
0.24001379311084747,-0.18780824542045593,9.781682968139648,-0.00577114758435062,0.007911519749474296,0.016137502647632706,0.904996395111084,2019-06-21 12:52:06:270,0.0,0.0,0.0
0.18493454158306122,-0.27162447571754456,9.714630126953125,0.0014211433807070943,0.003649421708046702,0.019600457826441275,0.9091043472290039,2019-06-21 12:52:06:274,0.0,0.0,0.0
0.09872355312108994,-0.1566765010356903,9.73378849029541,-0.005371575632892458,0.001251991429706518,0.015604740392454255,0.915003776550293,2019-06-21 12:52:06:280,0.0,0.0,0.0
0.10351305454969406,-0.13512374460697174,9.748156547546387,0.001687524508296319,0.002317516070100579,0.014539215882097358,0.9191117286682129,2019-06-21 12:52:06:284,0.0,0.0,0.0
0.13464480638504028,-0.235703244805336,9.764920234680176,0.0019539056358855436,0.004315374527019763,0.016537074599090866,0.925051212310791,2019-06-21 12:52:06:290,0.0,0.0,0.0
0.10590780526399612,-0.1111762523651123,9.769709587097168,-0.00670348127083858,0.005114518169861762,0.009877545889211602,0.9291248321533203,2019-06-21 12:52:06:294,0.0,0.0,0.0
0.12506580352783203,-0.14949224889278412,9.81520938873291,-0.0025745737932055994,0.005913661552629436,0.010543498448110339,0.9350008964538574,2019-06-21 12:52:06:300,0.0,0.0,0.0
0.08196030557155609,-0.20457148551940918,9.750551223754883,0.0031526207100370544,0.00871066313224197,0.012408166861383562,0.9391007423400879,2019-06-21 12:52:06:304,0.0,0.0,0.0
0.0484338141977787,-0.1183605045080185,9.798446655273438,-0.0059043378880709076,0.0047149462184036,0.00894521168257499,0.9450020790100098,2019-06-21 12:52:06:310,0.0,0.0,0.0
0.014907317236065865,-0.17822924256324768,9.697867393493652,-0.00031033404615073726,0.0005860385457148754,0.0037507796945851113,0.9491114616394043,2019-06-21 12:52:06:314,0.0,0.0,0.0
0.014907317236065865,-0.10399200767278671,9.764920234680176,-0.0019086208441953755,0.0001864668055671025,0.0008205870960478969,0.9550004005432129,2019-06-21 12:52:06:320,0.0,0.0,0.0
0.043644312769174576,-0.07046551257371902,9.834367752075195,-0.004039669994946335,-0.00460839376736791,0.0022856834928443757,0.959104061126709,2019-06-21 12:52:06:324,0.0,0.0,0.0
0.04124956205487251,-0.16146600246429443,9.824789047241211,0.0008883811255286454,0.0047149462184036,-0.0006445091707114195,0.9650006294250488,2019-06-21 12:52:06:330,0.0,0.0,0.0
0.024486316367983818,-0.08722876012325287,9.779288291931152,-0.0025745737932055994,0.003649421708046702,-0.0025091770638359916,0.9692692756652832,2019-06-21 12:52:06:335,0.0,0.0,0.0
-0.009040179662406445,-0.10399200767278671,9.693077087402344,-0.0055047664567613955,0.0021843255063059668,-0.0053061794236715,0.9750223159790039,2019-06-21 12:52:06:340,0.0,0.0,0.0
-0.03059292770922184,-0.14709749817848206,9.671525001525879,-0.004705623073993721,0.0041821839632251515,-0.0066380850616176235,0.9791073799133301,2019-06-21 12:52:06:344,0.0,0.0,0.0
-0.047356173396110535,-0.14230799674987793,9.726603507995605,-0.002840954920794824,-0.00074586722226841,-0.011566135661943953,0.9850015640258789,2019-06-21 12:52:06:350,0.0,0.0,0.0
-0.0497509241104126,-0.1566765010356903,9.760130882263184,-0.001242668025222314,0.0008524196733041,-0.006504894237748685,0.989133358001709,2019-06-21 12:52:06:354,0.0,0.0,0.0
-0.04496142640709877,-0.1375184953212738,9.736183166503906,-0.0025745737932055994,-0.0006126766584737978,-0.016360996998847296,0.994999885559082,2019-06-21 12:52:06:360,0.0,0.0,0.0
-0.040171924978494644,-0.12793950736522675,9.769709587097168,-0.00031033404615073726,0.006979186062986335,-0.019157998578459828,0.9991030693054199,2019-06-21 12:52:06:364,0.0,0.0,0.0
-0.08806692063808441,-0.10878150165081024,9.736183166503906,-0.002974145484589436,0.0021843255063059668,-0.02115585625515604,1.004103183746338,2019-06-21 12:52:06:369,0.0,0.0,0.0
-0.05693517252802849,-0.07764975726604462,9.678709030151367,-0.010033246145926863,0.0032498500166628654,-0.024618812474261908,1.0099997520446777,2019-06-21 12:52:06:375,0.0,0.0,0.0
-0.09046167135238647,-0.08243925869464874,9.700262069702148,0.0031526207100370544,0.0009856102370987122,-0.02741581405387444,1.0141239166259766,2019-06-21 12:52:06:379,0.0,0.0,0.0
-0.05693517252802849,-0.08243925869464874,9.788866996765137,-0.006037528711939843,-0.0004794860621698949,-0.02901410185970709,1.020003318786621,2019-06-21 12:52:06:385,0.0,0.0,0.0
-0.0066454303450882435,-0.0656760111451149,9.760130882263184,0.000755190561734033,0.003915802835635926,-0.029680054418605828,1.0250039100646973,2019-06-21 12:52:06:390,0.0,0.0,0.0
-0.0234086774289608,-0.08722876012325287,9.74576187133789,-0.0025745737932055994,0.0015183725572957428,-0.02848133856423134,1.0291028022766113,2019-06-21 12:52:06:394,0.0,0.0,0.0
-0.013829679228365421,-0.09441300481557846,9.769709587097168,-0.0020418114079899874,0.008044710573343232,-0.03633958208818779,1.0341053009033203,2019-06-21 12:52:06:399,0.0,0.0,0.0
-0.021013928577303886,-0.12315000593662262,9.731393814086914,-0.0031073360483840485,0.0060468518563497236,-0.035407246841253875,1.0399980545043945,2019-06-21 12:52:06:405,0.0,0.0,0.0
0.0005388186546042562,-0.0920182541012764,9.702656745910645,-0.0071030532222967424,0.0032498500166628654,-0.039003392323782735,1.0441088676452637,2019-06-21 12:52:06:409,0.0,0.0,0.0
0.005328318104147911,-0.10399200767278671,9.738577842712402,-0.00577114758435062,0.0003196573856163601,-0.040868062817650555,1.0499897003173828,2019-06-21 12:52:06:415,0.0,0.0,0.0
0.07238131016492844,-0.1566765010356903,9.72420883178711,-0.0019086208441953755,0.0019179442486795795,-0.03247705599821836,1.054102897644043,2019-06-21 12:52:06:419,0.0,0.0,0.0
0.03406531363725662,-0.08722876012325287,9.77449893951416,-0.0031073360483840485,-0.0008790577860630224,-0.035407246841253875,1.0600013732910156,2019-06-21 12:52:06:425,0.0,0.0,0.0
0.06759180873632431,-0.08004450798034668,9.800841331481934,-0.002840954920794824,-0.0006126766584737978,-0.03234386465420077,1.0650219917297363,2019-06-21 12:52:06:430,0.0,0.0,0.0
0.04603906348347664,-0.14709749817848206,9.764920234680176,-0.00044352460994534954,-0.003942440948394849,-0.04299911183836436,1.0691027641296387,2019-06-21 12:52:06:434,0.0,0.0,0.0
0.06280230730772018,-0.10638675838708878,9.740972518920898,-0.0015090491528115383,-0.0012786295424654405,-0.03127834014384387,1.0749988555908203,2019-06-21 12:52:06:440,0.0,0.0,0.0
0.13703955709934235,-0.10638675838708878,9.805630683898926,-0.002308192665616375,-0.0032764881294217877,-0.03860382245291917,1.0791115760803223,2019-06-21 12:52:06:444,0.0,0.0,0.0
0.1801450401544571,-0.16625550389289856,9.796051979064941,-0.00031033404615073726,-0.003676059820805624,-0.03420853306747399,1.0850000381469727,2019-06-21 12:52:06:450,0.0,0.0,0.0
0.1538027971982956,-0.1183605045080185,9.80323600769043,0.0003556188378409054,-0.005540727974004522,-0.03434172441149158,1.0891022682189941,2019-06-21 12:52:06:454,0.0,0.0,0.0
0.1729608029127121,-0.14470274746418,9.769709587097168,0.001687524508296319,-0.0040756315121894615,-0.03434172441149158,1.095003604888916,2019-06-21 12:52:06:460,0.0,0.0,0.0
0.15619754791259766,-0.16146600246429443,9.784077644348145,0.0024866678910639927,0.0007192291095094877,-0.03154472283187905,1.0991134643554688,2019-06-21 12:52:06:464,0.0,0.0,0.0
0.1993030458688736,-0.12075525522232056,9.717024803161621,0.0003556188378409054,-7.991434640409003e-05,-0.030745578928962722,1.1050505638122559,2019-06-21 12:52:06:470,0.0,0.0,0.0
0.2184610366821289,-0.14230799674987793,9.73378849029541,-0.0013758585890169264,-0.005940299405314034,-0.02848133856423134,1.1091256141662598,2019-06-21 12:52:06:474,0.0,0.0,0.0
0.2376190423965454,-0.1183605045080185,9.764920234680176,-4.395289011588339e-05,-0.004741584591236848,-0.025817526248041792,1.1149978637695312,2019-06-21 12:52:06:480,0.0,0.0,0.0
0.2783297896385193,-0.12793950736522675,9.740972518920898,0.001287952816912482,-0.004342012639778686,-0.02342009661988742,1.119102954864502,2019-06-21 12:52:06:484,0.0,0.0,0.0
0.26156654953956604,-0.15188699960708618,9.743367195129395,0.008613434345764809,0.0019179442486795795,-0.02541795637717823,1.1250014305114746,2019-06-21 12:52:06:490,0.0,0.0,0.0
0.31425103545188904,-0.1183605045080185,9.757735252380371,0.003019430146242442,-0.001944582361438502,-0.025284765033160645,1.1291098594665527,2019-06-21 12:52:06:494,0.0,0.0,0.0
0.2783297896385193,-0.1183605045080185,9.73378849029541,0.0036853832252898284,0.005247708473582049,-0.024219240522803744,1.1349973678588867,2019-06-21 12:52:06:500,0.0,0.0,0.0
0.32143527269363403,-0.12793950736522675,9.693077087402344,0.0027530490186532175,-0.004874774894957135,-0.017826093460662357,1.1391043663024902,2019-06-21 12:52:06:504,0.0,0.0,0.0
0.37172502279281616,-0.12793950736522675,9.712235450744629,0.005283669990825176,-7.991434640409003e-05,-0.013830376026675337,1.1450300216674805,2019-06-21 12:52:06:510,0.0,0.0,0.0
0.29509302973747253,-0.16146600246429443,9.74576187133789,0.005550051118414401,0.0015183725572957428,-0.01462951888929436,1.1491398811340332,2019-06-21 12:52:06:514,0.0,0.0,0.0
0.32622477412223816,-0.12075525522232056,9.709840774536133,0.007814290962997135,-0.0004794860621698949,-0.009435086641230155,1.1550116539001465,2019-06-21 12:52:06:520,0.0,0.0,0.0
0.3621460199356079,-0.15428175032138824,9.707446098327637,0.005150479166956239,-0.001944582361438502,-0.005838941678849949,1.1591062545776367,2019-06-21 12:52:06:524,0.0,0.0,0.0
0.3621460199356079,-0.16865025460720062,9.688287734985352,0.0036853832252898284,-0.0014118201062600529,-0.008369562130873257,1.1649985313415527,2019-06-21 12:52:06:530,0.0,0.0,0.0
0.3956725299358368,-0.1710449904203415,9.690682411193848,0.004484526608057502,-0.0004794860621698949,-0.006504894237748685,1.1691107749938965,2019-06-21 12:52:06:534,0.0,0.0,0.0
0.3813040256500244,-0.1710449904203415,9.697867393493652,0.00848024352189587,0.002717087761484416,-0.0018432243749000928,1.1749958992004395,2019-06-21 12:52:06:540,0.0,0.0,0.0
0.39088302850723267,-0.17583449184894562,9.635603904724121,0.00435133604426289,0.003116659452868253,0.00894521168257499,1.179102897644043,2019-06-21 12:52:06:544,0.0,0.0,0.0
0.3621460199356079,-0.18062399327754974,9.709840774536133,0.0023534773272693805,-0.004874774894957135,0.009211593330312866,1.1850018501281738,2019-06-21 12:52:06:550,0.0,0.0,0.0
0.39088302850723267,-0.19738724827766418,9.707446098327637,0.007414719011538973,0.0019179442486795795,0.011076260703288788,1.1891522407531738,2019-06-21 12:52:06:554,0.0,0.0,0.0
0.3884882628917694,-0.15907125174999237,9.707446098327637,0.0010215716893232575,0.003782612271841314,0.01746940880572748,1.1950201988220215,2019-06-21 12:52:06:560,0.0,0.0,0.0
0.4004620313644409,-0.15907125174999237,9.693077087402344,0.0068819567563605235,0.0005860385457148754,0.014938787833555518,1.1991066932678223,2019-06-21 12:52:06:564,0.0,0.0,0.0
0.38609352707862854,-0.14949224889278412,9.673919677734375,0.004484526608057502,-0.00074586722226841,0.02186469819117266,1.2050089836120605,2019-06-21 12:52:06:570,0.0,0.0,0.0
0.4148305058479309,-0.16146600246429443,9.669130325317383,0.007414719011538973,0.0020511348124741917,0.025460843673701515,1.2091169357299805,2019-06-21 12:52:06:574,0.0,0.0,0.0
0.4220147728919983,-0.17343974113464355,9.796051979064941,0.0024866678910639927,0.0009856102370987122,0.03198717999926589,1.2149977684020996,2019-06-21 12:52:06:580,0.0,0.0,0.0
0.3813040256500244,-0.14470274746418,9.77449893951416,0.0006219999979394207,0.003383040580457477,0.029722941715129108,1.2191014289855957,2019-06-21 12:52:06:584,0.0,0.0,0.0
0.39806726574897766,-0.18062399327754974,9.709840774536133,8.92376858697129e-05,0.005780470728760498,0.03411822901997969,1.2250027656555176,2019-06-21 12:52:06:590,0.0,0.0,0.0
0.37172502279281616,-0.23330849409103394,9.669130325317383,0.007148337883949748,0.002717087761484416,0.03917947304491821,1.229112148284912,2019-06-21 12:52:06:594,0.0,0.0,0.0
0.3621460199356079,-0.18062399327754974,9.697867393493652,0.000755190561734033,-0.0006126766584737978,0.039712234259799355,1.2350006103515625,2019-06-21 12:52:06:600,0.0,0.0,0.0
0.3381985127925873,-0.1710449904203415,9.666735649108887,-0.0005767152062492525,0.0020511348124741917,0.039845425603816945,1.2391080856323242,2019-06-21 12:52:06:604,0.0,0.0,0.0
0.35256701707839966,-0.1566765010356903,9.748156547546387,0.0064823853250510115,0.00671280493539711,0.046771333880839476,1.2450261116027832,2019-06-21 12:52:06:610,0.0,0.0,0.0
0.34777751564979553,-0.18541349470615387,9.781682968139648,0.004750907735646727,0.008311091700932456,0.04703771656887466,1.2491040229797363,2019-06-21 12:52:06:614,0.0,0.0,0.0
0.32622477412223816,-0.20457148551940918,9.748156547546387,0.007148337883949748,0.006579614111528172,0.04797004765461937,1.2549958229064941,2019-06-21 12:52:06:620,0.0,0.0,0.0
0.2783297896385193,-0.1638607531785965,9.69547176361084,0.0036853832252898284,0.007112376366706621,0.05090024057824948,1.2591099739074707,2019-06-21 12:52:06:624,0.0,0.0,0.0
0.30706676840782166,-0.18062399327754974,9.700262069702148,0.005283669990825176,0.0021843255063059668,0.05010109667533317,1.2649970054626465,2019-06-21 12:52:06:630,0.0,0.0,0.0
0.2256452888250351,-0.22372949123382568,9.772104263305664,0.0010215716893232575,0.00298346888907364,0.053164480942980874,1.2691044807434082,2019-06-21 12:52:06:634,0.0,0.0,0.0
0.22804003953933716,-0.19738724827766418,9.841551780700684,0.005283669990825176,0.006180042680218661,0.057959344360478816,1.2750005722045898,2019-06-21 12:52:06:640,0.0,0.0,0.0
0.18253979086875916,-0.19738724827766418,9.788866996765137,0.00954576803225277,0.007511948318164784,0.05436319887794996,1.2791123390197754,2019-06-21 12:52:06:644,0.0,0.0,0.0
0.14422379434108734,-0.19259774684906006,9.750551223754883,0.00435133604426289,0.0076451386218850705,0.0539636248458972,1.2849984169006348,2019-06-21 12:52:06:650,0.0,0.0,0.0
0.08435505628585815,-0.1710449904203415,9.819998741149902,0.0076811001391281965,0.0060468518563497236,0.055295529963694676,1.289130687713623,2019-06-21 12:52:06:654,0.0,0.0,0.0
0.06040756031870842,-0.16625550389289856,9.736183166503906,0.007148337883949748,0.0004528479494109724,0.05436319887794996,1.2950243949890137,2019-06-21 12:52:06:660,0.0,0.0,0.0
0.005328318104147911,-0.19499249756336212,9.810420036315918,0.003019430146242442,0.001251991429706518,0.04770366912777339,1.2991042137145996,2019-06-21 12:52:06:664,0.0,0.0,0.0
-0.009040179662406445,-0.18541349470615387,9.865499496459961,0.010211721631448806,0.001251991429706518,0.053164480942980874,1.3049993515014648,2019-06-21 12:52:06:670,0.0,0.0,0.0
0.01969681680202484,-0.1566765010356903,9.80323600769043,0.006615575628771298,0.0032498500166628654,0.05356405497503363,1.3091130256652832,2019-06-21 12:52:06:674,0.0,0.0,0.0
-0.04496142640709877,-0.14949224889278412,9.743367195129395,0.008613434345764809,0.004448565090814376,0.049568335460452015,1.3150010108947754,2019-06-21 12:52:06:680,0.0,0.0,0.0
-0.047356173396110535,-0.2021767497062683,9.752945899963379,0.005017288863235951,0.004848137042272538,0.05023428801935075,1.3191046714782715,2019-06-21 12:52:06:684,0.0,0.0,0.0
-0.05693517252802849,-0.15907125174999237,9.755340576171875,-0.00017714346610147965,0.001651563121090355,0.04916876558958845,1.3249993324279785,2019-06-21 12:52:06:690,0.0,0.0,0.0
-0.009040179662406445,-0.2021767497062683,9.740972518920898,0.0058164322460036244,-0.003676059820805624,0.0507670533954211,1.3291106224060059,2019-06-21 12:52:06:694,0.0,0.0,0.0
-0.1479356586933136,-0.18780824542045593,9.8319730758667,0.005283669990825176,-0.002077772925233114,0.04797004765461937,1.3350176811218262,2019-06-21 12:52:06:700,0.0,0.0,0.0
0.06040756031870842,-0.05370226129889488,9.829578399658203,-0.004039669994946335,0.006579614111528172,0.05143300595431984,1.3391127586364746,2019-06-21 12:52:06:704,0.0,0.0,0.0
-0.18864640593528748,-0.22372949123382568,9.78647232055664,0.006349194501182075,0.0004528479494109724,0.04783686047179098,1.344104290008545,2019-06-21 12:52:06:709,0.0,0.0,0.0
-0.04256667569279671,-0.10399200767278671,9.714630126953125,0.0038185737890844406,-0.0023441541828595016,0.049834718148487195,1.3499999046325684,2019-06-21 12:52:06:715,0.0,0.0,0.0
-0.08567216992378235,-0.09680775552988052,9.721814155578613,-0.0011094774614277016,-0.006073490229182971,0.049435144116434425,1.3550009727478027,2019-06-21 12:52:06:720,0.0,0.0,0.0
-0.03777717798948288,-0.21415048837661743,9.666735649108887,-0.0013758585890169264,-0.009802826535580764,0.04743728643973822,1.3591008186340332,2019-06-21 12:52:06:724,0.0,0.0,0.0
-0.07369842380285263,-0.14949224889278412,9.810420036315918,0.0006219999979394207,-0.003542869257011012,0.04930195693360604,1.364999771118164,2019-06-21 12:52:06:730,0.0,0.0,0.0
-0.021013928577303886,-0.14709749817848206,9.860710144042969,-0.006836672094707517,0.0005860385457148754,0.04903557424557087,1.3691096305847168,2019-06-21 12:52:06:734,0.0,0.0,0.0
-0.032987676560878754,-0.3267037272453308,9.709840774536133,8.92376858697129e-05,0.004581755914683313,0.04464028486012569,1.3750009536743164,2019-06-21 12:52:06:740,0.0,0.0,0.0
-0.09046167135238647,-0.13991324603557587,9.808025360107422,-0.00577114758435062,-0.0018113917976438896,0.039845425603816945,1.3800396919250488,2019-06-21 12:52:06:745,0.0,0.0,0.0
0.03406531363725662,-0.2500717341899872,9.702656745910645,-0.0033737171759732733,-0.00660625248436142,0.03198717999926589,1.3850064277648926,2019-06-21 12:52:06:750,0.0,0.0,0.0
-0.11919866502285004,-0.3338879644870758,9.731393814086914,0.003951764352879053,-0.004475203463647623,0.028257845253314047,1.389101505279541,2019-06-21 12:52:06:754,0.0,0.0,0.0
0.06519705802202225,-0.05370226129889488,9.714630126953125,-0.01216429516664066,-0.006473061660492482,0.02625998549602324,1.39500093460083,2019-06-21 12:52:06:760,0.0,0.0,0.0
-0.21019914746284485,-0.2740192413330078,9.80323600769043,0.003951764352879053,-0.0030101070018325625,0.020000029777899435,1.3991122245788574,2019-06-21 12:52:06:764,0.0,0.0,0.0
-0.009040179662406445,-0.11596575379371643,9.796051979064941,-0.001642239716606151,-0.0011454389786708283,0.011076260703288788,1.4050002098083496,2019-06-21 12:52:06:770,0.0,0.0,0.0
-0.1287776678800583,0.030113978311419487,9.779288291931152,-0.012031104862920373,-0.0006126766584737978,0.007346924917039643,1.4091029167175293,2019-06-21 12:52:06:774,0.0,0.0,0.0
-0.09046167135238647,-0.2165452390909195,9.788866996765137,0.0035521926614952163,-0.0075385861708493805,0.0008205870960478969,1.4149994850158691,2019-06-21 12:52:06:780,0.0,0.0,0.0
0.0077230678871273994,-0.06328126043081284,9.750551223754883,-0.004306051122535559,-0.005540727974004522,-0.0017100338111054802,1.419111728668213,2019-06-21 12:52:06:784,0.0,0.0,0.0
-0.10243541747331619,-0.0010177686344832182,9.812814712524414,-0.007369434349885967,0.0011188008659119059,-0.007703609571974521,1.4250264167785645,2019-06-21 12:52:06:790,0.0,0.0,0.0
0.07717081159353256,-0.18062399327754974,9.635603904724121,0.0031526207100370544,0.0005860385457148754,-0.007437228444385297,1.430046558380127,2019-06-21 12:52:06:795,0.0,0.0,0.0
0.01969681680202484,-0.0393337644636631,9.80323600769043,-0.003906479431151722,0.001251991429706518,-0.011832517309681828,1.4341130256652832,2019-06-21 12:52:06:799,0.0,0.0,0.0
0.10590780526399612,-0.022570515051484108,9.702656745910645,-0.010432817057087724,0.0025838971976898037,-0.019690761873935578,1.439990520477295,2019-06-21 12:52:06:805,0.0,0.0,0.0
0.07956556230783463,-0.17583449184894562,9.659550666809082,0.0014211433807070943,0.0004528479494109724,-0.017426521509204193,1.4441027641296387,2019-06-21 12:52:06:809,0.0,0.0,0.0
0.11069730669260025,0.049271974712610245,9.788866996765137,-0.009100911939290253,0.001651563121090355,-0.02448562113024432,1.449998378753662,2019-06-21 12:52:06:815,0.0,0.0,0.0
0.14422379434108734,-0.029754765331745148,9.700262069702148,-0.0037732888673571103,0.001651563121090355,-0.02794857734935019,1.4541077613830566,2019-06-21 12:52:06:819,0.0,0.0,0.0
0.17535555362701416,-0.09441300481557846,9.812814712524414,-0.000843096333838477,-0.002610535310448726,-0.025551145640601215,1.459989070892334,2019-06-21 12:52:06:825,0.0,0.0,0.0
0.20169779658317566,0.05166672542691231,9.77449893951416,-0.0063039098395290686,0.008177900877063521,-0.033808961116015834,1.4641032218933105,2019-06-21 12:52:06:829,0.0,0.0,0.0
0.17775028944015503,-0.11357100307941437,9.69547176361084,0.0020870961996801557,0.005114518169861762,-0.028081766612773177,1.47001314163208,2019-06-21 12:52:06:835,0.0,0.0,0.0
0.16817130148410797,0.006166480481624603,9.645182609558105,0.0010215716893232575,0.004048993399430539,-0.029413671730570648,1.4741110801696777,2019-06-21 12:52:06:839,0.0,0.0,0.0
0.20169779658317566,0.09716697037220001,9.673919677734375,-0.005637956760481682,-0.0016782012338492774,-0.03700553464708652,1.4799914360046387,2019-06-21 12:52:06:845,0.0,0.0,0.0
0.21127678453922272,-0.05370226129889488,9.685893058776855,0.0014211433807070943,-0.0015450106700546653,-0.03141153148786146,1.4841036796569824,2019-06-21 12:52:06:849,0.0,0.0,0.0
0.20648729801177979,-0.022570515051484108,9.721814155578613,-0.001242668025222314,0.005514089601171274,-0.03234386465420077,1.4900221824645996,2019-06-21 12:52:06:855,0.0,0.0,0.0
0.23522429168224335,0.07561422139406204,9.764920234680176,-0.0021750019717846,0.002717087761484416,-0.03234386465420077,1.4941105842590332,2019-06-21 12:52:06:859,0.0,0.0,0.0
0.1801450401544571,-0.10159725695848465,9.714630126953125,0.00435133604426289,0.010308949897777316,-0.02794857734935019,1.499990463256836,2019-06-21 12:52:06:865,0.0,0.0,0.0
0.21127678453922272,-0.10638675838708878,9.750551223754883,0.005550051118414401,0.003649421708046702,-0.02981324368202881,1.504101276397705,2019-06-21 12:52:06:869,0.0,0.0,0.0
0.1801450401544571,-0.08962351083755493,9.657155990600586,0.006349194501182075,0.005514089601171274,-0.0340753417234564,1.5100150108337402,2019-06-21 12:52:06:875,0.0,0.0,0.0
0.2376190423965454,-0.0034125184174627066,9.70505142211914,0.0022202867634747683,0.0004528479494109724,-0.031145150880420885,1.5141196250915527,2019-06-21 12:52:06:879,0.0,0.0,0.0
0.2591717839241028,-0.0393337644636631,9.731393814086914,0.008213862394306647,0.008177900877063521,-0.03887020514095435,1.5199995040893555,2019-06-21 12:52:06:885,0.0,0.0,0.0
0.20648729801177979,-0.0034125184174627066,9.669130325317383,0.0068819567563605235,0.0032498500166628654,-0.03700553464708652,1.5250029563903809,2019-06-21 12:52:06:890,0.0,0.0,0.0
0.22085578739643097,0.08279847353696823,9.77449893951416,0.008347053218175584,0.0047149462184036,-0.03527405965842549,1.5291023254394531,2019-06-21 12:52:06:894,0.0,0.0,0.0
0.1801450401544571,0.020534979179501534,9.779288291931152,0.004750907735646727,0.008444282004652744,-0.02981324368202881,1.535001277923584,2019-06-21 12:52:06:900,0.0,0.0,0.0
0.16338180005550385,-0.09441300481557846,9.68349838256836,0.010211721631448806,0.0041821839632251515,-0.03234386465420077,1.5391106605529785,2019-06-21 12:52:06:904,0.0,0.0,0.0
0.23043479025363922,0.020534979179501534,9.740972518920898,0.007281528707818685,0.007112376366706621,-0.0331430085571171,1.5449976921081543,2019-06-21 12:52:06:910,0.0,0.0,0.0
0.21127678453922272,-0.012991516850888729,9.769709587097168,0.007148337883949748,0.005247708473582049,-0.027815386005332603,1.5491023063659668,2019-06-21 12:52:06:914,0.0,0.0,0.0
0.15140804648399353,-0.12793950736522675,9.779288291931152,0.014473819672876401,0.010841712152955764,-0.030745578928962722,1.5550041198730469,2019-06-21 12:52:06:920,0.0,0.0,0.0
0.13703955709934235,-0.1183605045080185,9.752945899963379,0.00848024352189587,0.0049813273459928245,-0.028880910515689497,1.5600190162658691,2019-06-21 12:52:06:925,0.0,0.0,0.0
0.11548680067062378,-0.19738724827766418,9.700262069702148,0.007814290962997135,0.0041821839632251515,-0.0310119595364033,1.5641121864318848,2019-06-21 12:52:06:929,0.0,0.0,0.0
0.1274605542421341,-0.16625550389289856,9.70505142211914,0.007015147580229461,0.0007192291095094877,-0.03154472283187905,1.5700278282165527,2019-06-21 12:52:06:935,0.0,0.0,0.0
0.14901329576969147,-0.2620454728603363,9.731393814086914,0.006615575628771298,0.001651563121090355,-0.03154472283187905,1.5741181373596191,2019-06-21 12:52:06:939,0.0,0.0,0.0
0.17535555362701416,-0.2812034785747528,9.834367752075195,0.010877674190347544,0.005380899297450987,-0.030745578928962722,1.5799870491027832,2019-06-21 12:52:06:945,0.0,0.0,0.0
0.16098704934120178,-0.21175573766231537,9.779288291931152,0.007547909835407911,0.0049813273459928245,-0.03580682087330664,1.5841021537780762,2019-06-21 12:52:06:949,0.0,0.0,0.0
0.1466185450553894,-0.2285189926624298,9.702656745910645,0.0006219999979394207,0.005780470728760498,-0.03780467855000285,1.5900216102600098,2019-06-21 12:52:06:955,0.0,0.0,0.0
0.24719803035259247,-0.2572559714317322,9.671525001525879,0.006349194501182075,0.0028502783252790285,-0.03340938916455767,1.5941119194030762,2019-06-21 12:52:06:959,0.0,0.0,0.0
0.18972404301166534,-0.21893998980522156,9.707446098327637,0.004750907735646727,0.004848137042272538,-0.032743436605658933,1.599107265472412,2019-06-21 12:52:06:964,0.0,0.0,0.0
0.23282954096794128,-0.2093609869480133,9.717024803161621,0.008213862394306647,0.005913661552629436,-0.03021281563348697,1.605001449584961,2019-06-21 12:52:06:970,0.0,0.0,0.0
0.23282954096794128,-0.2093609869480133,9.707446098327637,0.007547909835407911,0.0021843255063059668,-0.029147291123130078,1.6091222763061523,2019-06-21 12:52:06:974,0.0,0.0,0.0
0.29269829392433167,-0.1303342580795288,9.72420883178711,0.0034190020977006037,0.008843854476259556,-0.03047919624092755,1.61500883102417,2019-06-21 12:52:06:980,0.0,0.0,0.0
0.2639612853527069,-0.242887482047081,9.673919677734375,0.0054168602945454634,0.007778329445754008,-0.025817526248041792,1.6199936866760254,2019-06-21 12:52:06:985,0.0,0.0,0.0
0.3118562698364258,-0.18780824542045593,9.728999137878418,0.0028862395824478296,0.012439998918491112,-0.025551145640601215,1.62410306930542,2019-06-21 12:52:06:989,0.0,0.0,0.0
0.2448032945394516,-0.17343974113464355,9.669130325317383,0.0056832419422833385,0.007778329445754008,-0.017959282724085344,1.629997730255127,2019-06-21 12:52:06:995,0.0,0.0,0.0
0.3429880142211914,-0.20696623623371124,9.697867393493652,0.005949623069872562,-0.0014118201062600529,-0.020889475647715462,1.6341099739074707,2019-06-21 12:52:06:999,0.0,0.0,0.0
0.29988253116607666,-0.1710449904203415,9.714630126953125,0.0056832419422833385,0.0013851819935011304,-0.02195500015807236,1.6399903297424316,2019-06-21 12:52:07:005,0.0,0.0,0.0
0.3621460199356079,-0.21175573766231537,9.788866996765137,0.006615575628771298,0.01017575959405703,-0.012098897917122403,1.6441030502319336,2019-06-21 12:52:07:009,0.0,0.0,0.0
0.34538277983665466,-0.2812034785747528,9.65476131439209,0.0064823853250510115,0.009376616731438006,-0.0066380850616176235,1.6500000953674316,2019-06-21 12:52:07:015,0.0,0.0,0.0
0.26875078678131104,-0.18541349470615387,9.73378849029541,-0.00017714346610147965,0.008843854476259556,-0.005039798296082276,1.655001163482666,2019-06-21 12:52:07:020,0.0,0.0,0.0
0.31904053688049316,-0.2021767497062683,9.776893615722656,0.0020870961996801557,0.007378757494295846,-0.003041939579088766,1.6591320037841797,2019-06-21 12:52:07:024,0.0,0.0,0.0
0.3238300383090973,-0.21893998980522156,9.740972518920898,0.0023534773272693805,0.0003196573856163601,0.004017160822174336,1.6650214195251465,2019-06-21 12:52:07:030,0.0,0.0,0.0
0.37890926003456116,-0.17343974113464355,9.784077644348145,0.0028862395824478296,0.005247708473582049,0.005615447847784009,1.6691012382507324,2019-06-21 12:52:07:034,0.0,0.0,0.0
0.28072452545166016,-0.30994048714637756,9.772104263305664,0.0010215716893232575,0.009376616731438006,0.010943070399568499,1.6749987602233887,2019-06-21 12:52:07:040,0.0,0.0,0.0
0.2855140268802643,-0.23330849409103394,9.79126262664795,0.007414719011538973,0.008843854476259556,0.012674548509121435,1.6791114807128906,2019-06-21 12:52:07:044,0.0,0.0,0.0
0.2711455225944519,-0.19738724827766418,9.757735252380371,-0.0031073360483840485,0.008577472828521681,0.01533835978501368,1.6849989891052246,2019-06-21 12:52:07:050,0.0,0.0,0.0
0.2831192910671234,-0.25246649980545044,9.764920234680176,0.00435133604426289,0.007778329445754008,0.01920088587498311,1.689103603363037,2019-06-21 12:52:07:054,0.0,0.0,0.0
0.27593502402305603,-0.242887482047081,9.860710144042969,0.0004888094016355178,0.0032498500166628654,0.023729364523851278,1.6949973106384277,2019-06-21 12:52:07:060,0.0,0.0,0.0
0.21606628596782684,-0.18541349470615387,9.805630683898926,8.92376858697129e-05,0.0020511348124741917,0.027858273301855883,1.699113368988037,2019-06-21 12:52:07:064,0.0,0.0,0.0
0.18972404301166534,-0.29078248143196106,9.870288848876953,0.0023534773272693805,0.00671280493539711,0.028657417204772214,1.7050232887268066,2019-06-21 12:52:07:070,0.0,0.0,0.0
0.1729608029127121,-0.24049273133277893,9.827183723449707,0.0004888094016355178,0.01057533154551519,0.035316944874354175,1.7100138664245605,2019-06-21 12:52:07:075,0.0,0.0,0.0
0.1538027971982956,-0.2740192413330078,9.819998741149902,0.000755190561734033,0.0060468518563497236,0.038779899012865444,1.7141118049621582,2019-06-21 12:52:07:079,0.0,0.0,0.0
0.09153930842876434,-0.2764139771461487,9.712235450744629,-0.00017714346610147965,0.006979186062986335,0.029456559027093935,1.71998929977417,2019-06-21 12:52:07:085,0.0,0.0,0.0
0.10830255597829819,-0.2572559714317322,9.77449893951416,0.001287952816912482,0.0049813273459928245,0.03451780097143785,1.7241029739379883,2019-06-21 12:52:07:089,0.0,0.0,0.0
0.09632880985736847,-0.2692297399044037,9.719419479370117,-0.000843096333838477,0.005247708473582049,0.04250923583941189,1.72999906539917,2019-06-21 12:52:07:095,0.0,0.0,0.0
0.10830255597829819,-0.2812034785747528,9.817604064941406,-4.395289011588339e-05,0.0049813273459928245,0.04131052206563201,1.7341079711914062,2019-06-21 12:52:07:099,0.0,0.0,0.0
0.13225005567073822,-0.21893998980522156,9.76252555847168,0.000755190561734033,0.004315374527019763,0.04597218997792316,1.7399873733520508,2019-06-21 12:52:07:105,0.0,0.0,0.0
0.09153930842876434,-0.19259774684906006,9.685893058776855,0.000755190561734033,0.0032498500166628654,0.04823643034265454,1.7441034317016602,2019-06-21 12:52:07:109,0.0,0.0,0.0
0.10830255597829819,-0.1830187439918518,9.731393814086914,-0.004172860558740947,0.002317516070100579,0.05090024057824948,1.750107765197754,2019-06-21 12:52:07:115,0.0,0.0,0.0
0.08435505628585815,-0.22133474051952362,9.736183166503906,-0.001642239716606151,0.002450706633895191,0.0497015268044696,1.7541389465332031,2019-06-21 12:52:07:119,0.0,0.0,0.0
0.14182904362678528,-0.17822924256324768,9.693077087402344,-0.0024413832294109873,0.0004528479494109724,0.05209895851321857,1.7599949836730957,2019-06-21 12:52:07:125,0.0,0.0,0.0
0.15619754791259766,-0.19978199899196625,9.731393814086914,-0.000843096333838477,-0.0011454389786708283,0.05729338764039087,1.7641000747680664,2019-06-21 12:52:07:129,0.0,0.0,0.0
0.19690829515457153,-0.17343974113464355,9.743367195129395,-0.001642239716606151,0.003649421708046702,0.05969081934913985,1.7699928283691406,2019-06-21 12:52:07:135,0.0,0.0,0.0
0.19451354444026947,-0.12554475665092468,9.776893615722656,0.001687524508296319,0.007911519749474296,0.06115591581095491,1.7741031646728516,2019-06-21 12:52:07:139,0.0,0.0,0.0
0.1801450401544571,-0.1183605045080185,9.73378849029541,0.002619858454858605,0.0032498500166628654,0.06741587152907871,1.779996395111084,2019-06-21 12:52:07:145,0.0,0.0,0.0
0.1921187937259674,-0.07046551257371902,9.714630126953125,0.005017288863235951,-0.0028769164380379507,0.06928054202294653,1.784101963043213,2019-06-21 12:52:07:149,0.0,0.0,0.0
0.14422379434108734,0.008561230264604092,9.796051979064941,0.0022202867634747683,0.002450706633895191,0.07221073078538745,1.7900195121765137,2019-06-21 12:52:07:155,0.0,0.0,0.0
0.1274605542421341,-0.06328126043081284,9.79126262664795,-0.00031033404615073726,-0.0006126766584737978,0.07673921151485022,1.7941045761108398,2019-06-21 12:52:07:159,0.0,0.0,0.0
0.101118303835392,-0.10159725695848465,9.836762428283691,-0.000843096333838477,-0.002210963619064889,0.07087882566758998,1.8000426292419434,2019-06-21 12:52:07:165,0.0,0.0,0.0
0.08196030557155609,-0.12554475665092468,9.834367752075195,0.001687524508296319,0.0021843255063059668,0.07194435641973068,1.8041257858276367,2019-06-21 12:52:07:169,0.0,0.0,0.0
-0.018619179725646973,-0.15907125174999237,9.73378849029541,-4.395289011588339e-05,-0.00514115602254636,0.0686145894640478,1.8099913597106934,2019-06-21 12:52:07:175,0.0,0.0,0.0
0.0029335683211684227,-0.24049273133277893,9.726603507995605,-4.395289011588339e-05,-0.0018113917976438896,0.07314307019351057,1.814103603363037,2019-06-21 12:52:07:179,0.0,0.0,0.0
-0.0234086774289608,-0.2165452390909195,9.779288291931152,0.0028862395824478296,-0.004342012639778686,0.06475206129348376,1.820002555847168,2019-06-21 12:52:07:185,0.0,0.0,0.0
-0.09046167135238647,-0.25965073704719543,9.80323600769043,0.003019430146242442,-0.002077772925233114,0.06102272446693732,1.8241095542907715,2019-06-21 12:52:07:189,0.0,0.0,0.0
-0.08327741920948029,-0.22133474051952362,9.781682968139648,0.000755190561734033,-0.0028769164380379507,0.05609467386661099,1.8299884796142578,2019-06-21 12:52:07:195,0.0,0.0,0.0
-0.05214567482471466,-0.19499249756336212,9.836762428283691,8.92376858697129e-05,-0.005274346846415297,0.05343086363101605,1.8341026306152344,2019-06-21 12:52:07:199,0.0,0.0,0.0
-0.032987676560878754,-0.15907125174999237,9.8319730758667,0.0020870961996801557,-0.002477344746654114,0.04663814253682189,1.8401894569396973,2019-06-21 12:52:07:206,0.0,0.0,0.0
-0.07130367308855057,-0.14470274746418,9.85352611541748,0.001287952816912482,-0.0030101070018325625,0.043308379742328214,1.8441414833068848,2019-06-21 12:52:07:209,0.0,0.0,0.0
-0.06411942094564438,-0.0656760111451149,9.855920791625977,0.0019539056358855436,-0.00074586722226841,0.040511378162715675,1.8500027656555176,2019-06-21 12:52:07:215,0.0,0.0,0.0
-0.08327741920948029,-0.07286025583744049,9.800841331481934,0.0003556188378409054,-0.004874774894957135,0.03358546780509854,1.8541030883789062,2019-06-21 12:52:07:219,0.0,0.0,0.0
-0.013829679228365421,-0.0848340094089508,9.77449893951416,-0.001642239716606151,-0.007804967298438606,0.03291951524619981,1.8599982261657715,2019-06-21 12:52:07:225,0.0,0.0,0.0
-0.04496142640709877,-0.06088650971651077,9.666735649108887,-0.0036400983035624977,-0.007804967298438606,0.022930222701529557,1.8641090393066406,2019-06-21 12:52:07:229,0.0,0.0,0.0
-0.0018559310119599104,-0.0920182541012764,9.76252555847168,-0.0027077643570002116,-0.008604110681206279,0.020799173680815762,1.8699898719787598,2019-06-21 12:52:07:235,0.0,0.0,0.0
0.029275815933942795,-0.08722876012325287,9.726603507995605,0.0006219999979394207,-0.00807134842602783,0.018401741972066787,1.8741040229797363,2019-06-21 12:52:07:239,0.0,0.0,0.0
0.07717081159353256,-0.0848340094089508,9.69547176361084,0.0004888094016355178,-0.005007965718826072,0.012940929116562009,1.8800015449523926,2019-06-21 12:52:07:245,0.0,0.0,0.0
0.12985530495643616,-0.1183605045080185,9.657155990600586,-0.002974145484589436,-0.00913687293638473,0.009078403026592578,1.8843274116516113,2019-06-21 12:52:07:250,0.0,0.0,0.0
0.14182904362678528,-0.08722876012325287,9.65476131439209,-0.0020418114079899874,-0.007938158122307543,0.00454992333742711,1.8900275230407715,2019-06-21 12:52:07:255,0.0,0.0,0.0
0.18732929229736328,-0.1111762523651123,9.611656188964844,-0.001242668025222314,-0.006073490229182971,0.0029516363118174374,1.8941140174865723,2019-06-21 12:52:07:259,0.0,0.0,0.0
0.24959278106689453,-0.12075525522232056,9.637998580932617,0.0015543339445017069,-0.0034096786932164,0.0032180174394066618,1.8999934196472168,2019-06-21 12:52:07:265,0.0,0.0,0.0
0.29269829392433167,-0.11357100307941437,9.69547176361084,-0.000843096333838477,5.327622958150625e-05,0.004017160822174336,1.9041023254394531,2019-06-21 12:52:07:269,0.0,0.0,0.0
0.3286195397377014,-0.07764975726604462,9.685893058776855,-0.0021750019717846,-0.00074586722226841,-0.0025091770638359916,1.9099984169006348,2019-06-21 12:52:07:275,0.0,0.0,0.0
0.28790879249572754,-0.0656760111451149,9.678709030151367,-0.003906479431151722,-0.002210963619064889,-0.007570418748105583,1.915001392364502,2019-06-21 12:52:07:280,0.0,0.0,0.0
0.2663560211658478,-0.07286025583744049,9.575735092163086,0.0004888094016355178,5.327622958150625e-05,-0.0010440808620952565,1.9191021919250488,2019-06-21 12:52:07:284,0.0,0.0,0.0
0.2974877953529358,-0.07525500655174255,9.712235450744629,-0.0021750019717846,0.0019179442486795795,-0.015961425047389132,1.9250011444091797,2019-06-21 12:52:07:290,0.0,0.0,0.0
0.31425103545188904,-0.07764975726604462,9.769709587097168,-0.004172860558740947,0.0025838971976898037,-0.010101040240426193,1.9291119575500488,2019-06-21 12:52:07:294,0.0,0.0,0.0
0.21606628596782684,-0.06328126043081284,9.726603507995605,0.000755190561734033,0.0047149462184036,-0.016094615351109422,1.935004711151123,2019-06-21 12:52:07:300,0.0,0.0,0.0
0.20648729801177979,-0.09920250624418259,9.64278793334961,-0.0044392419464044965,0.007112376366706621,-0.01755971077262718,1.9391093254089355,2019-06-21 12:52:07:304,0.0,0.0,0.0
0.15619754791259766,-0.12315000593662262,9.74576187133789,-0.0021750019717846,0.004448565090814376,-0.020356714432834315,1.9450335502624512,2019-06-21 12:52:07:310,0.0,0.0,0.0
0.11548680067062378,-0.14709749817848206,9.798446655273438,-0.0044392419464044965,0.003383040580457477,-0.022221380765512937,1.949108600616455,2019-06-21 12:52:07:314,0.0,0.0,0.0
0.0484338141977787,-0.15907125174999237,9.810420036315918,-0.0021750019717846,0.003782612271841314,-0.028880910515689497,1.95499849319458,2019-06-21 12:52:07:320,0.0,0.0,0.0
0.04124956205487251,-0.12554475665092468,9.77449893951416,8.92376858697129e-05,0.005514089601171274,-0.03234386465420077,1.9591116905212402,2019-06-21 12:52:07:324,0.0,0.0,0.0
0.06998655945062637,-0.14470274746418,9.77449893951416,-0.0032405266121786607,0.004448565090814376,-0.03700553464708652,1.964998722076416,2019-06-21 12:52:07:330,0.0,0.0,0.0
0.022091565653681755,-0.13272900879383087,9.728999137878418,-0.0005767152062492525,0.0020511348124741917,-0.03953615769985309,1.9691014289855957,2019-06-21 12:52:07:334,0.0,0.0,0.0
0.06519705802202225,-0.11596575379371643,9.726603507995605,-0.007236243526017029,0.0060468518563497236,-0.04433101695616183,1.9750022888183594,2019-06-21 12:52:07:340,0.0,0.0,0.0
0.06998655945062637,-0.10399200767278671,9.731393814086914,0.0004888094016355178,0.008444282004652744,-0.0529884043830346,1.979112148284912,2019-06-21 12:52:07:344,0.0,0.0,0.0
0.12506580352783203,-0.12075525522232056,9.767314910888672,0.0014211433807070943,0.004848137042272538,-0.05365435694193334,1.9850373268127441,2019-06-21 12:52:07:350,0.0,0.0,0.0
0.07238131016492844,-0.08962351083755493,9.719419479370117,-0.00017714346610147965,0.0013851819935011304,-0.050990546706338395,1.989123821258545,2019-06-21 12:52:07:354,0.0,0.0,0.0
0.1538027971982956,-0.06807076185941696,9.70505142211914,-0.004172860558740947,-0.0006126766584737978,-0.0551194534037484,1.9950032234191895,2019-06-21 12:52:07:360,0.0,0.0,0.0
0.20409254729747772,-0.02496526576578617,9.700262069702148,0.00022242825779164786,-0.0010122483498576347,-0.05658454986556346,1.9991111755371094,2019-06-21 12:52:07:364,0.0,0.0,0.0
0.2256452888250351,-0.03693901374936104,9.697867393493652,-0.003906479431151722,0.002450706633895191,-0.051789690609254715,2.005002498626709,2019-06-21 12:52:07:370,0.0,0.0,0.0
0.28072452545166016,-0.06328126043081284,9.700262069702148,0.0011547622531178697,0.0019179442486795795,-0.055385836091783575,2.0091042518615723,2019-06-21 12:52:07:374,0.0,0.0,0.0
0.2974877953529358,-0.10878150165081024,9.74576187133789,0.0027530490186532175,0.0032498500166628654,-0.05378754828595093,2.015000820159912,2019-06-21 12:52:07:380,0.0,0.0,0.0
0.2903035283088684,-0.08004450798034668,9.719419479370117,-0.0021750019717846,0.005380899297450987,-0.05152330792121954,2.019110679626465,2019-06-21 12:52:07:384,0.0,0.0,0.0
0.2855140268802643,-0.10878150165081024,9.731393814086914,-0.0048388133777140085,-7.991434640409003e-05,-0.04872630634160701,2.0249991416931152,2019-06-21 12:52:07:390,0.0,0.0,0.0
0.3381985127925873,-0.09680775552988052,9.700262069702148,-0.0005767152062492525,0.00671280493539711,-0.053521165597915754,2.029127597808838,2019-06-21 12:52:07:394,0.0,0.0,0.0
0.33340901136398315,-0.1183605045080185,9.72420883178711,0.003019430146242442,0.005247708473582049,-0.04592930476199448,2.035007953643799,2019-06-21 12:52:07:400,0.0,0.0,0.0
0.3501722812652588,-0.16146600246429443,9.798446655273438,0.0036853832252898284,0.005247708473582049,-0.043398681709227914,2.0391035079956055,2019-06-21 12:52:07:404,0.0,0.0,0.0
0.3621460199356079,-0.08962351083755493,9.70505142211914,0.001687524508296319,0.007778329445754008,-0.04153401537654929,2.0450005531311035,2019-06-21 12:52:07:410,0.0,0.0,0.0
0.29269829392433167,-0.14470274746418,9.70505142211914,0.0011547622531178697,0.007378757494295846,-0.040868062817650555,2.0491108894348145,2019-06-21 12:52:07:414,0.0,0.0,0.0
0.31904053688049316,-0.16146600246429443,9.714630126953125,0.004484526608057502,0.004848137042272538,-0.03607319940015261,2.0549979209899902,2019-06-21 12:52:07:420,0.0,0.0,0.0
0.2639612853527069,-0.12793950736522675,9.808025360107422,0.006349194501182075,0.0049813273459928245,-0.040202110258751825,2.059103488922119,2019-06-21 12:52:07:424,0.0,0.0,0.0
0.2831192910671234,-0.18780824542045593,9.769709587097168,0.003285811533905992,0.007378757494295846,-0.03434172441149158,2.0641026496887207,2019-06-21 12:52:07:429,0.0,0.0,0.0
0.24719803035259247,-0.1566765010356903,9.74576187133789,0.005017288863235951,0.006180042680218661,-0.0372719173351217,2.0700020790100098,2019-06-21 12:52:07:435,0.0,0.0,0.0
0.24240854382514954,-0.1638607531785965,9.772104263305664,0.00608281337359285,0.0056472804250402115,-0.03141153148786146,2.0750460624694824,2019-06-21 12:52:07:440,0.0,0.0,0.0
0.21606628596782684,-0.18062399327754974,9.752945899963379,0.0042181454804682775,0.006313232983938947,-0.03261024734223594,2.0791072845458984,2019-06-21 12:52:07:444,0.0,0.0,0.0
0.21127678453922272,-0.17822924256324768,9.77449893951416,0.005017288863235951,0.0064464238078078846,-0.02395285991536317,2.0850157737731934,2019-06-21 12:52:07:450,0.0,0.0,0.0
0.21127678453922272,-0.1710449904203415,9.72420883178711,0.005550051118414401,0.002717087761484416,-0.028081766612773177,2.089108943939209,2019-06-21 12:52:07:454,0.0,0.0,0.0
0.21127678453922272,-0.2093609869480133,9.743367195129395,0.007281528707818685,0.008177900877063521,-0.024618812474261908,2.0941109657287598,2019-06-21 12:52:07:459,0.0,0.0,0.0
0.1993030458688736,-0.16865025460720062,9.769709587097168,0.003285811533905992,0.007112376366706621,-0.0194243791859004,2.099998950958252,2019-06-21 12:52:07:465,0.0,0.0,0.0
0.18732929229736328,-0.16625550389289856,9.728999137878418,0.005017288863235951,0.008177900877063521,-0.022221380765512937,2.10410737991333,2019-06-21 12:52:07:469,0.0,0.0,0.0
0.24240854382514954,-0.19259774684906006,9.760130882263184,0.007547909835407911,0.0056472804250402115,-0.01702694955774603,2.1099929809570312,2019-06-21 12:52:07:475,0.0,0.0,0.0
0.20409254729747772,-0.12554475665092468,9.755340576171875,0.003951764352879053,0.00298346888907364,-0.019157998578459828,2.114102840423584,2019-06-21 12:52:07:479,0.0,0.0,0.0
0.2184610366821289,-0.16865025460720062,9.726603507995605,0.008347053218175584,0.004048993399430539,-0.014096756634115913,2.1191353797912598,2019-06-21 12:52:07:484,0.0,0.0,0.0
0.20888204872608185,-0.19978199899196625,9.776893615722656,0.007814290962997135,0.0049813273459928245,-0.008369562130873257,2.125000476837158,2019-06-21 12:52:07:490,0.0,0.0,0.0
0.20648729801177979,-0.16146600246429443,9.678709030151367,0.0056832419422833385,0.0041821839632251515,-0.010367420847866767,2.129127025604248,2019-06-21 12:52:07:494,0.0,0.0,0.0
0.21606628596782684,-0.19978199899196625,9.752945899963379,0.001287952816912482,0.005514089601171274,-0.006371703934028398,2.1350083351135254,2019-06-21 12:52:07:500,0.0,0.0,0.0
0.23282954096794128,-0.20457148551940918,9.760130882263184,0.009945339983710931,0.0004528479494109724,-0.0023759865000413795,2.139101505279541,2019-06-21 12:52:07:504,0.0,0.0,0.0
0.20648729801177979,-0.20696623623371124,9.726603507995605,0.00608281337359285,0.0017847536848849673,-0.006238513110159461,2.14410400390625,2019-06-21 12:52:07:509,0.0,0.0,0.0
0.20648729801177979,-0.22612424194812775,9.772104263305664,0.003951764352879053,0.003649421708046702,0.0017529211076287644,2.149996280670166,2019-06-21 12:52:07:515,0.0,0.0,0.0
0.2184610366821289,-0.21893998980522156,9.714630126953125,0.0042181454804682775,0.0009856102370987122,0.005082685592605559,2.154109477996826,2019-06-21 12:52:07:519,0.0,0.0,0.0
0.14422379434108734,-0.19499249756336212,9.726603507995605,0.004084954916673665,0.005247708473582049,0.0033512080032012744,2.160029888153076,2019-06-21 12:52:07:525,0.0,0.0,0.0
0.18253979086875916,-0.2021767497062683,9.769709587097168,0.0027530490186532175,0.0035162311442520897,0.009211593330312866,2.1641287803649902,2019-06-21 12:52:07:529,0.0,0.0,0.0
0.16817130148410797,-0.19978199899196625,9.693077087402344,0.001287952816912482,0.0028502783252790285,0.006814162661861195,2.1699891090393066,2019-06-21 12:52:07:535,0.0,0.0,0.0
0.1538027971982956,-0.24528223276138306,9.784077644348145,0.0027530490186532175,0.004315374527019763,0.01334050106802017,2.174102783203125,2019-06-21 12:52:07:539,0.0,0.0,0.0
0.1657765507698059,-0.17822924256324768,9.721814155578613,0.0019539056358855436,0.005514089601171274,0.007879687172218092,2.1800222396850586,2019-06-21 12:52:07:545,0.0,0.0,0.0
0.18972404301166534,-0.20696623623371124,9.681103706359863,0.00608281337359285,0.005114518169861762,0.014139643930639196,2.184110164642334,2019-06-21 12:52:07:549,0.0,0.0,0.0
0.1993030458688736,-0.16625550389289856,9.788866996765137,-0.0005767152062492525,0.003383040580457477,0.01640388429537058,2.189990997314453,2019-06-21 12:52:07:555,0.0,0.0,0.0
0.1921187937259674,-0.17343974113464355,9.690682411193848,0.002619858454858605,0.0015183725572957428,0.016537074599090866,2.1941051483154297,2019-06-21 12:52:07:559,0.0,0.0,0.0
0.24959278106689453,-0.18062399327754974,9.767314910888672,0.005550051118414401,0.0007192291095094877,0.01746940880572748,2.199998378753662,2019-06-21 12:52:07:565,0.0,0.0,0.0
0.28790879249572754,-0.12554475665092468,9.748156547546387,-0.00044352460994534954,0.0009856102370987122,0.023462983916410707,2.204108715057373,2019-06-21 12:52:07:569,0.0,0.0,0.0
0.3094615340232849,-0.19499249756336212,9.760130882263184,0.0020870961996801557,0.003915802835635926,0.0203996017293576,2.210038661956787,2019-06-21 12:52:07:575,0.0,0.0,0.0
0.3046720325946808,-0.19259774684906006,9.757735252380371,0.0058164322460036244,0.0047149462184036,0.028790606468195198,2.214111804962158,2019-06-21 12:52:07:579,0.0,0.0,0.0
0.28790879249572754,-0.09680775552988052,9.736183166503906,0.0036853832252898284,-0.0003462954983752826,0.036382471465305675,2.219989776611328,2019-06-21 12:52:07:585,0.0,0.0,0.0
0.27354028820991516,-0.12554475665092468,9.702656745910645,0.0034190020977006037,-0.0010122483498576347,0.0393126643889358,2.2241272926330566,2019-06-21 12:52:07:589,0.0,0.0,0.0
0.29269829392433167,-0.17822924256324768,9.812814712524414,0.0014211433807070943,-0.005540727974004522,0.03704842402420441,2.2300009727478027,2019-06-21 12:52:07:595,0.0,0.0,0.0
0.27593502402305603,-0.1710449904203415,9.79126262664795,-0.0025745737932055994,0.0060468518563497236,0.03371865914911613,2.234102725982666,2019-06-21 12:52:07:599,0.0,0.0,0.0
0.20409254729747772,-0.27162447571754456,9.776893615722656,0.0008883811255286454,0.009509807035158293,0.033452276461080954,2.2400002479553223,2019-06-21 12:52:07:605,0.0,0.0,0.0
0.14182904362678528,-0.28359824419021606,9.743367195129395,-0.00044352460994534954,0.0015183725572957428,0.03784756792712074,2.245007038116455,2019-06-21 12:52:07:610,0.0,0.0,0.0
0.09872355312108994,-0.2620454728603363,9.69547176361084,0.0020870961996801557,0.0020511348124741917,0.035982897433252906,2.249113082885742,2019-06-21 12:52:07:614,0.0,0.0,0.0
0.11069730669260025,-0.2740192413330078,9.73378849029541,0.0011547622531178697,0.0009856102370987122,0.03078846622548601,2.2550206184387207,2019-06-21 12:52:07:620,0.0,0.0,0.0
0.1274605542421341,-0.23091374337673187,9.81520938873291,0.0036853832252898284,0.0017847536848849673,0.03078846622548601,2.2591066360473633,2019-06-21 12:52:07:624,0.0,0.0,0.0
0.101118303835392,-0.23330849409103394,9.77449893951416,-0.0033737171759732733,0.0004528479494109724,0.027591892694415313,2.264110565185547,2019-06-21 12:52:07:629,0.0,0.0,0.0
0.06519705802202225,-0.1710449904203415,9.681103706359863,0.0014211433807070943,5.327622958150625e-05,0.02852422586075462,2.269998550415039,2019-06-21 12:52:07:635,0.0,0.0,0.0
0.03406531363725662,-0.13991324603557587,9.764920234680176,0.0011547622531178697,0.0047149462184036,0.02226427014263082,2.274111270904541,2019-06-21 12:52:07:639,0.0,0.0,0.0
0.014907317236065865,-0.1183605045080185,9.743367195129395,0.0027530490186532175,0.0003196573856163601,0.022530650750071393,2.2799901962280273,2019-06-21 12:52:07:645,0.0,0.0,0.0
0.01730206608772278,-0.10638675838708878,9.796051979064941,0.0028862395824478296,-0.0012786295424654405,0.018401741972066787,2.2841029167175293,2019-06-21 12:52:07:649,0.0,0.0,0.0
0.0484338141977787,-0.07525500655174255,9.772104263305664,0.0003556188378409054,-0.003542869257011012,0.020133219041322422,2.289999485015869,2019-06-21 12:52:07:655,0.0,0.0,0.0
0.11069730669260025,-0.05849176272749901,9.752945899963379,-0.00031033404615073726,0.003782612271841314,0.016537074599090866,2.2950077056884766,2019-06-21 12:52:07:660,0.0,0.0,0.0
0.03167056292295456,-0.0848340094089508,9.74576187133789,-0.0032405266121786607,0.0009856102370987122,0.01746940880572748,2.2991294860839844,2019-06-21 12:52:07:664,0.0,0.0,0.0
0.14422379434108734,-0.06807076185941696,9.678709030151367,-0.00017714346610147965,-0.005540727974004522,0.013740073019478334,2.305002212524414,2019-06-21 12:52:07:670,0.0,0.0,0.0
0.1466185450553894,-0.11357100307941437,9.721814155578613,-0.00031033404615073726,-0.006206680532903257,0.019600457826441275,2.309103488922119,2019-06-21 12:52:07:674,0.0,0.0,0.0
0.21367153525352478,-0.12075525522232056,9.707446098327637,0.0006219999979394207,-0.005407537150135584,0.022397459406053807,2.315028667449951,2019-06-21 12:52:07:680,0.0,0.0,0.0
0.22085578739643097,-0.1375184953212738,9.74576187133789,-0.0024413832294109873,-0.0011454389786708283,0.019733649170458865,2.3191065788269043,2019-06-21 12:52:07:684,0.0,0.0,0.0
0.2783297896385193,-0.12554475665092468,9.73378849029541,-0.0019086208441953755,-0.0032764881294217877,0.016004312343912416,2.3250017166137695,2019-06-21 12:52:07:690,0.0,0.0,0.0
0.2855140268802643,-0.14949224889278412,9.808025360107422,-0.0044392419464044965,0.0007192291095094877,0.021465126239714496,2.329110622406006,2019-06-21 12:52:07:694,0.0,0.0,0.0
0.2855140268802643,-0.21415048837661743,9.755340576171875,-0.0007099057700438648,-0.0018113917976438896,0.01786898075718564,2.334998607635498,2019-06-21 12:52:07:700,0.0,0.0,0.0
0.2663560211658478,-0.14470274746418,9.700262069702148,-0.004172860558740947,-0.0016782012338492774,0.015471550088733969,2.3393006324768066,2019-06-21 12:52:07:705,0.0,0.0,0.0
0.3094615340232849,-0.14470274746418,9.690682411193848,0.0022202867634747683,-0.002477344746654114,0.021065554288256332,2.3450140953063965,2019-06-21 12:52:07:710,0.0,0.0,0.0
0.27354028820991516,-0.16625550389289856,9.788866996765137,-0.001642239716606151,-0.001944582361438502,0.02186469819117266,2.34910249710083,2019-06-21 12:52:07:714,0.0,0.0,0.0
0.29269829392433167,-0.14949224889278412,9.73378849029541,-0.00044352460994534954,0.004848137042272538,0.01746940880572748,2.3549981117248535,2019-06-21 12:52:07:720,0.0,0.0,0.0
0.20409254729747772,-0.1830187439918518,9.760130882263184,-0.0020418114079899874,0.0008524196733041,0.016670264902811153,2.360023021697998,2019-06-21 12:52:07:725,0.0,0.0,0.0
0.19451354444026947,-0.16625550389289856,9.697867393493652,0.00022242825779164786,0.002317516070100579,0.014272835274656783,2.364109992980957,2019-06-21 12:52:07:729,0.0,0.0,0.0
0.11309205740690231,-0.18062399327754974,9.690682411193848,-0.00523838532917217,0.002317516070100579,0.012940929116562009,2.3699893951416016,2019-06-21 12:52:07:735,0.0,0.0,0.0
0.14422379434108734,-0.21415048837661743,9.755340576171875,0.0006219999979394207,-0.0011454389786708283,0.012008594909925398,2.374103546142578,2019-06-21 12:52:07:739,0.0,0.0,0.0
0.11069730669260025,-0.16146600246429443,9.781682968139648,-0.0007099057700438648,0.0015183725572957428,0.010809880095848214,2.3800015449523926,2019-06-21 12:52:07:745,0.0,0.0,0.0
0.1202763020992279,-0.15907125174999237,9.757735252380371,-0.002974145484589436,0.006313232983938947,0.006281400406682744,2.3850245475769043,2019-06-21 12:52:07:750,0.0,0.0,0.0
0.0747760608792305,-0.10878150165081024,9.728999137878418,0.0014211433807070943,0.009376616731438006,0.010943070399568499,2.3891091346740723,2019-06-21 12:52:07:754,0.0,0.0,0.0
0.09153930842876434,-0.08243925869464874,9.707446098327637,0.0003556188378409054,0.0041821839632251515,-0.004107464089445664,2.3949999809265137,2019-06-21 12:52:07:760,0.0,0.0,0.0
0.09632880985736847,-0.07764975726604462,9.685893058776855,-0.004039669994946335,0.0035162311442520897,0.0009537776598425092,2.399111270904541,2019-06-21 12:52:07:764,0.0,0.0,0.0
0.09153930842876434,-0.06088650971651077,9.659550666809082,-0.005105194505303233,0.0017847536848849673,-0.005972131982570236,2.404998779296875,2019-06-21 12:52:07:770,0.0,0.0,0.0
0.1394343078136444,-0.06328126043081284,9.726603507995605,0.001687524508296319,0.0008524196733041,-0.0014436525534790934,2.409107208251953,2019-06-21 12:52:07:774,0.0,0.0,0.0
0.20169779658317566,-0.07046551257371902,9.688287734985352,-0.004172860558740947,0.001251991429706518,-0.0034415112704726026,2.4150032997131348,2019-06-21 12:52:07:780,0.0,0.0,0.0
0.19451354444026947,-0.05130751058459282,9.70505142211914,0.0023534773272693805,0.0056472804250402115,-0.004240654653240277,2.419102191925049,2019-06-21 12:52:07:784,0.0,0.0,0.0
0.15619754791259766,-0.056097012013196945,9.736183166503906,0.0018207150720909312,0.003649421708046702,-0.0023759865000413795,2.4249963760375977,2019-06-21 12:52:07:790,0.0,0.0,0.0
0.1801450401544571,-0.020175766199827194,9.659550666809082,-0.00017714346610147965,-0.0010122483498576347,-0.0018432243749000928,2.429107666015625,2019-06-21 12:52:07:794,0.0,0.0,0.0
0.24959278106689453,-0.10878150165081024,9.743367195129395,-0.001775430280400763,0.005247708473582049,-0.006371703934028398,2.4350228309631348,2019-06-21 12:52:07:800,0.0,0.0,0.0
0.24001379311084747,-0.1183605045080185,9.712235450744629,0.00022242825779164786,0.0015183725572957428,-0.00024493746307293734,2.4391064643859863,2019-06-21 12:52:07:804,0.0,0.0,0.0
0.27593502402305603,-0.0848340094089508,9.717024803161621,0.003285811533905992,0.001251991429706518,0.0017529211076287644,2.4449973106384277,2019-06-21 12:52:07:810,0.0,0.0,0.0
0.2519875466823578,-0.09441300481557846,9.769709587097168,0.0011547622531178697,0.001651563121090355,-0.002242795936246767,2.4491114616394043,2019-06-21 12:52:07:814,0.0,0.0,0.0
0.25438228249549866,-0.13991324603557587,9.793657302856445,0.002619858454858605,-0.0004794860621698949,-0.002642367627630604,2.455305576324463,2019-06-21 12:52:07:821,0.0,0.0,0.0
0.24001379311084747,-0.14230799674987793,9.72420883178711,-0.00017714346610147965,0.006979186062986335,0.001619730543834152,2.459132671356201,2019-06-21 12:52:07:824,0.0,0.0,0.0
0.18732929229736328,-0.14949224889278412,9.709840774536133,0.002619858454858605,0.0015183725572957428,-0.0006445091707114195,2.465000629425049,2019-06-21 12:52:07:830,0.0,0.0,0.0
0.24719803035259247,-0.1303342580795288,9.714630126953125,-0.001775430280400763,0.0003196573856163601,0.001619730543834152,2.4691014289855957,2019-06-21 12:52:07:834,0.0,0.0,0.0
0.20888204872608185,-0.16625550389289856,9.808025360107422,0.0038185737890844406,0.005514089601171274,0.0004210154046640601,2.474998950958252,2019-06-21 12:52:07:840,0.0,0.0,0.0
0.13703955709934235,-0.14949224889278412,9.829578399658203,0.0003556188378409054,0.007778329445754008,-0.0025091770638359916,2.4791274070739746,2019-06-21 12:52:07:844,0.0,0.0,0.0
0.15619754791259766,-0.12075525522232056,9.776893615722656,-0.0011094774614277016,0.007511948318164784,0.0012201588524503152,2.485013008117676,2019-06-21 12:52:07:850,0.0,0.0,0.0
0.13464480638504028,-0.1638607531785965,9.738577842712402,0.0036853832252898284,0.009243425387420418,0.004017160822174336,2.4891018867492676,2019-06-21 12:52:07:854,0.0,0.0,0.0
0.08435505628585815,-0.14949224889278412,9.788866996765137,0.004084954916673665,0.0028502783252790285,0.002019302235217989,2.4949965476989746,2019-06-21 12:52:07:860,0.0,0.0,0.0
0.06998655945062637,-0.14709749817848206,9.721814155578613,0.0006219999979394207,0.003383040580457477,-0.002242795936246767,2.4991116523742676,2019-06-21 12:52:07:864,0.0,0.0,0.0
0.10351305454969406,-0.18062399327754974,9.740972518920898,0.008080672090586358,0.002317516070100579,-0.0034415112704726026,2.5041327476501465,2019-06-21 12:52:07:869,0.0,0.0,0.0
0.0939340591430664,-0.19499249756336212,9.798446655273438,0.005550051118414401,0.003782612271841314,0.0012201588524503152,2.509998321533203,2019-06-21 12:52:07:875,0.0,0.0,0.0
0.07956556230783463,-0.15907125174999237,9.77449893951416,0.0008883811255286454,0.006979186062986335,-0.003175130142883378,2.514103412628174,2019-06-21 12:52:07:879,0.0,0.0,0.0
0.09872355312108994,-0.15907125174999237,9.709840774536133,0.00435133604426289,0.004448565090814376,-0.005972131982570236,2.5199990272521973,2019-06-21 12:52:07:885,0.0,0.0,0.0
0.06759180873632431,-0.18062399327754974,9.743367195129395,0.0058164322460036244,0.001651563121090355,-0.002242795936246767,2.524122714996338,2019-06-21 12:52:07:889,0.0,0.0,0.0
0.08435505628585815,-0.15188699960708618,9.731393814086914,0.0038185737890844406,-0.00074586722226841,-0.006371703934028398,2.529998302459717,2019-06-21 12:52:07:895,0.0,0.0,0.0
0.1274605542421341,-0.13512374460697174,9.69547176361084,0.0034190020977006037,-0.002610535310448726,-0.004640226344624114,2.5341038703918457,2019-06-21 12:52:07:899,0.0,0.0,0.0
0.10590780526399612,-0.15188699960708618,9.74576187133789,0.005283669990825176,-0.000213104918326025,-0.006371703934028398,2.539999485015869,2019-06-21 12:52:07:905,0.0,0.0,0.0
0.11069730669260025,-0.13272900879383087,9.750551223754883,0.005017288863235951,0.0041821839632251515,-0.003974273525651052,2.544109344482422,2019-06-21 12:52:07:909,0.0,0.0,0.0
0.08674980700016022,-0.15428175032138824,9.719419479370117,0.004884098039367014,0.003383040580457477,-0.006238513110159461,2.5500030517578125,2019-06-21 12:52:07:915,0.0,0.0,0.0
0.11788155138492584,-0.16625550389289856,9.712235450744629,0.004484526608057502,0.005114518169861762,-0.006105322806439174,2.555002212524414,2019-06-21 12:52:07:920,0.0,0.0,0.0
0.11069730669260025,-0.1638607531785965,9.755340576171875,0.00435133604426289,0.0017847536848849673,-0.00823637182715297,2.5591015815734863,2019-06-21 12:52:07:924,0.0,0.0,0.0
0.1394343078136444,-0.18780824542045593,9.712235450744629,0.0011547622531178697,0.0007192291095094877,-0.0025091770638359916,2.565000057220459,2019-06-21 12:52:07:930,0.0,0.0,0.0
0.14182904362678528,-0.18062399327754974,9.728999137878418,0.0018207150720909312,-0.0030101070018325625,-0.005439369727391787,2.5691123008728027,2019-06-21 12:52:07:934,0.0,0.0,0.0
0.10830255597829819,-0.17343974113464355,9.740972518920898,0.0076811001391281965,0.004581755914683313,-0.008103181003284032,2.575003147125244,2019-06-21 12:52:07:940,0.0,0.0,0.0
0.1274605542421341,-0.19499249756336212,9.781682968139648,-0.0013758585890169264,0.007911519749474296,-0.0023759865000413795,2.579102039337158,2019-06-21 12:52:07:944,0.0,0.0,0.0
0.0939340591430664,-0.19259774684906006,9.728999137878418,0.0034190020977006037,0.0001864668055671025,-0.004640226344624114,2.5849976539611816,2019-06-21 12:52:07:950,0.0,0.0,0.0
0.09153930842876434,-0.190202996134758,9.810420036315918,0.005550051118414401,0.003383040580457477,-0.007969990699563747,2.589110851287842,2019-06-21 12:52:07:954,0.0,0.0,0.0
0.10590780526399612,-0.14709749817848206,9.73378849029541,0.0019539056358855436,-7.991434640409003e-05,-0.008502752954742196,2.594149112701416,2019-06-21 12:52:07:959,0.0,0.0,0.0
0.09153930842876434,-0.18780824542045593,9.707446098327637,-4.395289011588339e-05,0.0025838971976898037,-0.005838941678849949,2.599992275238037,2019-06-21 12:52:07:965,0.0,0.0,0.0
0.1274605542421341,-0.18780824542045593,9.721814155578613,0.0024866678910639927,5.327622958150625e-05,-0.009435086641230155,2.604997158050537,2019-06-21 12:52:07:970,0.0,0.0,0.0
0.10590780526399612,-0.16146600246429443,9.764920234680176,-0.0063039098395290686,-0.002477344746654114,-0.006105322806439174,2.609107494354248,2019-06-21 12:52:07:974,0.0,0.0,0.0
0.18972404301166534,-0.16146600246429443,9.757735252380371,0.0006219999979394207,-0.0063398713567721955,-0.007570418748105583,2.6150288581848145,2019-06-21 12:52:07:980,0.0,0.0,0.0
0.22085578739643097,-0.16625550389289856,9.817604064941406,0.000755190561734033,-7.991434640409003e-05,-0.009435086641230155,2.619108200073242,2019-06-21 12:52:07:984,0.0,0.0,0.0
0.2184610366821289,-0.17822924256324768,9.788866996765137,-0.0019086208441953755,0.005380899297450987,-0.0034415112704726026,2.6249961853027344,2019-06-21 12:52:07:990,0.0,0.0,0.0
0.29988253116607666,-0.14709749817848206,9.72420883178711,0.0015543339445017069,0.006579614111528172,-0.0053061794236715,2.6291112899780273,2019-06-21 12:52:07:994,0.0,0.0,0.0
0.21367153525352478,-0.06328126043081284,9.702656745910645,0.0020870961996801557,0.002450706633895191,-0.006504894237748685,2.6350274085998535,2019-06-21 12:52:08:000,0.0,0.0,0.0
0.2256452888250351,-0.05849176272749901,9.743367195129395,0.0008883811255286454,-0.004342012639778686,-0.00024493746307293734,2.6391263008117676,2019-06-21 12:52:08:004,0.0,0.0,0.0
0.27354028820991516,-0.08962351083755493,9.798446655273438,0.0023534773272693805,0.0013851819935011304,0.00548225702391507,2.645005702972412,2019-06-21 12:52:08:010,0.0,0.0,0.0
0.22325053811073303,-0.10399200767278671,9.836762428283691,-0.0027077643570002116,0.0017847536848849673,0.0017529211076287644,2.6491036415100098,2019-06-21 12:52:08:014,0.0,0.0,0.0
0.21127678453922272,-0.16865025460720062,9.79126262664795,-0.001642239716606151,0.005780470728760498,0.00308482687561205,2.654104232788086,2019-06-21 12:52:08:019,0.0,0.0,0.0
0.16817130148410797,-0.25246649980545044,9.767314910888672,-0.0005767152062492525,0.0064464238078078846,-0.001310461989684481,2.659999370574951,2019-06-21 12:52:08:025,0.0,0.0,0.0
0.13703955709934235,-0.2764139771461487,9.693077087402344,-0.003906479431151722,0.003782612271841314,0.0033512080032012744,2.6641077995300293,2019-06-21 12:52:08:029,0.0,0.0,0.0
0.11309205740690231,-0.29078248143196106,9.657155990600586,-0.00044352460994534954,-7.991434640409003e-05,-0.004240654653240277,2.6699910163879395,2019-06-21 12:52:08:035,0.0,0.0,0.0
0.12506580352783203,-0.25965073704719543,9.800841331481934,0.0006219999979394207,0.0008524196733041,-0.002642367627630604,2.6741318702697754,2019-06-21 12:52:08:039,0.0,0.0,0.0
0.17056605219841003,-0.22372949123382568,9.767314910888672,-0.0015090491528115383,0.003116659452868253,-0.006371703934028398,2.6800155639648438,2019-06-21 12:52:08:045,0.0,0.0,0.0
0.16338180005550385,-0.19738724827766418,9.79126262664795,0.0076811001391281965,0.007511948318164784,-0.0053061794236715,2.6841225624084473,2019-06-21 12:52:08:049,0.0,0.0,0.0
0.07956556230783463,-0.17822924256324768,9.796051979064941,-0.002308192665616375,0.008843854476259556,-0.011566135661943953,2.6899914741516113,2019-06-21 12:52:08:055,0.0,0.0,0.0
0.06040756031870842,-0.11596575379371643,9.752945899963379,0.003285811533905992,-0.0006126766584737978,-0.006371703934028398,2.6941232681274414,2019-06-21 12:52:08:059,0.0,0.0,0.0
0.101118303835392,-0.0656760111451149,9.793657302856445,0.0004888094016355178,-0.004208822075984073,-0.012098897917122403,2.6999993324279785,2019-06-21 12:52:08:065,0.0,0.0,0.0
0.1394343078136444,-0.05130751058459282,9.779288291931152,-0.002974145484589436,-0.0030101070018325625,-0.006504894237748685,2.70499849319458,2019-06-21 12:52:08:070,0.0,0.0,0.0
0.15619754791259766,-0.0848340094089508,9.81520938873291,8.92376858697129e-05,0.0007192291095094877,-0.01369718572295505,2.709099292755127,2019-06-21 12:52:08:074,0.0,0.0,0.0
0.17535555362701416,-0.008202017284929752,9.827183723449707,0.005017288863235951,0.0019179442486795795,-0.003175130142883378,2.715000629425049,2019-06-21 12:52:08:080,0.0,0.0,0.0
0.15619754791259766,-0.034544263035058975,9.80323600769043,-0.00523838532917217,0.0009856102370987122,-0.006105322806439174,2.7191262245178223,2019-06-21 12:52:08:084,0.0,0.0,0.0
0.1801450401544571,-0.13272900879383087,9.685893058776855,0.0019539056358855436,-0.0023441541828595016,-0.005572560551260725,2.725013256072998,2019-06-21 12:52:08:090,0.0,0.0,0.0
0.17056605219841003,-0.09920250624418259,9.707446098327637,-0.002308192665616375,-0.004475203463647623,-0.00024493746307293734,2.730041027069092,2019-06-21 12:52:08:095,0.0,0.0,0.0
0.22085578739643097,-0.16865025460720062,9.635603904724121,0.0018207150720909312,-0.002210963619064889,0.004683113641147397,2.7341132164001465,2019-06-21 12:52:08:099,0.0,0.0,0.0
0.2831192910671234,-0.16625550389289856,9.717024803161621,0.0028862395824478296,-0.0004794860621698949,0.004416732513558173,2.7399935722351074,2019-06-21 12:52:08:105,0.0,0.0,0.0
0.2855140268802643,-0.16625550389289856,9.755340576171875,-0.0009762868976330894,-0.0003462954983752826,-0.0027755584514995413,2.744105815887451,2019-06-21 12:52:08:109,0.0,0.0,0.0
0.2591717839241028,-0.190202996134758,9.717024803161621,-0.004039669994946335,0.009110235083700131,0.0013533494162449274,2.749997615814209,2019-06-21 12:52:08:115,0.0,0.0,0.0
0.28072452545166016,-0.21175573766231537,9.726603507995605,-0.00031033404615073726,0.0008524196733041,0.004949494768736622,2.7541069984436035,2019-06-21 12:52:08:119,0.0,0.0,0.0
0.27593502402305603,-0.1638607531785965,9.669130325317383,0.0004888094016355178,-0.0012786295424654405,0.007613306044628867,2.7599873542785645,2019-06-21 12:52:08:125,0.0,0.0,0.0
0.2711455225944519,-0.1638607531785965,9.707446098327637,-0.0035069077397678855,-0.000213104918326025,0.005748638151504296,2.7641029357910156,2019-06-21 12:52:08:129,0.0,0.0,0.0
0.24001379311084747,-0.16865025460720062,9.77449893951416,-0.0011094774614277016,0.0028502783252790285,0.007746496868497805,2.7700438499450684,2019-06-21 12:52:08:135,0.0,0.0,0.0
0.28790879249572754,-0.18541349470615387,9.755340576171875,-0.0032405266121786607,0.0009856102370987122,0.007746496868497805,2.774111747741699,2019-06-21 12:52:08:139,0.0,0.0,0.0
0.20888204872608185,-0.1830187439918518,9.769709587097168,-0.0019086208441953755,0.006579614111528172,0.010277117840669764,2.7800164222717285,2019-06-21 12:52:08:145,0.0,0.0,0.0
0.15140804648399353,-0.10878150165081024,9.676314353942871,-0.0021750019717846,0.005114518169861762,0.00801287799608703,2.784109115600586,2019-06-21 12:52:08:149,0.0,0.0,0.0
0.1993030458688736,-0.18062399327754974,9.661945343017578,0.0008883811255286454,-0.0016782012338492774,0.004017160822174336,2.7899889945983887,2019-06-21 12:52:08:155,0.0,0.0,0.0
0.1993030458688736,-0.15428175032138824,9.645182609558105,0.0027530490186532175,0.0035162311442520897,0.002152492799012601,2.7941246032714844,2019-06-21 12:52:08:159,0.0,0.0,0.0
0.13225005567073822,-0.1303342580795288,9.793657302856445,0.0010215716893232575,0.010042569290336742,0.004949494768736622,2.8000035285949707,2019-06-21 12:52:08:165,0.0,0.0,0.0
0.13464480638504028,-0.13991324603557587,9.772104263305664,-0.0013758585890169264,0.005514089601171274,-0.0006445091707114195,2.804110527038574,2019-06-21 12:52:08:169,0.0,0.0,0.0
0.14901329576969147,-0.11357100307941437,9.721814155578613,-0.0032405266121786607,0.006979186062986335,0.001619730543834152,2.809990406036377,2019-06-21 12:52:08:175,0.0,0.0,0.0
0.12985530495643616,-0.10638675838708878,9.702656745910645,-4.395289011588339e-05,0.002450706633895191,0.006281400406682744,2.8150248527526855,2019-06-21 12:52:08:180,0.0,0.0,0.0
0.11069730669260025,-0.11357100307941437,9.709840774536133,0.0024866678910639927,0.00298346888907364,0.0018861116714233767,2.8191237449645996,2019-06-21 12:52:08:184,0.0,0.0,0.0
0.16098704934120178,-0.09441300481557846,9.779288291931152,0.004084954916673665,-0.0008790577860630224,0.0033512080032012744,2.82501220703125,2019-06-21 12:52:08:190,0.0,0.0,0.0
0.14182904362678528,-0.08243925869464874,9.793657302856445,0.0008883811255286454,0.00298346888907364,0.007346924917039643,2.829102039337158,2019-06-21 12:52:08:194,0.0,0.0,0.0
0.1657765507698059,-0.1375184953212738,9.829578399658203,0.004084954916673665,0.002317516070100579,0.0053490667201947836,2.834995746612549,2019-06-21 12:52:08:200,0.0,0.0,0.0
0.18732929229736328,-0.07525500655174255,9.798446655273438,-0.000843096333838477,0.005780470728760498,0.006680972358140907,2.8391079902648926,2019-06-21 12:52:08:204,0.0,0.0,0.0
0.18493454158306122,-0.10878150165081024,9.693077087402344,0.0014211433807070943,0.0035162311442520897,0.00454992333742711,2.845001697540283,2019-06-21 12:52:08:210,0.0,0.0,0.0
0.1466185450553894,-0.11596575379371643,9.712235450744629,0.007015147580229461,-0.0016782012338492774,0.004416732513558173,2.849102020263672,2019-06-21 12:52:08:214,0.0,0.0,0.0
0.2184610366821289,-0.13272900879383087,9.717024803161621,0.0015543339445017069,-7.991434640409003e-05,0.009744355585491315,2.8550305366516113,2019-06-21 12:52:08:220,0.0,0.0,0.0
0.19451354444026947,-0.12554475665092468,9.796051979064941,0.001687524508296319,0.0035162311442520897,0.00841244994754519,2.860016345977783,2019-06-21 12:52:08:225,0.0,0.0,0.0
0.26875078678131104,-0.1375184953212738,9.72420883178711,0.0006219999979394207,0.0020511348124741917,0.007879687172218092,2.864114761352539,2019-06-21 12:52:08:229,0.0,0.0,0.0
0.1729608029127121,-0.1566765010356903,9.752945899963379,0.0003556188378409054,0.0064464238078078846,0.009877545889211602,2.8700127601623535,2019-06-21 12:52:08:235,0.0,0.0,0.0
0.16817130148410797,-0.1183605045080185,9.743367195129395,0.0031526207100370544,0.001251991429706518,0.007346924917039643,2.875013828277588,2019-06-21 12:52:08:240,0.0,0.0,0.0
0.1657765507698059,-0.14470274746418,9.738577842712402,-0.0020418114079899874,0.004581755914683313,0.00841244994754519,2.8791050910949707,2019-06-21 12:52:08:244,0.0,0.0,0.0
0.1729608029127121,-0.1303342580795288,9.750551223754883,0.0020870961996801557,-0.0030101070018325625,0.009344783634033153,2.884997844696045,2019-06-21 12:52:08:250,0.0,0.0,0.0
0.16098704934120178,-0.15428175032138824,9.796051979064941,0.004484526608057502,0.0025838971976898037,0.011076260703288788,2.8891119956970215,2019-06-21 12:52:08:254,0.0,0.0,0.0
0.18732929229736328,-0.13512374460697174,9.8319730758667,0.002619858454858605,0.004848137042272538,0.010943070399568499,2.895020008087158,2019-06-21 12:52:08:260,0.0,0.0,0.0
0.1202763020992279,-0.10638675838708878,9.827183723449707,0.0015543339445017069,0.008177900877063521,0.013873263323198621,2.8993735313415527,2019-06-21 12:52:08:265,0.0,0.0,0.0
0.09153930842876434,-0.12793950736522675,9.736183166503906,0.006216004197461787,0.006313232983938947,0.01041030814439005,2.9050135612487793,2019-06-21 12:52:08:270,0.0,0.0,0.0
0.04124956205487251,-0.1303342580795288,9.760130882263184,0.0022202867634747683,0.0025838971976898037,0.013606881675460746,2.9091029167175293,2019-06-21 12:52:08:274,0.0,0.0,0.0
0.08674980700016022,-0.1710449904203415,9.712235450744629,0.003019430146242442,-0.0006126766584737978,0.007213734613319356,2.9150338172912598,2019-06-21 12:52:08:280,0.0,0.0,0.0
0.05561806261539459,-0.19978199899196625,9.731393814086914,0.004884098039367014,0.0005860385457148754,0.0065477815342719695,2.9191107749938965,2019-06-21 12:52:08:284,0.0,0.0,0.0
0.05322331190109253,-0.15907125174999237,9.755340576171875,0.0010215716893232575,0.005913661552629436,0.0065477815342719695,2.9249954223632812,2019-06-21 12:52:08:290,0.0,0.0,0.0
0.05561806261539459,-0.18541349470615387,9.793657302856445,0.001687524508296319,0.0032498500166628654,0.007080543789450418,2.9291129112243652,2019-06-21 12:52:08:294,0.0,0.0,0.0
0.05801280960440636,-0.18062399327754974,9.78647232055664,0.003019430146242442,0.0019179442486795795,0.007480115740908581,2.9350008964538574,2019-06-21 12:52:08:300,0.0,0.0,0.0
0.06519705802202225,-0.15188699960708618,9.731393814086914,0.004084954916673665,-0.0008790577860630224,0.004416732513558173,2.939100742340088,2019-06-21 12:52:08:304,0.0,0.0,0.0
0.08914455771446228,-0.17583449184894562,9.77449893951416,0.0023534773272693805,-0.002077772925233114,0.0013533494162449274,2.9449992179870605,2019-06-21 12:52:08:310,0.0,0.0,0.0
0.12506580352783203,-0.14470274746418,9.784077644348145,-0.001242668025222314,0.003116659452868253,0.0022856834928443757,2.949336528778076,2019-06-21 12:52:08:315,0.0,0.0,0.0
0.11069730669260025,-0.15428175032138824,9.728999137878418,0.0020870961996801557,-0.00074586722226841,-0.00024493746307293734,2.9542760848999023,2019-06-21 12:52:08:320,0.0,0.0,0.0
0.12267105281352997,-0.12554475665092468,9.772104263305664,0.005017288863235951,0.0005860385457148754,0.0038839702583797235,2.959329128265381,2019-06-21 12:52:08:325,0.0,0.0,0.0
0.11788155138492584,-0.15428175032138824,9.76252555847168,-0.00017714346610147965,0.004581755914683313,0.006148210102962458,2.964134693145752,2019-06-21 12:52:08:329,0.0,0.0,0.0
0.14422379434108734,-0.18062399327754974,9.712235450744629,0.004750907735646727,0.006180042680218661,0.0034843985669958865,2.969994068145752,2019-06-21 12:52:08:335,0.0,0.0,0.0
0.10590780526399612,-0.13991324603557587,9.793657302856445,0.0023534773272693805,0.0005860385457148754,0.002152492799012601,2.9741110801696777,2019-06-21 12:52:08:339,0.0,0.0,0.0
0.08914455771446228,-0.14949224889278412,9.736183166503906,0.0023534773272693805,0.005114518169861762,0.0053490667201947836,2.9800047874450684,2019-06-21 12:52:08:345,0.0,0.0,0.0
0.13225005567073822,-0.1638607531785965,9.776893615722656,0.0010215716893232575,0.0005860385457148754,-0.003974273525651052,2.9850058555603027,2019-06-21 12:52:08:350,0.0,0.0,0.0
0.1466185450553894,-0.17822924256324768,9.800841331481934,0.0034190020977006037,0.002317516070100579,-0.00024493746307293734,2.9891114234924316,2019-06-21 12:52:08:354,0.0,0.0,0.0
0.1466185450553894,-0.1638607531785965,9.661945343017578,0.0024866678910639927,0.0028502783252790285,-0.00024493746307293734,2.9941744804382324,2019-06-21 12:52:08:359,0.0,0.0,0.0
0.14901329576969147,-0.1303342580795288,9.690682411193848,0.00022242825779164786,0.004048993399430539,-0.0007776997345060318,2.999998092651367,2019-06-21 12:52:08:365,0.0,0.0,0.0
0.14422379434108734,-0.16146600246429443,9.769709587097168,-0.004705623073993721,0.0049813273459928245,-0.0010440808620952565,3.004110813140869,2019-06-21 12:52:08:369,0.0,0.0,0.0
0.1466185450553894,-0.15907125174999237,9.661945343017578,-0.0009762868976330894,0.005247708473582049,-0.007170847316796072,3.010002613067627,2019-06-21 12:52:08:375,0.0,0.0,0.0
0.12267105281352997,-0.190202996134758,9.707446098327637,0.001687524508296319,-7.991434640409003e-05,-0.006238513110159461,3.0141167640686035,2019-06-21 12:52:08:379,0.0,0.0,0.0
0.16817130148410797,-0.15907125174999237,9.738577842712402,0.0031526207100370544,-0.0010122483498576347,-0.005039798296082276,3.019993305206299,2019-06-21 12:52:08:385,0.0,0.0,0.0
0.18253979086875916,-0.2021767497062683,9.681103706359863,-0.001242668025222314,-0.002077772925233114,-0.007969990699563747,3.0241103172302246,2019-06-21 12:52:08:389,0.0,0.0,0.0
0.20648729801177979,-0.17822924256324768,9.70505142211914,0.0003556188378409054,0.005913661552629436,-0.004773416648344401,3.0300021171569824,2019-06-21 12:52:08:395,0.0,0.0,0.0
0.2567770481109619,-0.18780824542045593,9.717024803161621,0.0027530490186532175,0.004315374527019763,-0.0051729885998025625,3.0341134071350098,2019-06-21 12:52:08:399,0.0,0.0,0.0
0.2711455225944519,-0.15428175032138824,9.707446098327637,0.0046177169117777896,0.0019179442486795795,-0.003041939579088766,3.0400185585021973,2019-06-21 12:52:08:405,0.0,0.0,0.0
0.20648729801177979,-0.08004450798034668,9.743367195129395,8.92376858697129e-05,0.0013851819935011304,0.0014865399800395396,3.0441136360168457,2019-06-21 12:52:08:409,0.0,0.0,0.0
0.2711455225944519,-0.03693901374936104,9.79126262664795,0.0024866678910639927,-0.0011454389786708283,0.0012201588524503152,3.049992561340332,2019-06-21 12:52:08:415,0.0,0.0,0.0
0.24001379311084747,-0.048912763595581055,9.776893615722656,0.004750907735646727,0.0032498500166628654,0.009078403026592578,3.054107189178467,2019-06-21 12:52:08:419,0.0,0.0,0.0
0.18253979086875916,-0.08962351083755493,9.750551223754883,-4.395289011588339e-05,0.005247708473582049,0.0037507796945851113,3.0591368675231934,2019-06-21 12:52:08:424,0.0,0.0,0.0
0.1729608029127121,-0.1710449904203415,9.81520938873291,0.0034190020977006037,0.005114518169861762,0.006281400406682744,3.0650033950805664,2019-06-21 12:52:08:430,0.0,0.0,0.0
0.11069730669260025,-0.2093609869480133,9.70505142211914,-0.0020418114079899874,0.008044710573343232,0.001619730543834152,3.0691113471984863,2019-06-21 12:52:08:434,0.0,0.0,0.0
0.1202763020992279,-0.28359824419021606,9.736183166503906,0.0015543339445017069,-0.0003462954983752826,0.0006873965322532847,3.0749964714050293,2019-06-21 12:52:08:440,0.0,0.0,0.0
0.05801280960440636,-0.2740192413330078,9.779288291931152,0.001687524508296319,0.004315374527019763,0.0010869682236371214,3.079131603240967,2019-06-21 12:52:08:444,0.0,0.0,0.0
0.11309205740690231,-0.31233522295951843,9.743367195129395,0.0036853832252898284,0.0032498500166628654,-0.0033083207066779904,3.0841288566589355,2019-06-21 12:52:08:449,0.0,0.0,0.0
0.1274605542421341,-0.2165452390909195,9.788866996765137,0.0042181454804682775,0.003649421708046702,-0.004906607472213338,3.0899925231933594,2019-06-21 12:52:08:455,0.0,0.0,0.0
0.10830255597829819,-0.16625550389289856,9.76252555847168,-0.000843096333838477,0.007778329445754008,-0.005972131982570236,3.095000743865967,2019-06-21 12:52:08:460,0.0,0.0,0.0
0.06759180873632431,-0.09680775552988052,9.784077644348145,0.003285811533905992,0.0008524196733041,-0.012098897917122403,3.0991430282592773,2019-06-21 12:52:08:464,0.0,0.0,0.0
0.09153930842876434,-0.1183605045080185,9.755340576171875,0.0014211433807070943,0.0007192291095094877,-0.009701468288968031,3.1041316986083984,2019-06-21 12:52:08:469,0.0,0.0,0.0
0.09872355312108994,-0.08962351083755493,9.709840774536133,-0.0021750019717846,-0.003542869257011012,-0.010367420847866767,3.109988212585449,2019-06-21 12:52:08:475,0.0,0.0,0.0
0.1657765507698059,-0.01059676706790924,9.81520938873291,-0.0005767152062492525,0.002317516070100579,-0.018358854675543504,3.1141104698181152,2019-06-21 12:52:08:479,0.0,0.0,0.0
0.1729608029127121,-0.0393337644636631,9.760130882263184,-0.0011094774614277016,0.0009856102370987122,-0.010101040240426193,3.119999885559082,2019-06-21 12:52:08:485,0.0,0.0,0.0
0.17056605219841003,-0.04651801288127899,9.700262069702148,-0.005637956760481682,0.0007192291095094877,-0.007969990699563747,3.124161720275879,2019-06-21 12:52:08:489,0.0,0.0,0.0
0.22085578739643097,-0.10399200767278671,9.652366638183594,-0.0025745737932055994,-0.0010122483498576347,-0.008902324386051706,3.1299986839294434,2019-06-21 12:52:08:495,0.0,0.0,0.0
0.1921187937259674,-0.10159725695848465,9.647577285766602,0.0006219999979394207,-0.001944582361438502,-0.003707892398061828,3.1341094970703125,2019-06-21 12:52:08:499,0.0,0.0,0.0
0.26156654953956604,-0.1183605045080185,9.755340576171875,0.0004888094016355178,-0.0010122483498576347,-0.004773416648344401,3.140000343322754,2019-06-21 12:52:08:505,0.0,0.0,0.0
0.25438228249549866,-0.12554475665092468,9.671525001525879,0.0042181454804682775,0.0015183725572957428,-0.002642367627630604,3.144127368927002,2019-06-21 12:52:08:509,0.0,0.0,0.0
0.31904053688049316,-0.16865025460720062,9.707446098327637,0.0003556188378409054,0.00871066313224197,-0.002642367627630604,3.1500024795532227,2019-06-21 12:52:08:515,0.0,0.0,0.0
0.27354028820991516,-0.14470274746418,9.72420883178711,0.0015543339445017069,0.0013851819935011304,-0.004107464089445664,3.1541104316711426,2019-06-21 12:52:08:519,0.0,0.0,0.0
0.2567770481109619,-0.15428175032138824,9.647577285766602,0.0028862395824478296,0.0015183725572957428,-0.0033083207066779904,3.1599974632263184,2019-06-21 12:52:08:525,0.0,0.0,0.0
0.26875078678131104,-0.190202996134758,9.688287734985352,0.0031526207100370544,0.001251991429706518,-0.002242795936246767,3.1641130447387695,2019-06-21 12:52:08:529,0.0,0.0,0.0
0.2376190423965454,-0.14230799674987793,9.685893058776855,0.0034190020977006037,0.0004528479494109724,0.0022856834928443757,3.1700282096862793,2019-06-21 12:52:08:535,0.0,0.0,0.0
0.2663560211658478,-0.17822924256324768,9.764920234680176,0.0031526207100370544,0.002717087761484416,-0.0015768431172737056,3.1741204261779785,2019-06-21 12:52:08:539,0.0,0.0,0.0
0.2448032945394516,-0.16865025460720062,9.808025360107422,0.002619858454858605,0.003383040580457477,-0.0005113186069168071,3.179992198944092,2019-06-21 12:52:08:545,0.0,0.0,0.0
0.19451354444026947,-0.08962351083755493,9.750551223754883,0.004484526608057502,0.004315374527019763,0.00308482687561205,3.184109687805176,2019-06-21 12:52:08:549,0.0,0.0,0.0
0.1274605542421341,-0.16625550389289856,9.659550666809082,0.005150479166956239,0.0072455671905755584,-0.0023759865000413795,3.190000057220459,2019-06-21 12:52:08:555,0.0,0.0,0.0
0.10590780526399612,-0.17583449184894562,9.685893058776855,0.0038185737890844406,0.004581755914683313,0.0002878248408694478,3.194115161895752,2019-06-21 12:52:08:559,0.0,0.0,0.0
0.12267105281352997,-0.18780824542045593,9.740972518920898,-0.0011094774614277016,0.0041821839632251515,-0.0006445091707114195,3.199993133544922,2019-06-21 12:52:08:565,0.0,0.0,0.0
0.1394343078136444,-0.1566765010356903,9.731393814086914,0.0019539056358855436,0.00298346888907364,-0.004906607472213338,3.2041382789611816,2019-06-21 12:52:08:569,0.0,0.0,0.0
0.06040756031870842,-0.16146600246429443,9.764920234680176,0.0008883811255286454,0.0064464238078078846,-0.0034415112704726026,3.210000514984131,2019-06-21 12:52:08:575,0.0,0.0,0.0
0.11548680067062378,-0.16865025460720062,9.76252555847168,-0.0009762868976330894,0.005514089601171274,0.0006873965322532847,3.21502685546875,2019-06-21 12:52:08:580,0.0,0.0,0.0
0.10590780526399612,-0.190202996134758,9.757735252380371,-0.001642239716606151,0.005114518169861762,-0.001976414938694705,3.219111442565918,2019-06-21 12:52:08:584,0.0,0.0,0.0
0.10830255597829819,-0.14709749817848206,9.752945899963379,0.002619858454858605,0.002717087761484416,-0.003707892398061828,3.2249956130981445,2019-06-21 12:52:08:590,0.0,0.0,0.0
0.10830255597829819,-0.1303342580795288,9.693077087402344,0.002619858454858605,-0.0010122483498576347,-0.0011772714258898686,3.2291159629821777,2019-06-21 12:52:08:594,0.0,0.0,0.0
0.14422379434108734,-0.10878150165081024,9.70505142211914,0.0028862395824478296,0.004315374527019763,-0.00677127536533791,3.235002040863037,2019-06-21 12:52:08:600,0.0,0.0,0.0
0.15859229862689972,-0.0920182541012764,9.73378849029541,0.004484526608057502,0.005247708473582049,-0.008369562130873257,3.2400007247924805,2019-06-21 12:52:08:605,0.0,0.0,0.0
0.18493454158306122,-0.08004450798034668,9.748156547546387,-0.00031033404615073726,0.0035162311442520897,-0.0025091770638359916,3.244107723236084,2019-06-21 12:52:08:609,0.0,0.0,0.0
0.21367153525352478,-0.10878150165081024,9.728999137878418,0.0014211433807070943,-0.002477344746654114,-0.001310461989684481,3.2501158714294434,2019-06-21 12:52:08:615,0.0,0.0,0.0
0.20409254729747772,-0.10399200767278671,9.70505142211914,0.0003556188378409054,0.0007192291095094877,0.0008205870960478969,3.254164218902588,2019-06-21 12:52:08:619,0.0,0.0,0.0
0.22085578739643097,-0.1375184953212738,9.77449893951416,0.0010215716893232575,0.0021843255063059668,-0.0009108902983006441,3.259997844696045,2019-06-21 12:52:08:625,0.0,0.0,0.0
0.27593502402305603,-0.13991324603557587,9.65476131439209,0.003285811533905992,-7.991434640409003e-05,0.0029516363118174374,3.264112949371338,2019-06-21 12:52:08:629,0.0,0.0,0.0
0.20169779658317566,-0.14230799674987793,9.772104263305664,-0.000843096333838477,0.0007192291095094877,-0.00011174689115100237,3.269996166229248,2019-06-21 12:52:08:635,0.0,0.0,0.0
0.27593502402305603,-0.1566765010356903,9.743367195129395,-0.001242668025222314,0.002450706633895191,0.0017529211076287644,3.274113178253174,2019-06-21 12:52:08:639,0.0,0.0,0.0
0.21606628596782684,-0.15188699960708618,9.757735252380371,0.0024866678910639927,0.0047149462184036,0.0032180174394066618,3.280001163482666,2019-06-21 12:52:08:645,0.0,0.0,0.0
0.2663560211658478,-0.12793950736522675,9.731393814086914,0.0010215716893232575,0.006313232983938947,0.0037507796945851113,3.284113883972168,2019-06-21 12:52:08:649,0.0,0.0,0.0
0.23043479025363922,-0.17583449184894562,9.743367195129395,-0.0037732888673571103,0.005114518169861762,0.00548225702391507,3.2899937629699707,2019-06-21 12:52:08:655,0.0,0.0,0.0
0.20648729801177979,-0.18541349470615387,9.640393257141113,0.0008883811255286454,0.0032498500166628654,0.00894521168257499,3.2941088676452637,2019-06-21 12:52:08:659,0.0,0.0,0.0
0.22804003953933716,-0.13512374460697174,9.740972518920898,8.92376858697129e-05,0.0056472804250402115,0.010943070399568499,3.3000168800354004,2019-06-21 12:52:08:665,0.0,0.0,0.0
0.17535555362701416,-0.21415048837661743,9.669130325317383,0.005150479166956239,0.0047149462184036,0.006148210102962458,3.305006504058838,2019-06-21 12:52:08:670,0.0,0.0,0.0
0.1466185450553894,-0.18541349470615387,9.690682411193848,0.001287952816912482,0.0049813273459928245,0.013740073019478334,3.3091158866882324,2019-06-21 12:52:08:674,0.0,0.0,0.0
0.13703955709934235,-0.15428175032138824,9.721814155578613,0.001687524508296319,0.006313232983938947,0.01134264235102666,3.3150057792663574,2019-06-21 12:52:08:680,0.0,0.0,0.0
0.14422379434108734,-0.19738724827766418,9.839157104492188,0.0046177169117777896,0.001251991429706518,0.007879687172218092,3.31911039352417,2019-06-21 12:52:08:684,0.0,0.0,0.0
0.11069730669260025,-0.1638607531785965,9.74576187133789,0.0008883811255286454,0.002317516070100579,0.006680972358140907,3.3249964714050293,2019-06-21 12:52:08:690,0.0,0.0,0.0
0.14901329576969147,-0.10638675838708878,9.784077644348145,0.0014211433807070943,-0.0015450106700546653,0.007346924917039643,3.3291163444519043,2019-06-21 12:52:08:694,0.0,0.0,0.0
0.11309205740690231,-0.1638607531785965,9.779288291931152,0.0006219999979394207,0.002717087761484416,0.0069473534857301305,3.3349995613098145,2019-06-21 12:52:08:700,0.0,0.0,0.0
0.08914455771446228,-0.21893998980522156,9.808025360107422,8.92376858697129e-05,0.005913661552629436,0.004683113641147397,3.339111804962158,2019-06-21 12:52:08:704,0.0,0.0,0.0
