ACCELEROMETER X (m/s²),ACCELEROMETER Y (m/s²),ACCELEROMETER Z (m/s²),GYROSCOPE X (rad/s),GYROSCOPE Y (rad/s),GYROSCOPE Z (rad/s),Time since start in ms ,YYYY-MO-DD HH-MI-SS_SSS,MagX,MagY,MagZ
0.3166457712650299,-0.2165452390909195,9.726603507995605,0.0006219999979394207,0.0020511348124741917,-0.003974273525651052,0.0,2019-06-21 12:50:23:856,0.0,0.0,0.0
0.29988253116607666,-0.19499249756336212,9.714630126953125,0.0019539056358855436,0.0021843255063059668,-0.00730403762051636,0.00412750244140625,2019-06-21 12:50:23:860,0.0,0.0,0.0
0.27354028820991516,-0.2021767497062683,9.748156547546387,0.0022202867634747683,0.0020511348124741917,-0.011566135661943953,0.010010242462158203,2019-06-21 12:50:23:866,0.0,0.0,0.0
0.25438228249549866,-0.2093609869480133,9.721814155578613,8.92376858697129e-05,-0.0008790577860630224,-0.005572560551260725,0.014110565185546875,2019-06-21 12:50:23:870,0.0,0.0,0.0
0.26156654953956604,-0.235703244805336,9.70505142211914,0.0010215716893232575,0.003649421708046702,-0.004906607472213338,0.02000141143798828,2019-06-21 12:50:23:876,0.0,0.0,0.0
0.2639612853527069,-0.2285189926624298,9.748156547546387,0.001687524508296319,-0.004208822075984073,-0.006904466189206847,0.024122238159179688,2019-06-21 12:50:23:880,0.0,0.0,0.0
0.30706676840782166,-0.22372949123382568,9.728999137878418,0.005150479166956239,0.0007192291095094877,-0.003175130142883378,0.030010223388671875,2019-06-21 12:50:23:886,0.0,0.0,0.0
0.24719803035259247,-0.19738724827766418,9.760130882263184,0.0018207150720909312,-7.991434640409003e-05,-0.00677127536533791,0.034108638763427734,2019-06-21 12:50:23:890,0.0,0.0,0.0
0.26156654953956604,-0.19738724827766418,9.755340576171875,-0.0009762868976330894,0.0007192291095094877,-0.003974273525651052,0.03999614715576172,2019-06-21 12:50:23:896,0.0,0.0,0.0
0.2184610366821289,-0.242887482047081,9.709840774536133,0.0038185737890844406,0.0020511348124741917,-0.0066380850616176235,0.04410743713378906,2019-06-21 12:50:23:900,0.0,0.0,0.0
0.24959278106689453,-0.20457148551940918,9.702656745910645,0.0022202867634747683,-0.001944582361438502,-0.00677127536533791,0.05000448226928711,2019-06-21 12:50:23:906,0.0,0.0,0.0
0.21367153525352478,-0.21415048837661743,9.72420883178711,0.0038185737890844406,0.0001864668055671025,-0.008103181003284032,0.05411720275878906,2019-06-21 12:50:23:910,0.0,0.0,0.0
0.24719803035259247,-0.23330849409103394,9.685893058776855,0.0038185737890844406,0.002450706633895191,-0.0053061794236715,0.05999279022216797,2019-06-21 12:50:23:916,0.0,0.0,0.0
0.2448032945394516,-0.18541349470615387,9.738577842712402,0.0022202867634747683,0.003782612271841314,-0.0027755584514995413,0.06410837173461914,2019-06-21 12:50:23:920,0.0,0.0,0.0
0.1993030458688736,-0.23091374337673187,9.738577842712402,-0.0007099057700438648,-0.0012786295424654405,-0.005972131982570236,0.07001113891601562,2019-06-21 12:50:23:926,0.0,0.0,0.0
0.20409254729747772,-0.2093609869480133,9.793657302856445,0.006349194501182075,-0.0032764881294217877,-0.0023759865000413795,0.07411861419677734,2019-06-21 12:50:23:930,0.0,0.0,0.0
0.1801450401544571,-0.23091374337673187,9.673919677734375,0.00022242825779164786,0.0001864668055671025,-0.002642367627630604,0.07999515533447266,2019-06-21 12:50:23:936,0.0,0.0,0.0
0.23522429168224335,-0.2620454728603363,9.676314353942871,0.0010215716893232575,-0.0004794860621698949,-0.003175130142883378,0.08410930633544922,2019-06-21 12:50:23:940,0.0,0.0,0.0
0.20888204872608185,-0.24049273133277893,9.714630126953125,0.0023534773272693805,0.0020511348124741917,-0.00930189633750987,0.09002256393432617,2019-06-21 12:50:23:946,0.0,0.0,0.0
0.23522429168224335,-0.24049273133277893,9.731393814086914,0.006615575628771298,0.003782612271841314,-0.003974273525651052,0.09502315521240234,2019-06-21 12:50:23:951,0.0,0.0,0.0
0.18732929229736328,-0.2021767497062683,9.748156547546387,-0.0007099057700438648,-0.000213104918326025,-0.007836799875694809,0.09910917282104492,2019-06-21 12:50:23:955,0.0,0.0,0.0
0.21606628596782684,-0.2093609869480133,9.728999137878418,0.0008883811255286454,0.0011188008659119059,-0.001310461989684481,0.10500001907348633,2019-06-21 12:50:23:961,0.0,0.0,0.0
0.2184610366821289,-0.1830187439918518,9.70505142211914,-0.0036400983035624977,0.0005860385457148754,-0.007969990699563747,0.1091146469116211,2019-06-21 12:50:23:965,0.0,0.0,0.0
0.19451354444026947,-0.19738724827766418,9.740972518920898,0.0022202867634747683,-0.002077772925233114,-0.006371703934028398,0.11411571502685547,2019-06-21 12:50:23:970,0.0,0.0,0.0
0.17775028944015503,-0.2620454728603363,9.731393814086914,0.0027530490186532175,0.0021843255063059668,-0.0053061794236715,0.11999988555908203,2019-06-21 12:50:23:976,0.0,0.0,0.0
0.17056605219841003,-0.2021767497062683,9.738577842712402,0.004884098039367014,0.0008524196733041,-0.0018432243749000928,0.12410831451416016,2019-06-21 12:50:23:980,0.0,0.0,0.0
0.17775028944015503,-0.2165452390909195,9.731393814086914,-0.0019086208441953755,5.327622958150625e-05,-0.00823637182715297,0.13000011444091797,2019-06-21 12:50:23:986,0.0,0.0,0.0
0.20169779658317566,-0.25246649980545044,9.755340576171875,0.0046177169117777896,-7.991434640409003e-05,-0.0051729885998025625,0.13411378860473633,2019-06-21 12:50:23:990,0.0,0.0,0.0
0.15619754791259766,-0.242887482047081,9.769709587097168,0.005150479166956239,-0.0028769164380379507,-0.005039798296082276,0.1400146484375,2019-06-21 12:50:23:996,0.0,0.0,0.0
0.18732929229736328,-0.2165452390909195,9.736183166503906,0.0036853832252898284,0.0019179442486795795,-0.0005113186069168071,0.14412784576416016,2019-06-21 12:50:24:000,0.0,0.0,0.0
0.16098704934120178,-0.2285189926624298,9.788866996765137,0.0015543339445017069,0.0009856102370987122,-0.0023759865000413795,0.149993896484375,2019-06-21 12:50:24:006,0.0,0.0,0.0
0.1657765507698059,-0.242887482047081,9.76252555847168,0.005150479166956239,-0.003676059820805624,0.0022856834928443757,0.15410804748535156,2019-06-21 12:50:24:010,0.0,0.0,0.0
0.1538027971982956,-0.2165452390909195,9.709840774536133,0.0054168602945454634,-0.0003462954983752826,-0.001310461989684481,0.16001129150390625,2019-06-21 12:50:24:016,0.0,0.0,0.0
0.17775028944015503,-0.22612424194812775,9.690682411193848,-0.00017714346610147965,-0.004874774894957135,-0.0038410829618564396,0.1641087532043457,2019-06-21 12:50:24:020,0.0,0.0,0.0
0.17775028944015503,-0.2285189926624298,9.760130882263184,0.006349194501182075,0.0020511348124741917,-0.004906607472213338,0.1699981689453125,2019-06-21 12:50:24:026,0.0,0.0,0.0
0.15619754791259766,-0.24049273133277893,9.709840774536133,0.0034190020977006037,-0.002210963619064889,-0.003974273525651052,0.17410945892333984,2019-06-21 12:50:24:030,0.0,0.0,0.0
0.1538027971982956,-0.235703244805336,9.717024803161621,0.00608281337359285,0.001251991429706518,-0.0017100338111054802,0.17999935150146484,2019-06-21 12:50:24:036,0.0,0.0,0.0
0.1538027971982956,-0.20457148551940918,9.731393814086914,0.00435133604426289,-0.002077772925233114,-0.005705750854981011,0.1841115951538086,2019-06-21 12:50:24:040,0.0,0.0,0.0
0.14901329576969147,-0.24049273133277893,9.709840774536133,0.008879815473354034,0.0019179442486795795,-0.004640226344624114,0.1900177001953125,2019-06-21 12:50:24:046,0.0,0.0,0.0
0.06759180873632431,-0.2548612356185913,9.669130325317383,0.0054168602945454634,-0.005274346846415297,0.0036175891307904987,0.19411945343017578,2019-06-21 12:50:24:050,0.0,0.0,0.0
0.13225005567073822,-0.19978199899196625,9.740972518920898,0.006615575628771298,5.327622958150625e-05,-0.0051729885998025625,0.19999074935913086,2019-06-21 12:50:24:056,0.0,0.0,0.0
0.12506580352783203,-0.2740192413330078,9.693077087402344,0.0022202867634747683,-0.0016782012338492774,0.0002878248408694478,0.20412349700927734,2019-06-21 12:50:24:060,0.0,0.0,0.0
0.16098704934120178,-0.235703244805336,9.78647232055664,0.005550051118414401,-0.003542869257011012,0.0029516363118174374,0.20912694931030273,2019-06-21 12:50:24:065,0.0,0.0,0.0
0.11548680067062378,-0.2021767497062683,9.73378849029541,0.006216004197461787,-0.0014118201062600529,-0.0006445091707114195,0.214996337890625,2019-06-21 12:50:24:071,0.0,0.0,0.0
0.1202763020992279,-0.2165452390909195,9.70505142211914,0.003285811533905992,-0.0016782012338492774,-0.0018432243749000928,0.2191152572631836,2019-06-21 12:50:24:075,0.0,0.0,0.0
0.11548680067062378,-0.25246649980545044,9.661945343017578,0.005550051118414401,-0.002477344746654114,-0.007037656492927135,0.22411251068115234,2019-06-21 12:50:24:080,0.0,0.0,0.0
0.14422379434108734,-0.19978199899196625,9.767314910888672,0.0031526207100370544,-0.00074586722226841,-0.0033083207066779904,0.22998952865600586,2019-06-21 12:50:24:086,0.0,0.0,0.0
0.09632880985736847,-0.22612424194812775,9.721814155578613,0.007547909835407911,0.0025838971976898037,-0.003707892398061828,0.23410940170288086,2019-06-21 12:50:24:090,0.0,0.0,0.0
0.13703955709934235,-0.22612424194812775,9.74576187133789,0.0034190020977006037,-0.0027437258742433386,0.0006873965322532847,0.24002456665039062,2019-06-21 12:50:24:096,0.0,0.0,0.0
0.0747760608792305,-0.2021767497062683,9.719419479370117,0.0028862395824478296,0.0015183725572957428,-0.0034415112704726026,0.2441253662109375,2019-06-21 12:50:24:100,0.0,0.0,0.0
0.09153930842876434,-0.2500717341899872,9.74576187133789,0.005550051118414401,-0.004208822075984073,-0.0038410829618564396,0.2500019073486328,2019-06-21 12:50:24:106,0.0,0.0,0.0
0.06998655945062637,-0.26444023847579956,9.693077087402344,0.003285811533905992,-0.002077772925233114,-0.0027755584514995413,0.25411558151245117,2019-06-21 12:50:24:110,0.0,0.0,0.0
0.08914455771446228,-0.23091374337673187,9.79126262664795,0.0022202867634747683,-0.006872633611950644,0.0002878248408694478,0.25998973846435547,2019-06-21 12:50:24:116,0.0,0.0,0.0
0.06998655945062637,-0.2548612356185913,9.73378849029541,0.008213862394306647,-0.0040756315121894615,-0.0007776997345060318,0.26410722732543945,2019-06-21 12:50:24:120,0.0,0.0,0.0
0.09153930842876434,-0.19499249756336212,9.817604064941406,0.0076811001391281965,-0.0030101070018325625,0.0024188740566389883,0.26999711990356445,2019-06-21 12:50:24:126,0.0,0.0,0.0
0.11548680067062378,-0.20696623623371124,9.78647232055664,0.0020870961996801557,-0.0008790577860630224,-0.002109605502489317,0.27411365509033203,2019-06-21 12:50:24:130,0.0,0.0,0.0
0.06998655945062637,-0.24049273133277893,9.743367195129395,0.005150479166956239,-0.0006126766584737978,-0.0027755584514995413,0.27999019622802734,2019-06-21 12:50:24:136,0.0,0.0,0.0
0.11309205740690231,-0.235703244805336,9.717024803161621,-0.00017714346610147965,-0.0018113917976438896,-0.002109605502489317,0.28410911560058594,2019-06-21 12:50:24:140,0.0,0.0,0.0
0.05561806261539459,-0.24528223276138306,9.671525001525879,0.001687524508296319,-0.002610535310448726,-0.002109605502489317,0.2899932861328125,2019-06-21 12:50:24:146,0.0,0.0,0.0
0.06519705802202225,-0.23809799551963806,9.669130325317383,0.0056832419422833385,-0.005540727974004522,-0.004640226344624114,0.2941265106201172,2019-06-21 12:50:24:150,0.0,0.0,0.0
0.11788155138492584,-0.235703244805336,9.719419479370117,0.005283669990825176,-0.004475203463647623,2.1443682802763245e-05,0.2999992370605469,2019-06-21 12:50:24:156,0.0,0.0,0.0
0.06519705802202225,-0.21415048837661743,9.750551223754883,0.005150479166956239,-0.0023441541828595016,0.0012201588524503152,0.3041095733642578,2019-06-21 12:50:24:160,0.0,0.0,0.0
0.05801280960440636,-0.2285189926624298,9.78647232055664,0.0015543339445017069,0.0015183725572957428,-0.005439369727391787,0.31000185012817383,2019-06-21 12:50:24:166,0.0,0.0,0.0
0.09872355312108994,-0.22133474051952362,9.688287734985352,0.0038185737890844406,0.0015183725572957428,-0.003974273525651052,0.31411170959472656,2019-06-21 12:50:24:170,0.0,0.0,0.0
0.026881065219640732,-0.25246649980545044,9.712235450744629,0.004884098039367014,-0.0016782012338492774,-0.004373845217034889,0.31911182403564453,2019-06-21 12:50:24:175,0.0,0.0,0.0
0.036460064351558685,-0.20457148551940918,9.748156547546387,-4.395289011588339e-05,-0.006073490229182971,-0.001976414938694705,0.32500314712524414,2019-06-21 12:50:24:181,0.0,0.0,0.0
0.06519705802202225,-0.26444023847579956,9.736183166503906,0.005017288863235951,-0.0032764881294217877,-0.0053061794236715,0.3291144371032715,2019-06-21 12:50:24:185,0.0,0.0,0.0
0.07717081159353256,-0.23809799551963806,9.817604064941406,0.0027530490186532175,0.0015183725572957428,-0.00677127536533791,0.33500099182128906,2019-06-21 12:50:24:191,0.0,0.0,0.0
0.04124956205487251,-0.23330849409103394,9.760130882263184,0.0014211433807070943,0.0060468518563497236,-0.002242795936246767,0.339113712310791,2019-06-21 12:50:24:195,0.0,0.0,0.0
0.01730206608772278,-0.2548612356185913,9.743367195129395,0.0054168602945454634,-0.002077772925233114,-0.005439369727391787,0.34414243698120117,2019-06-21 12:50:24:200,0.0,0.0,0.0
-0.0018559310119599104,-0.22372949123382568,9.750551223754883,0.0027530490186532175,-0.000213104918326025,-0.012764851516318438,0.34999752044677734,2019-06-21 12:50:24:206,0.0,0.0,0.0
0.01730206608772278,-0.242887482047081,9.649971961975098,0.0034190020977006037,-0.007938158122307543,-0.010500611151587054,0.3541078567504883,2019-06-21 12:50:24:210,0.0,0.0,0.0
0.04124956205487251,-0.24528223276138306,9.750551223754883,0.0054168602945454634,-0.0003462954983752826,-0.0053061794236715,0.3600010871887207,2019-06-21 12:50:24:216,0.0,0.0,0.0
0.06280230730772018,-0.2572559714317322,9.764920234680176,0.005550051118414401,0.003116659452868253,-0.009701468288968031,0.36411380767822266,2019-06-21 12:50:24:220,0.0,0.0,0.0
0.0077230678871273994,-0.26683497428894043,9.757735252380371,0.001687524508296319,0.0032498500166628654,-0.009568277985247745,0.36999082565307617,2019-06-21 12:50:24:226,0.0,0.0,0.0
0.024486316367983818,-0.24767698347568512,9.709840774536133,0.0038185737890844406,0.001251991429706518,-0.011699327005961541,0.37410640716552734,2019-06-21 12:50:24:230,0.0,0.0,0.0
0.0005388186546042562,-0.23330849409103394,9.685893058776855,0.0028862395824478296,-0.0027437258742433386,-0.008502752954742196,0.37999916076660156,2019-06-21 12:50:24:236,0.0,0.0,0.0
0.03167056292295456,-0.26444023847579956,9.693077087402344,0.0054168602945454634,-0.0038092503846002368,-0.009568277985247745,0.38416099548339844,2019-06-21 12:50:24:240,0.0,0.0,0.0
0.043644312769174576,-0.24528223276138306,9.77449893951416,0.0035521926614952163,0.00298346888907364,-0.007703609571974521,0.3900032043457031,2019-06-21 12:50:24:246,0.0,0.0,0.0
0.029275815933942795,-0.26444023847579956,9.810420036315918,0.001287952816912482,0.007511948318164784,-0.010633802495604642,0.3941073417663574,2019-06-21 12:50:24:250,0.0,0.0,0.0
0.0029335683211684227,-0.26444023847579956,9.74576187133789,0.0034190020977006037,0.006313232983938947,-0.011566135661943953,0.40000057220458984,2019-06-21 12:50:24:256,0.0,0.0,0.0
0.010117817670106888,-0.22372949123382568,9.750551223754883,0.0028862395824478296,0.0049813273459928245,-0.009568277985247745,0.4041128158569336,2019-06-21 12:50:24:260,0.0,0.0,0.0
0.005328318104147911,-0.27162447571754456,9.719419479370117,0.0036853832252898284,0.003383040580457477,-0.006238513110159461,0.40999317169189453,2019-06-21 12:50:24:266,0.0,0.0,0.0
0.0005388186546042562,-0.2548612356185913,9.717024803161621,-0.000843096333838477,-0.000213104918326025,-0.008502752954742196,0.4141087532043457,2019-06-21 12:50:24:270,0.0,0.0,0.0
0.0005388186546042562,-0.25965073704719543,9.740972518920898,-0.0015090491528115383,-0.0006126766584737978,-0.012898041820038725,0.4200019836425781,2019-06-21 12:50:24:276,0.0,0.0,0.0
0.0005388186546042562,-0.22133474051952362,9.800841331481934,0.0034190020977006037,0.0032498500166628654,-0.011033373406765504,0.42410993576049805,2019-06-21 12:50:24:280,0.0,0.0,0.0
0.014907317236065865,-0.23809799551963806,9.77449893951416,-0.0019086208441953755,0.003782612271841314,-0.007703609571974521,0.4300079345703125,2019-06-21 12:50:24:286,0.0,0.0,0.0
0.012512567453086376,-0.2740192413330078,9.73378849029541,-0.002974145484589436,0.00298346888907364,-0.009834658592688318,0.43411922454833984,2019-06-21 12:50:24:290,0.0,0.0,0.0
-0.0066454303450882435,-0.27162447571754456,9.690682411193848,0.002619858454858605,0.007511948318164784,-0.007836799875694809,0.4399890899658203,2019-06-21 12:50:24:296,0.0,0.0,0.0
-0.028198176994919777,-0.26683497428894043,9.74576187133789,0.0023534773272693805,0.0011188008659119059,-0.004507035520755176,0.4441084861755371,2019-06-21 12:50:24:300,0.0,0.0,0.0
-0.025803428143262863,-0.23091374337673187,9.757735252380371,0.0014211433807070943,-0.0016782012338492774,-0.003974273525651052,0.45000314712524414,2019-06-21 12:50:24:306,0.0,0.0,0.0
-0.0066454303450882435,-0.25965073704719543,9.712235450744629,0.0006219999979394207,0.004581755914683313,-0.010900183103045216,0.4541130065917969,2019-06-21 12:50:24:310,0.0,0.0,0.0
0.0077230678871273994,-0.25965073704719543,9.752945899963379,-0.0007099057700438648,0.006579614111528172,-0.011699327005961541,0.4599905014038086,2019-06-21 12:50:24:316,0.0,0.0,0.0
-0.0018559310119599104,-0.29078248143196106,9.784077644348145,0.0028862395824478296,0.0011188008659119059,-0.005972131982570236,0.46410655975341797,2019-06-21 12:50:24:320,0.0,0.0,0.0
-0.021013928577303886,-0.2740192413330078,9.69547176361084,-0.00017714346610147965,0.0035162311442520897,-0.010900183103045216,0.46912050247192383,2019-06-21 12:50:24:325,0.0,0.0,0.0
-0.04496142640709877,-0.2548612356185913,9.76252555847168,0.0014211433807070943,0.0009856102370987122,-0.009035514689771994,0.47413063049316406,2019-06-21 12:50:24:330,0.0,0.0,0.0
0.043644312769174576,-0.2764139771461487,9.750551223754883,-0.0036400983035624977,-0.0040756315121894615,-0.01023423054414648,0.4791297912597656,2019-06-21 12:50:24:335,0.0,0.0,0.0
-0.009040179662406445,-0.2500717341899872,9.80323600769043,0.0015543339445017069,0.005913661552629436,-0.0006445091707114195,0.4849987030029297,2019-06-21 12:50:24:341,0.0,0.0,0.0
0.01969681680202484,-0.27880874276161194,9.817604064941406,-0.0005767152062492525,0.0068459952391173974,-0.00677127536533791,0.48911237716674805,2019-06-21 12:50:24:345,0.0,0.0,0.0
-0.0234086774289608,-0.2572559714317322,9.743367195129395,0.001287952816912482,-0.0004794860621698949,-0.001310461989684481,0.49500274658203125,2019-06-21 12:50:24:351,0.0,0.0,0.0
-0.0234086774289608,-0.27162447571754456,9.707446098327637,0.0020870961996801557,0.0032498500166628654,0.0013533494162449274,0.49910736083984375,2019-06-21 12:50:24:355,0.0,0.0,0.0
-0.0018559310119599104,-0.26444023847579956,9.693077087402344,0.0019539056358855436,5.327622958150625e-05,-0.003574701834267215,0.5049986839294434,2019-06-21 12:50:24:361,0.0,0.0,0.0
-0.009040179662406445,-0.29317721724510193,9.721814155578613,0.0018207150720909312,0.002717087761484416,-0.0015768431172737056,0.5091133117675781,2019-06-21 12:50:24:365,0.0,0.0,0.0
-0.018619179725646973,-0.2620454728603363,9.764920234680176,0.0011547622531178697,0.002317516070100579,-0.005439369727391787,0.5150003433227539,2019-06-21 12:50:24:371,0.0,0.0,0.0
0.05801280960440636,-0.27880874276161194,9.772104263305664,0.001287952816912482,0.007112376366706621,-0.0010440808620952565,0.5191178321838379,2019-06-21 12:50:24:375,0.0,0.0,0.0
0.03406531363725662,-0.23809799551963806,9.709840774536133,-0.005371575632892458,-0.0008790577860630224,-0.003974273525651052,0.5241203308105469,2019-06-21 12:50:24:380,0.0,0.0,0.0
0.0077230678871273994,-0.24528223276138306,9.72420883178711,0.0011547622531178697,0.0005860385457148754,-0.003041939579088766,0.5299901962280273,2019-06-21 12:50:24:386,0.0,0.0,0.0
0.014907317236065865,-0.2812034785747528,9.77449893951416,-0.0024413832294109873,0.0005860385457148754,-0.0007776997345060318,0.5341062545776367,2019-06-21 12:50:24:390,0.0,0.0,0.0
0.024486316367983818,-0.25246649980545044,9.760130882263184,-0.0031073360483840485,0.0049813273459928245,0.0004210154046640601,0.5399932861328125,2019-06-21 12:50:24:396,0.0,0.0,0.0
0.043644312769174576,-0.2764139771461487,9.740972518920898,0.0023534773272693805,0.0064464238078078846,0.0032180174394066618,0.5441036224365234,2019-06-21 12:50:24:400,0.0,0.0,0.0
0.014907317236065865,-0.2500717341899872,9.760130882263184,-0.00044352460994534954,0.006979186062986335,-0.0005113186069168071,0.5499892234802246,2019-06-21 12:50:24:406,0.0,0.0,0.0
-0.04496142640709877,-0.25246649980545044,9.743367195129395,0.0031526207100370544,0.007378757494295846,0.002152492799012601,0.5541081428527832,2019-06-21 12:50:24:410,0.0,0.0,0.0
-0.032987676560878754,-0.2740192413330078,9.779288291931152,0.001287952816912482,0.004315374527019763,-0.0015768431172737056,0.5600032806396484,2019-06-21 12:50:24:416,0.0,0.0,0.0
0.0005388186546042562,-0.2548612356185913,9.73378849029541,0.0011547622531178697,-0.00074586722226841,0.004816304465016335,0.5650310516357422,2019-06-21 12:50:24:421,0.0,0.0,0.0
-0.004250680562108755,-0.28599298000335693,9.764920234680176,-0.0015090491528115383,0.0056472804250402115,0.005748638151504296,0.5691118240356445,2019-06-21 12:50:24:425,0.0,0.0,0.0
-0.01622442901134491,-0.28359824419021606,9.781682968139648,0.0022202867634747683,0.0060468518563497236,0.007879687172218092,0.5749998092651367,2019-06-21 12:50:24:431,0.0,0.0,0.0
-0.03777717798948288,-0.28599298000335693,9.76252555847168,-0.0019086208441953755,0.003116659452868253,0.008812021378854704,0.5791130065917969,2019-06-21 12:50:24:435,0.0,0.0,0.0
-0.0234086774289608,-0.2500717341899872,9.752945899963379,0.0003556188378409054,0.002717087761484416,0.007879687172218092,0.5841207504272461,2019-06-21 12:50:24:440,0.0,0.0,0.0
-0.03777717798948288,-0.2620454728603363,9.719419479370117,-0.0019086208441953755,-0.0010122483498576347,0.00548225702391507,0.5899901390075684,2019-06-21 12:50:24:446,0.0,0.0,0.0
-0.01622442901134491,-0.22612424194812775,9.776893615722656,-0.0009762868976330894,0.0047149462184036,0.0012201588524503152,0.5941076278686523,2019-06-21 12:50:24:450,0.0,0.0,0.0
0.0005388186546042562,-0.2764139771461487,9.678709030151367,0.00022242825779164786,0.0013851819935011304,0.007346924917039643,0.6000032424926758,2019-06-21 12:50:24:456,0.0,0.0,0.0
-0.021013928577303886,-0.23330849409103394,9.717024803161621,-0.001642239716606151,0.004581755914683313,0.01041030814439005,0.6041126251220703,2019-06-21 12:50:24:460,0.0,0.0,0.0
-0.028198176994919777,-0.24528223276138306,9.752945899963379,-0.000843096333838477,0.0072455671905755584,0.007213734613319356,0.6091423034667969,2019-06-21 12:50:24:465,0.0,0.0,0.0
-0.013829679228365421,-0.25246649980545044,9.693077087402344,-0.0007099057700438648,0.0035162311442520897,0.007480115740908581,0.6141138076782227,2019-06-21 12:50:24:470,0.0,0.0,0.0
-0.06651417165994644,-0.23330849409103394,9.73378849029541,-0.002840954920794824,0.0028502783252790285,0.009211593330312866,0.6199913024902344,2019-06-21 12:50:24:476,0.0,0.0,0.0
-0.025803428143262863,-0.24767698347568512,9.740972518920898,-0.0020418114079899874,0.0035162311442520897,0.013207310764299884,0.6241073608398438,2019-06-21 12:50:24:480,0.0,0.0,0.0
0.010117817670106888,-0.2620454728603363,9.714630126953125,-0.00044352460994534954,0.0035162311442520897,0.011875404606205111,0.630000114440918,2019-06-21 12:50:24:486,0.0,0.0,0.0
-0.03777717798948288,-0.235703244805336,9.812814712524414,-0.0019086208441953755,0.004581755914683313,0.01533835978501368,0.6341104507446289,2019-06-21 12:50:24:490,0.0,0.0,0.0
0.022091565653681755,-0.24528223276138306,9.781682968139648,0.002619858454858605,0.006579614111528172,0.01147583265474695,0.6399898529052734,2019-06-21 12:50:24:496,0.0,0.0,0.0
0.0005388186546042562,-0.2572559714317322,9.788866996765137,-0.0032405266121786607,0.007511948318164784,0.01733621850200719,0.6441102027893066,2019-06-21 12:50:24:500,0.0,0.0,0.0
0.0029335683211684227,-0.27880874276161194,9.750551223754883,-0.00044352460994534954,0.005780470728760498,0.013606881675460746,0.6500349044799805,2019-06-21 12:50:24:506,0.0,0.0,0.0
-0.028198176994919777,-0.20457148551940918,9.757735252380371,-0.0044392419464044965,0.005514089601171274,0.018135361364626214,0.6541318893432617,2019-06-21 12:50:24:510,0.0,0.0,0.0
-0.0234086774289608,-0.27162447571754456,9.748156547546387,8.92376858697129e-05,0.00671280493539711,0.012674548509121435,0.6599922180175781,2019-06-21 12:50:24:516,0.0,0.0,0.0
0.010117817670106888,-0.242887482047081,9.74576187133789,-0.0044392419464044965,0.0049813273459928245,0.021198743551679323,0.6641106605529785,2019-06-21 12:50:24:520,0.0,0.0,0.0
-0.05214567482471466,-0.31712472438812256,9.74576187133789,-0.004172860558740947,0.003915802835635926,0.013473691371740459,0.6700010299682617,2019-06-21 12:50:24:526,0.0,0.0,0.0
-0.0066454303450882435,-0.2548612356185913,9.719419479370117,-0.0032405266121786607,0.003383040580457477,0.01920088587498311,0.6741113662719727,2019-06-21 12:50:24:530,0.0,0.0,0.0
-0.04256667569279671,-0.29796671867370605,9.750551223754883,0.000755190561734033,0.0028502783252790285,0.018668124660101964,0.6799907684326172,2019-06-21 12:50:24:536,0.0,0.0,0.0
-0.004250680562108755,-0.23091374337673187,9.752945899963379,0.001287952816912482,0.0008524196733041,0.02266384001349438,0.6841087341308594,2019-06-21 12:50:24:540,0.0,0.0,0.0
-0.021013928577303886,-0.242887482047081,9.824789047241211,-0.0020418114079899874,0.0060468518563497236,0.0182685527086438,0.6900062561035156,2019-06-21 12:50:24:546,0.0,0.0,0.0
0.0747760608792305,-0.29078248143196106,9.810420036315918,0.0008883811255286454,0.006313232983938947,0.020133219041322422,0.6941356658935547,2019-06-21 12:50:24:550,0.0,0.0,0.0
0.0005388186546042562,-0.22133474051952362,9.717024803161621,-0.0020418114079899874,0.004448565090814376,0.017602600149745067,0.6999964714050293,2019-06-21 12:50:24:556,0.0,0.0,0.0
0.06280230730772018,-0.242887482047081,9.731393814086914,-0.0024413832294109873,0.003782612271841314,0.020799173680815762,0.7050313949584961,2019-06-21 12:50:24:561,0.0,0.0,0.0
-0.018619179725646973,-0.2883877456188202,9.740972518920898,-0.0027077643570002116,0.003383040580457477,0.019467266482423685,0.709113597869873,2019-06-21 12:50:24:565,0.0,0.0,0.0
0.05561806261539459,-0.23809799551963806,9.709840774536133,0.0028862395824478296,-0.0016782012338492774,0.021997887454595647,0.7149968147277832,2019-06-21 12:50:24:571,0.0,0.0,0.0
-0.011434929445385933,-0.2812034785747528,9.707446098327637,-0.0021750019717846,-0.0008790577860630224,0.020932362944238746,0.7191143035888672,2019-06-21 12:50:24:575,0.0,0.0,0.0
0.05322331190109253,-0.26683497428894043,9.728999137878418,-0.0020418114079899874,0.003383040580457477,0.01533835978501368,0.7250118255615234,2019-06-21 12:50:24:581,0.0,0.0,0.0
-0.011434929445385933,-0.23809799551963806,9.73378849029541,-0.000843096333838477,0.0003196573856163601,0.02133193489569691,0.7291135787963867,2019-06-21 12:50:24:585,0.0,0.0,0.0
0.06280230730772018,-0.23091374337673187,9.726603507995605,-0.0015090491528115383,0.0020511348124741917,0.014938787833555518,0.7350025177001953,2019-06-21 12:50:24:591,0.0,0.0,0.0
0.08914455771446228,-0.2692297399044037,9.750551223754883,0.002619858454858605,-0.002210963619064889,0.020799173680815762,0.7391138076782227,2019-06-21 12:50:24:595,0.0,0.0,0.0
0.11069730669260025,-0.2500717341899872,9.740972518920898,0.0006219999979394207,0.0015183725572957428,0.020133219041322422,0.7441163063049316,2019-06-21 12:50:24:600,0.0,0.0,0.0
0.07238131016492844,-0.20696623623371124,9.755340576171875,-0.001775430280400763,0.0013851819935011304,0.017069836854269313,0.7500262260437012,2019-06-21 12:50:24:606,0.0,0.0,0.0
0.11788155138492584,-0.29317721724510193,9.76252555847168,0.000755190561734033,-0.0056739182777248084,0.016670264902811153,0.7541141510009766,2019-06-21 12:50:24:610,0.0,0.0,0.0
0.11309205740690231,-0.23330849409103394,9.77449893951416,0.0004888094016355178,0.0025838971976898037,0.018002170020608627,0.7599887847900391,2019-06-21 12:50:24:616,0.0,0.0,0.0
0.101118303835392,-0.21175573766231537,9.822394371032715,-0.0020418114079899874,0.002450706633895191,0.01786898075718564,0.7641081809997559,2019-06-21 12:50:24:620,0.0,0.0,0.0
0.12985530495643616,-0.25246649980545044,9.748156547546387,-0.0033737171759732733,0.0015183725572957428,0.013207310764299884,0.7700004577636719,2019-06-21 12:50:24:626,0.0,0.0,0.0
0.12506580352783203,-0.2572559714317322,9.752945899963379,-0.001242668025222314,-0.0003462954983752826,0.016137502647632706,0.774113655090332,2019-06-21 12:50:24:630,0.0,0.0,0.0
0.11548680067062378,-0.24767698347568512,9.669130325317383,-0.0031073360483840485,0.002450706633895191,0.015604740392454255,0.7799901962280273,2019-06-21 12:50:24:636,0.0,0.0,0.0
0.11788155138492584,-0.2548612356185913,9.72420883178711,-0.00017714346610147965,-0.0008790577860630224,0.010943070399568499,0.7841081619262695,2019-06-21 12:50:24:640,0.0,0.0,0.0
0.16338180005550385,-0.2285189926624298,9.726603507995605,8.92376858697129e-05,0.0001864668055671025,0.019600457826441275,0.7900381088256836,2019-06-21 12:50:24:646,0.0,0.0,0.0
0.14422379434108734,-0.25246649980545044,9.719419479370117,-0.0027077643570002116,-0.0016782012338492774,0.016537074599090866,0.7941360473632812,2019-06-21 12:50:24:650,0.0,0.0,0.0
0.1538027971982956,-0.17583449184894562,9.731393814086914,-0.0036400983035624977,-0.002077772925233114,0.016270692951352993,0.7999906539916992,2019-06-21 12:50:24:656,0.0,0.0,0.0
0.18253979086875916,-0.23091374337673187,9.781682968139648,-0.004172860558740947,0.0003196573856163601,0.013473691371740459,0.8041009902954102,2019-06-21 12:50:24:660,0.0,0.0,0.0
0.22325053811073303,-0.24049273133277893,9.709840774536133,0.0031526207100370544,-0.0010122483498576347,0.010143927536949477,0.8100051879882812,2019-06-21 12:50:24:666,0.0,0.0,0.0
0.1729608029127121,-0.21175573766231537,9.822394371032715,-0.0013758585890169264,0.002450706633895191,0.01147583265474695,0.8141117095947266,2019-06-21 12:50:24:670,0.0,0.0,0.0
0.21127678453922272,-0.19738724827766418,9.72420883178711,-0.004705623073993721,0.003915802835635926,0.008678831075134416,0.8199939727783203,2019-06-21 12:50:24:676,0.0,0.0,0.0
0.2256452888250351,-0.25246649980545044,9.678709030151367,0.0036853832252898284,0.001251991429706518,0.007480115740908581,0.8241076469421387,2019-06-21 12:50:24:680,0.0,0.0,0.0
0.1993030458688736,-0.23330849409103394,9.736183166503906,-0.0035069077397678855,0.001651563121090355,0.006148210102962458,0.8300018310546875,2019-06-21 12:50:24:686,0.0,0.0,0.0
0.24959278106689453,-0.20696623623371124,9.712235450744629,-0.007902196605064417,-7.991434640409003e-05,0.007080543789450418,0.8341121673583984,2019-06-21 12:50:24:690,0.0,0.0,0.0
0.22325053811073303,-0.23091374337673187,9.709840774536133,-0.0005767152062492525,-0.002610535310448726,0.008146068299807315,0.8391504287719727,2019-06-21 12:50:24:695,0.0,0.0,0.0
0.2256452888250351,-0.16625550389289856,9.697867393493652,-0.0020418114079899874,0.003915802835635926,0.002685255184228213,0.8450040817260742,2019-06-21 12:50:24:701,0.0,0.0,0.0
0.24719803035259247,-0.2285189926624298,9.657155990600586,0.0015543339445017069,-0.0004794860621698949,0.005615447847784009,0.8491067886352539,2019-06-21 12:50:24:705,0.0,0.0,0.0
0.24240854382514954,-0.20457148551940918,9.728999137878418,-0.0031073360483840485,0.002717087761484416,0.0012201588524503152,0.8549976348876953,2019-06-21 12:50:24:711,0.0,0.0,0.0
0.2376190423965454,-0.17822924256324768,9.827183723449707,0.000755190561734033,5.327622958150625e-05,0.006814162661861195,0.8591122627258301,2019-06-21 12:50:24:715,0.0,0.0,0.0
0.2831192910671234,-0.23809799551963806,9.640393257141113,-0.0032405266121786607,0.0001864668055671025,0.007080543789450418,0.8649988174438477,2019-06-21 12:50:24:721,0.0,0.0,0.0
0.2256452888250351,-0.20696623623371124,9.70505142211914,-0.004972004201582946,-0.003542869257011012,-0.0025091770638359916,0.8691096305847168,2019-06-21 12:50:24:725,0.0,0.0,0.0
0.25438228249549866,-0.21175573766231537,9.65476131439209,-0.0033737171759732733,0.003116659452868253,0.007746496868497805,0.8750009536743164,2019-06-21 12:50:24:731,0.0,0.0,0.0
0.2519875466823578,-0.2165452390909195,9.726603507995605,-0.003906479431151722,0.0056472804250402115,0.0008205870960478969,0.879115104675293,2019-06-21 12:50:24:735,0.0,0.0,0.0
0.24719803035259247,-0.190202996134758,9.817604064941406,-0.0044392419464044965,0.002450706633895191,0.0017529211076287644,0.8850259780883789,2019-06-21 12:50:24:741,0.0,0.0,0.0
0.26875078678131104,-0.21415048837661743,9.740972518920898,-4.395289011588339e-05,-0.002610535310448726,-0.0015768431172737056,0.8891119956970215,2019-06-21 12:50:24:745,0.0,0.0,0.0
0.27593502402305603,-0.190202996134758,9.764920234680176,0.0034190020977006037,0.003915802835635926,0.0001546342608201902,0.8950214385986328,2019-06-21 12:50:24:751,0.0,0.0,0.0
0.28072452545166016,-0.19738724827766418,9.760130882263184,-0.001642239716606151,-0.0008790577860630224,2.1443682802763245e-05,0.8991179466247559,2019-06-21 12:50:24:755,0.0,0.0,0.0
0.2783297896385193,-0.20457148551940918,9.714630126953125,0.0024866678910639927,0.0011188008659119059,-0.002242795936246767,0.9050025939941406,2019-06-21 12:50:24:761,0.0,0.0,0.0
0.2519875466823578,-0.18780824542045593,9.760130882263184,0.0006219999979394207,-0.0003462954983752826,-0.00024493746307293734,0.9091081619262695,2019-06-21 12:50:24:765,0.0,0.0,0.0
0.2663560211658478,-0.235703244805336,9.702656745910645,-0.0020418114079899874,0.0011188008659119059,-0.00677127536533791,0.9149990081787109,2019-06-21 12:50:24:771,0.0,0.0,0.0
0.2448032945394516,-0.20696623623371124,9.712235450744629,-0.0033737171759732733,0.001651563121090355,-0.003574701834267215,0.9191150665283203,2019-06-21 12:50:24:775,0.0,0.0,0.0
0.22325053811073303,-0.18541349470615387,9.748156547546387,-0.002840954920794824,0.0032498500166628654,-0.004107464089445664,0.9250335693359375,2019-06-21 12:50:24:781,0.0,0.0,0.0
0.3046720325946808,-0.23091374337673187,9.743367195129395,0.0018207150720909312,0.0032498500166628654,-0.0015768431172737056,0.9291300773620605,2019-06-21 12:50:24:785,0.0,0.0,0.0
0.30706676840782166,-0.19259774684906006,9.767314910888672,-0.002308192665616375,0.0056472804250402115,-0.00876913408233142,0.9349985122680664,2019-06-21 12:50:24:791,0.0,0.0,0.0
0.2448032945394516,-0.17822924256324768,9.76252555847168,0.000755190561734033,0.004448565090814376,-0.005838941678849949,0.9391136169433594,2019-06-21 12:50:24:795,0.0,0.0,0.0
0.2567770481109619,-0.18780824542045593,9.72420883178711,0.00022242825779164786,0.0019179442486795795,-0.006238513110159461,0.9450044631958008,2019-06-21 12:50:24:801,0.0,0.0,0.0
0.30227726697921753,-0.21175573766231537,9.65476131439209,-0.0015090491528115383,0.001251991429706518,-0.007836799875694809,0.9491076469421387,2019-06-21 12:50:24:805,0.0,0.0,0.0
0.3118562698364258,-0.23091374337673187,9.752945899963379,-0.0032405266121786607,-7.991434640409003e-05,-0.01462951888929436,0.9549994468688965,2019-06-21 12:50:24:811,0.0,0.0,0.0
0.2783297896385193,-0.26444023847579956,9.726603507995605,0.003019430146242442,0.0019179442486795795,-0.00930189633750987,0.9591145515441895,2019-06-21 12:50:24:815,0.0,0.0,0.0
0.2567770481109619,-0.22372949123382568,9.736183166503906,0.001687524508296319,0.004581755914683313,-0.008369562130873257,0.9650058746337891,2019-06-21 12:50:24:821,0.0,0.0,0.0
0.28790879249572754,-0.2021767497062683,9.709840774536133,-0.0005767152062492525,-0.0023441541828595016,-0.01076699279932493,0.9691152572631836,2019-06-21 12:50:24:825,0.0,0.0,0.0
0.2711455225944519,-0.20696623623371124,9.740972518920898,-0.00031033404615073726,0.003915802835635926,-0.007836799875694809,0.9750127792358398,2019-06-21 12:50:24:831,0.0,0.0,0.0
0.2567770481109619,-0.17343974113464355,9.748156547546387,0.0020870961996801557,0.0009856102370987122,-0.00876913408233142,0.9791145324707031,2019-06-21 12:50:24:835,0.0,0.0,0.0
0.2903035283088684,-0.22133474051952362,9.73378849029541,0.005283669990825176,-0.002210963619064889,-0.010101040240426193,0.9849996566772461,2019-06-21 12:50:24:841,0.0,0.0,0.0
0.27593502402305603,-0.21893998980522156,9.707446098327637,0.003285811533905992,-0.002610535310448726,-0.010500611151587054,0.9891147613525391,2019-06-21 12:50:24:845,0.0,0.0,0.0
0.3118562698364258,-0.2285189926624298,9.769709587097168,0.0024866678910639927,-0.0003462954983752826,-0.005972131982570236,0.9950246810913086,2019-06-21 12:50:24:851,0.0,0.0,0.0
0.3094615340232849,-0.22372949123382568,9.76252555847168,0.0006219999979394207,-7.991434640409003e-05,-0.009701468288968031,0.9991097450256348,2019-06-21 12:50:24:855,0.0,0.0,0.0
0.28790879249572754,-0.23091374337673187,9.707446098327637,0.0008883811255286454,0.001651563121090355,-0.009834658592688318,1.0050015449523926,2019-06-21 12:50:24:861,0.0,0.0,0.0
0.2903035283088684,-0.1830187439918518,9.721814155578613,-0.00017714346610147965,-0.003942440948394849,-0.013963566330395622,1.009115219116211,2019-06-21 12:50:24:865,0.0,0.0,0.0
0.30706676840782166,-0.1710449904203415,9.719419479370117,-0.0015090491528115383,-0.0006126766584737978,-0.00677127536533791,1.0149998664855957,2019-06-21 12:50:24:871,0.0,0.0,0.0
0.3238300383090973,-0.19499249756336212,9.757735252380371,-0.0005767152062492525,-0.006073490229182971,-0.010633802495604642,1.0191130638122559,2019-06-21 12:50:24:875,0.0,0.0,0.0
0.3238300383090973,-0.22133474051952362,9.726603507995605,0.004084954916673665,-0.001944582361438502,-0.009168706033789581,1.0250225067138672,2019-06-21 12:50:24:881,0.0,0.0,0.0
0.3046720325946808,-0.21893998980522156,9.728999137878418,0.0018207150720909312,-0.00074586722226841,-0.008502752954742196,1.0291109085083008,2019-06-21 12:50:24:885,0.0,0.0,0.0
0.3310142755508423,-0.2500717341899872,9.719419479370117,0.0004888094016355178,-0.0015450106700546653,-0.010101040240426193,1.0349969863891602,2019-06-21 12:50:24:891,0.0,0.0,0.0
0.28790879249572754,-0.23091374337673187,9.764920234680176,0.0023534773272693805,-0.0014118201062600529,-0.007969990699563747,1.0391044616699219,2019-06-21 12:50:24:895,0.0,0.0,0.0
0.2783297896385193,-0.21415048837661743,9.77449893951416,0.004884098039367014,-0.0003462954983752826,-0.01076699279932493,1.0441060066223145,2019-06-21 12:50:24:900,0.0,0.0,0.0
0.3429880142211914,-0.23809799551963806,9.709840774536133,0.008080672090586358,-0.0011454389786708283,-0.011299755054503377,1.049992561340332,2019-06-21 12:50:24:906,0.0,0.0,0.0
0.2783297896385193,-0.22133474051952362,9.72420883178711,0.0027530490186532175,-0.0015450106700546653,-0.00823637182715297,1.054107666015625,2019-06-21 12:50:24:910,0.0,0.0,0.0
0.2639612853527069,-0.18062399327754974,9.712235450744629,0.0058164322460036244,0.0001864668055671025,-0.011965707613402115,1.0599994659423828,2019-06-21 12:50:24:916,0.0,0.0,0.0
0.27593502402305603,-0.23091374337673187,9.769709587097168,0.004484526608057502,0.0007192291095094877,-0.010500611151587054,1.0641241073608398,2019-06-21 12:50:24:920,0.0,0.0,0.0
0.29269829392433167,-0.22612424194812775,9.74576187133789,0.0019539056358855436,5.327622958150625e-05,-0.009168706033789581,1.0691347122192383,2019-06-21 12:50:24:925,0.0,0.0,0.0
0.2591717839241028,-0.19978199899196625,9.772104263305664,-0.00044352460994534954,-0.0015450106700546653,-0.011566135661943953,1.0750083923339844,2019-06-21 12:50:24:931,0.0,0.0,0.0
0.2855140268802643,-0.21893998980522156,9.700262069702148,0.003019430146242442,-0.0004794860621698949,-0.00930189633750987,1.0791854858398438,2019-06-21 12:50:24:936,0.0,0.0,0.0
0.2711455225944519,-0.19259774684906006,9.697867393493652,0.003019430146242442,-0.0006126766584737978,-0.00876913408233142,1.0850296020507812,2019-06-21 12:50:24:941,0.0,0.0,0.0
0.2831192910671234,-0.22612424194812775,9.702656745910645,0.004884098039367014,0.004848137042272538,-0.008635943258462482,1.0891079902648926,2019-06-21 12:50:24:945,0.0,0.0,0.0
0.2639612853527069,-0.28359824419021606,9.740972518920898,-0.0005767152062492525,-0.002210963619064889,-0.009834658592688318,1.0941061973571777,2019-06-21 12:50:24:950,0.0,0.0,0.0
0.26156654953956604,-0.21893998980522156,9.726603507995605,0.0022202867634747683,0.002317516070100579,-0.005039798296082276,1.0999975204467773,2019-06-21 12:50:24:956,0.0,0.0,0.0
0.2448032945394516,-0.25246649980545044,9.757735252380371,0.002619858454858605,-0.005407537150135584,-0.005572560551260725,1.1041054725646973,2019-06-21 12:50:24:960,0.0,0.0,0.0
0.2376190423965454,-0.22612424194812775,9.717024803161621,0.0023534773272693805,0.0005860385457148754,-0.01076699279932493,1.1099891662597656,2019-06-21 12:50:24:966,0.0,0.0,0.0
0.24719803035259247,-0.24767698347568512,9.752945899963379,0.0054168602945454634,0.0008524196733041,-0.0034415112704726026,1.1141095161437988,2019-06-21 12:50:24:970,0.0,0.0,0.0
0.2256452888250351,-0.2500717341899872,9.717024803161621,0.004750907735646727,-0.003542869257011012,-0.012098897917122403,1.120016098022461,2019-06-21 12:50:24:976,0.0,0.0,0.0
0.24240854382514954,-0.23091374337673187,9.76252555847168,0.001287952816912482,-0.001944582361438502,-0.008902324386051706,1.124105453491211,2019-06-21 12:50:24:980,0.0,0.0,0.0
0.24959278106689453,-0.21893998980522156,9.776893615722656,-0.0013758585890169264,0.0017847536848849673,-0.005705750854981011,1.1299915313720703,2019-06-21 12:50:24:986,0.0,0.0,0.0
0.19451354444026947,-0.2548612356185913,9.76252555847168,0.0019539056358855436,-0.003942440948394849,-0.00677127536533791,1.1341094970703125,2019-06-21 12:50:24:990,0.0,0.0,0.0
0.2639612853527069,-0.27162447571754456,9.719419479370117,0.009013005777074319,-0.0030101070018325625,-0.0015768431172737056,1.1400022506713867,2019-06-21 12:50:24:996,0.0,0.0,0.0
0.21606628596782684,-0.2572559714317322,9.736183166503906,0.0027530490186532175,0.002450706633895191,-0.0027755584514995413,1.1441106796264648,2019-06-21 12:50:25:000,0.0,0.0,0.0
0.20409254729747772,-0.21893998980522156,9.798446655273438,0.004084954916673665,-0.0010122483498576347,-0.001976414938694705,1.1499919891357422,2019-06-21 12:50:25:006,0.0,0.0,0.0
0.21367153525352478,-0.21415048837661743,9.717024803161621,0.0027530490186532175,-0.00074586722226841,0.0013533494162449274,1.1541051864624023,2019-06-21 12:50:25:010,0.0,0.0,0.0
0.21606628596782684,-0.242887482047081,9.740972518920898,0.007148337883949748,0.004448565090814376,-0.0033083207066779904,1.1600441932678223,2019-06-21 12:50:25:016,0.0,0.0,0.0
0.22085578739643097,-0.25965073704719543,9.769709587097168,0.005550051118414401,-0.005274346846415297,-0.005972131982570236,1.1641297340393066,2019-06-21 12:50:25:020,0.0,0.0,0.0
0.20169779658317566,-0.24049273133277893,9.719419479370117,0.0003556188378409054,0.0001864668055671025,-0.002242795936246767,1.1699953079223633,2019-06-21 12:50:25:026,0.0,0.0,0.0
0.17775028944015503,-0.2500717341899872,9.755340576171875,0.005949623069872562,-0.0003462954983752826,-0.0038410829618564396,1.1741094589233398,2019-06-21 12:50:25:030,0.0,0.0,0.0
0.15619754791259766,-0.2285189926624298,9.693077087402344,0.006349194501182075,-0.0034096786932164,0.004150351385968948,1.1791162490844727,2019-06-21 12:50:25:035,0.0,0.0,0.0
0.18253979086875916,-0.235703244805336,9.702656745910645,0.0058164322460036244,0.0003196573856163601,-0.0010440808620952565,1.1841249465942383,2019-06-21 12:50:25:040,0.0,0.0,0.0
0.1993030458688736,-0.19259774684906006,9.731393814086914,0.010744483886627255,-0.0015450106700546653,-0.00011174689115100237,1.189992904663086,2019-06-21 12:50:25:046,0.0,0.0,0.0
0.1993030458688736,-0.27162447571754456,9.784077644348145,0.005949623069872562,0.0001864668055671025,-0.00011174689115100237,1.1941070556640625,2019-06-21 12:50:25:050,0.0,0.0,0.0
0.16338180005550385,-0.2285189926624298,9.772104263305664,0.010744483886627255,0.0011188008659119059,-0.000378128043122195,1.2000303268432617,2019-06-21 12:50:25:056,0.0,0.0,0.0
0.17056605219841003,-0.25246649980545044,9.69547176361084,0.003285811533905992,0.0007192291095094877,-0.004240654653240277,1.2042264938354492,2019-06-21 12:50:25:061,0.0,0.0,0.0
0.11069730669260025,-0.2812034785747528,9.767314910888672,0.007015147580229461,-0.002210963619064889,2.1443682802763245e-05,1.2091712951660156,2019-06-21 12:50:25:066,0.0,0.0,0.0
0.15859229862689972,-0.24767698347568512,9.649971961975098,0.004484526608057502,-0.004741584591236848,0.0037507796945851113,1.2150006294250488,2019-06-21 12:50:25:071,0.0,0.0,0.0
0.14182904362678528,-0.2021767497062683,9.719419479370117,0.004750907735646727,-0.005807109101593746,-0.0038410829618564396,1.2191143035888672,2019-06-21 12:50:25:075,0.0,0.0,0.0
0.1274605542421341,-0.25246649980545044,9.798446655273438,0.007947481266717422,-0.0016782012338492774,-0.00024493746307293734,1.2241144180297852,2019-06-21 12:50:25:080,0.0,0.0,0.0
0.16817130148410797,-0.1830187439918518,9.78647232055664,0.0056832419422833385,-0.0006126766584737978,-0.0011772714258898686,1.229996681213379,2019-06-21 12:50:25:086,0.0,0.0,0.0
0.1538027971982956,-0.22133474051952362,9.77449893951416,0.005550051118414401,0.003915802835635926,-0.003041939579088766,1.2341103553771973,2019-06-21 12:50:25:090,0.0,0.0,0.0
0.11788155138492584,-0.27880874276161194,9.666735649108887,0.00848024352189587,-0.0012786295424654405,2.1443682802763245e-05,1.2391338348388672,2019-06-21 12:50:25:095,0.0,0.0,0.0
0.09872355312108994,-0.22612424194812775,9.688287734985352,0.003019430146242442,-0.0034096786932164,0.0025520646204336005,1.2450199127197266,2019-06-21 12:50:25:101,0.0,0.0,0.0
0.0484338141977787,-0.25246649980545044,9.693077087402344,0.0046177169117777896,-0.002210963619064889,-0.003707892398061828,1.2491559982299805,2019-06-21 12:50:25:105,0.0,0.0,0.0
0.0939340591430664,-0.27880874276161194,9.781682968139648,0.008879815473354034,-0.003942440948394849,0.0013533494162449274,1.2550125122070312,2019-06-21 12:50:25:111,0.0,0.0,0.0
0.09153930842876434,-0.19978199899196625,9.829578399658203,0.0008883811255286454,-0.002610535310448726,-0.006238513110159461,1.259106159210205,2019-06-21 12:50:25:115,0.0,0.0,0.0
0.11309205740690231,-0.26444023847579956,9.829578399658203,0.011277246141805704,0.0013851819935011304,0.0008205870960478969,1.2649993896484375,2019-06-21 12:50:25:121,0.0,0.0,0.0
0.06998655945062637,-0.24528223276138306,9.841551780700684,0.005283669990825176,0.0028502783252790285,0.0002878248408694478,1.2691173553466797,2019-06-21 12:50:25:125,0.0,0.0,0.0
0.06040756031870842,-0.2093609869480133,9.719419479370117,0.005017288863235951,-0.0018113917976438896,-0.0018432243749000928,1.275003433227539,2019-06-21 12:50:25:131,0.0,0.0,0.0
0.08435505628585815,-0.20696623623371124,9.69547176361084,0.00954576803225277,-0.0016782012338492774,0.0012201588524503152,1.2791061401367188,2019-06-21 12:50:25:135,0.0,0.0,0.0
0.07956556230783463,-0.25965073704719543,9.767314910888672,0.00608281337359285,-0.00514115602254636,-0.002242795936246767,1.2841072082519531,2019-06-21 12:50:25:140,0.0,0.0,0.0
0.08196030557155609,-0.26444023847579956,9.822394371032715,0.0036853832252898284,0.0013851819935011304,-0.003974273525651052,1.2899951934814453,2019-06-21 12:50:25:146,0.0,0.0,0.0
0.06759180873632431,-0.2764139771461487,9.743367195129395,0.007148337883949748,0.0005860385457148754,0.0002878248408694478,1.294135570526123,2019-06-21 12:50:25:150,0.0,0.0,0.0
0.012512567453086376,-0.2764139771461487,9.74576187133789,0.0015543339445017069,-0.0003462954983752826,-0.0025091770638359916,1.2999992370605469,2019-06-21 12:50:25:156,0.0,0.0,0.0
0.03885481506586075,-0.27880874276161194,9.712235450744629,0.0027530490186532175,-0.0003462954983752826,-0.0027755584514995413,1.3041048049926758,2019-06-21 12:50:25:160,0.0,0.0,0.0
0.036460064351558685,-0.24767698347568512,9.721814155578613,0.004484526608057502,-0.0012786295424654405,-0.005705750854981011,1.3100018501281738,2019-06-21 12:50:25:166,0.0,0.0,0.0
-0.009040179662406445,-0.24528223276138306,9.717024803161621,0.005550051118414401,-0.000213104918326025,-0.003175130142883378,1.3141117095947266,2019-06-21 12:50:25:170,0.0,0.0,0.0
0.06519705802202225,-0.2620454728603363,9.788866996765137,0.005150479166956239,-0.0012786295424654405,-0.0009108902983006441,1.3191099166870117,2019-06-21 12:50:25:175,0.0,0.0,0.0
0.043644312769174576,-0.26444023847579956,9.743367195129395,-0.000843096333838477,0.0017847536848849673,-0.00930189633750987,1.3241071701049805,2019-06-21 12:50:25:180,0.0,0.0,0.0
0.01969681680202484,-0.24528223276138306,9.740972518920898,0.002619858454858605,0.0049813273459928245,-0.003175130142883378,1.3300046920776367,2019-06-21 12:50:25:186,0.0,0.0,0.0
-0.011434929445385933,-0.2692297399044037,9.712235450744629,0.005949623069872562,0.0020511348124741917,-0.006238513110159461,1.3341140747070312,2019-06-21 12:50:25:190,0.0,0.0,0.0
-0.004250680562108755,-0.2548612356185913,9.73378849029541,0.004884098039367014,-7.991434640409003e-05,-0.008635943258462482,1.340036392211914,2019-06-21 12:50:25:196,0.0,0.0,0.0
0.012512567453086376,-0.25965073704719543,9.709840774536133,0.0031526207100370544,-0.005007965718826072,-0.004507035520755176,1.34503173828125,2019-06-21 12:50:25:201,0.0,0.0,0.0
0.0005388186546042562,-0.24528223276138306,9.74576187133789,-0.0007099057700438648,-0.0011454389786708283,-0.0066380850616176235,1.349106788635254,2019-06-21 12:50:25:205,0.0,0.0,0.0
-0.021013928577303886,-0.23091374337673187,9.73378849029541,-0.00017714346610147965,0.00671280493539711,-0.005572560551260725,1.3541088104248047,2019-06-21 12:50:25:210,0.0,0.0,0.0
0.022091565653681755,-0.28359824419021606,9.719419479370117,0.0003556188378409054,0.0007192291095094877,-0.006904466189206847,1.3599958419799805,2019-06-21 12:50:25:216,0.0,0.0,0.0
-0.0066454303450882435,-0.22612424194812775,9.736183166503906,0.0018207150720909312,0.0019179442486795795,-0.004773416648344401,1.364109992980957,2019-06-21 12:50:25:220,0.0,0.0,0.0
0.03406531363725662,-0.190202996134758,9.752945899963379,-0.0007099057700438648,5.327622958150625e-05,-0.007437228444385297,1.370004653930664,2019-06-21 12:50:25:226,0.0,0.0,0.0
0.01969681680202484,-0.27880874276161194,9.709840774536133,-0.0031073360483840485,-0.0034096786932164,-0.00677127536533791,1.3741145133972168,2019-06-21 12:50:25:230,0.0,0.0,0.0
0.03406531363725662,-0.27162447571754456,9.776893615722656,0.0008883811255286454,0.0008524196733041,-0.004906607472213338,1.3791265487670898,2019-06-21 12:50:25:235,0.0,0.0,0.0
0.012512567453086376,-0.24528223276138306,9.812814712524414,0.004884098039367014,-0.0023441541828595016,-0.008369562130873257,1.3850536346435547,2019-06-21 12:50:25:241,0.0,0.0,0.0
0.024486316367983818,-0.2740192413330078,9.81520938873291,0.0018207150720909312,0.005780470728760498,-0.010101040240426193,1.3891181945800781,2019-06-21 12:50:25:245,0.0,0.0,0.0
-0.013829679228365421,-0.22133474051952362,9.810420036315918,0.0008883811255286454,5.327622958150625e-05,-0.008502752954742196,1.3941125869750977,2019-06-21 12:50:25:250,0.0,0.0,0.0
0.026881065219640732,-0.24528223276138306,9.79126262664795,0.000755190561734033,-0.001944582361438502,-0.007437228444385297,1.3999958038330078,2019-06-21 12:50:25:256,0.0,0.0,0.0
-0.021013928577303886,-0.2572559714317322,9.726603507995605,-0.0009762868976330894,0.0020511348124741917,-0.007037656492927135,1.4041075706481934,2019-06-21 12:50:25:260,0.0,0.0,0.0
-0.040171924978494644,-0.2740192413330078,9.755340576171875,0.0027530490186532175,0.0015183725572957428,-0.012764851516318438,1.4099936485290527,2019-06-21 12:50:25:266,0.0,0.0,0.0
0.005328318104147911,-0.2500717341899872,9.800841331481934,0.0008883811255286454,0.001651563121090355,-0.007170847316796072,1.414109706878662,2019-06-21 12:50:25:270,0.0,0.0,0.0
-0.018619179725646973,-0.2285189926624298,9.748156547546387,-0.0013758585890169264,0.003116659452868253,-0.002642367627630604,1.4199938774108887,2019-06-21 12:50:25:276,0.0,0.0,0.0
-0.018619179725646973,-0.26683497428894043,9.688287734985352,0.003951764352879053,-0.0006126766584737978,-0.005039798296082276,1.4241065979003906,2019-06-21 12:50:25:280,0.0,0.0,0.0
-0.018619179725646973,-0.26683497428894043,9.72420883178711,0.0011547622531178697,-7.991434640409003e-05,-0.0053061794236715,1.4300174713134766,2019-06-21 12:50:25:286,0.0,0.0,0.0
-0.040171924978494644,-0.24528223276138306,9.73378849029541,0.0018207150720909312,0.0009856102370987122,-0.005439369727391787,1.434114933013916,2019-06-21 12:50:25:290,0.0,0.0,0.0
0.01969681680202484,-0.26444023847579956,9.721814155578613,0.0014211433807070943,0.0041821839632251515,-0.005439369727391787,1.4391365051269531,2019-06-21 12:50:25:295,0.0,0.0,0.0
-0.03059292770922184,-0.26444023847579956,9.738577842712402,0.0003556188378409054,0.0019179442486795795,-0.008369562130873257,1.4450035095214844,2019-06-21 12:50:25:301,0.0,0.0,0.0
-0.009040179662406445,-0.25246649980545044,9.757735252380371,0.0028862395824478296,0.0007192291095094877,-0.011033373406765504,1.4491095542907715,2019-06-21 12:50:25:305,0.0,0.0,0.0
0.05801280960440636,-0.2620454728603363,9.76252555847168,0.0024866678910639927,0.0035162311442520897,-0.005439369727391787,1.454108715057373,2019-06-21 12:50:25:310,0.0,0.0,0.0
-0.004250680562108755,-0.2500717341899872,9.702656745910645,0.006615575628771298,-0.003542869257011012,-0.006105322806439174,1.4600005149841309,2019-06-21 12:50:25:316,0.0,0.0,0.0
0.022091565653681755,-0.2740192413330078,9.772104263305664,0.0038185737890844406,0.0025838971976898037,-0.0051729885998025625,1.4641094207763672,2019-06-21 12:50:25:320,0.0,0.0,0.0
-0.009040179662406445,-0.2548612356185913,9.719419479370117,-0.0007099057700438648,0.0013851819935011304,-0.00876913408233142,1.4699926376342773,2019-06-21 12:50:25:326,0.0,0.0,0.0
-0.004250680562108755,-0.2955719828605652,9.74576187133789,0.001287952816912482,0.0025838971976898037,-0.008502752954742196,1.4741182327270508,2019-06-21 12:50:25:330,0.0,0.0,0.0
-0.028198176994919777,-0.23091374337673187,9.776893615722656,0.0035521926614952163,0.0025838971976898037,-0.0051729885998025625,1.480025291442871,2019-06-21 12:50:25:336,0.0,0.0,0.0
0.036460064351558685,-0.2548612356185913,9.750551223754883,-0.0009762868976330894,0.002450706633895191,-0.005838941678849949,1.4841279983520508,2019-06-21 12:50:25:340,0.0,0.0,0.0
-0.0066454303450882435,-0.2500717341899872,9.728999137878418,-0.00044352460994534954,0.003116659452868253,-0.0018432243749000928,1.489995002746582,2019-06-21 12:50:25:346,0.0,0.0,0.0
-0.03777717798948288,-0.2548612356185913,9.829578399658203,0.0015543339445017069,-0.0010122483498576347,-0.006904466189206847,1.4941072463989258,2019-06-21 12:50:25:350,0.0,0.0,0.0
0.0077230678871273994,-0.2692297399044037,9.781682968139648,0.00435133604426289,0.0015183725572957428,-0.0051729885998025625,1.4999990463256836,2019-06-21 12:50:25:356,0.0,0.0,0.0
0.0005388186546042562,-0.24767698347568512,9.767314910888672,0.0035521926614952163,0.002317516070100579,-0.002642367627630604,1.5041108131408691,2019-06-21 12:50:25:360,0.0,0.0,0.0
0.0029335683211684227,-0.2500717341899872,9.731393814086914,0.0038185737890844406,0.0008524196733041,-0.004240654653240277,1.5099916458129883,2019-06-21 12:50:25:366,0.0,0.0,0.0
0.0077230678871273994,-0.25246649980545044,9.721814155578613,0.0035521926614952163,0.004448565090814376,-0.0033083207066779904,1.5141053199768066,2019-06-21 12:50:25:370,0.0,0.0,0.0
0.0029335683211684227,-0.26444023847579956,9.769709587097168,0.0035521926614952163,0.002450706633895191,-0.004107464089445664,1.5200238227844238,2019-06-21 12:50:25:376,0.0,0.0,0.0
0.01969681680202484,-0.21175573766231537,9.743367195129395,-0.002974145484589436,-0.0034096786932164,-0.005972131982570236,1.5241260528564453,2019-06-21 12:50:25:380,0.0,0.0,0.0
0.005328318104147911,-0.26683497428894043,9.728999137878418,0.001287952816912482,-0.0008790577860630224,-0.0005113186069168071,1.5300073623657227,2019-06-21 12:50:25:386,0.0,0.0,0.0
0.03406531363725662,-0.2955719828605652,9.755340576171875,-0.00044352460994534954,-0.0010122483498576347,-0.008369562130873257,1.5341072082519531,2019-06-21 12:50:25:390,0.0,0.0,0.0
0.050828561186790466,-0.2620454728603363,9.726603507995605,0.0003556188378409054,0.0020511348124741917,-0.002242795936246767,1.539994239807129,2019-06-21 12:50:25:396,0.0,0.0,0.0
0.03167056292295456,-0.28359824419021606,9.700262069702148,-0.0007099057700438648,0.0020511348124741917,-0.003574701834267215,1.544105052947998,2019-06-21 12:50:25:400,0.0,0.0,0.0
0.06280230730772018,-0.25965073704719543,9.731393814086914,8.92376858697129e-05,0.0004528479494109724,-0.001310461989684481,1.5499935150146484,2019-06-21 12:50:25:406,0.0,0.0,0.0
0.043644312769174576,-0.2764139771461487,9.76252555847168,-0.002974145484589436,0.0076451386218850705,0.0029516363118174374,1.555002212524414,2019-06-21 12:50:25:411,0.0,0.0,0.0
0.01730206608772278,-0.242887482047081,9.798446655273438,0.001287952816912482,0.0064464238078078846,0.0017529211076287644,1.5591135025024414,2019-06-21 12:50:25:415,0.0,0.0,0.0
0.005328318104147911,-0.29078248143196106,9.740972518920898,-0.00017714346610147965,0.006313232983938947,-0.0038410829618564396,1.5650248527526855,2019-06-21 12:50:25:421,0.0,0.0,0.0
0.0077230678871273994,-0.2883877456188202,9.736183166503906,-0.0009762868976330894,0.0041821839632251515,-0.0009108902983006441,1.5691452026367188,2019-06-21 12:50:25:425,0.0,0.0,0.0
0.029275815933942795,-0.20457148551940918,9.72420883178711,0.0022202867634747683,0.0015183725572957428,-0.0029087490152941535,1.5741195678710938,2019-06-21 12:50:25:430,0.0,0.0,0.0
0.01969681680202484,-0.24528223276138306,9.736183166503906,0.0023534773272693805,0.0064464238078078846,0.0014865399800395396,1.5799899101257324,2019-06-21 12:50:25:436,0.0,0.0,0.0
0.0029335683211684227,-0.23809799551963806,9.760130882263184,0.0003556188378409054,0.0064464238078078846,0.0006873965322532847,1.5841073989868164,2019-06-21 12:50:25:440,0.0,0.0,0.0
0.010117817670106888,-0.27162447571754456,9.697867393493652,-0.0032405266121786607,0.004581755914683313,0.004017160822174336,1.5900001525878906,2019-06-21 12:50:25:446,0.0,0.0,0.0
0.0005388186546042562,-0.25965073704719543,9.743367195129395,0.0008883811255286454,0.0072455671905755584,0.00428354194976356,1.594111442565918,2019-06-21 12:50:25:450,0.0,0.0,0.0
-0.009040179662406445,-0.242887482047081,9.697867393493652,-0.0007099057700438648,0.007378757494295846,0.005615447847784009,1.6000127792358398,2019-06-21 12:50:25:456,0.0,0.0,0.0
-0.018619179725646973,-0.24528223276138306,9.709840774536133,-0.004972004201582946,0.003915802835635926,0.006148210102962458,1.6041078567504883,2019-06-21 12:50:25:460,0.0,0.0,0.0
0.0077230678871273994,-0.24767698347568512,9.805630683898926,-0.0005767152062492525,0.0035162311442520897,0.005082685592605559,1.6100058555603027,2019-06-21 12:50:25:466,0.0,0.0,0.0
-0.03777717798948288,-0.2093609869480133,9.769709587097168,-0.004572432250124783,0.005114518169861762,0.00801287799608703,1.6141095161437988,2019-06-21 12:50:25:470,0.0,0.0,0.0
-0.0066454303450882435,-0.2620454728603363,9.781682968139648,-0.00031033404615073726,0.008311091700932456,0.008146068299807315,1.6191401481628418,2019-06-21 12:50:25:475,0.0,0.0,0.0
-0.0497509241104126,-0.2285189926624298,9.712235450744629,-0.001642239716606151,0.010042569290336742,0.005215875896325846,1.624114990234375,2019-06-21 12:50:25:480,0.0,0.0,0.0
0.005328318104147911,-0.242887482047081,9.78647232055664,-0.0007099057700438648,0.004048993399430539,0.01134264235102666,1.6299896240234375,2019-06-21 12:50:25:486,0.0,0.0,0.0
-0.05214567482471466,-0.23809799551963806,9.760130882263184,0.0008883811255286454,0.005247708473582049,0.014272835274656783,1.634108543395996,2019-06-21 12:50:25:490,0.0,0.0,0.0
-0.04256667569279671,-0.26444023847579956,9.726603507995605,-0.00031033404615073726,-0.0003462954983752826,0.008146068299807315,1.640000820159912,2019-06-21 12:50:25:496,0.0,0.0,0.0
-0.018619179725646973,-0.25965073704719543,9.757735252380371,-0.0007099057700438648,0.008044710573343232,0.017203027157989603,1.6441106796264648,2019-06-21 12:50:25:500,0.0,0.0,0.0
-0.07369842380285263,-0.26683497428894043,9.755340576171875,-4.395289011588339e-05,0.004581755914683313,0.014539215882097358,1.649989128112793,2019-06-21 12:50:25:506,0.0,0.0,0.0
-0.01622442901134491,-0.27880874276161194,9.784077644348145,-4.395289011588339e-05,0.006579614111528172,0.009078403026592578,1.6541061401367188,2019-06-21 12:50:25:510,0.0,0.0,0.0
-0.01622442901134491,-0.2500717341899872,9.743367195129395,-0.0025745737932055994,0.0011188008659119059,0.018534933316084377,1.660017967224121,2019-06-21 12:50:25:516,0.0,0.0,0.0
-0.018619179725646973,-0.2955719828605652,9.784077644348145,-0.00044352460994534954,0.004448565090814376,0.014938787833555518,1.6641483306884766,2019-06-21 12:50:25:520,0.0,0.0,0.0
-0.0234086774289608,-0.2572559714317322,9.805630683898926,-0.001242668025222314,0.006313232983938947,0.015737930696174542,1.6699981689453125,2019-06-21 12:50:25:526,0.0,0.0,0.0
-0.0066454303450882435,-0.26444023847579956,9.781682968139648,-0.0020418114079899874,0.005114518169861762,0.019467266482423685,1.6749954223632812,2019-06-21 12:50:25:531,0.0,0.0,0.0
-0.018619179725646973,-0.24049273133277893,9.755340576171875,-0.0036400983035624977,0.007112376366706621,0.017602600149745067,1.6791133880615234,2019-06-21 12:50:25:535,0.0,0.0,0.0
-0.032987676560878754,-0.30994048714637756,9.721814155578613,0.0008883811255286454,-0.0011454389786708283,0.023063411964952544,1.6849985122680664,2019-06-21 12:50:25:541,0.0,0.0,0.0
-0.040171924978494644,-0.24528223276138306,9.719419479370117,-0.005637956760481682,0.002317516070100579,0.02279703135751197,1.6891069412231445,2019-06-21 12:50:25:545,0.0,0.0,0.0
-0.0689089223742485,-0.235703244805336,9.767314910888672,-0.0032405266121786607,0.0060468518563497236,0.02426212781932703,1.6949973106384277,2019-06-21 12:50:25:551,0.0,0.0,0.0
-0.07130367308855057,-0.29078248143196106,9.740972518920898,0.0022202867634747683,0.0047149462184036,0.021465126239714496,1.6991376876831055,2019-06-21 12:50:25:555,0.0,0.0,0.0
-0.03059292770922184,-0.24767698347568512,9.728999137878418,0.00022242825779164786,0.0003196573856163601,0.022530650750071393,1.7041254043579102,2019-06-21 12:50:25:560,0.0,0.0,0.0
0.01969681680202484,-0.2883877456188202,9.740972518920898,-0.0036400983035624977,-0.0011454389786708283,0.020932362944238746,1.7099924087524414,2019-06-21 12:50:25:566,0.0,0.0,0.0
0.0077230678871273994,-0.2740192413330078,9.750551223754883,0.00022242825779164786,0.002450706633895191,0.0245285084267676,1.7141399383544922,2019-06-21 12:50:25:570,0.0,0.0,0.0
-0.0066454303450882435,-0.24528223276138306,9.69547176361084,-0.003906479431151722,0.0004528479494109724,0.02479488903420818,1.7200007438659668,2019-06-21 12:50:25:576,0.0,0.0,0.0
0.010117817670106888,-0.27880874276161194,9.690682411193848,-0.0007099057700438648,0.0004528479494109724,0.023063411964952544,1.7241096496582031,2019-06-21 12:50:25:580,0.0,0.0,0.0
-0.028198176994919777,-0.2500717341899872,9.78647232055664,-0.002308192665616375,0.0064464238078078846,0.02586041562515968,1.7299985885620117,2019-06-21 12:50:25:586,0.0,0.0,0.0
0.012512567453086376,-0.26683497428894043,9.817604064941406,0.0024866678910639927,0.0013851819935011304,0.019733649170458865,1.7341084480285645,2019-06-21 12:50:25:590,0.0,0.0,0.0
0.0029335683211684227,-0.26683497428894043,9.702656745910645,-0.0005767152062492525,0.0004528479494109724,0.019467266482423685,1.7399921417236328,2019-06-21 12:50:25:596,0.0,0.0,0.0
0.01969681680202484,-0.2620454728603363,9.693077087402344,0.0003556188378409054,0.001251991429706518,0.021465126239714496,1.744105339050293,2019-06-21 12:50:25:600,0.0,0.0,0.0
0.010117817670106888,-0.242887482047081,9.772104263305664,0.0004888094016355178,-0.0003462954983752826,0.021065554288256332,1.75,2019-06-21 12:50:25:606,0.0,0.0,0.0
0.06040756031870842,-0.23091374337673187,9.772104263305664,-0.001775430280400763,-0.0003462954983752826,0.02279703135751197,1.7541332244873047,2019-06-21 12:50:25:610,0.0,0.0,0.0
0.08914455771446228,-0.27162447571754456,9.810420036315918,0.0023534773272693805,0.001651563121090355,0.01693664655054903,1.760023593902588,2019-06-21 12:50:25:616,0.0,0.0,0.0
0.07238131016492844,-0.21893998980522156,9.798446655273438,0.000755190561734033,-0.0010122483498576347,0.023729364523851278,1.7641267776489258,2019-06-21 12:50:25:620,0.0,0.0,0.0
0.07717081159353256,-0.26444023847579956,9.72420883178711,-0.001642239716606151,-0.005274346846415297,0.02186469819117266,1.7699899673461914,2019-06-21 12:50:25:626,0.0,0.0,0.0
0.08435505628585815,-0.24767698347568512,9.721814155578613,-0.004172860558740947,-0.002077772925233114,0.01880131392352495,1.7749934196472168,2019-06-21 12:50:25:631,0.0,0.0,0.0
0.07956556230783463,-0.24528223276138306,9.726603507995605,0.0022202867634747683,-0.0027437258742433386,0.021997887454595647,1.7791128158569336,2019-06-21 12:50:25:635,0.0,0.0,0.0
0.09153930842876434,-0.2500717341899872,9.798446655273438,0.00022242825779164786,0.0003196573856163601,0.016004312343912416,1.7850017547607422,2019-06-21 12:50:25:641,0.0,0.0,0.0
0.1538027971982956,-0.2883877456188202,9.812814712524414,-0.0032405266121786607,0.004048993399430539,0.013740073019478334,1.7891101837158203,2019-06-21 12:50:25:645,0.0,0.0,0.0
0.1394343078136444,-0.235703244805336,9.740972518920898,0.0011547622531178697,0.004848137042272538,0.019067694530965525,1.7950305938720703,2019-06-21 12:50:25:651,0.0,0.0,0.0
0.15619754791259766,-0.25965073704719543,9.714630126953125,0.0004888094016355178,-0.0011454389786708283,0.01786898075718564,1.799123764038086,2019-06-21 12:50:25:655,0.0,0.0,0.0
0.1394343078136444,-0.24528223276138306,9.76252555847168,0.0015543339445017069,-0.0023441541828595016,0.017069836854269313,1.805006980895996,2019-06-21 12:50:25:661,0.0,0.0,0.0
0.12985530495643616,-0.24767698347568512,9.78647232055664,-0.00017714346610147965,-0.0003462954983752826,0.01587112204019213,1.8091135025024414,2019-06-21 12:50:25:665,0.0,0.0,0.0
0.18732929229736328,-0.21175573766231537,9.688287734985352,-0.002974145484589436,5.327622958150625e-05,0.013740073019478334,1.8141098022460938,2019-06-21 12:50:25:670,0.0,0.0,0.0
0.22325053811073303,-0.190202996134758,9.74576187133789,-0.0036400983035624977,0.003649421708046702,0.008279259123676254,1.8200006484985352,2019-06-21 12:50:25:676,0.0,0.0,0.0
0.22085578739643097,-0.2021767497062683,9.76252555847168,-0.004572432250124783,0.0028502783252790285,0.015604740392454255,1.8241095542907715,2019-06-21 12:50:25:680,0.0,0.0,0.0
0.2711455225944519,-0.28599298000335693,9.740972518920898,-0.0025745737932055994,0.00298346888907364,0.014805597529835233,1.8291091918945312,2019-06-21 12:50:25:685,0.0,0.0,0.0
0.1729608029127121,-0.190202996134758,9.659550666809082,-0.0031073360483840485,0.00298346888907364,0.010010736192931888,1.8349971771240234,2019-06-21 12:50:25:691,0.0,0.0,0.0
0.2184610366821289,-0.19499249756336212,9.678709030151367,-0.00577114758435062,-7.991434640409003e-05,0.010010736192931888,1.8391270637512207,2019-06-21 12:50:25:695,0.0,0.0,0.0
0.24001379311084747,-0.21415048837661743,9.714630126953125,0.001287952816912482,0.0011188008659119059,0.010277117840669764,1.8441219329833984,2019-06-21 12:50:25:700,0.0,0.0,0.0
0.2448032945394516,-0.18541349470615387,9.784077644348145,-0.005371575632892458,0.0035162311442520897,0.006814162661861195,1.8500008583068848,2019-06-21 12:50:25:706,0.0,0.0,0.0
0.26875078678131104,-0.18541349470615387,9.73378849029541,-0.001642239716606151,0.0047149462184036,0.005881828975373233,1.8541150093078613,2019-06-21 12:50:25:710,0.0,0.0,0.0
0.25438228249549866,-0.2165452390909195,9.702656745910645,-0.0013758585890169264,-0.002477344746654114,0.007746496868497805,1.8599929809570312,2019-06-21 12:50:25:716,0.0,0.0,0.0
0.22325053811073303,-0.17822924256324768,9.717024803161621,-0.0037732888673571103,0.0035162311442520897,0.008545640251265479,1.8641061782836914,2019-06-21 12:50:25:720,0.0,0.0,0.0
0.2519875466823578,-0.21175573766231537,9.657155990600586,-0.0025745737932055994,0.004848137042272538,0.0008205870960478969,1.869999885559082,2019-06-21 12:50:25:726,0.0,0.0,0.0
0.2663560211658478,-0.2620454728603363,9.702656745910645,-0.0025745737932055994,0.003116659452868253,0.00308482687561205,1.8741121292114258,2019-06-21 12:50:25:730,0.0,0.0,0.0
0.24240854382514954,-0.19978199899196625,9.738577842712402,0.0015543339445017069,0.006313232983938947,-0.0011772714258898686,1.879990577697754,2019-06-21 12:50:25:736,0.0,0.0,0.0
0.26156654953956604,-0.235703244805336,9.73378849029541,-0.000843096333838477,-0.0010122483498576347,0.0009537776598425092,1.8841190338134766,2019-06-21 12:50:25:740,0.0,0.0,0.0
0.27593502402305603,-0.21415048837661743,9.731393814086914,0.00022242825779164786,0.0020511348124741917,-0.0027755584514995413,1.8899922370910645,2019-06-21 12:50:25:746,0.0,0.0,0.0
0.2903035283088684,-0.190202996134758,9.709840774536133,-0.0032405266121786607,0.0003196573856163601,-0.0025091770638359916,1.8941307067871094,2019-06-21 12:50:25:750,0.0,0.0,0.0
0.2974877953529358,-0.2093609869480133,9.712235450744629,-0.0036400983035624977,0.0056472804250402115,0.00308482687561205,1.9000129699707031,2019-06-21 12:50:25:756,0.0,0.0,0.0
0.2903035283088684,-0.1830187439918518,9.728999137878418,0.0015543339445017069,-0.0034096786932164,-0.003574701834267215,1.904109001159668,2019-06-21 12:50:25:760,0.0,0.0,0.0
0.3046720325946808,-0.18780824542045593,9.69547176361084,-0.0035069077397678855,0.003649421708046702,0.0024188740566389883,1.909113883972168,2019-06-21 12:50:25:765,0.0,0.0,0.0
0.2711455225944519,-0.24049273133277893,9.764920234680176,0.0008883811255286454,0.001251991429706518,0.0002878248408694478,1.914999008178711,2019-06-21 12:50:25:771,0.0,0.0,0.0
0.2711455225944519,-0.18541349470615387,9.72420883178711,-0.005637956760481682,0.0060468518563497236,-0.00011174689115100237,1.9191079139709473,2019-06-21 12:50:25:775,0.0,0.0,0.0
0.26156654953956604,-0.18541349470615387,9.76252555847168,-0.0019086208441953755,0.0004528479494109724,-0.009035514689771994,1.924107551574707,2019-06-21 12:50:25:780,0.0,0.0,0.0
0.27593502402305603,-0.2165452390909195,9.702656745910645,-0.0027077643570002116,0.00298346888907364,-0.008902324386051706,1.930002212524414,2019-06-21 12:50:25:786,0.0,0.0,0.0
0.2831192910671234,-0.17343974113464355,9.784077644348145,-0.0021750019717846,0.0021843255063059668,-0.00730403762051636,1.9341139793395996,2019-06-21 12:50:25:790,0.0,0.0,0.0
0.28072452545166016,-0.190202996134758,9.760130882263184,-0.0007099057700438648,0.0001864668055671025,-0.008502752954742196,1.940016269683838,2019-06-21 12:50:25:796,0.0,0.0,0.0
0.2639612853527069,-0.19978199899196625,9.76252555847168,0.0015543339445017069,0.002717087761484416,-0.011033373406765504,1.9450874328613281,2019-06-21 12:50:25:801,0.0,0.0,0.0
0.28790879249572754,-0.190202996134758,9.719419479370117,-0.001775430280400763,-0.00074586722226841,-0.003574701834267215,1.9491047859191895,2019-06-21 12:50:25:805,0.0,0.0,0.0
0.2831192910671234,-0.22133474051952362,9.702656745910645,-4.395289011588339e-05,0.0021843255063059668,-0.008369562130873257,1.9549918174743652,2019-06-21 12:50:25:811,0.0,0.0,0.0
0.3238300383090973,-0.242887482047081,9.72420883178711,-0.00044352460994534954,0.0005860385457148754,-0.009701468288968031,1.9591093063354492,2019-06-21 12:50:25:815,0.0,0.0,0.0
0.26156654953956604,-0.23330849409103394,9.750551223754883,0.0020870961996801557,0.00298346888907364,-0.00730403762051636,1.9641079902648926,2019-06-21 12:50:25:820,0.0,0.0,0.0
0.29509302973747253,-0.2165452390909195,9.743367195129395,-0.0021750019717846,0.0008524196733041,-0.01462951888929436,1.969985008239746,2019-06-21 12:50:25:826,0.0,0.0,0.0
0.2591717839241028,-0.22612424194812775,9.68349838256836,0.0004888094016355178,-0.0014118201062600529,-0.008103181003284032,1.9741244316101074,2019-06-21 12:50:25:830,0.0,0.0,0.0
0.2783297896385193,-0.18541349470615387,9.74576187133789,-0.003906479431151722,0.0060468518563497236,-0.009834658592688318,1.9800043106079102,2019-06-21 12:50:25:836,0.0,0.0,0.0
0.3381985127925873,-0.22372949123382568,9.671525001525879,0.0011547622531178697,0.0032498500166628654,-0.011033373406765504,1.9841194152832031,2019-06-21 12:50:25:840,0.0,0.0,0.0
0.31425103545188904,-0.190202996134758,9.712235450744629,-0.002974145484589436,0.0008524196733041,-0.011965707613402115,1.9899930953979492,2019-06-21 12:50:25:846,0.0,0.0,0.0
0.29509302973747253,-0.21175573766231537,9.728999137878418,0.001287952816912482,-0.0003462954983752826,-0.0142299479781335,1.9941091537475586,2019-06-21 12:50:25:850,0.0,0.0,0.0
0.2663560211658478,-0.22133474051952362,9.769709587097168,-0.000843096333838477,0.0005860385457148754,-0.009834658592688318,2.0000195503234863,2019-06-21 12:50:25:856,0.0,0.0,0.0
0.3238300383090973,-0.24049273133277893,9.714630126953125,0.004484526608057502,-0.0003462954983752826,-0.015295472488490397,2.0041141510009766,2019-06-21 12:50:25:860,0.0,0.0,0.0
0.2639612853527069,-0.190202996134758,9.772104263305664,-0.0025745737932055994,-0.0006126766584737978,-0.012365279564860278,2.009990692138672,2019-06-21 12:50:25:866,0.0,0.0,0.0
0.2903035283088684,-0.18062399327754974,9.731393814086914,0.0022202867634747683,-0.002077772925233114,-0.016494187302567583,2.014103889465332,2019-06-21 12:50:25:870,0.0,0.0,0.0
0.31904053688049316,-0.17822924256324768,9.69547176361084,-0.0036400983035624977,-0.0006126766584737978,-0.013430804075217176,2.020015239715576,2019-06-21 12:50:25:876,0.0,0.0,0.0
0.27593502402305603,-0.19259774684906006,9.750551223754883,-0.0033737171759732733,-0.0015450106700546653,-0.013963566330395622,2.0241193771362305,2019-06-21 12:50:25:880,0.0,0.0,0.0
0.3166457712650299,-0.21893998980522156,9.70505142211914,0.0028862395824478296,0.0028502783252790285,-0.014762710233311948,2.029994010925293,2019-06-21 12:50:25:886,0.0,0.0,0.0
0.3358037769794464,-0.18541349470615387,9.685893058776855,0.0015543339445017069,-0.004475203463647623,-0.01569504339965126,2.0341081619262695,2019-06-21 12:50:25:890,0.0,0.0,0.0
0.30706676840782166,-0.23091374337673187,9.712235450744629,0.004084954916673665,0.0001864668055671025,-0.011965707613402115,2.039991855621338,2019-06-21 12:50:25:896,0.0,0.0,0.0
0.2663560211658478,-0.21893998980522156,9.748156547546387,0.00022242825779164786,-7.991434640409003e-05,-0.018358854675543504,2.0441055297851562,2019-06-21 12:50:25:900,0.0,0.0,0.0
0.30227726697921753,-0.16146600246429443,9.721814155578613,0.00435133604426289,0.001651563121090355,-0.01223208926113999,2.049990653991699,2019-06-21 12:50:25:906,0.0,0.0,0.0
0.24959278106689453,-0.21415048837661743,9.767314910888672,-0.0015090491528115383,-0.0011454389786708283,-0.008502752954742196,2.054105758666992,2019-06-21 12:50:25:910,0.0,0.0,0.0
0.2783297896385193,-0.190202996134758,9.659550666809082,0.0023534773272693805,-0.001944582361438502,-0.01516228114447281,2.0600156784057617,2019-06-21 12:50:25:916,0.0,0.0,0.0
0.27593502402305603,-0.1830187439918518,9.700262069702148,0.0015543339445017069,0.003383040580457477,-0.013563994378937462,2.064119815826416,2019-06-21 12:50:25:920,0.0,0.0,0.0
0.2903035283088684,-0.21175573766231537,9.769709587097168,0.0019539056358855436,-0.0010122483498576347,-0.008502752954742196,2.0691452026367188,2019-06-21 12:50:25:925,0.0,0.0,0.0
0.2663560211658478,-0.23330849409103394,9.760130882263184,0.00022242825779164786,0.0020511348124741917,-0.01023423054414648,2.0750017166137695,2019-06-21 12:50:25:931,0.0,0.0,0.0
0.30227726697921753,-0.1710449904203415,9.78647232055664,0.004884098039367014,0.0015183725572957428,-0.011432945358223666,2.0791049003601074,2019-06-21 12:50:25:935,0.0,0.0,0.0
0.2831192910671234,-0.22372949123382568,9.69547176361084,0.0022202867634747683,0.001651563121090355,-0.009168706033789581,2.0849971771240234,2019-06-21 12:50:25:941,0.0,0.0,0.0
0.29269829392433167,-0.21175573766231537,9.736183166503906,0.003019430146242442,0.001651563121090355,-0.009035514689771994,2.089111328125,2019-06-21 12:50:25:945,0.0,0.0,0.0
0.2519875466823578,-0.21415048837661743,9.750551223754883,0.0024866678910639927,0.0005860385457148754,-0.012498469868580563,2.0941123962402344,2019-06-21 12:50:25:950,0.0,0.0,0.0
0.2711455225944519,-0.2093609869480133,9.702656745910645,0.0018207150720909312,-0.00074586722226841,-0.006904466189206847,2.0999927520751953,2019-06-21 12:50:25:956,0.0,0.0,0.0
0.23282954096794128,-0.2165452390909195,9.743367195129395,0.000755190561734033,-0.0006126766584737978,-0.006105322806439174,2.1041150093078613,2019-06-21 12:50:25:960,0.0,0.0,0.0
0.24240854382514954,-0.2285189926624298,9.740972518920898,0.0028862395824478296,-0.002077772925233114,-0.006238513110159461,2.1099963188171387,2019-06-21 12:50:25:966,0.0,0.0,0.0
0.22085578739643097,-0.20696623623371124,9.681103706359863,0.0056832419422833385,0.001651563121090355,-0.008369562130873257,2.114130973815918,2019-06-21 12:50:25:970,0.0,0.0,0.0
0.2783297896385193,-0.242887482047081,9.748156547546387,-0.0019086208441953755,-0.000213104918326025,-0.005838941678849949,2.119993209838867,2019-06-21 12:50:25:976,0.0,0.0,0.0
0.21367153525352478,-0.242887482047081,9.736183166503906,0.0023534773272693805,-0.0038092503846002368,-0.005838941678849949,2.1241073608398438,2019-06-21 12:50:25:980,0.0,0.0,0.0
0.2376190423965454,-0.22372949123382568,9.80323600769043,0.0010215716893232575,0.0005860385457148754,-0.005705750854981011,2.129998207092285,2019-06-21 12:50:25:986,0.0,0.0,0.0
0.23522429168224335,-0.242887482047081,9.839157104492188,0.003019430146242442,0.0021843255063059668,-0.004906607472213338,2.1341114044189453,2019-06-21 12:50:25:990,0.0,0.0,0.0
0.2376190423965454,-0.22612424194812775,9.755340576171875,0.003951764352879053,0.0015183725572957428,-0.0023759865000413795,2.139988899230957,2019-06-21 12:50:25:996,0.0,0.0,0.0
0.20409254729747772,-0.24528223276138306,9.776893615722656,0.002619858454858605,-0.0006126766584737978,-0.0027755584514995413,2.144105911254883,2019-06-21 12:50:26:000,0.0,0.0,0.0
0.22085578739643097,-0.23809799551963806,9.776893615722656,0.0015543339445017069,0.0007192291095094877,-0.008103181003284032,2.1491432189941406,2019-06-21 12:50:26:005,0.0,0.0,0.0
0.18732929229736328,-0.2500717341899872,9.796051979064941,0.0035521926614952163,0.0007192291095094877,-0.0051729885998025625,2.1550421714782715,2019-06-21 12:50:26:011,0.0,0.0,0.0
0.19690829515457153,-0.2285189926624298,9.731393814086914,0.005150479166956239,-0.003676059820805624,-0.004107464089445664,2.1591272354125977,2019-06-21 12:50:26:015,0.0,0.0,0.0
0.1921187937259674,-0.242887482047081,9.784077644348145,0.007148337883949748,0.001651563121090355,-0.005039798296082276,2.16500186920166,2019-06-21 12:50:26:021,0.0,0.0,0.0
0.20169779658317566,-0.27880874276161194,9.764920234680176,0.006216004197461787,0.0032498500166628654,-0.003041939579088766,2.1691131591796875,2019-06-21 12:50:26:025,0.0,0.0,0.0
0.20409254729747772,-0.2285189926624298,9.728999137878418,0.004750907735646727,-0.003676059820805624,0.0005542059684586724,2.1750054359436035,2019-06-21 12:50:26:031,0.0,0.0,0.0
0.1921187937259674,-0.2285189926624298,9.76252555847168,-0.0005767152062492525,0.0009856102370987122,0.0002878248408694478,2.17911434173584,2019-06-21 12:50:26:035,0.0,0.0,0.0
0.15619754791259766,-0.21893998980522156,9.709840774536133,0.00022242825779164786,5.327622958150625e-05,-0.0007776997345060318,2.185000419616699,2019-06-21 12:50:26:041,0.0,0.0,0.0
0.1921187937259674,-0.22612424194812775,9.73378849029541,0.0028862395824478296,0.0007192291095094877,-0.0011772714258898686,2.1891136169433594,2019-06-21 12:50:26:045,0.0,0.0,0.0
0.1394343078136444,-0.2548612356185913,9.664340019226074,0.0035521926614952163,-0.0006126766584737978,-0.003974273525651052,2.195037841796875,2019-06-21 12:50:26:051,0.0,0.0,0.0
0.16338180005550385,-0.235703244805336,9.77449893951416,0.0024866678910639927,-0.004342012639778686,-0.00024493746307293734,2.199141502380371,2019-06-21 12:50:26:055,0.0,0.0,0.0
0.17056605219841003,-0.24528223276138306,9.719419479370117,0.005550051118414401,-0.00514115602254636,-0.004107464089445664,2.205019950866699,2019-06-21 12:50:26:061,0.0,0.0,0.0
0.15859229862689972,-0.26683497428894043,9.671525001525879,0.006615575628771298,0.0032498500166628654,0.0004210154046640601,2.2091116905212402,2019-06-21 12:50:26:065,0.0,0.0,0.0
0.1202763020992279,-0.235703244805336,9.693077087402344,-0.000843096333838477,-0.0004794860621698949,0.0022856834928443757,2.215003490447998,2019-06-21 12:50:26:071,0.0,0.0,0.0
0.15859229862689972,-0.2812034785747528,9.755340576171875,0.003285811533905992,0.0005860385457148754,0.0025520646204336005,2.219113349914551,2019-06-21 12:50:26:075,0.0,0.0,0.0
0.0484338141977787,-0.2572559714317322,9.767314910888672,0.00435133604426289,-0.0008790577860630224,-0.0005113186069168071,2.225001811981201,2019-06-21 12:50:26:081,0.0,0.0,0.0
0.10590780526399612,-0.22133474051952362,9.743367195129395,0.005949623069872562,-0.002077772925233114,0.002152492799012601,2.2291131019592285,2019-06-21 12:50:26:085,0.0,0.0,0.0
0.1202763020992279,-0.21893998980522156,9.72420883178711,0.001687524508296319,-0.0011454389786708283,-0.0005113186069168071,2.235006332397461,2019-06-21 12:50:26:091,0.0,0.0,0.0
0.08914455771446228,-0.25246649980545044,9.74576187133789,0.005949623069872562,0.0003196573856163601,-0.001310461989684481,2.2391343116760254,2019-06-21 12:50:26:095,0.0,0.0,0.0
0.1274605542421341,-0.2285189926624298,9.752945899963379,0.006615575628771298,-0.0003462954983752826,-0.007037656492927135,2.2450132369995117,2019-06-21 12:50:26:101,0.0,0.0,0.0
0.13464480638504028,-0.21893998980522156,9.736183166503906,0.0046177169117777896,-0.0038092503846002368,-0.0017100338111054802,2.249114990234375,2019-06-21 12:50:26:105,0.0,0.0,0.0
0.09632880985736847,-0.25246649980545044,9.728999137878418,0.009412577728532483,0.003116659452868253,0.00428354194976356,2.2550048828125,2019-06-21 12:50:26:111,0.0,0.0,0.0
0.06998655945062637,-0.24049273133277893,9.8319730758667,0.004884098039367014,-0.0006126766584737978,0.0013533494162449274,2.2591142654418945,2019-06-21 12:50:26:115,0.0,0.0,0.0
0.05561806261539459,-0.28599298000335693,9.752945899963379,0.005283669990825176,-0.002477344746654114,-0.0053061794236715,2.2650036811828613,2019-06-21 12:50:26:121,0.0,0.0,0.0
0.06519705802202225,-0.27162447571754456,9.666735649108887,0.005150479166956239,-0.005807109101593746,-0.001310461989684481,2.269111156463623,2019-06-21 12:50:26:125,0.0,0.0,0.0
0.06519705802202225,-0.2285189926624298,9.738577842712402,0.0068819567563605235,-0.009802826535580764,0.004683113641147397,2.2750039100646973,2019-06-21 12:50:26:131,0.0,0.0,0.0
0.11309205740690231,-0.24049273133277893,9.772104263305664,0.006748766452640236,-0.004208822075984073,0.002019302235217989,2.279111862182617,2019-06-21 12:50:26:135,0.0,0.0,0.0
0.06040756031870842,-0.23091374337673187,9.750551223754883,0.008080672090586358,0.002317516070100579,0.0004210154046640601,2.2850046157836914,2019-06-21 12:50:26:141,0.0,0.0,0.0
0.08674980700016022,-0.19499249756336212,9.77449893951416,0.0054168602945454634,-0.0010122483498576347,0.002685255184228213,2.2900171279907227,2019-06-21 12:50:26:146,0.0,0.0,0.0
0.06040756031870842,-0.26444023847579956,9.69547176361084,0.006349194501182075,0.0020511348124741917,0.0006873965322532847,2.294131278991699,2019-06-21 12:50:26:150,0.0,0.0,0.0
0.010117817670106888,-0.23091374337673187,9.717024803161621,0.003019430146242442,-0.007272205043260157,-0.00024493746307293734,2.300004482269287,2019-06-21 12:50:26:156,0.0,0.0,0.0
0.06998655945062637,-0.2500717341899872,9.73378849029541,0.005550051118414401,-0.0040756315121894615,-0.001976414938694705,2.3050107955932617,2019-06-21 12:50:26:161,0.0,0.0,0.0
0.0747760608792305,-0.2620454728603363,9.726603507995605,0.004484526608057502,-0.00660625248436142,-0.0011772714258898686,2.3091115951538086,2019-06-21 12:50:26:165,0.0,0.0,0.0
0.09632880985736847,-0.235703244805336,9.73378849029541,0.0023534773272693805,-0.0027437258742433386,-0.0027755584514995413,2.3150014877319336,2019-06-21 12:50:26:171,0.0,0.0,0.0
0.08196030557155609,-0.235703244805336,9.769709587097168,0.007281528707818685,-0.002077772925233114,0.0024188740566389883,2.319108009338379,2019-06-21 12:50:26:175,0.0,0.0,0.0
0.05322331190109253,-0.24049273133277893,9.752945899963379,0.005949623069872562,-7.991434640409003e-05,-0.003974273525651052,2.3250083923339844,2019-06-21 12:50:26:181,0.0,0.0,0.0
0.026881065219640732,-0.19978199899196625,9.764920234680176,0.007281528707818685,0.0019179442486795795,0.004816304465016335,2.3291168212890625,2019-06-21 12:50:26:185,0.0,0.0,0.0
0.0747760608792305,-0.26444023847579956,9.736183166503906,0.004084954916673665,-0.0040756315121894615,-0.00024493746307293734,2.3350486755371094,2019-06-21 12:50:26:191,0.0,0.0,0.0
0.04124956205487251,-0.17583449184894562,9.755340576171875,0.0022202867634747683,0.0013851819935011304,0.0013533494162449274,2.340017318725586,2019-06-21 12:50:26:196,0.0,0.0,0.0
0.05561806261539459,-0.20696623623371124,9.743367195129395,0.0058164322460036244,-0.003676059820805624,-0.001310461989684481,2.344111442565918,2019-06-21 12:50:26:200,0.0,0.0,0.0
0.08674980700016022,-0.2740192413330078,9.793657302856445,0.004884098039367014,0.001651563121090355,-0.0029087490152941535,2.3500022888183594,2019-06-21 12:50:26:206,0.0,0.0,0.0
0.050828561186790466,-0.21175573766231537,9.69547176361084,0.0038185737890844406,0.0007192291095094877,-0.006105322806439174,2.354109764099121,2019-06-21 12:50:26:210,0.0,0.0,0.0
0.043644312769174576,-0.2572559714317322,9.717024803161621,0.0056832419422833385,-0.0008790577860630224,-0.0017100338111054802,2.359114170074463,2019-06-21 12:50:26:215,0.0,0.0,0.0
0.07717081159353256,-0.22612424194812775,9.755340576171875,0.006748766452640236,-0.003143297565627175,-0.003707892398061828,2.3641128540039062,2019-06-21 12:50:26:220,0.0,0.0,0.0
0.0484338141977787,-0.2285189926624298,9.726603507995605,0.0054168602945454634,0.0011188008659119059,0.0005542059684586724,2.369999885559082,2019-06-21 12:50:26:226,0.0,0.0,0.0
0.0747760608792305,-0.26444023847579956,9.748156547546387,0.0042181454804682775,-7.991434640409003e-05,-0.0034415112704726026,2.3741073608398438,2019-06-21 12:50:26:230,0.0,0.0,0.0
0.024486316367983818,-0.23809799551963806,9.740972518920898,-0.00031033404615073726,0.0011188008659119059,-0.009168706033789581,2.3799962997436523,2019-06-21 12:50:26:236,0.0,0.0,0.0
0.03167056292295456,-0.19738724827766418,9.760130882263184,0.003951764352879053,0.0035162311442520897,0.0017529211076287644,2.3841171264648438,2019-06-21 12:50:26:240,0.0,0.0,0.0
0.04124956205487251,-0.27162447571754456,9.700262069702148,0.005283669990825176,0.0003196573856163601,0.0009537776598425092,2.38912296295166,2019-06-21 12:50:26:245,0.0,0.0,0.0
0.0005388186546042562,-0.21415048837661743,9.767314910888672,0.004084954916673665,-0.0040756315121894615,-0.006371703934028398,2.395005226135254,2019-06-21 12:50:26:251,0.0,0.0,0.0
0.024486316367983818,-0.21415048837661743,9.78647232055664,0.0027530490186532175,0.003383040580457477,-0.0038410829618564396,2.399113655090332,2019-06-21 12:50:26:255,0.0,0.0,0.0
0.03167056292295456,-0.28359824419021606,9.767314910888672,0.006216004197461787,0.003116659452868253,-0.007836799875694809,2.4049997329711914,2019-06-21 12:50:26:261,0.0,0.0,0.0
0.036460064351558685,-0.23091374337673187,9.800841331481934,0.0038185737890844406,-0.0018113917976438896,-0.005039798296082276,2.4091100692749023,2019-06-21 12:50:26:265,0.0,0.0,0.0
-0.009040179662406445,-0.2285189926624298,9.755340576171875,-0.00017714346610147965,0.0020511348124741917,-0.0051729885998025625,2.414113998413086,2019-06-21 12:50:26:270,0.0,0.0,0.0
-0.04256667569279671,-0.3219142258167267,9.719419479370117,0.0015543339445017069,0.0015183725572957428,-0.011432945358223666,2.4200010299682617,2019-06-21 12:50:26:276,0.0,0.0,0.0
0.012512567453086376,-0.21893998980522156,9.72420883178711,0.007281528707818685,-0.000213104918326025,-0.0033083207066779904,2.42410945892334,2019-06-21 12:50:26:280,0.0,0.0,0.0
-0.032987676560878754,-0.2620454728603363,9.767314910888672,0.005017288863235951,-0.0003462954983752826,-0.006105322806439174,2.4300012588500977,2019-06-21 12:50:26:286,0.0,0.0,0.0
-0.04256667569279671,-0.27162447571754456,9.80323600769043,0.0015543339445017069,0.005514089601171274,-0.008369562130873257,2.4341177940368652,2019-06-21 12:50:26:290,0.0,0.0,0.0
-0.08327741920948029,-0.28359824419021606,9.74576187133789,-0.00044352460994534954,0.002717087761484416,-0.0051729885998025625,2.4400014877319336,2019-06-21 12:50:26:296,0.0,0.0,0.0
-0.0497509241104126,-0.3003614842891693,9.77449893951416,0.0036853832252898284,0.0015183725572957428,-0.00730403762051636,2.4441099166870117,2019-06-21 12:50:26:300,0.0,0.0,0.0
-0.032987676560878754,-0.23809799551963806,9.772104263305664,8.92376858697129e-05,0.0020511348124741917,-0.005039798296082276,2.449997901916504,2019-06-21 12:50:26:306,0.0,0.0,0.0
-0.03059292770922184,-0.2620454728603363,9.776893615722656,-0.00044352460994534954,-0.002077772925233114,-0.010633802495604642,2.454113006591797,2019-06-21 12:50:26:310,0.0,0.0,0.0
-0.05932992324233055,-0.27162447571754456,9.76252555847168,0.005283669990825176,0.008444282004652744,-0.007170847316796072,2.4600000381469727,2019-06-21 12:50:26:316,0.0,0.0,0.0
-0.021013928577303886,-0.24767698347568512,9.73378849029541,-0.002840954920794824,0.0021843255063059668,-0.011832517309681828,2.4641103744506836,2019-06-21 12:50:26:320,0.0,0.0,0.0
0.0077230678871273994,-0.27880874276161194,9.69547176361084,-0.00044352460994534954,0.004848137042272538,-0.007969990699563747,2.470000743865967,2019-06-21 12:50:26:326,0.0,0.0,0.0
-0.028198176994919777,-0.26683497428894043,9.73378849029541,-0.00017714346610147965,0.006579614111528172,-0.004773416648344401,2.4741272926330566,2019-06-21 12:50:26:330,0.0,0.0,0.0
-0.025803428143262863,-0.2500717341899872,9.796051979064941,-0.0025745737932055994,0.0015183725572957428,-0.011832517309681828,2.4800186157226562,2019-06-21 12:50:26:336,0.0,0.0,0.0
-0.0066454303450882435,-0.24528223276138306,9.77449893951416,0.0018207150720909312,0.0019179442486795795,-0.008369562130873257,2.4841136932373047,2019-06-21 12:50:26:340,0.0,0.0,0.0
-0.013829679228365421,-0.2692297399044037,9.709840774536133,0.0010215716893232575,-0.0016782012338492774,-0.00823637182715297,2.489999771118164,2019-06-21 12:50:26:346,0.0,0.0,0.0
-0.032987676560878754,-0.23809799551963806,9.717024803161621,8.92376858697129e-05,0.0047149462184036,-0.005972131982570236,2.494110584259033,2019-06-21 12:50:26:350,0.0,0.0,0.0
-0.0066454303450882435,-0.24767698347568512,9.80323600769043,-0.00017714346610147965,0.001251991429706518,-0.005972131982570236,2.500000476837158,2019-06-21 12:50:26:356,0.0,0.0,0.0
-0.025803428143262863,-0.22612424194812775,9.810420036315918,0.0003556188378409054,0.0021843255063059668,-0.012098897917122403,2.5050106048583984,2019-06-21 12:50:26:361,0.0,0.0,0.0
-0.025803428143262863,-0.2548612356185913,9.776893615722656,0.0014211433807070943,0.003915802835635926,-0.00876913408233142,2.5091114044189453,2019-06-21 12:50:26:365,0.0,0.0,0.0
0.005328318104147911,-0.235703244805336,9.740972518920898,-0.002308192665616375,0.0011188008659119059,-0.009035514689771994,2.5150012969970703,2019-06-21 12:50:26:371,0.0,0.0,0.0
-0.04256667569279671,-0.24767698347568512,9.769709587097168,0.00022242825779164786,0.008843854476259556,-0.007437228444385297,2.5191121101379395,2019-06-21 12:50:26:375,0.0,0.0,0.0
-0.0234086774289608,-0.2740192413330078,9.74576187133789,-0.001775430280400763,0.00298346888907364,-0.008369562130873257,2.5250244140625,2019-06-21 12:50:26:381,0.0,0.0,0.0
-0.03059292770922184,-0.26683497428894043,9.750551223754883,-0.00031033404615073726,-0.0030101070018325625,-0.010500611151587054,2.529116630554199,2019-06-21 12:50:26:385,0.0,0.0,0.0
-0.0066454303450882435,-0.23809799551963806,9.848735809326172,-4.395289011588339e-05,0.0015183725572957428,-0.007037656492927135,2.534111976623535,2019-06-21 12:50:26:390,0.0,0.0,0.0
-0.028198176994919777,-0.27162447571754456,9.760130882263184,-0.00044352460994534954,0.0056472804250402115,-0.007570418748105583,2.539997100830078,2019-06-21 12:50:26:396,0.0,0.0,0.0
-0.028198176994919777,-0.2572559714317322,9.767314910888672,-0.0009762868976330894,0.0049813273459928245,-0.007437228444385297,2.5441112518310547,2019-06-21 12:50:26:400,0.0,0.0,0.0
-0.040171924978494644,-0.26444023847579956,9.76252555847168,-0.002308192665616375,0.001651563121090355,-0.007170847316796072,2.549997329711914,2019-06-21 12:50:26:406,0.0,0.0,0.0
0.0077230678871273994,-0.235703244805336,9.719419479370117,0.0011547622531178697,0.005247708473582049,-0.007836799875694809,2.5541086196899414,2019-06-21 12:50:26:410,0.0,0.0,0.0
0.04124956205487251,-0.23091374337673187,9.77449893951416,-0.002308192665616375,0.004448565090814376,-0.004240654653240277,2.559999465942383,2019-06-21 12:50:26:416,0.0,0.0,0.0
0.0005388186546042562,-0.26444023847579956,9.740972518920898,0.0008883811255286454,0.0049813273459928245,-0.004240654653240277,2.564110279083252,2019-06-21 12:50:26:420,0.0,0.0,0.0
0.0005388186546042562,-0.24767698347568512,9.726603507995605,0.0028862395824478296,0.005913661552629436,-0.003041939579088766,2.5700020790100098,2019-06-21 12:50:26:426,0.0,0.0,0.0
0.0077230678871273994,-0.19499249756336212,9.68349838256836,-0.0011094774614277016,0.005514089601171274,-0.004640226344624114,2.57413387298584,2019-06-21 12:50:26:430,0.0,0.0,0.0
0.0005388186546042562,-0.22372949123382568,9.719419479370117,0.0004888094016355178,0.003915802835635926,0.0005542059684586724,2.5791168212890625,2019-06-21 12:50:26:435,0.0,0.0,0.0
0.005328318104147911,-0.2500717341899872,9.755340576171875,-0.0011094774614277016,0.005114518169861762,-0.0011772714258898686,2.5850067138671875,2019-06-21 12:50:26:441,0.0,0.0,0.0
0.0005388186546042562,-0.22133474051952362,9.690682411193848,0.0024866678910639927,0.002450706633895191,0.005215875896325846,2.5891122817993164,2019-06-21 12:50:26:445,0.0,0.0,0.0
0.036460064351558685,-0.26683497428894043,9.719419479370117,-0.000843096333838477,0.005380899297450987,0.004816304465016335,2.594999313354492,2019-06-21 12:50:26:451,0.0,0.0,0.0
-0.03538242727518082,-0.2165452390909195,9.738577842712402,-0.00017714346610147965,0.0056472804250402115,0.004949494768736622,2.5991101264953613,2019-06-21 12:50:26:455,0.0,0.0,0.0
0.03406531363725662,-0.27880874276161194,9.726603507995605,-0.0025745737932055994,0.0003196573856163601,0.0022856834928443757,2.6050305366516113,2019-06-21 12:50:26:461,0.0,0.0,0.0
-0.013829679228365421,-0.2620454728603363,9.709840774536133,-0.0005767152062492525,0.004848137042272538,0.001619730543834152,2.6091160774230957,2019-06-21 12:50:26:465,0.0,0.0,0.0
0.0005388186546042562,-0.2764139771461487,9.760130882263184,-0.001642239716606151,0.006979186062986335,0.002685255184228213,2.615025520324707,2019-06-21 12:50:26:471,0.0,0.0,0.0
-0.047356173396110535,-0.22372949123382568,9.736183166503906,-0.0007099057700438648,0.0041821839632251515,0.004816304465016335,2.620011806488037,2019-06-21 12:50:26:476,0.0,0.0,0.0
-0.0234086774289608,-0.25965073704719543,9.764920234680176,0.0015543339445017069,0.0035162311442520897,0.006015019279093521,2.6241087913513184,2019-06-21 12:50:26:480,0.0,0.0,0.0
-0.0018559310119599104,-0.2692297399044037,9.697867393493652,-0.00031033404615073726,0.0041821839632251515,0.013207310764299884,2.630002021789551,2019-06-21 12:50:26:486,0.0,0.0,0.0
0.014907317236065865,-0.25965073704719543,9.788866996765137,8.92376858697129e-05,0.007378757494295846,0.006148210102962458,2.6341123580932617,2019-06-21 12:50:26:490,0.0,0.0,0.0
-0.01622442901134491,-0.2620454728603363,9.808025360107422,-0.0044392419464044965,0.007112376366706621,0.006680972358140907,2.639113426208496,2019-06-21 12:50:26:495,0.0,0.0,0.0
0.01730206608772278,-0.242887482047081,9.80323600769043,0.001287952816912482,0.007378757494295846,0.01147583265474695,2.6450018882751465,2019-06-21 12:50:26:501,0.0,0.0,0.0
0.01969681680202484,-0.29078248143196106,9.784077644348145,-0.002308192665616375,0.004581755914683313,0.01134264235102666,2.6491127014160156,2019-06-21 12:50:26:505,0.0,0.0,0.0
0.04603906348347664,-0.23330849409103394,9.812814712524414,-4.395289011588339e-05,0.0041821839632251515,0.020665982336798172,2.6550025939941406,2019-06-21 12:50:26:511,0.0,0.0,0.0
0.012512567453086376,-0.2620454728603363,9.776893615722656,0.0015543339445017069,0.0025838971976898037,0.01147583265474695,2.659111499786377,2019-06-21 12:50:26:515,0.0,0.0,0.0
-0.01622442901134491,-0.2165452390909195,9.707446098327637,-0.0035069077397678855,0.003649421708046702,0.01134264235102666,2.66500186920166,2019-06-21 12:50:26:521,0.0,0.0,0.0
0.014907317236065865,-0.2764139771461487,9.772104263305664,-0.000843096333838477,0.0028502783252790285,0.01334050106802017,2.6691365242004395,2019-06-21 12:50:26:525,0.0,0.0,0.0
0.050828561186790466,-0.2548612356185913,9.72420883178711,-0.0031073360483840485,0.0017847536848849673,0.018135361364626214,2.6750049591064453,2019-06-21 12:50:26:531,0.0,0.0,0.0
0.012512567453086376,-0.24528223276138306,9.796051979064941,0.0028862395824478296,0.010841712152955764,0.022397459406053807,2.679110527038574,2019-06-21 12:50:26:535,0.0,0.0,0.0
0.03167056292295456,-0.2572559714317322,9.767314910888672,0.0010215716893232575,0.004048993399430539,0.02226427014263082,2.6850051879882812,2019-06-21 12:50:26:541,0.0,0.0,0.0
0.06519705802202225,-0.28359824419021606,9.760130882263184,0.0010215716893232575,-0.0006126766584737978,0.019067694530965525,2.68911075592041,2019-06-21 12:50:26:545,0.0,0.0,0.0
0.0484338141977787,-0.24049273133277893,9.738577842712402,0.0023534773272693805,0.0021843255063059668,0.020665982336798172,2.695003032684326,2019-06-21 12:50:26:551,0.0,0.0,0.0
0.01730206608772278,-0.25965073704719543,9.750551223754883,-0.00017714346610147965,0.002450706633895191,0.018401741972066787,2.699110984802246,2019-06-21 12:50:26:555,0.0,0.0,0.0
0.06519705802202225,-0.28599298000335693,9.685893058776855,0.0006219999979394207,0.001251991429706518,0.02173150684715507,2.706301212310791,2019-06-21 12:50:26:563,0.0,0.0,0.0
0.022091565653681755,-0.24767698347568512,9.700262069702148,0.000755190561734033,-0.0008790577860630224,0.02332979465298772,2.7156639099121094,2019-06-21 12:50:26:572,0.0,0.0,0.0
0.03167056292295456,-0.2572559714317322,9.707446098327637,0.00608281337359285,0.004581755914683313,0.027991464645873477,2.7206344604492188,2019-06-21 12:50:26:577,0.0,0.0,0.0
0.043644312769174576,-0.25246649980545044,9.74576187133789,-0.004039669994946335,0.002317516070100579,0.021465126239714496,2.725618362426758,2019-06-21 12:50:26:582,0.0,0.0,0.0
0.06519705802202225,-0.25965073704719543,9.738577842712402,8.92376858697129e-05,0.003782612271841314,0.024928080378225765,2.730593681335449,2019-06-21 12:50:26:587,0.0,0.0,0.0
0.03885481506586075,-0.25246649980545044,9.738577842712402,-0.0019086208441953755,-0.0015450106700546653,0.018934505267542538,2.735611915588379,2019-06-21 12:50:26:592,0.0,0.0,0.0
0.03885481506586075,-0.25965073704719543,9.736183166503906,0.001687524508296319,0.002717087761484416,0.022131078798613233,2.7405686378479004,2019-06-21 12:50:26:597,0.0,0.0,0.0
0.05561806261539459,-0.24767698347568512,9.726603507995605,0.00435133604426289,0.002450706633895191,0.019067694530965525,2.7456159591674805,2019-06-21 12:50:26:602,0.0,0.0,0.0
0.08196030557155609,-0.2620454728603363,9.736183166503906,0.0011547622531178697,0.001651563121090355,0.019467266482423685,2.7505807876586914,2019-06-21 12:50:26:607,0.0,0.0,0.0
0.06998655945062637,-0.20696623623371124,9.76252555847168,-0.0009762868976330894,0.0021843255063059668,0.021465126239714496,2.755631446838379,2019-06-21 12:50:26:612,0.0,0.0,0.0
0.11309205740690231,-0.2285189926624298,9.808025360107422,0.0006219999979394207,0.0004528479494109724,0.017602600149745067,2.760068893432617,2019-06-21 12:50:26:616,0.0,0.0,0.0
0.11788155138492584,-0.24049273133277893,9.748156547546387,-0.0020418114079899874,-0.0010122483498576347,0.016270692951352993,2.764136791229248,2019-06-21 12:50:26:620,0.0,0.0,0.0
0.09153930842876434,-0.24528223276138306,9.798446655273438,-0.000843096333838477,-7.991434640409003e-05,0.018534933316084377,2.769990921020508,2019-06-21 12:50:26:626,0.0,0.0,0.0
0.1466185450553894,-0.2548612356185913,9.714630126953125,0.001687524508296319,0.002717087761484416,0.01733621850200719,2.774102210998535,2019-06-21 12:50:26:630,0.0,0.0,0.0
0.08914455771446228,-0.242887482047081,9.688287734985352,-0.001642239716606151,-0.002477344746654114,0.016537074599090866,2.7799997329711914,2019-06-21 12:50:26:636,0.0,0.0,0.0
0.1274605542421341,-0.2548612356185913,9.776893615722656,0.0015543339445017069,0.0004528479494109724,0.017069836854269313,2.784113883972168,2019-06-21 12:50:26:640,0.0,0.0,0.0
0.16338180005550385,-0.22133474051952362,9.714630126953125,-0.0033737171759732733,0.0028502783252790285,0.016137502647632706,2.7899932861328125,2019-06-21 12:50:26:646,0.0,0.0,0.0
0.12985530495643616,-0.19259774684906006,9.812814712524414,-0.004172860558740947,0.0076451386218850705,0.011209452047306374,2.7941036224365234,2019-06-21 12:50:26:650,0.0,0.0,0.0
0.18732929229736328,-0.235703244805336,9.714630126953125,-0.001775430280400763,0.0032498500166628654,0.012674548509121435,2.799999237060547,2019-06-21 12:50:26:656,0.0,0.0,0.0
0.16338180005550385,-0.242887482047081,9.714630126953125,-0.0055047664567613955,0.009509807035158293,0.017203027157989603,2.8041305541992188,2019-06-21 12:50:26:660,0.0,0.0,0.0
0.0939340591430664,-0.16865025460720062,9.714630126953125,0.0004888094016355178,0.006579614111528172,0.007746496868497805,2.8100204467773438,2019-06-21 12:50:26:666,0.0,0.0,0.0
0.1394343078136444,-0.24049273133277893,9.645182609558105,-0.0032405266121786607,-0.0003462954983752826,0.014272835274656783,2.814112663269043,2019-06-21 12:50:26:670,0.0,0.0,0.0
0.15140804648399353,-0.21415048837661743,9.738577842712402,-0.00044352460994534954,0.0028502783252790285,0.009744355585491315,2.8199920654296875,2019-06-21 12:50:26:676,0.0,0.0,0.0
0.20888204872608185,-0.24767698347568512,9.740972518920898,-0.001642239716606151,0.002717087761484416,0.011875404606205111,2.8241052627563477,2019-06-21 12:50:26:680,0.0,0.0,0.0
0.16338180005550385,-0.24049273133277893,9.721814155578613,-0.0044392419464044965,0.006979186062986335,0.0009537776598425092,2.8299975395202637,2019-06-21 12:50:26:686,0.0,0.0,0.0
0.17775028944015503,-0.21893998980522156,9.760130882263184,-0.002974145484589436,0.0020511348124741917,0.008678831075134416,2.834109306335449,2019-06-21 12:50:26:690,0.0,0.0,0.0
0.18253979086875916,-0.26683497428894043,9.726603507995605,-0.0063039098395290686,0.0003196573856163601,0.005615447847784009,2.83998966217041,2019-06-21 12:50:26:696,0.0,0.0,0.0
0.20648729801177979,-0.17343974113464355,9.666735649108887,0.0036853832252898284,-0.0014118201062600529,0.007080543789450418,2.844104766845703,2019-06-21 12:50:26:700,0.0,0.0,0.0
0.2184610366821289,-0.18062399327754974,9.788866996765137,-0.003906479431151722,0.0013851819935011304,0.005881828975373233,2.8500518798828125,2019-06-21 12:50:26:706,0.0,0.0,0.0
0.17535555362701416,-0.2285189926624298,9.73378849029541,-0.00017714346610147965,0.0017847536848849673,0.00428354194976356,2.854127883911133,2019-06-21 12:50:26:710,0.0,0.0,0.0
0.25438228249549866,-0.18541349470615387,9.781682968139648,-0.0032405266121786607,0.002450706633895191,0.006148210102962458,2.859988212585449,2019-06-21 12:50:26:716,0.0,0.0,0.0
0.22085578739643097,-0.14949224889278412,9.78647232055664,-0.0021750019717846,0.004581755914683313,2.1443682802763245e-05,2.8641061782836914,2019-06-21 12:50:26:720,0.0,0.0,0.0
0.18493454158306122,-0.19738724827766418,9.748156547546387,0.003951764352879053,0.004048993399430539,0.0033512080032012744,2.8700008392333984,2019-06-21 12:50:26:726,0.0,0.0,0.0
0.17775028944015503,-0.21893998980522156,9.77449893951416,-0.0031073360483840485,0.003116659452868253,-0.0011772714258898686,2.8741111755371094,2019-06-21 12:50:26:730,0.0,0.0,0.0
0.21367153525352478,-0.235703244805336,9.726603507995605,-0.006969862398427805,0.0019179442486795795,-0.000378128043122195,2.8799867630004883,2019-06-21 12:50:26:736,0.0,0.0,0.0
0.23043479025363922,-0.27162447571754456,9.788866996765137,0.002619858454858605,0.002317516070100579,-0.001976414938694705,2.884103775024414,2019-06-21 12:50:26:740,0.0,0.0,0.0
0.23043479025363922,-0.22372949123382568,9.757735252380371,0.001687524508296319,0.004315374527019763,-0.0017100338111054802,2.8900318145751953,2019-06-21 12:50:26:746,0.0,0.0,0.0
0.17535555362701416,-0.25246649980545044,9.76252555847168,0.0006219999979394207,0.0032498500166628654,-0.002642367627630604,2.894139289855957,2019-06-21 12:50:26:750,0.0,0.0,0.0
0.20888204872608185,-0.22133474051952362,9.750551223754883,-0.0007099057700438648,0.003782612271841314,-0.001310461989684481,2.899996757507324,2019-06-21 12:50:26:756,0.0,0.0,0.0
0.23522429168224335,-0.1710449904203415,9.772104263305664,-0.0035069077397678855,0.001651563121090355,-0.002242795936246767,2.9041242599487305,2019-06-21 12:50:26:760,0.0,0.0,0.0
0.21367153525352478,-0.2572559714317322,9.79126262664795,0.000755190561734033,-0.0004794860621698949,-0.003974273525651052,2.910000801086426,2019-06-21 12:50:26:766,0.0,0.0,0.0
0.23282954096794128,-0.190202996134758,9.779288291931152,8.92376858697129e-05,0.0028502783252790285,-0.0017100338111054802,2.9141082763671875,2019-06-21 12:50:26:770,0.0,0.0,0.0
0.22804003953933716,-0.242887482047081,9.776893615722656,-0.004972004201582946,0.003649421708046702,-0.003974273525651052,2.9199914932250977,2019-06-21 12:50:26:776,0.0,0.0,0.0
0.22085578739643097,-0.26683497428894043,9.693077087402344,0.0008883811255286454,0.003383040580457477,-0.004773416648344401,2.9241037368774414,2019-06-21 12:50:26:780,0.0,0.0,0.0
0.22804003953933716,-0.14949224889278412,9.647577285766602,0.0006219999979394207,0.0047149462184036,-0.00730403762051636,2.9300031661987305,2019-06-21 12:50:26:786,0.0,0.0,0.0
0.23043479025363922,-0.21175573766231537,9.697867393493652,-0.0011094774614277016,0.002717087761484416,-0.0014436525534790934,2.934293746948242,2019-06-21 12:50:26:791,0.0,0.0,0.0
0.24719803035259247,-0.22133474051952362,9.731393814086914,0.0018207150720909312,0.0005860385457148754,-0.004906607472213338,2.940009117126465,2019-06-21 12:50:26:796,0.0,0.0,0.0
0.26156654953956604,-0.1830187439918518,9.798446655273438,-0.00044352460994534954,-0.0040756315121894615,-0.007836799875694809,2.9441280364990234,2019-06-21 12:50:26:800,0.0,0.0,0.0
0.2831192910671234,-0.23809799551963806,9.743367195129395,0.0019539056358855436,0.004581755914683313,-0.0027755584514995413,2.9499940872192383,2019-06-21 12:50:26:806,0.0,0.0,0.0
0.26156654953956604,-0.2165452390909195,9.712235450744629,0.0006219999979394207,0.005114518169861762,-0.011033373406765504,2.954103946685791,2019-06-21 12:50:26:810,0.0,0.0,0.0
0.25438228249549866,-0.21893998980522156,9.769709587097168,0.0003556188378409054,-7.991434640409003e-05,-0.006504894237748685,2.9599976539611816,2019-06-21 12:50:26:816,0.0,0.0,0.0
0.2567770481109619,-0.23330849409103394,9.709840774536133,0.0008883811255286454,0.0008524196733041,-0.005705750854981011,2.9641103744506836,2019-06-21 12:50:26:820,0.0,0.0,0.0
0.2831192910671234,-0.22372949123382568,9.752945899963379,-0.0021750019717846,0.004848137042272538,-0.0053061794236715,2.969991683959961,2019-06-21 12:50:26:826,0.0,0.0,0.0
0.2903035283088684,-0.2165452390909195,9.79126262664795,-0.0025745737932055994,0.0035162311442520897,-0.0066380850616176235,2.9741034507751465,2019-06-21 12:50:26:830,0.0,0.0,0.0
0.29269829392433167,-0.23091374337673187,9.808025360107422,8.92376858697129e-05,0.0032498500166628654,-0.006238513110159461,2.980003833770752,2019-06-21 12:50:26:836,0.0,0.0,0.0
0.2711455225944519,-0.19978199899196625,9.712235450744629,-0.0032405266121786607,-0.0016782012338492774,-0.006238513110159461,2.9841160774230957,2019-06-21 12:50:26:840,0.0,0.0,0.0
0.24719803035259247,-0.22612424194812775,9.740972518920898,-0.0013758585890169264,-0.0015450106700546653,-0.006238513110159461,2.9900131225585938,2019-06-21 12:50:26:846,0.0,0.0,0.0
0.2567770481109619,-0.20457148551940918,9.793657302856445,-0.0011094774614277016,0.004048993399430539,-0.007170847316796072,2.994112491607666,2019-06-21 12:50:26:850,0.0,0.0,0.0
0.2783297896385193,-0.22133474051952362,9.752945899963379,0.0038185737890844406,0.0007192291095094877,-0.004640226344624114,2.999990463256836,2019-06-21 12:50:26:856,0.0,0.0,0.0
0.26156654953956604,-0.25965073704719543,9.72420883178711,-4.395289011588339e-05,0.0017847536848849673,-0.006504894237748685,3.0041050910949707,2019-06-21 12:50:26:860,0.0,0.0,0.0
0.2855140268802643,-0.17822924256324768,9.769709587097168,-0.002308192665616375,-7.991434640409003e-05,-0.007170847316796072,3.009998321533203,2019-06-21 12:50:26:866,0.0,0.0,0.0
0.27354028820991516,-0.22133474051952362,9.688287734985352,0.0019539056358855436,0.004315374527019763,-0.007836799875694809,3.014113426208496,2019-06-21 12:50:26:870,0.0,0.0,0.0
0.2591717839241028,-0.2572559714317322,9.726603507995605,0.0038185737890844406,0.0041821839632251515,-0.004906607472213338,3.0199923515319824,2019-06-21 12:50:26:876,0.0,0.0,0.0
0.28072452545166016,-0.22133474051952362,9.776893615722656,8.92376858697129e-05,-0.00074586722226841,-0.004107464089445664,3.0241036415100098,2019-06-21 12:50:26:880,0.0,0.0,0.0
0.22804003953933716,-0.21415048837661743,9.74576187133789,8.92376858697129e-05,-0.0003462954983752826,-0.008502752954742196,3.030059814453125,2019-06-21 12:50:26:886,0.0,0.0,0.0
0.26875078678131104,-0.19259774684906006,9.72420883178711,-0.000843096333838477,-0.0023441541828595016,-0.004640226344624114,3.0350141525268555,2019-06-21 12:50:26:891,0.0,0.0,0.0
0.2783297896385193,-0.20457148551940918,9.73378849029541,-0.0033737171759732733,0.0035162311442520897,-0.006105322806439174,3.0391035079956055,2019-06-21 12:50:26:895,0.0,0.0,0.0
0.28072452545166016,-0.2285189926624298,9.731393814086914,0.003019430146242442,0.001651563121090355,-0.0051729885998025625,3.0449986457824707,2019-06-21 12:50:26:901,0.0,0.0,0.0
0.23282954096794128,-0.2285189926624298,9.755340576171875,0.0046177169117777896,-7.991434640409003e-05,-0.003574701834267215,3.0491132736206055,2019-06-21 12:50:26:905,0.0,0.0,0.0
0.27354028820991516,-0.19499249756336212,9.678709030151367,0.005550051118414401,0.0001864668055671025,-0.004773416648344401,3.054997444152832,2019-06-21 12:50:26:911,0.0,0.0,0.0
0.2639612853527069,-0.21893998980522156,9.76252555847168,0.0034190020977006037,-0.0018113917976438896,-0.00823637182715297,3.059133529663086,2019-06-21 12:50:26:915,0.0,0.0,0.0
0.2711455225944519,-0.19259774684906006,9.743367195129395,0.003019430146242442,0.0005860385457148754,-0.004906607472213338,3.0650105476379395,2019-06-21 12:50:26:921,0.0,0.0,0.0
0.28072452545166016,-0.2285189926624298,9.731393814086914,0.00022242825779164786,0.001251991429706518,0.0008205870960478969,3.0691189765930176,2019-06-21 12:50:26:925,0.0,0.0,0.0
0.24001379311084747,-0.2021767497062683,9.736183166503906,0.0038185737890844406,0.0017847536848849673,-0.007969990699563747,3.0741443634033203,2019-06-21 12:50:26:930,0.0,0.0,0.0
0.2591717839241028,-0.23091374337673187,9.764920234680176,0.0010215716893232575,0.0003196573856163601,-0.005039798296082276,3.080009937286377,2019-06-21 12:50:26:936,0.0,0.0,0.0
0.2639612853527069,-0.21415048837661743,9.73378849029541,0.006615575628771298,-0.0023441541828595016,0.0006873965322532847,3.0841197967529297,2019-06-21 12:50:26:940,0.0,0.0,0.0
0.22804003953933716,-0.24049273133277893,9.676314353942871,0.0036853832252898284,-0.001944582361438502,-0.003707892398061828,3.090007781982422,2019-06-21 12:50:26:946,0.0,0.0,0.0
0.23522429168224335,-0.20696623623371124,9.72420883178711,0.0038185737890844406,0.0025838971976898037,-0.001976414938694705,3.0941147804260254,2019-06-21 12:50:26:950,0.0,0.0,0.0
0.26156654953956604,-0.18062399327754974,9.748156547546387,0.0038185737890844406,-0.006073490229182971,0.0010869682236371214,3.1000022888183594,2019-06-21 12:50:26:956,0.0,0.0,0.0
0.25438228249549866,-0.24528223276138306,9.76252555847168,0.0036853832252898284,0.0013851819935011304,-0.004240654653240277,3.1041202545166016,2019-06-21 12:50:26:960,0.0,0.0,0.0
0.23522429168224335,-0.21415048837661743,9.757735252380371,0.0046177169117777896,0.0013851819935011304,-0.001976414938694705,3.110008716583252,2019-06-21 12:50:26:966,0.0,0.0,0.0
0.2256452888250351,-0.21893998980522156,9.717024803161621,0.000755190561734033,0.0001864668055671025,-0.0038410829618564396,3.114126205444336,2019-06-21 12:50:26:970,0.0,0.0,0.0
0.21606628596782684,-0.2165452390909195,9.736183166503906,0.005550051118414401,0.0011188008659119059,-0.0009108902983006441,3.1200084686279297,2019-06-21 12:50:26:976,0.0,0.0,0.0
0.1993030458688736,-0.20457148551940918,9.728999137878418,0.0036853832252898284,-0.0012786295424654405,-0.005039798296082276,3.1241235733032227,2019-06-21 12:50:26:980,0.0,0.0,0.0
0.2256452888250351,-0.22612424194812775,9.73378849029541,0.005283669990825176,-0.0032764881294217877,-0.00011174689115100237,3.129119873046875,2019-06-21 12:50:26:985,0.0,0.0,0.0
0.18253979086875916,-0.23809799551963806,9.740972518920898,0.005150479166956239,0.002317516070100579,-0.0027755584514995413,3.135006904602051,2019-06-21 12:50:26:991,0.0,0.0,0.0
0.20648729801177979,-0.20457148551940918,9.736183166503906,-0.0027077643570002116,0.0008524196733041,0.0024188740566389883,3.1391172409057617,2019-06-21 12:50:26:995,0.0,0.0,0.0
0.11788155138492584,-0.19978199899196625,9.781682968139648,0.0018207150720909312,-0.0023441541828595016,0.0010869682236371214,3.145003318786621,2019-06-21 12:50:27:001,0.0,0.0,0.0
0.15140804648399353,-0.2093609869480133,9.776893615722656,8.92376858697129e-05,-0.0040756315121894615,0.0014865399800395396,3.149118423461914,2019-06-21 12:50:27:005,0.0,0.0,0.0
0.17535555362701416,-0.24528223276138306,9.736183166503906,0.000755190561734033,0.0005860385457148754,0.0010869682236371214,3.155013084411621,2019-06-21 12:50:27:011,0.0,0.0,0.0
0.17056605219841003,-0.21175573766231537,9.688287734985352,0.0046177169117777896,0.0025838971976898037,-0.001310461989684481,3.159121513366699,2019-06-21 12:50:27:015,0.0,0.0,0.0
0.17535555362701416,-0.2572559714317322,9.676314353942871,0.006748766452640236,-0.0015450106700546653,0.0014865399800395396,3.1641359329223633,2019-06-21 12:50:27:020,0.0,0.0,0.0
0.1921187937259674,-0.20457148551940918,9.76252555847168,0.0064823853250510115,0.0009856102370987122,0.0028184457480228253,3.1700057983398438,2019-06-21 12:50:27:026,0.0,0.0,0.0
0.1538027971982956,-0.24528223276138306,9.752945899963379,0.0031526207100370544,0.0004528479494109724,-0.000378128043122195,3.174118995666504,2019-06-21 12:50:27:030,0.0,0.0,0.0
0.1394343078136444,-0.23809799551963806,9.796051979064941,0.0035521926614952163,-0.0004794860621698949,0.0008205870960478969,3.1800079345703125,2019-06-21 12:50:27:036,0.0,0.0,0.0
0.17056605219841003,-0.24049273133277893,9.707446098327637,0.0028862395824478296,-0.00074586722226841,0.002152492799012601,3.184115409851074,2019-06-21 12:50:27:040,0.0,0.0,0.0
0.16098704934120178,-0.20696623623371124,9.688287734985352,0.005017288863235951,-0.003676059820805624,-0.001976414938694705,3.1900033950805664,2019-06-21 12:50:27:046,0.0,0.0,0.0
0.1801450401544571,-0.2620454728603363,9.65476131439209,0.0068819567563605235,-0.0006126766584737978,0.0025520646204336005,3.194119453430176,2019-06-21 12:50:27:050,0.0,0.0,0.0
0.12267105281352997,-0.22133474051952362,9.736183166503906,0.0022202867634747683,-0.0056739182777248084,-0.0014436525534790934,3.2000060081481934,2019-06-21 12:50:27:056,0.0,0.0,0.0
0.15619754791259766,-0.242887482047081,9.69547176361084,0.004484526608057502,0.0015183725572957428,0.0004210154046640601,3.2041144371032715,2019-06-21 12:50:27:060,0.0,0.0,0.0
0.14901329576969147,-0.26683497428894043,9.781682968139648,0.000755190561734033,0.0003196573856163601,-0.00024493746307293734,3.2100343704223633,2019-06-21 12:50:27:066,0.0,0.0,0.0
0.1394343078136444,-0.24528223276138306,9.738577842712402,0.0028862395824478296,0.0025838971976898037,-0.001310461989684481,3.2141294479370117,2019-06-21 12:50:27:070,0.0,0.0,0.0
0.10830255597829819,-0.26444023847579956,9.78647232055664,0.0008883811255286454,-0.0010122483498576347,-0.006238513110159461,3.220004081726074,2019-06-21 12:50:27:076,0.0,0.0,0.0
0.09153930842876434,-0.26683497428894043,9.76252555847168,0.0028862395824478296,-0.0030101070018325625,-0.006238513110159461,3.2241158485412598,2019-06-21 12:50:27:080,0.0,0.0,0.0
0.13225005567073822,-0.26444023847579956,9.726603507995605,0.0038185737890844406,0.001651563121090355,0.0005542059684586724,3.2300024032592773,2019-06-21 12:50:27:086,0.0,0.0,0.0
0.1466185450553894,-0.25246649980545044,9.728999137878418,0.0076811001391281965,-0.0023441541828595016,-0.003574701834267215,3.2341175079345703,2019-06-21 12:50:27:090,0.0,0.0,0.0
0.14182904362678528,-0.2740192413330078,9.750551223754883,0.0023534773272693805,-0.0018113917976438896,-0.0053061794236715,3.240001678466797,2019-06-21 12:50:27:096,0.0,0.0,0.0
0.1394343078136444,-0.23809799551963806,9.740972518920898,0.0036853832252898284,0.0011188008659119059,-0.004773416648344401,3.2441163063049316,2019-06-21 12:50:27:100,0.0,0.0,0.0
0.1394343078136444,-0.21893998980522156,9.84394645690918,0.002619858454858605,0.0013851819935011304,-0.003574701834267215,3.250004291534424,2019-06-21 12:50:27:106,0.0,0.0,0.0
0.13225005567073822,-0.22612424194812775,9.750551223754883,0.007547909835407911,-0.000213104918326025,-0.0023759865000413795,3.2541351318359375,2019-06-21 12:50:27:110,0.0,0.0,0.0
0.07717081159353256,-0.23809799551963806,9.690682411193848,0.0058164322460036244,-0.002210963619064889,-0.004640226344624114,3.260044574737549,2019-06-21 12:50:27:116,0.0,0.0,0.0
0.13225005567073822,-0.24528223276138306,9.743367195129395,0.0010215716893232575,-0.0027437258742433386,-0.0011772714258898686,3.2641191482543945,2019-06-21 12:50:27:120,0.0,0.0,0.0
0.1274605542421341,-0.20696623623371124,9.800841331481934,-0.002308192665616375,-0.0008790577860630224,-0.00677127536533791,3.270000457763672,2019-06-21 12:50:27:126,0.0,0.0,0.0
0.16338180005550385,-0.28359824419021606,9.748156547546387,0.00608281337359285,-0.0003462954983752826,-0.0066380850616176235,3.2741146087646484,2019-06-21 12:50:27:130,0.0,0.0,0.0
0.13464480638504028,-0.22612424194812775,9.750551223754883,0.0010215716893232575,-0.004208822075984073,-0.0023759865000413795,3.2799954414367676,2019-06-21 12:50:27:136,0.0,0.0,0.0
0.0939340591430664,-0.242887482047081,9.764920234680176,0.003285811533905992,-0.0008790577860630224,-0.007037656492927135,3.284111499786377,2019-06-21 12:50:27:140,0.0,0.0,0.0
0.1274605542421341,-0.2740192413330078,9.776893615722656,0.007281528707818685,-0.0028769164380379507,-0.005439369727391787,3.2900004386901855,2019-06-21 12:50:27:146,0.0,0.0,0.0
0.1274605542421341,-0.22133474051952362,9.750551223754883,0.009146196080794608,-0.002210963619064889,-0.0015768431172737056,3.2941131591796875,2019-06-21 12:50:27:150,0.0,0.0,0.0
0.1202763020992279,-0.2165452390909195,9.738577842712402,0.0042181454804682775,-0.00074586722226841,-0.007037656492927135,3.3000030517578125,2019-06-21 12:50:27:156,0.0,0.0,0.0
0.13703955709934235,-0.26444023847579956,9.77449893951416,-0.00031033404615073726,-0.0023441541828595016,0.0022856834928443757,3.304133415222168,2019-06-21 12:50:27:160,0.0,0.0,0.0
0.11548680067062378,-0.242887482047081,9.76252555847168,0.0020870961996801557,-0.003542869257011012,0.0005542059684586724,3.310011863708496,2019-06-21 12:50:27:166,0.0,0.0,0.0
0.08914455771446228,-0.2620454728603363,9.74576187133789,0.0027530490186532175,-0.0015450106700546653,-0.003574701834267215,3.3141160011291504,2019-06-21 12:50:27:170,0.0,0.0,0.0
0.14901329576969147,-0.2620454728603363,9.748156547546387,0.0058164322460036244,0.0008524196733041,-0.002109605502489317,3.3200016021728516,2019-06-21 12:50:27:176,0.0,0.0,0.0
0.06280230730772018,-0.18780824542045593,9.690682411193848,0.0038185737890844406,0.0005860385457148754,-0.0033083207066779904,3.3241147994995117,2019-06-21 12:50:27:180,0.0,0.0,0.0
