ACCELEROMETER X (m/s²),ACCELEROMETER Y (m/s²),ACCELEROMETER Z (m/s²),GYROSCOPE X (rad/s),GYROSCOPE Y (rad/s),GYROSCOPE Z (rad/s),Time since start in ms ,YYYY-MO-DD HH-MI-SS_SSS,MagX,MagY,MagZ
0.1274605542421341,-0.16865025460720062,9.779288291931152,0.005283669990825176,0.002717087761484416,0.008545640251265479,0.0,2019-06-21 12:48:45:291,0.0,0.0,0.0
0.06280230730772018,-0.21175573766231537,9.779288291931152,0.0038185737890844406,0.0003196573856163601,0.0053490667201947836,0.005890846252441406,2019-06-21 12:48:45:297,0.0,0.0,0.0
0.10590780526399612,-0.20457148551940918,9.721814155578613,0.0010215716893232575,0.0007192291095094877,0.007879687172218092,0.010002613067626953,2019-06-21 12:48:45:301,0.0,0.0,0.0
0.06040756031870842,-0.17583449184894562,9.738577842712402,-0.0015090491528115383,-0.006073490229182971,0.00947797393775344,0.015882015228271484,2019-06-21 12:48:45:307,0.0,0.0,0.0
0.09632880985736847,-0.18541349470615387,9.772104263305664,-0.0009762868976330894,-0.002210963619064889,0.010277117840669764,0.020006179809570312,2019-06-21 12:48:45:311,0.0,0.0,0.0
0.09632880985736847,-0.19259774684906006,9.805630683898926,0.005150479166956239,0.0008524196733041,0.005881828975373233,0.025890350341796875,2019-06-21 12:48:45:317,0.0,0.0,0.0
0.13703955709934235,-0.17343974113464355,9.767314910888672,0.001687524508296319,0.0041821839632251515,0.005215875896325846,0.030025959014892578,2019-06-21 12:48:45:321,0.0,0.0,0.0
0.13464480638504028,-0.19499249756336212,9.767314910888672,0.0006219999979394207,0.002317516070100579,0.00841244994754519,0.035912513732910156,2019-06-21 12:48:45:327,0.0,0.0,0.0
0.06280230730772018,-0.20457148551940918,9.697867393493652,-4.395289011588339e-05,0.0009856102370987122,0.008279259123676254,0.040004730224609375,2019-06-21 12:48:45:331,0.0,0.0,0.0
0.07956556230783463,-0.21175573766231537,9.731393814086914,0.004750907735646727,0.00298346888907364,0.007480115740908581,0.04588127136230469,2019-06-21 12:48:45:337,0.0,0.0,0.0
0.06280230730772018,-0.19259774684906006,9.767314910888672,0.001687524508296319,-0.0011454389786708283,0.012274976557663273,0.05000114440917969,2019-06-21 12:48:45:341,0.0,0.0,0.0
0.09153930842876434,-0.21175573766231537,9.738577842712402,0.004884098039367014,0.0017847536848849673,0.011742214302484824,0.05588865280151367,2019-06-21 12:48:45:347,0.0,0.0,0.0
0.08674980700016022,-0.20696623623371124,9.728999137878418,-0.0005767152062492525,0.003649421708046702,0.012274976557663273,0.06000375747680664,2019-06-21 12:48:45:351,0.0,0.0,0.0
0.06280230730772018,-0.15428175032138824,9.769709587097168,0.0014211433807070943,-0.0012786295424654405,0.013207310764299884,0.06588172912597656,2019-06-21 12:48:45:357,0.0,0.0,0.0
0.03167056292295456,-0.21893998980522156,9.767314910888672,-0.0025745737932055994,5.327622958150625e-05,0.005748638151504296,0.07000017166137695,2019-06-21 12:48:45:361,0.0,0.0,0.0
0.06759180873632431,-0.18062399327754974,9.764920234680176,-0.004972004201582946,-0.00074586722226841,0.012008594909925398,0.07590007781982422,2019-06-21 12:48:45:367,0.0,0.0,0.0
0.06998655945062637,-0.19738724827766418,9.755340576171875,-0.0009762868976330894,-0.0034096786932164,0.00548225702391507,0.08003902435302734,2019-06-21 12:48:45:371,0.0,0.0,0.0
0.06280230730772018,-0.19738724827766418,9.784077644348145,0.0003556188378409054,-0.0006126766584737978,0.010943070399568499,0.08588600158691406,2019-06-21 12:48:45:377,0.0,0.0,0.0
0.04124956205487251,-0.18780824542045593,9.731393814086914,0.0027530490186532175,0.0028502783252790285,0.012940929116562009,0.09000110626220703,2019-06-21 12:48:45:381,0.0,0.0,0.0
0.04124956205487251,-0.21893998980522156,9.73378849029541,0.0023534773272693805,-0.00074586722226841,0.009211593330312866,0.0950174331665039,2019-06-21 12:48:45:386,0.0,0.0,0.0
0.0484338141977787,-0.1830187439918518,9.70505142211914,0.001287952816912482,0.0008524196733041,0.009744355585491315,0.10089111328125,2019-06-21 12:48:45:392,0.0,0.0,0.0
0.036460064351558685,-0.21175573766231537,9.738577842712402,-0.0035069077397678855,0.005514089601171274,0.012274976557663273,0.10500192642211914,2019-06-21 12:48:45:396,0.0,0.0,0.0
0.0484338141977787,-0.18780824542045593,9.796051979064941,0.0028862395824478296,0.0019179442486795795,0.00894521168257499,0.11088943481445312,2019-06-21 12:48:45:402,0.0,0.0,0.0
0.0484338141977787,-0.19738724827766418,9.829578399658203,-0.0007099057700438648,-0.0006126766584737978,0.007879687172218092,0.11500835418701172,2019-06-21 12:48:45:406,0.0,0.0,0.0
0.07238131016492844,-0.1830187439918518,9.760130882263184,-0.0033737171759732733,0.004848137042272538,0.006414591230551682,0.12092399597167969,2019-06-21 12:48:45:412,0.0,0.0,0.0
0.0747760608792305,-0.2165452390909195,9.781682968139648,8.92376858697129e-05,0.005247708473582049,0.012008594909925398,0.125030517578125,2019-06-21 12:48:45:416,0.0,0.0,0.0
0.026881065219640732,-0.18062399327754974,9.76252555847168,0.004084954916673665,0.0013851819935011304,0.009611165281771028,0.13089513778686523,2019-06-21 12:48:45:422,0.0,0.0,0.0
0.04124956205487251,-0.19499249756336212,9.693077087402344,8.92376858697129e-05,0.0013851819935011304,0.0028184457480228253,0.13500118255615234,2019-06-21 12:48:45:426,0.0,0.0,0.0
0.04124956205487251,-0.17583449184894562,9.788866996765137,-0.000843096333838477,-0.0004794860621698949,0.007746496868497805,0.1408863067626953,2019-06-21 12:48:45:432,0.0,0.0,0.0
0.06519705802202225,-0.19499249756336212,9.798446655273438,-0.000843096333838477,-0.0018113917976438896,0.007213734613319356,0.1450057029724121,2019-06-21 12:48:45:436,0.0,0.0,0.0
0.06998655945062637,-0.17822924256324768,9.805630683898926,0.0019539056358855436,0.004581755914683313,0.006814162661861195,0.1508936882019043,2019-06-21 12:48:45:442,0.0,0.0,0.0
0.03406531363725662,-0.2021767497062683,9.798446655273438,0.0018207150720909312,0.003649421708046702,0.0037507796945851113,0.15500116348266602,2019-06-21 12:48:45:446,0.0,0.0,0.0
0.06280230730772018,-0.16625550389289856,9.728999137878418,0.0015543339445017069,0.002450706633895191,0.008146068299807315,0.16093730926513672,2019-06-21 12:48:45:452,0.0,0.0,0.0
0.06280230730772018,-0.19738724827766418,9.743367195129395,-0.000843096333838477,0.0017847536848849673,0.005215875896325846,0.16504573822021484,2019-06-21 12:48:45:456,0.0,0.0,0.0
0.12267105281352997,-0.20457148551940918,9.752945899963379,-0.004306051122535559,-0.001944582361438502,0.00548225702391507,0.17090845108032227,2019-06-21 12:48:45:462,0.0,0.0,0.0
0.05801280960440636,-0.21175573766231537,9.671525001525879,0.0024866678910639927,0.0001864668055671025,0.005082685592605559,0.1750020980834961,2019-06-21 12:48:45:466,0.0,0.0,0.0
0.08674980700016022,-0.22133474051952362,9.743367195129395,0.0046177169117777896,0.006180042680218661,0.0024188740566389883,0.18088722229003906,2019-06-21 12:48:45:472,0.0,0.0,0.0
0.09153930842876434,-0.14470274746418,9.776893615722656,-0.0007099057700438648,5.327622958150625e-05,0.0017529211076287644,0.18500614166259766,2019-06-21 12:48:45:476,0.0,0.0,0.0
0.05801280960440636,-0.18780824542045593,9.78647232055664,-0.00044352460994534954,0.002717087761484416,0.0028184457480228253,0.19089412689208984,2019-06-21 12:48:45:482,0.0,0.0,0.0
0.06040756031870842,-0.1830187439918518,9.73378849029541,-0.0020418114079899874,0.0032498500166628654,0.0001546342608201902,0.19500303268432617,2019-06-21 12:48:45:486,0.0,0.0,0.0
0.0747760608792305,-0.19499249756336212,9.728999137878418,0.00022242825779164786,5.327622958150625e-05,0.0010869682236371214,0.20089054107666016,2019-06-21 12:48:45:492,0.0,0.0,0.0
0.06040756031870842,-0.16625550389289856,9.74576187133789,0.0035521926614952163,0.0008524196733041,-0.0007776997345060318,0.2050466537475586,2019-06-21 12:48:45:496,0.0,0.0,0.0
0.15859229862689972,-0.16865025460720062,9.784077644348145,0.0023534773272693805,-0.0006126766584737978,0.0009537776598425092,0.21002435684204102,2019-06-21 12:48:45:501,0.0,0.0,0.0
0.05801280960440636,-0.16146600246429443,9.796051979064941,0.001287952816912482,0.006180042680218661,-0.0011772714258898686,0.2158832550048828,2019-06-21 12:48:45:507,0.0,0.0,0.0
0.09153930842876434,-0.2165452390909195,9.743367195129395,-0.0031073360483840485,0.007511948318164784,-0.001976414938694705,0.2200031280517578,2019-06-21 12:48:45:511,0.0,0.0,0.0
0.022091565653681755,-0.19978199899196625,9.671525001525879,-0.002974145484589436,0.0013851819935011304,-0.0015768431172737056,0.2259364128112793,2019-06-21 12:48:45:517,0.0,0.0,0.0
0.11309205740690231,-0.1830187439918518,9.62602424621582,-0.00044352460994534954,0.001251991429706518,-0.0027755584514995413,0.23001766204833984,2019-06-21 12:48:45:521,0.0,0.0,0.0
0.03167056292295456,-0.17583449184894562,9.664340019226074,-0.0013758585890169264,-0.0015450106700546653,-0.001310461989684481,0.2358846664428711,2019-06-21 12:48:45:527,0.0,0.0,0.0
0.08435505628585815,-0.17583449184894562,9.78647232055664,-0.001242668025222314,0.005380899297450987,0.0001546342608201902,0.24000167846679688,2019-06-21 12:48:45:531,0.0,0.0,0.0
0.03167056292295456,-0.19259774684906006,9.788866996765137,0.001287952816912482,0.0049813273459928245,0.0005542059684586724,0.24588918685913086,2019-06-21 12:48:45:537,0.0,0.0,0.0
0.0747760608792305,-0.17822924256324768,9.736183166503906,0.0014211433807070943,0.005247708473582049,-0.0011772714258898686,0.2500038146972656,2019-06-21 12:48:45:541,0.0,0.0,0.0
0.04603906348347664,-0.1566765010356903,9.743367195129395,-0.0013758585890169264,0.0004528479494109724,-0.002242795936246767,0.2559199333190918,2019-06-21 12:48:45:547,0.0,0.0,0.0
0.06519705802202225,-0.15907125174999237,9.72420883178711,-0.003906479431151722,0.0008524196733041,-0.0033083207066779904,0.2600088119506836,2019-06-21 12:48:45:551,0.0,0.0,0.0
0.04124956205487251,-0.1830187439918518,9.68349838256836,0.000755190561734033,-0.0011454389786708283,-0.0018432243749000928,0.2658824920654297,2019-06-21 12:48:45:557,0.0,0.0,0.0
0.08674980700016022,-0.19978199899196625,9.8319730758667,0.000755190561734033,-0.0011454389786708283,-0.004906607472213338,0.270998477935791,2019-06-21 12:48:45:562,0.0,0.0,0.0
0.08674980700016022,-0.190202996134758,9.76252555847168,0.0020870961996801557,0.004848137042272538,-0.0018432243749000928,0.2750101089477539,2019-06-21 12:48:45:566,0.0,0.0,0.0
0.043644312769174576,-0.19259774684906006,9.784077644348145,0.0023534773272693805,0.004315374527019763,-0.0023759865000413795,0.28088808059692383,2019-06-21 12:48:45:572,0.0,0.0,0.0
0.06280230730772018,-0.1566765010356903,9.697867393493652,-0.0035069077397678855,0.002450706633895191,-0.001976414938694705,0.2850055694580078,2019-06-21 12:48:45:576,0.0,0.0,0.0
0.022091565653681755,-0.17822924256324768,9.73378849029541,-0.00044352460994534954,-0.004342012639778686,-0.006105322806439174,0.2908926010131836,2019-06-21 12:48:45:582,0.0,0.0,0.0
0.08435505628585815,-0.2165452390909195,9.736183166503906,0.0019539056358855436,-0.0018113917976438896,-0.0023759865000413795,0.29500246047973633,2019-06-21 12:48:45:586,0.0,0.0,0.0
0.09632880985736847,-0.19259774684906006,9.793657302856445,0.0015543339445017069,0.0028502783252790285,-0.003574701834267215,0.30002689361572266,2019-06-21 12:48:45:591,0.0,0.0,0.0
0.12267105281352997,-0.1710449904203415,9.812814712524414,0.001287952816912482,0.006579614111528172,-0.006105322806439174,0.30588722229003906,2019-06-21 12:48:45:597,0.0,0.0,0.0
0.07717081159353256,-0.22372949123382568,9.712235450744629,-0.000843096333838477,0.004048993399430539,-0.0017100338111054802,0.3099994659423828,2019-06-21 12:48:45:601,0.0,0.0,0.0
0.04603906348347664,-0.17822924256324768,9.752945899963379,-0.0013758585890169264,0.0008524196733041,-0.003974273525651052,0.31589698791503906,2019-06-21 12:48:45:607,0.0,0.0,0.0
0.07956556230783463,-0.17822924256324768,9.731393814086914,-0.0032405266121786607,-0.0032764881294217877,-0.004906607472213338,0.32091474533081055,2019-06-21 12:48:45:612,0.0,0.0,0.0
0.08914455771446228,-0.1375184953212738,9.757735252380371,-0.0063039098395290686,-0.0008790577860630224,-0.000378128043122195,0.32500362396240234,2019-06-21 12:48:45:616,0.0,0.0,0.0
0.12267105281352997,-0.14230799674987793,9.827183723449707,0.0023534773272693805,-0.002077772925233114,-0.005705750854981011,0.3308897018432617,2019-06-21 12:48:45:622,0.0,0.0,0.0
0.1202763020992279,-0.15428175032138824,9.788866996765137,-0.0036400983035624977,0.0049813273459928245,0.001619730543834152,0.3350048065185547,2019-06-21 12:48:45:626,0.0,0.0,0.0
0.07956556230783463,-0.1710449904203415,9.72420883178711,0.0020870961996801557,0.00298346888907364,-0.006238513110159461,0.3409452438354492,2019-06-21 12:48:45:632,0.0,0.0,0.0
0.07956556230783463,-0.15188699960708618,9.702656745910645,0.0015543339445017069,-0.0015450106700546653,-0.0038410829618564396,0.3450198173522949,2019-06-21 12:48:45:636,0.0,0.0,0.0
0.06759180873632431,-0.14709749817848206,9.73378849029541,0.0014211433807070943,-0.004208822075984073,-0.004373845217034889,0.3508930206298828,2019-06-21 12:48:45:642,0.0,0.0,0.0
0.11309205740690231,-0.1710449904203415,9.717024803161621,0.00022242825779164786,-0.0010122483498576347,-0.0005113186069168071,0.35500049591064453,2019-06-21 12:48:45:646,0.0,0.0,0.0
0.11069730669260025,-0.1638607531785965,9.793657302856445,0.007281528707818685,0.0021843255063059668,-0.004773416648344401,0.36094093322753906,2019-06-21 12:48:45:652,0.0,0.0,0.0
0.11309205740690231,-0.18541349470615387,9.743367195129395,0.004750907735646727,-0.0004794860621698949,-0.00024493746307293734,0.3650236129760742,2019-06-21 12:48:45:656,0.0,0.0,0.0
0.08435505628585815,-0.18541349470615387,9.676314353942871,0.0022202867634747683,0.0019179442486795795,-0.0023759865000413795,0.3708915710449219,2019-06-21 12:48:45:662,0.0,0.0,0.0
0.08196030557155609,-0.16625550389289856,9.760130882263184,0.0031526207100370544,-0.0008790577860630224,-0.004373845217034889,0.375,2019-06-21 12:48:45:666,0.0,0.0,0.0
0.10351305454969406,-0.14230799674987793,9.721814155578613,0.0015543339445017069,-0.004741584591236848,-0.004906607472213338,0.3808908462524414,2019-06-21 12:48:45:672,0.0,0.0,0.0
0.09632880985736847,-0.1830187439918518,9.669130325317383,0.0023534773272693805,-0.004342012639778686,-0.002242795936246767,0.3850221633911133,2019-06-21 12:48:45:676,0.0,0.0,0.0
0.12267105281352997,-0.190202996134758,9.760130882263184,0.0019539056358855436,-0.005007965718826072,-0.005572560551260725,0.39090585708618164,2019-06-21 12:48:45:682,0.0,0.0,0.0
0.11788155138492584,-0.17583449184894562,9.798446655273438,0.004750907735646727,-0.0016782012338492774,-0.003574701834267215,0.39502429962158203,2019-06-21 12:48:45:686,0.0,0.0,0.0
0.13225005567073822,-0.1638607531785965,9.717024803161621,-0.00044352460994534954,0.004581755914683313,-0.007170847316796072,0.40088653564453125,2019-06-21 12:48:45:692,0.0,0.0,0.0
0.06519705802202225,-0.2285189926624298,9.726603507995605,0.0015543339445017069,-0.0015450106700546653,-0.0017100338111054802,0.40500640869140625,2019-06-21 12:48:45:696,0.0,0.0,0.0
0.14182904362678528,-0.20457148551940918,9.685893058776855,0.0011547622531178697,-0.003542869257011012,-0.003574701834267215,0.41002941131591797,2019-06-21 12:48:45:701,0.0,0.0,0.0
0.09872355312108994,-0.19499249756336212,9.760130882263184,0.0035521926614952163,-0.005407537150135584,-0.004373845217034889,0.41588401794433594,2019-06-21 12:48:45:707,0.0,0.0,0.0
0.101118303835392,-0.18780824542045593,9.781682968139648,0.0034190020977006037,-0.003942440948394849,-0.0051729885998025625,0.4200000762939453,2019-06-21 12:48:45:711,0.0,0.0,0.0
0.08435505628585815,-0.18780824542045593,9.788866996765137,0.0004888094016355178,0.0001864668055671025,-0.004240654653240277,0.42591238021850586,2019-06-21 12:48:45:717,0.0,0.0,0.0
0.07238131016492844,-0.19738724827766418,9.69547176361084,0.0038185737890844406,0.0015183725572957428,-0.004107464089445664,0.43004655838012695,2019-06-21 12:48:45:721,0.0,0.0,0.0
0.08196030557155609,-0.2021767497062683,9.70505142211914,-0.0019086208441953755,-0.008870492328944154,-0.006238513110159461,0.4350137710571289,2019-06-21 12:48:45:726,0.0,0.0,0.0
0.10351305454969406,-0.16865025460720062,9.755340576171875,0.0003556188378409054,-0.008604110681206279,-0.012498469868580563,0.440887451171875,2019-06-21 12:48:45:732,0.0,0.0,0.0
0.1274605542421341,-0.23091374337673187,9.79126262664795,0.0027530490186532175,-0.0056739182777248084,-0.003974273525651052,0.44588661193847656,2019-06-21 12:48:45:737,0.0,0.0,0.0
0.1538027971982956,-0.18062399327754974,9.819998741149902,0.0022202867634747683,-0.002477344746654114,-0.007969990699563747,0.45003843307495117,2019-06-21 12:48:45:741,0.0,0.0,0.0
0.12267105281352997,-0.19259774684906006,9.839157104492188,0.0011547622531178697,0.0021843255063059668,-0.009967848896408605,0.4550161361694336,2019-06-21 12:48:45:746,0.0,0.0,0.0
0.14182904362678528,-0.19978199899196625,9.784077644348145,8.92376858697129e-05,-0.006206680532903257,-0.007703609571974521,0.4608883857727051,2019-06-21 12:48:45:752,0.0,0.0,0.0
0.07717081159353256,-0.17343974113464355,9.709840774536133,0.0031526207100370544,-0.0030101070018325625,-0.010367420847866767,0.46500301361083984,2019-06-21 12:48:45:756,0.0,0.0,0.0
0.09872355312108994,-0.18062399327754974,9.79126262664795,-0.00017714346610147965,-0.003942440948394849,-0.01023423054414648,0.4708895683288574,2019-06-21 12:48:45:762,0.0,0.0,0.0
0.08914455771446228,-0.2548612356185913,9.760130882263184,0.0046177169117777896,-0.00460839376736791,-0.009834658592688318,0.4758925437927246,2019-06-21 12:48:45:767,0.0,0.0,0.0
0.08435505628585815,-0.24049273133277893,9.779288291931152,0.0006219999979394207,0.004315374527019763,-0.011033373406765504,0.4800090789794922,2019-06-21 12:48:45:771,0.0,0.0,0.0
0.11788155138492584,-0.2093609869480133,9.755340576171875,0.000755190561734033,0.002317516070100579,-0.01223208926113999,0.48588037490844727,2019-06-21 12:48:45:777,0.0,0.0,0.0
0.0747760608792305,-0.2165452390909195,9.70505142211914,0.003285811533905992,-0.0006126766584737978,-0.011432945358223666,0.4908895492553711,2019-06-21 12:48:45:782,0.0,0.0,0.0
0.06998655945062637,-0.2021767497062683,9.69547176361084,0.00022242825779164786,-0.0027437258742433386,-0.010900183103045216,0.4950394630432129,2019-06-21 12:48:45:786,0.0,0.0,0.0
0.10830255597829819,-0.24528223276138306,9.779288291931152,0.0010215716893232575,-0.0030101070018325625,-0.014363138281853788,0.5008969306945801,2019-06-21 12:48:45:792,0.0,0.0,0.0
0.11548680067062378,-0.2165452390909195,9.750551223754883,0.001687524508296319,-0.0008790577860630224,-0.011033373406765504,0.5050029754638672,2019-06-21 12:48:45:796,0.0,0.0,0.0
0.17535555362701416,-0.21175573766231537,9.764920234680176,-0.0031073360483840485,-0.002610535310448726,-0.012898041820038725,0.5108866691589355,2019-06-21 12:48:45:802,0.0,0.0,0.0
0.10830255597829819,-0.21893998980522156,9.78647232055664,-0.0007099057700438648,0.002450706633895191,-0.009035514689771994,0.515007495880127,2019-06-21 12:48:45:806,0.0,0.0,0.0
0.16817130148410797,-0.18541349470615387,9.74576187133789,0.0023534773272693805,0.0019179442486795795,-0.010101040240426193,0.5208930969238281,2019-06-21 12:48:45:812,0.0,0.0,0.0
0.14901329576969147,-0.17583449184894562,9.707446098327637,-0.001242668025222314,0.0005860385457148754,-0.011299755054503377,0.5250272750854492,2019-06-21 12:48:45:816,0.0,0.0,0.0
0.12267105281352997,-0.18541349470615387,9.721814155578613,-0.004172860558740947,-0.0003462954983752826,-0.0131644224274793,0.5308938026428223,2019-06-21 12:48:45:822,0.0,0.0,0.0
0.16817130148410797,-0.14949224889278412,9.757735252380371,-0.0035069077397678855,0.0001864668055671025,-0.010633802495604642,0.535003662109375,2019-06-21 12:48:45:826,0.0,0.0,0.0
0.1466185450553894,-0.1830187439918518,9.781682968139648,-0.000843096333838477,-0.0003462954983752826,-0.011965707613402115,0.5408859252929688,2019-06-21 12:48:45:832,0.0,0.0,0.0
0.22325053811073303,-0.15907125174999237,9.808025360107422,-0.0031073360483840485,0.003383040580457477,-0.005572560551260725,0.5450286865234375,2019-06-21 12:48:45:836,0.0,0.0,0.0
0.15140804648399353,-0.19978199899196625,9.678709030151367,0.0024866678910639927,0.004315374527019763,-0.004107464089445664,0.5508918762207031,2019-06-21 12:48:45:842,0.0,0.0,0.0
0.1466185450553894,-0.2093609869480133,9.757735252380371,0.002619858454858605,5.327622958150625e-05,-0.004507035520755176,0.5550012588500977,2019-06-21 12:48:45:846,0.0,0.0,0.0
0.1202763020992279,-0.18062399327754974,9.72420883178711,-0.0025745737932055994,-0.004342012639778686,-0.001310461989684481,0.5608859062194824,2019-06-21 12:48:45:852,0.0,0.0,0.0
0.1801450401544571,-0.2285189926624298,9.796051979064941,-0.003906479431151722,-0.0034096786932164,-0.005439369727391787,0.565007209777832,2019-06-21 12:48:45:856,0.0,0.0,0.0
0.1274605542421341,-0.19259774684906006,9.851130485534668,0.0010215716893232575,0.0025838971976898037,-0.003974273525651052,0.5709114074707031,2019-06-21 12:48:45:862,0.0,0.0,0.0
0.13464480638504028,-0.19499249756336212,9.827183723449707,-0.00044352460994534954,0.004581755914683313,-0.001976414938694705,0.5750188827514648,2019-06-21 12:48:45:866,0.0,0.0,0.0
0.13225005567073822,-0.19738724827766418,9.73378849029541,0.0023534773272693805,0.0011188008659119059,0.005615447847784009,0.5808897018432617,2019-06-21 12:48:45:872,0.0,0.0,0.0
0.0939340591430664,-0.14949224889278412,9.743367195129395,-0.0013758585890169264,-0.005007965718826072,0.0025520646204336005,0.5850062370300293,2019-06-21 12:48:45:876,0.0,0.0,0.0
0.10830255597829819,-0.20457148551940918,9.712235450744629,0.0010215716893232575,-0.0004794860621698949,0.0032180174394066618,0.5909061431884766,2019-06-21 12:48:45:882,0.0,0.0,0.0
0.07956556230783463,-0.17822924256324768,9.752945899963379,-0.00017714346610147965,-0.0038092503846002368,0.0028184457480228253,0.5950231552124023,2019-06-21 12:48:45:886,0.0,0.0,0.0
0.1538027971982956,-0.1638607531785965,9.73378849029541,-0.001775430280400763,0.003915802835635926,0.0013533494162449274,0.6008915901184082,2019-06-21 12:48:45:892,0.0,0.0,0.0
0.1274605542421341,-0.1566765010356903,9.764920234680176,0.002619858454858605,0.0025838971976898037,0.0024188740566389883,0.605006217956543,2019-06-21 12:48:45:896,0.0,0.0,0.0
0.07717081159353256,-0.17822924256324768,9.779288291931152,0.005550051118414401,-0.003542869257011012,0.0028184457480228253,0.6108903884887695,2019-06-21 12:48:45:902,0.0,0.0,0.0
0.08196030557155609,-0.16865025460720062,9.697867393493652,0.0008883811255286454,0.0020511348124741917,-0.00024493746307293734,0.6150107383728027,2019-06-21 12:48:45:906,0.0,0.0,0.0
0.09632880985736847,-0.16146600246429443,9.69547176361084,-0.00044352460994534954,-0.00514115602254636,0.0005542059684586724,0.6208996772766113,2019-06-21 12:48:45:912,0.0,0.0,0.0
0.06280230730772018,-0.18062399327754974,9.714630126953125,-0.003906479431151722,0.0032498500166628654,0.005881828975373233,0.6250081062316895,2019-06-21 12:48:45:916,0.0,0.0,0.0
0.11309205740690231,-0.1710449904203415,9.73378849029541,0.0020870961996801557,0.0041821839632251515,0.009877545889211602,0.6309041976928711,2019-06-21 12:48:45:922,0.0,0.0,0.0
0.11069730669260025,-0.20696623623371124,9.731393814086914,-0.00044352460994534954,0.001251991429706518,0.004683113641147397,0.6350154876708984,2019-06-21 12:48:45:926,0.0,0.0,0.0
0.09632880985736847,-0.16625550389289856,9.760130882263184,0.0014211433807070943,-0.00074586722226841,0.005881828975373233,0.6408882141113281,2019-06-21 12:48:45:932,0.0,0.0,0.0
0.07956556230783463,-0.18780824542045593,9.69547176361084,0.0006219999979394207,-7.991434640409003e-05,0.00947797393775344,0.6450047492980957,2019-06-21 12:48:45:936,0.0,0.0,0.0
0.08674980700016022,-0.16625550389289856,9.740972518920898,0.004084954916673665,0.002317516070100579,0.002152492799012601,0.6508922576904297,2019-06-21 12:48:45:942,0.0,0.0,0.0
0.08674980700016022,-0.18062399327754974,9.776893615722656,0.0018207150720909312,0.0008524196733041,0.0065477815342719695,0.6550016403198242,2019-06-21 12:48:45:946,0.0,0.0,0.0
0.08435505628585815,-0.1638607531785965,9.767314910888672,0.0024866678910639927,0.0013851819935011304,0.004683113641147397,0.6600465774536133,2019-06-21 12:48:45:951,0.0,0.0,0.0
0.06759180873632431,-0.17822924256324768,9.80323600769043,0.0038185737890844406,-0.00074586722226841,0.0006873965322532847,0.665886402130127,2019-06-21 12:48:45:957,0.0,0.0,0.0
0.0077230678871273994,-0.1830187439918518,9.702656745910645,0.0020870961996801557,0.003782612271841314,0.004017160822174336,0.6700000762939453,2019-06-21 12:48:45:961,0.0,0.0,0.0
0.0005388186546042562,-0.242887482047081,9.767314910888672,0.0003556188378409054,-7.991434640409003e-05,0.0006873965322532847,0.6758928298950195,2019-06-21 12:48:45:967,0.0,0.0,0.0
0.01730206608772278,-0.22133474051952362,9.798446655273438,0.00022242825779164786,-0.0006126766584737978,0.0001546342608201902,0.6800065040588379,2019-06-21 12:48:45:971,0.0,0.0,0.0
0.024486316367983818,-0.2021767497062683,9.829578399658203,0.003285811533905992,-0.0038092503846002368,-0.000378128043122195,0.685882568359375,2019-06-21 12:48:45:977,0.0,0.0,0.0
0.01730206608772278,-0.22133474051952362,9.822394371032715,0.0024866678910639927,0.002717087761484416,0.0024188740566389883,0.6908941268920898,2019-06-21 12:48:45:982,0.0,0.0,0.0
-0.011434929445385933,-0.18541349470615387,9.810420036315918,0.0015543339445017069,-0.000213104918326025,-0.0014436525534790934,0.6950321197509766,2019-06-21 12:48:45:986,0.0,0.0,0.0
0.012512567453086376,-0.1830187439918518,9.805630683898926,0.0024866678910639927,0.0008524196733041,-0.0038410829618564396,0.7008929252624512,2019-06-21 12:48:45:992,0.0,0.0,0.0
0.043644312769174576,-0.20457148551940918,9.812814712524414,-0.001642239716606151,0.0009856102370987122,-0.003041939579088766,0.7059111595153809,2019-06-21 12:48:45:997,0.0,0.0,0.0
0.029275815933942795,-0.17822924256324768,9.70505142211914,0.0004888094016355178,-0.0023441541828595016,-0.003041939579088766,0.7100086212158203,2019-06-21 12:48:46:001,0.0,0.0,0.0
0.0005388186546042562,-0.2021767497062683,9.79126262664795,0.0036853832252898284,5.327622958150625e-05,-0.003175130142883378,0.7158808708190918,2019-06-21 12:48:46:007,0.0,0.0,0.0
0.0484338141977787,-0.19738724827766418,9.788866996765137,0.0006219999979394207,-0.0012786295424654405,-0.007969990699563747,0.720005989074707,2019-06-21 12:48:46:011,0.0,0.0,0.0
0.06998655945062637,-0.17583449184894562,9.707446098327637,0.0022202867634747683,-0.003942440948394849,-0.004640226344624114,0.7275800704956055,2019-06-21 12:48:46:019,0.0,0.0,0.0
0.06040756031870842,-0.17822924256324768,9.736183166503906,-0.0005767152062492525,-0.0010122483498576347,-0.005705750854981011,0.7359123229980469,2019-06-21 12:48:46:027,0.0,0.0,0.0
0.06759180873632431,-0.1638607531785965,9.817604064941406,-0.000843096333838477,0.001651563121090355,-0.009701468288968031,0.7400031089782715,2019-06-21 12:48:46:031,0.0,0.0,0.0
0.09153930842876434,-0.2165452390909195,9.740972518920898,0.006748766452640236,0.0017847536848849673,-0.008502752954742196,0.7459115982055664,2019-06-21 12:48:46:037,0.0,0.0,0.0
0.050828561186790466,-0.19738724827766418,9.776893615722656,0.0038185737890844406,-0.003942440948394849,-0.010500611151587054,0.7500152587890625,2019-06-21 12:48:46:041,0.0,0.0,0.0
0.07238131016492844,-0.1638607531785965,9.731393814086914,0.0004888094016355178,-0.004342012639778686,-0.009168706033789581,0.7558860778808594,2019-06-21 12:48:46:047,0.0,0.0,0.0
0.06759180873632431,-0.17343974113464355,9.784077644348145,8.92376858697129e-05,-0.0015450106700546653,-0.01076699279932493,0.7608919143676758,2019-06-21 12:48:46:052,0.0,0.0,0.0
0.08196030557155609,-0.2165452390909195,9.752945899963379,0.0023534773272693805,-0.0008790577860630224,-0.014363138281853788,0.7650032043457031,2019-06-21 12:48:46:056,0.0,0.0,0.0
0.08674980700016022,-0.19259774684906006,9.812814712524414,-0.0011094774614277016,0.0001864668055671025,-0.012498469868580563,0.7709064483642578,2019-06-21 12:48:46:062,0.0,0.0,0.0
0.06280230730772018,-0.18780824542045593,9.784077644348145,0.002619858454858605,-0.004208822075984073,-0.01369718572295505,0.7750062942504883,2019-06-21 12:48:46:066,0.0,0.0,0.0
0.06998655945062637,-0.19738724827766418,9.788866996765137,-0.0011094774614277016,-0.006206680532903257,-0.01569504339965126,0.7808880805969238,2019-06-21 12:48:46:072,0.0,0.0,0.0
0.06759180873632431,-0.19499249756336212,9.728999137878418,-0.00017714346610147965,-0.0004794860621698949,-0.009568277985247745,0.7858905792236328,2019-06-21 12:48:46:077,0.0,0.0,0.0
0.1274605542421341,-0.18780824542045593,9.750551223754883,-0.0005767152062492525,0.001251991429706518,-0.01755971077262718,0.7900028228759766,2019-06-21 12:48:46:081,0.0,0.0,0.0
0.06519705802202225,-0.17583449184894562,9.717024803161621,-0.004039669994946335,0.003116659452868253,-0.012365279564860278,0.7958927154541016,2019-06-21 12:48:46:087,0.0,0.0,0.0
0.11548680067062378,-0.2021767497062683,9.707446098327637,0.0006219999979394207,-0.003143297565627175,-0.011432945358223666,0.8000106811523438,2019-06-21 12:48:46:091,0.0,0.0,0.0
0.07956556230783463,-0.1830187439918518,9.755340576171875,-0.0007099057700438648,-0.002210963619064889,-0.01263166017230085,0.8058843612670898,2019-06-21 12:48:46:097,0.0,0.0,0.0
0.17775028944015503,-0.17343974113464355,9.726603507995605,0.0058164322460036244,-0.0011454389786708283,-0.011699327005961541,0.810002326965332,2019-06-21 12:48:46:101,0.0,0.0,0.0
0.0939340591430664,-0.2093609869480133,9.738577842712402,0.0011547622531178697,-0.0016782012338492774,-0.005039798296082276,0.815913200378418,2019-06-21 12:48:46:107,0.0,0.0,0.0
0.0939340591430664,-0.16625550389289856,9.78647232055664,0.000755190561734033,-0.0028769164380379507,-0.008902324386051706,0.8200082778930664,2019-06-21 12:48:46:111,0.0,0.0,0.0
0.1274605542421341,-0.14949224889278412,9.776893615722656,0.0003556188378409054,-0.001944582361438502,-0.011965707613402115,0.8258829116821289,2019-06-21 12:48:46:117,0.0,0.0,0.0
0.1538027971982956,-0.1710449904203415,9.736183166503906,0.0011547622531178697,-0.002210963619064889,-0.007836799875694809,0.8308897018432617,2019-06-21 12:48:46:122,0.0,0.0,0.0
0.13464480638504028,-0.14709749817848206,9.719419479370117,0.003285811533905992,0.0025838971976898037,-0.010367420847866767,0.8350043296813965,2019-06-21 12:48:46:126,0.0,0.0,0.0
0.12506580352783203,-0.16865025460720062,9.700262069702148,0.0042181454804682775,0.002717087761484416,-0.012898041820038725,0.8408923149108887,2019-06-21 12:48:46:132,0.0,0.0,0.0
0.11069730669260025,-0.242887482047081,9.70505142211914,0.0034190020977006037,-0.00074586722226841,-0.0051729885998025625,0.8450298309326172,2019-06-21 12:48:46:136,0.0,0.0,0.0
0.10351305454969406,-0.15428175032138824,9.664340019226074,-0.0024413832294109873,-0.001944582361438502,-0.006371703934028398,0.850895881652832,2019-06-21 12:48:46:142,0.0,0.0,0.0
0.11548680067062378,-0.15907125174999237,9.750551223754883,0.00435133604426289,-0.000213104918326025,-0.009435086641230155,0.8550009727478027,2019-06-21 12:48:46:146,0.0,0.0,0.0
0.13225005567073822,-0.2021767497062683,9.738577842712402,-4.395289011588339e-05,-0.0008790577860630224,-0.010101040240426193,0.860039234161377,2019-06-21 12:48:46:151,0.0,0.0,0.0
0.12506580352783203,-0.17822924256324768,9.752945899963379,-0.002840954920794824,-0.0015450106700546653,-0.007170847316796072,0.8658871650695801,2019-06-21 12:48:46:157,0.0,0.0,0.0
0.11548680067062378,-0.19738724827766418,9.70505142211914,0.003019430146242442,0.0028502783252790285,-0.004906607472213338,0.8700017929077148,2019-06-21 12:48:46:161,0.0,0.0,0.0
0.07717081159353256,-0.2165452390909195,9.738577842712402,0.0056832419422833385,-0.0038092503846002368,-0.001310461989684481,0.875889778137207,2019-06-21 12:48:46:167,0.0,0.0,0.0
0.10590780526399612,-0.1375184953212738,9.728999137878418,0.0010215716893232575,0.001651563121090355,-0.004240654653240277,0.8800067901611328,2019-06-21 12:48:46:171,0.0,0.0,0.0
0.09872355312108994,-0.19499249756336212,9.719419479370117,0.0006219999979394207,-0.0056739182777248084,-0.003041939579088766,0.8858823776245117,2019-06-21 12:48:46:177,0.0,0.0,0.0
0.12506580352783203,-0.22133474051952362,9.793657302856445,-4.395289011588339e-05,-0.001944582361438502,-0.01076699279932493,0.8909173011779785,2019-06-21 12:48:46:182,0.0,0.0,0.0
0.0939340591430664,-0.17822924256324768,9.827183723449707,0.00022242825779164786,0.0019179442486795795,-0.0025091770638359916,0.8950128555297852,2019-06-21 12:48:46:186,0.0,0.0,0.0
0.08196030557155609,-0.18780824542045593,9.740972518920898,0.00022242825779164786,0.0011188008659119059,-0.003707892398061828,0.9008879661560059,2019-06-21 12:48:46:192,0.0,0.0,0.0
0.05322331190109253,-0.2572559714317322,9.685893058776855,0.0031526207100370544,0.0049813273459928245,0.0018861116714233767,0.9050383567810059,2019-06-21 12:48:46:196,0.0,0.0,0.0
0.024486316367983818,-0.17343974113464355,9.767314910888672,0.0019539056358855436,-0.0011454389786708283,0.004017160822174336,0.9100217819213867,2019-06-21 12:48:46:201,0.0,0.0,0.0
0.09632880985736847,-0.22133474051952362,9.748156547546387,0.0054168602945454634,-0.007938158122307543,0.006680972358140907,0.9158792495727539,2019-06-21 12:48:46:207,0.0,0.0,0.0
0.06040756031870842,-0.23091374337673187,9.899025917053223,0.004084954916673665,-0.001944582361438502,0.005082685592605559,0.9199976921081543,2019-06-21 12:48:46:211,0.0,0.0,0.0
0.0747760608792305,-0.21893998980522156,9.870288848876953,0.0004888094016355178,0.0005860385457148754,0.007746496868497805,0.9258923530578613,2019-06-21 12:48:46:217,0.0,0.0,0.0
-0.028198176994919777,-0.34346696734428406,9.822394371032715,0.0035521926614952163,0.00298346888907364,0.008812021378854704,0.9300060272216797,2019-06-21 12:48:46:221,0.0,0.0,0.0
-0.0760931745171547,-0.3147299885749817,9.714630126953125,0.005283669990825176,-0.002210963619064889,0.007746496868497805,0.9358901977539062,2019-06-21 12:48:46:227,0.0,0.0,0.0
-0.06411942094564438,-0.3195194900035858,9.65476131439209,0.006615575628771298,-0.007671776994718318,0.013074119420282295,0.9400081634521484,2019-06-21 12:48:46:231,0.0,0.0,0.0
-0.04256667569279671,-0.3338879644870758,9.760130882263184,0.005283669990825176,-0.014864067439627381,0.010277117840669764,0.9458827972412109,2019-06-21 12:48:46:237,0.0,0.0,0.0
0.04124956205487251,-0.2692297399044037,9.812814712524414,0.0031526207100370544,-0.004208822075984073,0.01693664655054903,0.9500174522399902,2019-06-21 12:48:46:241,0.0,0.0,0.0
0.06040756031870842,-0.22372949123382568,9.8319730758667,0.001287952816912482,0.003383040580457477,0.015737930696174542,0.9550161361694336,2019-06-21 12:48:46:246,0.0,0.0,0.0
0.0484338141977787,-0.20457148551940918,9.750551223754883,0.0068819567563605235,0.003116659452868253,0.02319660330897013,0.9608898162841797,2019-06-21 12:48:46:252,0.0,0.0,0.0
0.026881065219640732,-0.15188699960708618,9.673919677734375,0.0036853832252898284,-0.004741584591236848,0.021065554288256332,0.9650063514709473,2019-06-21 12:48:46:256,0.0,0.0,0.0
0.11548680067062378,-0.1183605045080185,9.731393814086914,-0.00017714346610147965,-0.01193387555629456,0.023596175260428294,0.9708919525146484,2019-06-21 12:48:46:262,0.0,0.0,0.0
0.10590780526399612,-0.15907125174999237,9.707446098327637,0.0056832419422833385,-0.012466637811473011,0.022131078798613233,0.975001335144043,2019-06-21 12:48:46:266,0.0,0.0,0.0
0.1993030458688736,-0.15428175032138824,9.8319730758667,0.001687524508296319,-0.0034096786932164,0.02532765232968393,0.9808921813964844,2019-06-21 12:48:46:272,0.0,0.0,0.0
0.15140804648399353,-0.12315000593662262,9.882262229919434,0.0027530490186532175,0.0028502783252790285,0.026526368184058412,0.9850053787231445,2019-06-21 12:48:46:276,0.0,0.0,0.0
0.1274605542421341,-0.12315000593662262,9.709840774536133,0.005017288863235951,0.005247708473582049,0.027059129398939563,0.9908881187438965,2019-06-21 12:48:46:282,0.0,0.0,0.0
0.05322331190109253,-0.13512374460697174,9.621234893798828,0.003285811533905992,0.0015183725572957428,0.02905698915623037,0.9950642585754395,2019-06-21 12:48:46:286,0.0,0.0,0.0
0.06280230730772018,-0.20457148551940918,9.669130325317383,0.003285811533905992,-0.0038092503846002368,0.02905698915623037,1.0008983612060547,2019-06-21 12:48:46:292,0.0,0.0,0.0
0.10590780526399612,-0.2021767497062683,9.693077087402344,0.004750907735646727,-0.0056739182777248084,0.029456559027093935,1.005885124206543,2019-06-21 12:48:46:297,0.0,0.0,0.0
0.17775028944015503,-0.22133474051952362,9.836762428283691,0.0010215716893232575,0.001651563121090355,0.0266595574474814,1.010000228881836,2019-06-21 12:48:46:301,0.0,0.0,0.0
0.11309205740690231,-0.23091374337673187,9.846341133117676,-0.0031073360483840485,0.008044710573343232,0.022530650750071393,1.0158920288085938,2019-06-21 12:48:46:307,0.0,0.0,0.0
0.07956556230783463,-0.25965073704719543,9.714630126953125,0.002619858454858605,0.014970619890663072,0.026526368184058412,1.020005226135254,2019-06-21 12:48:46:311,0.0,0.0,0.0
0.07717081159353256,-0.190202996134758,9.618840217590332,-0.0020418114079899874,0.0035162311442520897,0.021598315503137483,1.025909423828125,2019-06-21 12:48:46:317,0.0,0.0,0.0
0.043644312769174576,-0.23809799551963806,9.618840217590332,-0.0024413832294109873,-0.004342012639778686,0.02173150684715507,1.030003547668457,2019-06-21 12:48:46:321,0.0,0.0,0.0
0.1202763020992279,-0.2692297399044037,9.74576187133789,-0.00044352460994534954,-0.001944582361438502,0.019067694530965525,1.035883903503418,2019-06-21 12:48:46:327,0.0,0.0,0.0
0.1394343078136444,-0.19259774684906006,9.85352611541748,-0.0009762868976330894,0.0007192291095094877,0.018401741972066787,1.0400028228759766,2019-06-21 12:48:46:331,0.0,0.0,0.0
0.1729608029127121,-0.19499249756336212,9.858315467834473,-0.0009762868976330894,0.006979186062986335,0.018534933316084377,1.0450224876403809,2019-06-21 12:48:46:336,0.0,0.0,0.0
0.13464480638504028,-0.15907125174999237,9.755340576171875,-0.005105194505303233,0.010442141241794904,0.012807738812841724,1.050893783569336,2019-06-21 12:48:46:342,0.0,0.0,0.0
0.09872355312108994,-0.1375184953212738,9.62602424621582,-0.00017714346610147965,0.009110235083700131,0.011209452047306374,1.0550060272216797,2019-06-21 12:48:46:346,0.0,0.0,0.0
0.06040756031870842,-0.1303342580795288,9.669130325317383,-0.004972004201582946,-0.002077772925233114,0.007480115740908581,1.0608882904052734,2019-06-21 12:48:46:352,0.0,0.0,0.0
0.11069730669260025,-0.09680775552988052,9.68349838256836,0.0004888094016355178,-0.0006126766584737978,0.008146068299807315,1.0650272369384766,2019-06-21 12:48:46:356,0.0,0.0,0.0
0.1657765507698059,-0.07764975726604462,9.796051979064941,-0.0020418114079899874,0.0011188008659119059,0.010943070399568499,1.0700197219848633,2019-06-21 12:48:46:361,0.0,0.0,0.0
0.1466185450553894,-0.10878150165081024,9.822394371032715,-0.001242668025222314,0.0068459952391173974,0.005215875896325846,1.075883388519287,2019-06-21 12:48:46:367,0.0,0.0,0.0
0.13464480638504028,-0.16865025460720062,9.80323600769043,-0.0035069077397678855,0.008311091700932456,0.0005542059684586724,1.0808897018432617,2019-06-21 12:48:46:372,0.0,0.0,0.0
0.05322331190109253,-0.16865025460720062,9.69547176361084,-0.0005767152062492525,0.004315374527019763,0.00454992333742711,1.085005760192871,2019-06-21 12:48:46:376,0.0,0.0,0.0
0.029275815933942795,-0.21175573766231537,9.676314353942871,-0.001642239716606151,0.0035162311442520897,0.0018861116714233767,1.0909438133239746,2019-06-21 12:48:46:382,0.0,0.0,0.0
0.03885481506586075,-0.23330849409103394,9.781682968139648,-0.002840954920794824,-0.0011454389786708283,-0.00011174689115100237,1.0950183868408203,2019-06-21 12:48:46:386,0.0,0.0,0.0
0.01730206608772278,-0.25965073704719543,9.769709587097168,-0.0024413832294109873,0.0035162311442520897,-0.00011174689115100237,1.100895881652832,2019-06-21 12:48:46:392,0.0,0.0,0.0
0.05322331190109253,-0.20696623623371124,9.798446655273438,0.0014211433807070943,0.00671280493539711,-0.003175130142883378,1.1050043106079102,2019-06-21 12:48:46:396,0.0,0.0,0.0
-0.025803428143262863,-0.2620454728603363,9.772104263305664,0.003019430146242442,0.0035162311442520897,-0.0034415112704726026,1.110910415649414,2019-06-21 12:48:46:402,0.0,0.0,0.0
0.0005388186546042562,-0.242887482047081,9.72420883178711,0.0014211433807070943,-0.0006126766584737978,-0.005439369727391787,1.1150140762329102,2019-06-21 12:48:46:406,0.0,0.0,0.0
0.005328318104147911,-0.1638607531785965,9.776893615722656,8.92376858697129e-05,-0.0030101070018325625,-0.012764851516318438,1.120889663696289,2019-06-21 12:48:46:412,0.0,0.0,0.0
0.1274605542421341,-0.08243925869464874,9.690682411193848,-0.0005767152062492525,-0.0011454389786708283,-0.00823637182715297,1.1250066757202148,2019-06-21 12:48:46:416,0.0,0.0,0.0
0.13225005567073822,-0.041728515177965164,9.72420883178711,0.001687524508296319,-0.0023441541828595016,-0.009967848896408605,1.1308932304382324,2019-06-21 12:48:46:422,0.0,0.0,0.0
0.13464480638504028,-0.020175766199827194,9.764920234680176,0.0006219999979394207,-0.0010122483498576347,-0.010101040240426193,1.1349983215332031,2019-06-21 12:48:46:426,0.0,0.0,0.0
0.16338180005550385,0.020534979179501534,9.767314910888672,0.0004888094016355178,-7.991434640409003e-05,-0.011432945358223666,1.1408987045288086,2019-06-21 12:48:46:432,0.0,0.0,0.0
0.11309205740690231,-0.041728515177965164,9.764920234680176,0.0019539056358855436,-0.004342012639778686,-0.010101040240426193,1.145007610321045,2019-06-21 12:48:46:436,0.0,0.0,0.0
0.1394343078136444,-0.06328126043081284,9.827183723449707,0.0023534773272693805,-0.0015450106700546653,-0.011699327005961541,1.150888442993164,2019-06-21 12:48:46:442,0.0,0.0,0.0
0.18253979086875916,-0.056097012013196945,9.769709587097168,0.0006219999979394207,0.005380899297450987,-0.012764851516318438,1.1550207138061523,2019-06-21 12:48:46:446,0.0,0.0,0.0
0.06519705802202225,-0.12315000593662262,9.77449893951416,0.004084954916673665,0.0008524196733041,-0.01809247406810293,1.1609015464782715,2019-06-21 12:48:46:452,0.0,0.0,0.0
0.06040756031870842,-0.21175573766231537,9.796051979064941,0.005150479166956239,-0.0016782012338492774,-0.01676056791000816,1.1650018692016602,2019-06-21 12:48:46:456,0.0,0.0,0.0
0.036460064351558685,-0.235703244805336,9.769709587097168,0.0042181454804682775,-0.0012786295424654405,-0.01622780565482971,1.1708879470825195,2019-06-21 12:48:46:462,0.0,0.0,0.0
0.01730206608772278,-0.2093609869480133,9.80323600769043,0.0036853832252898284,0.0009856102370987122,-0.014363138281853788,1.1750068664550781,2019-06-21 12:48:46:466,0.0,0.0,0.0
0.029275815933942795,-0.24528223276138306,9.819998741149902,0.006615575628771298,-0.003143297565627175,-0.016494187302567583,1.1809396743774414,2019-06-21 12:48:46:472,0.0,0.0,0.0
-0.03777717798948288,-0.2285189926624298,9.81520938873291,0.003019430146242442,-0.0011454389786708283,-0.014363138281853788,1.1850214004516602,2019-06-21 12:48:46:476,0.0,0.0,0.0
0.0077230678871273994,-0.2764139771461487,9.879867553710938,0.004084954916673665,0.0001864668055671025,-0.01516228114447281,1.1908941268920898,2019-06-21 12:48:46:482,0.0,0.0,0.0
-0.009040179662406445,-0.3195194900035858,9.757735252380371,0.005150479166956239,-0.005007965718826072,-0.014496328585574073,1.1950006484985352,2019-06-21 12:48:46:486,0.0,0.0,0.0
0.014907317236065865,-0.2500717341899872,9.805630683898926,0.004750907735646727,-0.0034096786932164,-0.01263166017230085,1.2009172439575195,2019-06-21 12:48:46:492,0.0,0.0,0.0
0.03167056292295456,-0.29317721724510193,9.798446655273438,0.003285811533905992,-0.001944582361438502,-0.012498469868580563,1.205005168914795,2019-06-21 12:48:46:496,0.0,0.0,0.0
0.04603906348347664,-0.24049273133277893,9.721814155578613,0.003951764352879053,-0.007005823915670932,-0.01516228114447281,1.2108874320983887,2019-06-21 12:48:46:502,0.0,0.0,0.0
0.012512567453086376,-0.190202996134758,9.657155990600586,0.0015543339445017069,-0.00514115602254636,-0.011832517309681828,1.215005874633789,2019-06-21 12:48:46:506,0.0,0.0,0.0
0.13703955709934235,-0.24049273133277893,9.688287734985352,0.00608281337359285,-0.003676059820805624,-0.015428662792210685,1.2208890914916992,2019-06-21 12:48:46:512,0.0,0.0,0.0
0.13703955709934235,-0.190202996134758,9.68349838256836,0.005283669990825176,-0.002077772925233114,-0.012764851516318438,1.225022792816162,2019-06-21 12:48:46:516,0.0,0.0,0.0
0.15619754791259766,-0.16146600246429443,9.743367195129395,0.0027530490186532175,0.0015183725572957428,-0.011432945358223666,1.230909824371338,2019-06-21 12:48:46:522,0.0,0.0,0.0
0.13464480638504028,-0.18541349470615387,9.719419479370117,-0.0005767152062492525,-0.003542869257011012,-0.010900183103045216,1.2350025177001953,2019-06-21 12:48:46:526,0.0,0.0,0.0
0.18972404301166534,-0.12315000593662262,9.678709030151367,-0.0011094774614277016,-0.002477344746654114,-0.008902324386051706,1.2409210205078125,2019-06-21 12:48:46:532,0.0,0.0,0.0
0.2256452888250351,-0.14949224889278412,9.681103706359863,-0.00017714346610147965,-0.0015450106700546653,-0.01622780565482971,1.2450213432312012,2019-06-21 12:48:46:536,0.0,0.0,0.0
0.20409254729747772,-0.13512374460697174,9.808025360107422,-0.000843096333838477,0.0025838971976898037,-0.014363138281853788,1.2508955001831055,2019-06-21 12:48:46:542,0.0,0.0,0.0
0.2184610366821289,-0.21415048837661743,9.740972518920898,-0.0013758585890169264,0.0011188008659119059,-0.012764851516318438,1.2550029754638672,2019-06-21 12:48:46:546,0.0,0.0,0.0
0.18253979086875916,-0.2548612356185913,9.78647232055664,0.003285811533905992,0.0049813273459928245,-0.008635943258462482,1.2608857154846191,2019-06-21 12:48:46:552,0.0,0.0,0.0
0.17056605219841003,-0.25246649980545044,9.702656745910645,0.0011547622531178697,0.003915802835635926,-0.008369562130873257,1.2650022506713867,2019-06-21 12:48:46:556,0.0,0.0,0.0
0.101118303835392,-0.2548612356185913,9.676314353942871,0.0036853832252898284,0.005114518169861762,-0.00930189633750987,1.2700400352478027,2019-06-21 12:48:46:561,0.0,0.0,0.0
0.09872355312108994,-0.2883877456188202,9.738577842712402,-0.0021750019717846,-0.00074586722226841,-0.011699327005961541,1.275892734527588,2019-06-21 12:48:46:567,0.0,0.0,0.0
0.0939340591430664,-0.2500717341899872,9.73378849029541,-4.395289011588339e-05,5.327622958150625e-05,-0.01116656475078309,1.280888557434082,2019-06-21 12:48:46:572,0.0,0.0,0.0
0.13703955709934235,-0.2692297399044037,9.779288291931152,0.0006219999979394207,0.006180042680218661,-0.005439369727391787,1.2850046157836914,2019-06-21 12:48:46:576,0.0,0.0,0.0
0.10351305454969406,-0.24049273133277893,9.78647232055664,0.003285811533905992,0.007778329445754008,-0.008902324386051706,1.290907859802246,2019-06-21 12:48:46:582,0.0,0.0,0.0
0.08196030557155609,-0.20696623623371124,9.769709587097168,0.001687524508296319,0.004048993399430539,-0.008369562130873257,1.2950105667114258,2019-06-21 12:48:46:586,0.0,0.0,0.0
0.08674980700016022,-0.19738724827766418,9.78647232055664,-0.002974145484589436,0.0049813273459928245,-0.0023759865000413795,1.3000078201293945,2019-06-21 12:48:46:591,0.0,0.0,0.0
0.13225005567073822,-0.1830187439918518,9.781682968139648,-0.0013758585890169264,0.003782612271841314,-0.0018432243749000928,1.305891990661621,2019-06-21 12:48:46:597,0.0,0.0,0.0
0.13464480638504028,-0.1566765010356903,9.74576187133789,0.0022202867634747683,0.004048993399430539,0.0053490667201947836,1.310002326965332,2019-06-21 12:48:46:601,0.0,0.0,0.0
0.09872355312108994,-0.2093609869480133,9.829578399658203,-0.0015090491528115383,0.004581755914683313,0.001619730543834152,1.3158879280090332,2019-06-21 12:48:46:607,0.0,0.0,0.0
0.10351305454969406,-0.24049273133277893,9.79126262664795,-0.00031033404615073726,0.006313232983938947,0.004816304465016335,1.3200316429138184,2019-06-21 12:48:46:611,0.0,0.0,0.0
0.1202763020992279,-0.17822924256324768,9.73378849029541,-0.001775430280400763,0.005114518169861762,0.0028184457480228253,1.3258857727050781,2019-06-21 12:48:46:617,0.0,0.0,0.0
0.07956556230783463,-0.1710449904203415,9.750551223754883,-0.0005767152062492525,0.008977044779979845,0.007213734613319356,1.3299970626831055,2019-06-21 12:48:46:621,0.0,0.0,0.0
0.09153930842876434,-0.242887482047081,9.70505142211914,0.0019539056358855436,0.001251991429706518,0.005082685592605559,1.335892677307129,2019-06-21 12:48:46:627,0.0,0.0,0.0
0.08914455771446228,-0.2093609869480133,9.755340576171875,0.001287952816912482,0.004048993399430539,0.005748638151504296,1.3400087356567383,2019-06-21 12:48:46:631,0.0,0.0,0.0
0.11309205740690231,-0.21893998980522156,9.731393814086914,-0.00044352460994534954,0.0028502783252790285,0.006281400406682744,1.3458805084228516,2019-06-21 12:48:46:637,0.0,0.0,0.0
0.07956556230783463,-0.22612424194812775,9.822394371032715,0.007015147580229461,0.004848137042272538,0.011609022958467236,1.3500003814697266,2019-06-21 12:48:46:641,0.0,0.0,0.0
-0.032987676560878754,-0.21415048837661743,9.697867393493652,-0.005371575632892458,0.003383040580457477,0.010010736192931888,1.355888843536377,2019-06-21 12:48:46:647,0.0,0.0,0.0
0.07956556230783463,-0.3458617329597473,9.690682411193848,-0.0009762868976330894,0.0011188008659119059,0.011742214302484824,1.3600068092346191,2019-06-21 12:48:46:651,0.0,0.0,0.0
0.026881065219640732,-0.21415048837661743,9.8319730758667,0.005150479166956239,-0.0010122483498576347,0.00947797393775344,1.3658952713012695,2019-06-21 12:48:46:657,0.0,0.0,0.0
0.03167056292295456,-0.13272900879383087,9.879867553710938,-0.010299626753367437,-0.00074586722226841,0.006814162661861195,1.3700084686279297,2019-06-21 12:48:46:661,0.0,0.0,0.0
0.08196030557155609,-0.3985462188720703,9.738577842712402,0.00954576803225277,0.009509807035158293,0.007879687172218092,1.3758840560913086,2019-06-21 12:48:46:667,0.0,0.0,0.0
0.04124956205487251,-0.16625550389289856,9.726603507995605,0.007814290962997135,0.0072455671905755584,0.009611165281771028,1.3799986839294434,2019-06-21 12:48:46:671,0.0,0.0,0.0
0.010117817670106888,0.030113978311419487,9.719419479370117,-0.009367292546730827,0.0021843255063059668,0.005215875896325846,1.3859076499938965,2019-06-21 12:48:46:677,0.0,0.0,0.0
0.03406531363725662,-0.24767698347568512,9.702656745910645,-0.0055047664567613955,-0.003143297565627175,0.013207310764299884,1.390005111694336,2019-06-21 12:48:46:681,0.0,0.0,0.0
0.0484338141977787,-0.15428175032138824,9.808025360107422,0.0042181454804682775,-0.003942440948394849,0.007879687172218092,1.3958816528320312,2019-06-21 12:48:46:687,0.0,0.0,0.0
0.10590780526399612,0.049271974712610245,9.961289405822754,-0.008834530291552376,0.005780470728760498,0.006414591230551682,1.400001049041748,2019-06-21 12:48:46:691,0.0,0.0,0.0
0.08435505628585815,-0.3913619816303253,9.882262229919434,0.0042181454804682775,0.01057533154551519,0.010010736192931888,1.4058899879455566,2019-06-21 12:48:46:697,0.0,0.0,0.0
0.08196030557155609,-0.3530459702014923,9.78647232055664,0.009412577728532483,0.012306808614770825,0.010143927536949477,1.4100136756896973,2019-06-21 12:48:46:701,0.0,0.0,0.0
-0.03538242727518082,-0.0034125184174627066,9.709840774536133,-0.005637956760481682,0.0049813273459928245,0.004150351385968948,1.4158878326416016,2019-06-21 12:48:46:707,0.0,0.0,0.0
-0.05214567482471466,-0.4320726990699768,9.594892501831055,0.0056832419422833385,-0.009270064280402316,0.009877545889211602,1.4208898544311523,2019-06-21 12:48:46:712,0.0,0.0,0.0
0.03167056292295456,-0.30515098571777344,9.652366638183594,0.00435133604426289,-0.01193387555629456,0.004150351385968948,1.4250221252441406,2019-06-21 12:48:46:716,0.0,0.0,0.0
0.07238131016492844,0.015745479613542557,9.875078201293945,-0.008301768556522577,-0.006473061660492482,0.007480115740908581,1.4300193786621094,2019-06-21 12:48:46:721,0.0,0.0,0.0
0.17775028944015503,-0.35544073581695557,9.863104820251465,0.004750907735646727,0.0015183725572957428,0.007746496868497805,1.4358835220336914,2019-06-21 12:48:46:727,0.0,0.0,0.0
0.13703955709934235,-0.08722876012325287,9.891841888427734,-0.0005767152062492525,0.014437857635484622,0.0069473534857301305,1.4408917427062988,2019-06-21 12:48:46:732,0.0,0.0,0.0
0.01969681680202484,0.05406147614121437,9.73378849029541,-0.006437100143249356,0.00671280493539711,0.0037507796945851113,1.4450063705444336,2019-06-21 12:48:46:736,0.0,0.0,0.0
0.05561806261539459,-0.33149322867393494,9.58531379699707,0.008080672090586358,-0.00807134842602783,0.005748638151504296,1.4508886337280273,2019-06-21 12:48:46:742,0.0,0.0,0.0
0.029275815933942795,-0.12793950736522675,9.688287734985352,0.0008883811255286454,-0.012999400066651462,0.007613306044628867,1.4550495147705078,2019-06-21 12:48:46:746,0.0,0.0,0.0
0.17775028944015503,-0.10638675838708878,9.875078201293945,-0.0048388133777140085,-0.004741584591236848,0.0010869682236371214,1.4608960151672363,2019-06-21 12:48:46:752,0.0,0.0,0.0
0.1657765507698059,-0.3195194900035858,9.793657302856445,0.000755190561734033,0.008977044779979845,0.0065477815342719695,1.4658842086791992,2019-06-21 12:48:46:757,0.0,0.0,0.0
0.17056605219841003,-0.10638675838708878,9.760130882263184,0.0042181454804682775,0.007911519749474296,0.008812021378854704,1.4699983596801758,2019-06-21 12:48:46:761,0.0,0.0,0.0
0.0939340591430664,-0.10399200767278671,9.664340019226074,-0.0020418114079899874,0.007911519749474296,0.0032180174394066618,1.4750518798828125,2019-06-21 12:48:46:766,0.0,0.0,0.0
0.010117817670106888,-0.22612424194812775,9.551787376403809,0.0023534773272693805,-0.007139014739539869,0.0025520646204336005,1.4808921813964844,2019-06-21 12:48:46:772,0.0,0.0,0.0
0.0077230678871273994,-0.17343974113464355,9.616445541381836,0.003019430146242442,-0.005407537150135584,0.0008205870960478969,1.4850034713745117,2019-06-21 12:48:46:776,0.0,0.0,0.0
0.036460064351558685,-0.18780824542045593,9.793657302856445,-0.0035069077397678855,-0.004208822075984073,-0.0017100338111054802,1.490891456604004,2019-06-21 12:48:46:782,0.0,0.0,0.0
0.15140804648399353,-0.2740192413330078,9.788866996765137,0.0011547622531178697,-7.991434640409003e-05,0.0025520646204336005,1.4950065612792969,2019-06-21 12:48:46:786,0.0,0.0,0.0
0.08196030557155609,-0.22133474051952362,9.889447212219238,0.0015543339445017069,0.005114518169861762,-0.0038410829618564396,1.5000419616699219,2019-06-21 12:48:46:791,0.0,0.0,0.0
0.0747760608792305,-0.15907125174999237,9.68349838256836,-0.0031073360483840485,0.007112376366706621,0.0005542059684586724,1.5058860778808594,2019-06-21 12:48:46:797,0.0,0.0,0.0
0.05322331190109253,-0.17822924256324768,9.645182609558105,0.0015543339445017069,0.0035162311442520897,-0.004773416648344401,1.5108890533447266,2019-06-21 12:48:46:802,0.0,0.0,0.0
0.026881065219640732,-0.16625550389289856,9.671525001525879,-0.0025745737932055994,-0.00660625248436142,-0.00024493746307293734,1.5150060653686523,2019-06-21 12:48:46:806,0.0,0.0,0.0
0.06998655945062637,-0.14470274746418,9.712235450744629,-0.002308192665616375,-0.003542869257011012,-0.0014436525534790934,1.520029067993164,2019-06-21 12:48:46:811,0.0,0.0,0.0
0.09872355312108994,-0.14949224889278412,9.836762428283691,0.001687524508296319,0.003649421708046702,-0.000378128043122195,1.5258808135986328,2019-06-21 12:48:46:817,0.0,0.0,0.0
0.13225005567073822,-0.16865025460720062,9.819998741149902,0.0018207150720909312,0.005514089601171274,-0.000378128043122195,1.5299997329711914,2019-06-21 12:48:46:821,0.0,0.0,0.0
0.07717081159353256,-0.11357100307941437,9.800841331481934,-0.0025745737932055994,0.008977044779979845,-0.005439369727391787,1.5358901023864746,2019-06-21 12:48:46:827,0.0,0.0,0.0
-0.01622442901134491,-0.10878150165081024,9.719419479370117,-0.00044352460994534954,0.00298346888907364,0.0013533494162449274,1.540003776550293,2019-06-21 12:48:46:831,0.0,0.0,0.0
0.0747760608792305,-0.17822924256324768,9.697867393493652,0.003019430146242442,-0.003143297565627175,0.0001546342608201902,1.5459089279174805,2019-06-21 12:48:46:837,0.0,0.0,0.0
0.05801280960440636,-0.14470274746418,9.738577842712402,0.001687524508296319,-0.0040756315121894615,0.0009537776598425092,1.5500059127807617,2019-06-21 12:48:46:841,0.0,0.0,0.0
0.0939340591430664,-0.17343974113464355,9.824789047241211,0.0015543339445017069,0.0035162311442520897,0.0012201588524503152,1.5558829307556152,2019-06-21 12:48:46:847,0.0,0.0,0.0
0.1202763020992279,-0.19499249756336212,9.81520938873291,0.0028862395824478296,0.007511948318164784,-0.004773416648344401,1.560927391052246,2019-06-21 12:48:46:852,0.0,0.0,0.0
0.03167056292295456,-0.14470274746418,9.808025360107422,0.000755190561734033,0.004448565090814376,-0.002109605502489317,1.5650224685668945,2019-06-21 12:48:46:856,0.0,0.0,0.0
0.06998655945062637,-0.17583449184894562,9.755340576171875,0.0014211433807070943,0.001651563121090355,-0.003041939579088766,1.5700054168701172,2019-06-21 12:48:46:861,0.0,0.0,0.0
0.010117817670106888,-0.18780824542045593,9.717024803161621,0.0036853832252898284,-0.0015450106700546653,-0.003707892398061828,1.5758819580078125,2019-06-21 12:48:46:867,0.0,0.0,0.0
0.05561806261539459,-0.15428175032138824,9.764920234680176,0.0015543339445017069,-0.005407537150135584,-0.007437228444385297,1.5799999237060547,2019-06-21 12:48:46:871,0.0,0.0,0.0
0.07956556230783463,-0.22612424194812775,9.808025360107422,0.0036853832252898284,0.0017847536848849673,-0.0066380850616176235,1.5859041213989258,2019-06-21 12:48:46:877,0.0,0.0,0.0
0.0747760608792305,-0.2021767497062683,9.796051979064941,0.0004888094016355178,0.00298346888907364,-0.0033083207066779904,1.590010643005371,2019-06-21 12:48:46:881,0.0,0.0,0.0
0.05561806261539459,-0.25246649980545044,9.743367195129395,0.0006219999979394207,0.002317516070100579,-0.0033083207066779904,1.5958833694458008,2019-06-21 12:48:46:887,0.0,0.0,0.0
0.03167056292295456,-0.23330849409103394,9.719419479370117,-0.0036400983035624977,0.007778329445754008,-0.00876913408233142,1.6000213623046875,2019-06-21 12:48:46:891,0.0,0.0,0.0
0.026881065219640732,-0.15428175032138824,9.65476131439209,-0.001775430280400763,-0.004342012639778686,-0.004507035520755176,1.6059026718139648,2019-06-21 12:48:46:897,0.0,0.0,0.0
0.010117817670106888,-0.2093609869480133,9.784077644348145,-0.0031073360483840485,0.002450706633895191,-0.0033083207066779904,1.6100130081176758,2019-06-21 12:48:46:901,0.0,0.0,0.0
0.10590780526399612,-0.20457148551940918,9.769709587097168,0.0034190020977006037,0.004848137042272538,-0.00730403762051636,1.6158876419067383,2019-06-21 12:48:46:907,0.0,0.0,0.0
0.024486316367983818,-0.16146600246429443,9.865499496459961,-0.002308192665616375,0.005380899297450987,-0.00677127536533791,1.619999885559082,2019-06-21 12:48:46:911,0.0,0.0,0.0
0.03406531363725662,-0.2093609869480133,9.717024803161621,-0.002840954920794824,0.007911519749474296,-0.006371703934028398,1.6258931159973145,2019-06-21 12:48:46:917,0.0,0.0,0.0
0.03885481506586075,-0.18062399327754974,9.65476131439209,0.0042181454804682775,0.005514089601171274,-0.013563994378937462,1.6300163269042969,2019-06-21 12:48:46:921,0.0,0.0,0.0
-0.018619179725646973,-0.19738724827766418,9.750551223754883,0.0011547622531178697,-0.0028769164380379507,-0.013830376026675337,1.6358880996704102,2019-06-21 12:48:46:927,0.0,0.0,0.0
0.05801280960440636,-0.23809799551963806,9.755340576171875,0.0014211433807070943,-0.00074586722226841,-0.007170847316796072,1.6408891677856445,2019-06-21 12:48:46:932,0.0,0.0,0.0
0.07717081159353256,-0.18062399327754974,9.757735252380371,-0.001242668025222314,-0.0018113917976438896,-0.01076699279932493,1.645895004272461,2019-06-21 12:48:46:937,0.0,0.0,0.0
0.022091565653681755,-0.19978199899196625,9.812814712524414,-0.0019086208441953755,0.005380899297450987,-0.012365279564860278,1.650899887084961,2019-06-21 12:48:46:942,0.0,0.0,0.0
0.036460064351558685,-0.235703244805336,9.760130882263184,0.0036853832252898284,0.0005860385457148754,-0.0029087490152941535,1.6550045013427734,2019-06-21 12:48:46:946,0.0,0.0,0.0
0.0077230678871273994,-0.1830187439918518,9.755340576171875,0.0014211433807070943,-0.0011454389786708283,-0.013297613771496887,1.6608905792236328,2019-06-21 12:48:46:952,0.0,0.0,0.0
0.04603906348347664,-0.2021767497062683,9.70505142211914,0.000755190561734033,-0.00074586722226841,-0.003175130142883378,1.6650094985961914,2019-06-21 12:48:46:956,0.0,0.0,0.0
0.0484338141977787,-0.24049273133277893,9.721814155578613,-0.000843096333838477,-0.0023441541828595016,-0.012764851516318438,1.6708917617797852,2019-06-21 12:48:46:962,0.0,0.0,0.0
0.05801280960440636,-0.19259774684906006,9.709840774536133,-0.0007099057700438648,0.002717087761484416,-0.010633802495604642,1.6750011444091797,2019-06-21 12:48:46:966,0.0,0.0,0.0
0.07238131016492844,-0.19499249756336212,9.788866996765137,-0.0015090491528115383,0.006313232983938947,-0.013430804075217176,1.6809186935424805,2019-06-21 12:48:46:972,0.0,0.0,0.0
0.05561806261539459,-0.21415048837661743,9.738577842712402,-0.000843096333838477,0.0017847536848849673,-0.00730403762051636,1.6850042343139648,2019-06-21 12:48:46:976,0.0,0.0,0.0
0.036460064351558685,-0.20457148551940918,9.784077644348145,-0.0035069077397678855,0.003915802835635926,-0.01076699279932493,1.6908893585205078,2019-06-21 12:48:46:982,0.0,0.0,0.0
0.036460064351558685,-0.21415048837661743,9.740972518920898,-0.0007099057700438648,-0.002077772925233114,-0.011033373406765504,1.695004940032959,2019-06-21 12:48:46:986,0.0,0.0,0.0
0.06280230730772018,-0.21415048837661743,9.80323600769043,0.0027530490186532175,0.0003196573856163601,-0.010900183103045216,1.7000417709350586,2019-06-21 12:48:46:991,0.0,0.0,0.0
0.050828561186790466,-0.21175573766231537,9.827183723449707,0.0010215716893232575,0.0019179442486795795,-0.011432945358223666,1.7058849334716797,2019-06-21 12:48:46:997,0.0,0.0,0.0
0.08914455771446228,-0.2021767497062683,9.822394371032715,-0.0024413832294109873,0.007112376366706621,-0.008502752954742196,1.710000991821289,2019-06-21 12:48:47:001,0.0,0.0,0.0
0.07238131016492844,-0.21415048837661743,9.702656745910645,-0.002840954920794824,0.0015183725572957428,-0.009035514689771994,1.7158899307250977,2019-06-21 12:48:47:007,0.0,0.0,0.0
0.05322331190109253,-0.1830187439918518,9.709840774536133,-0.0005767152062492525,0.0028502783252790285,-0.010900183103045216,1.7200031280517578,2019-06-21 12:48:47:011,0.0,0.0,0.0
0.06998655945062637,-0.19499249756336212,9.673919677734375,0.0031526207100370544,-0.003676059820805624,-0.012098897917122403,1.7259149551391602,2019-06-21 12:48:47:017,0.0,0.0,0.0
0.09872355312108994,-0.20696623623371124,9.738577842712402,0.0003556188378409054,0.001251991429706518,-0.012898041820038725,1.7300114631652832,2019-06-21 12:48:47:021,0.0,0.0,0.0
0.0939340591430664,-0.1830187439918518,9.769709587097168,-0.0027077643570002116,0.003782612271841314,-0.01223208926113999,1.7358808517456055,2019-06-21 12:48:47:027,0.0,0.0,0.0
0.09872355312108994,-0.21175573766231537,9.714630126953125,0.0022202867634747683,0.004448565090814376,-0.009701468288968031,1.7399978637695312,2019-06-21 12:48:47:031,0.0,0.0,0.0
0.08435505628585815,-0.19978199899196625,9.776893615722656,0.003285811533905992,-0.000213104918326025,-0.012498469868580563,1.745920181274414,2019-06-21 12:48:47:037,0.0,0.0,0.0
0.050828561186790466,-0.16625550389289856,9.717024803161621,-0.00523838532917217,-0.002077772925233114,-0.008902324386051706,1.750011920928955,2019-06-21 12:48:47:041,0.0,0.0,0.0
0.07956556230783463,-0.17822924256324768,9.70505142211914,0.0008883811255286454,0.0011188008659119059,-0.013430804075217176,1.7558841705322266,2019-06-21 12:48:47:047,0.0,0.0,0.0
0.1274605542421341,-0.16146600246429443,9.77449893951416,-0.0015090491528115383,-7.991434640409003e-05,-0.006238513110159461,1.7608904838562012,2019-06-21 12:48:47:052,0.0,0.0,0.0
0.1394343078136444,-0.17583449184894562,9.805630683898926,-0.0005767152062492525,0.002450706633895191,-0.011432945358223666,1.765005111694336,2019-06-21 12:48:47:056,0.0,0.0,0.0
0.14182904362678528,-0.2285189926624298,9.731393814086914,-0.0007099057700438648,-0.0018113917976438896,-0.010900183103045216,1.7708921432495117,2019-06-21 12:48:47:062,0.0,0.0,0.0
0.10830255597829819,-0.20696623623371124,9.776893615722656,-0.0015090491528115383,0.006579614111528172,-0.01023423054414648,1.7750272750854492,2019-06-21 12:48:47:066,0.0,0.0,0.0
0.11309205740690231,-0.18062399327754974,9.721814155578613,0.0008883811255286454,0.0072455671905755584,-0.00730403762051636,1.7808923721313477,2019-06-21 12:48:47:072,0.0,0.0,0.0
0.10351305454969406,-0.2165452390909195,9.726603507995605,-4.395289011588339e-05,0.0013851819935011304,-0.00930189633750987,1.7849993705749512,2019-06-21 12:48:47:076,0.0,0.0,0.0
0.1202763020992279,-0.17583449184894562,9.750551223754883,0.0008883811255286454,-7.991434640409003e-05,-0.007170847316796072,1.7908916473388672,2019-06-21 12:48:47:082,0.0,0.0,0.0
0.1394343078136444,-0.16865025460720062,9.767314910888672,-0.00577114758435062,0.0025838971976898037,-0.008369562130873257,1.7958898544311523,2019-06-21 12:48:47:087,0.0,0.0,0.0
0.13703955709934235,-0.21893998980522156,9.77449893951416,-0.0020418114079899874,0.006313232983938947,-0.009168706033789581,1.7999992370605469,2019-06-21 12:48:47:091,0.0,0.0,0.0
0.1202763020992279,-0.15428175032138824,9.70505142211914,8.92376858697129e-05,0.0013851819935011304,-0.006504894237748685,1.805891990661621,2019-06-21 12:48:47:097,0.0,0.0,0.0
0.12267105281352997,-0.17822924256324768,9.707446098327637,-0.002974145484589436,0.0004528479494109724,-0.006371703934028398,1.8100051879882812,2019-06-21 12:48:47:101,0.0,0.0,0.0
0.1466185450553894,-0.16146600246429443,9.764920234680176,-0.001642239716606151,0.0009856102370987122,-0.004240654653240277,1.815922737121582,2019-06-21 12:48:47:107,0.0,0.0,0.0
0.1202763020992279,-0.15907125174999237,9.784077644348145,-0.0044392419464044965,5.327622958150625e-05,-0.003041939579088766,1.820021152496338,2019-06-21 12:48:47:111,0.0,0.0,0.0
0.13464480638504028,-0.13991324603557587,9.752945899963379,0.0015543339445017069,0.0011188008659119059,-0.004240654653240277,1.8258938789367676,2019-06-21 12:48:47:117,0.0,0.0,0.0
0.15140804648399353,-0.17343974113464355,9.760130882263184,-0.00044352460994534954,0.004448565090814376,-0.003707892398061828,1.830000877380371,2019-06-21 12:48:47:121,0.0,0.0,0.0
0.14422379434108734,-0.18780824542045593,9.764920234680176,-0.0031073360483840485,5.327622958150625e-05,-0.004906607472213338,1.8350276947021484,2019-06-21 12:48:47:126,0.0,0.0,0.0
0.11788155138492584,-0.17343974113464355,9.714630126953125,-0.0007099057700438648,0.002317516070100579,-0.010633802495604642,1.840895652770996,2019-06-21 12:48:47:132,0.0,0.0,0.0
0.08914455771446228,-0.15428175032138824,9.77449893951416,0.0018207150720909312,-0.0004794860621698949,-0.0034415112704726026,1.845001220703125,2019-06-21 12:48:47:136,0.0,0.0,0.0
0.10830255597829819,-0.22133474051952362,9.750551223754883,0.0015543339445017069,-0.0016782012338492774,-0.0025091770638359916,1.8508853912353516,2019-06-21 12:48:47:142,0.0,0.0,0.0
0.0939340591430664,-0.15428175032138824,9.776893615722656,-0.0011094774614277016,-0.0006126766584737978,-0.003707892398061828,1.855006217956543,2019-06-21 12:48:47:146,0.0,0.0,0.0
0.1394343078136444,-0.15907125174999237,9.800841331481934,0.0019539056358855436,0.004581755914683313,0.001619730543834152,1.8609113693237305,2019-06-21 12:48:47:152,0.0,0.0,0.0
0.16338180005550385,-0.19978199899196625,9.72420883178711,-0.00044352460994534954,-0.0011454389786708283,-0.004373845217034889,1.865018367767334,2019-06-21 12:48:47:156,0.0,0.0,0.0
0.16817130148410797,-0.16865025460720062,9.72420883178711,-4.395289011588339e-05,0.003383040580457477,-0.0010440808620952565,1.8708887100219727,2019-06-21 12:48:47:162,0.0,0.0,0.0
0.10830255597829819,-0.19738724827766418,9.712235450744629,0.0020870961996801557,0.0028502783252790285,-0.00011174689115100237,1.8750066757202148,2019-06-21 12:48:47:166,0.0,0.0,0.0
0.11309205740690231,-0.17343974113464355,9.74576187133789,0.003285811533905992,0.0007192291095094877,0.001619730543834152,1.8809070587158203,2019-06-21 12:48:47:172,0.0,0.0,0.0
0.17535555362701416,-0.19738724827766418,9.721814155578613,-0.0015090491528115383,-0.00074586722226841,0.0004210154046640601,1.8858857154846191,2019-06-21 12:48:47:177,0.0,0.0,0.0
0.13464480638504028,-0.14470274746418,9.743367195129395,-0.0007099057700438648,-0.003676059820805624,-0.000378128043122195,1.8908891677856445,2019-06-21 12:48:47:182,0.0,0.0,0.0
0.17775028944015503,-0.18062399327754974,9.728999137878418,0.0019539056358855436,0.002717087761484416,0.0025520646204336005,1.8950071334838867,2019-06-21 12:48:47:186,0.0,0.0,0.0
0.08914455771446228,-0.1830187439918518,9.764920234680176,-0.0007099057700438648,0.0032498500166628654,0.0069473534857301305,1.900916576385498,2019-06-21 12:48:47:192,0.0,0.0,0.0
0.11548680067062378,-0.17822924256324768,9.752945899963379,0.0023534773272693805,0.001651563121090355,0.0002878248408694478,1.9050168991088867,2019-06-21 12:48:47:196,0.0,0.0,0.0
0.15140804648399353,-0.20457148551940918,9.74576187133789,-0.0011094774614277016,0.002450706633895191,0.0033512080032012744,1.9108972549438477,2019-06-21 12:48:47:202,0.0,0.0,0.0
0.14422379434108734,-0.21175573766231537,9.740972518920898,-0.00031033404615073726,0.0013851819935011304,0.004683113641147397,1.9150028228759766,2019-06-21 12:48:47:206,0.0,0.0,0.0
0.11548680067062378,-0.1830187439918518,9.767314910888672,0.0020870961996801557,-0.002077772925233114,0.008678831075134416,1.9209227561950684,2019-06-21 12:48:47:212,0.0,0.0,0.0
0.1274605542421341,-0.190202996134758,9.690682411193848,0.0035521926614952163,0.004848137042272538,0.00428354194976356,1.9250235557556152,2019-06-21 12:48:47:216,0.0,0.0,0.0
0.12506580352783203,-0.1830187439918518,9.69547176361084,0.0011547622531178697,0.0019179442486795795,0.006281400406682744,1.9308929443359375,2019-06-21 12:48:47:222,0.0,0.0,0.0
0.07956556230783463,-0.20696623623371124,9.77449893951416,0.0031526207100370544,-0.0016782012338492774,0.004949494768736622,1.9350042343139648,2019-06-21 12:48:47:226,0.0,0.0,0.0
0.14422379434108734,-0.17583449184894562,9.779288291931152,0.0003556188378409054,0.0001864668055671025,0.005881828975373233,1.9408855438232422,2019-06-21 12:48:47:232,0.0,0.0,0.0
0.08914455771446228,-0.15907125174999237,9.77449893951416,0.0027530490186532175,0.003649421708046702,0.0069473534857301305,1.945004940032959,2019-06-21 12:48:47:236,0.0,0.0,0.0
0.11788155138492584,-0.1710449904203415,9.77449893951416,-0.0007099057700438648,0.002717087761484416,0.007879687172218092,1.9509038925170898,2019-06-21 12:48:47:242,0.0,0.0,0.0
0.06998655945062637,-0.19499249756336212,9.824789047241211,0.0022202867634747683,0.001651563121090355,0.009078403026592578,1.9550056457519531,2019-06-21 12:48:47:246,0.0,0.0,0.0
0.1202763020992279,-0.21415048837661743,9.85352611541748,0.003285811533905992,0.0025838971976898037,0.0025520646204336005,1.960890769958496,2019-06-21 12:48:47:252,0.0,0.0,0.0
0.10351305454969406,-0.20696623623371124,9.757735252380371,0.005283669990825176,-0.0008790577860630224,0.005082685592605559,1.9650187492370605,2019-06-21 12:48:47:256,0.0,0.0,0.0
0.07956556230783463,-0.2021767497062683,9.707446098327637,-0.0007099057700438648,0.002717087761484416,0.005215875896325846,1.970898151397705,2019-06-21 12:48:47:262,0.0,0.0,0.0
0.08196030557155609,-0.1710449904203415,9.798446655273438,0.001287952816912482,0.002317516070100579,0.0029516363118174374,1.9750022888183594,2019-06-21 12:48:47:266,0.0,0.0,0.0
0.10590780526399612,-0.190202996134758,9.788866996765137,0.003951764352879053,0.0019179442486795795,0.0036175891307904987,1.9808883666992188,2019-06-21 12:48:47:272,0.0,0.0,0.0
0.05561806261539459,-0.17343974113464355,9.772104263305664,-0.0007099057700438648,0.0025838971976898037,0.004150351385968948,1.9850053787231445,2019-06-21 12:48:47:276,0.0,0.0,0.0
0.09153930842876434,-0.16625550389289856,9.748156547546387,-0.0007099057700438648,-0.003542869257011012,0.005082685592605559,1.990891456604004,2019-06-21 12:48:47:282,0.0,0.0,0.0
0.101118303835392,-0.20457148551940918,9.748156547546387,0.0019539056358855436,-0.0004794860621698949,0.0028184457480228253,1.9950251579284668,2019-06-21 12:48:47:286,0.0,0.0,0.0
0.07956556230783463,-0.2093609869480133,9.748156547546387,0.002619858454858605,-0.002610535310448726,0.0029516363118174374,2.0009164810180664,2019-06-21 12:48:47:292,0.0,0.0,0.0
0.03167056292295456,-0.18541349470615387,9.788866996765137,0.0004888094016355178,0.0011188008659119059,0.00947797393775344,2.005004405975342,2019-06-21 12:48:47:296,0.0,0.0,0.0
0.05561806261539459,-0.190202996134758,9.788866996765137,-0.0025745737932055994,0.0017847536848849673,0.006814162661861195,2.010894775390625,2019-06-21 12:48:47:302,0.0,0.0,0.0
0.06519705802202225,-0.14949224889278412,9.788866996765137,0.0020870961996801557,0.003383040580457477,-0.0033083207066779904,2.0150060653686523,2019-06-21 12:48:47:306,0.0,0.0,0.0
0.050828561186790466,-0.20457148551940918,9.76252555847168,0.0056832419422833385,-0.00074586722226841,0.0024188740566389883,2.020887851715088,2019-06-21 12:48:47:312,0.0,0.0,0.0
0.06759180873632431,-0.2165452390909195,9.779288291931152,0.002619858454858605,-0.0003462954983752826,-0.0006445091707114195,2.025010108947754,2019-06-21 12:48:47:316,0.0,0.0,0.0
0.08674980700016022,-0.23091374337673187,9.77449893951416,0.0018207150720909312,0.0004528479494109724,0.0009537776598425092,2.030893325805664,2019-06-21 12:48:47:322,0.0,0.0,0.0
0.0747760608792305,-0.17583449184894562,9.796051979064941,-4.395289011588339e-05,0.0004528479494109724,0.002019302235217989,2.0350027084350586,2019-06-21 12:48:47:326,0.0,0.0,0.0
0.11788155138492584,-0.16625550389289856,9.731393814086914,0.0056832419422833385,-0.0003462954983752826,-0.004240654653240277,2.0409059524536133,2019-06-21 12:48:47:332,0.0,0.0,0.0
0.07238131016492844,-0.18780824542045593,9.743367195129395,-0.0024413832294109873,-7.991434640409003e-05,0.0017529211076287644,2.0450053215026855,2019-06-21 12:48:47:336,0.0,0.0,0.0
0.08914455771446228,-0.18541349470615387,9.700262069702148,0.006349194501182075,-0.005007965718826072,0.0022856834928443757,2.0508904457092285,2019-06-21 12:48:47:342,0.0,0.0,0.0
0.06280230730772018,-0.2021767497062683,9.743367195129395,0.0027530490186532175,0.0007192291095094877,0.0038839702583797235,2.055008888244629,2019-06-21 12:48:47:346,0.0,0.0,0.0
0.09872355312108994,-0.19738724827766418,9.841551780700684,-0.0013758585890169264,-0.0015450106700546653,0.0013533494162449274,2.060910224914551,2019-06-21 12:48:47:352,0.0,0.0,0.0
0.09632880985736847,-0.13991324603557587,9.77449893951416,0.0034190020977006037,0.002450706633895191,-0.002642367627630604,2.06500244140625,2019-06-21 12:48:47:356,0.0,0.0,0.0
0.09872355312108994,-0.16146600246429443,9.748156547546387,-0.000843096333838477,0.00298346888907364,-0.0015768431172737056,2.070887565612793,2019-06-21 12:48:47:362,0.0,0.0,0.0
0.11069730669260025,-0.18780824542045593,9.779288291931152,-0.0009762868976330894,0.00298346888907364,-0.003175130142883378,2.075009822845459,2019-06-21 12:48:47:366,0.0,0.0,0.0
0.0939340591430664,-0.20457148551940918,9.693077087402344,0.0008883811255286454,0.0025838971976898037,-0.00011174689115100237,2.0809078216552734,2019-06-21 12:48:47:372,0.0,0.0,0.0
0.0939340591430664,-0.16865025460720062,9.781682968139648,0.00022242825779164786,-0.0004794860621698949,0.0013533494162449274,2.0850143432617188,2019-06-21 12:48:47:376,0.0,0.0,0.0
0.09632880985736847,-0.1710449904203415,9.769709587097168,0.0035521926614952163,-0.002610535310448726,-0.00011174689115100237,2.0908865928649902,2019-06-21 12:48:47:382,0.0,0.0,0.0
0.11788155138492584,-0.22133474051952362,9.764920234680176,-0.00044352460994534954,0.0005860385457148754,0.0036175891307904987,2.0950074195861816,2019-06-21 12:48:47:386,0.0,0.0,0.0
0.08674980700016022,-0.190202996134758,9.79126262664795,0.0058164322460036244,0.001651563121090355,-0.002109605502489317,2.1009459495544434,2019-06-21 12:48:47:392,0.0,0.0,0.0
0.06519705802202225,-0.2021767497062683,9.827183723449707,0.0027530490186532175,0.0020511348124741917,-0.00024493746307293734,2.105022430419922,2019-06-21 12:48:47:396,0.0,0.0,0.0
0.11309205740690231,-0.14470274746418,9.728999137878418,0.0008883811255286454,-0.0004794860621698949,0.0006873965322532847,2.110888957977295,2019-06-21 12:48:47:402,0.0,0.0,0.0
0.09632880985736847,-0.18780824542045593,9.779288291931152,0.0020870961996801557,0.0047149462184036,-0.002242795936246767,2.1150074005126953,2019-06-21 12:48:47:406,0.0,0.0,0.0
0.08196030557155609,-0.19499249756336212,9.76252555847168,0.0020870961996801557,-0.0016782012338492774,0.0005542059684586724,2.1208906173706055,2019-06-21 12:48:47:412,0.0,0.0,0.0
0.06519705802202225,-0.17583449184894562,9.757735252380371,0.0024866678910639927,-0.0003462954983752826,-0.004906607472213338,2.125011920928955,2019-06-21 12:48:47:416,0.0,0.0,0.0
0.06519705802202225,-0.16625550389289856,9.812814712524414,0.0010215716893232575,-0.0018113917976438896,0.0014865399800395396,2.13089656829834,2019-06-21 12:48:47:422,0.0,0.0,0.0
0.05561806261539459,-0.18541349470615387,9.750551223754883,0.0006219999979394207,0.0028502783252790285,-0.001976414938694705,2.1350016593933105,2019-06-21 12:48:47:426,0.0,0.0,0.0
0.06998655945062637,-0.18541349470615387,9.740972518920898,0.0022202867634747683,-0.0010122483498576347,-0.004107464089445664,2.14088773727417,2019-06-21 12:48:47:432,0.0,0.0,0.0
0.10351305454969406,-0.17343974113464355,9.767314910888672,8.92376858697129e-05,5.327622958150625e-05,0.0014865399800395396,2.145005702972412,2019-06-21 12:48:47:436,0.0,0.0,0.0
0.05801280960440636,-0.19259774684906006,9.73378849029541,0.004484526608057502,0.0008524196733041,0.0024188740566389883,2.150050640106201,2019-06-21 12:48:47:441,0.0,0.0,0.0
0.0939340591430664,-0.15907125174999237,9.707446098327637,0.0011547622531178697,0.0005860385457148754,-0.0017100338111054802,2.1558895111083984,2019-06-21 12:48:47:447,0.0,0.0,0.0
0.07717081159353256,-0.1830187439918518,9.688287734985352,-0.0020418114079899874,0.004048993399430539,-0.0034415112704726026,2.160890579223633,2019-06-21 12:48:47:452,0.0,0.0,0.0
0.12267105281352997,-0.18780824542045593,9.714630126953125,-0.0036400983035624977,0.0015183725572957428,0.005082685592605559,2.165003776550293,2019-06-21 12:48:47:456,0.0,0.0,0.0
0.07956556230783463,-0.18780824542045593,9.73378849029541,-0.000843096333838477,0.0007192291095094877,-0.0014436525534790934,2.1708927154541016,2019-06-21 12:48:47:462,0.0,0.0,0.0
0.08196030557155609,-0.1566765010356903,9.721814155578613,-0.00031033404615073726,0.005913661552629436,0.0034843985669958865,2.1750307083129883,2019-06-21 12:48:47:466,0.0,0.0,0.0
0.11069730669260025,-0.19499249756336212,9.810420036315918,0.005550051118414401,0.002450706633895191,0.00308482687561205,2.1808953285217285,2019-06-21 12:48:47:472,0.0,0.0,0.0
0.11548680067062378,-0.17583449184894562,9.738577842712402,0.001287952816912482,0.0009856102370987122,-0.00011174689115100237,2.18499755859375,2019-06-21 12:48:47:476,0.0,0.0,0.0
0.101118303835392,-0.22372949123382568,9.79126262664795,0.0036853832252898284,0.006313232983938947,0.0009537776598425092,2.1908860206604004,2019-06-21 12:48:47:482,0.0,0.0,0.0
0.0939340591430664,-0.18062399327754974,9.72420883178711,-0.0007099057700438648,-0.003942440948394849,0.0005542059684586724,2.195004463195801,2019-06-21 12:48:47:486,0.0,0.0,0.0
0.1202763020992279,-0.22612424194812775,9.76252555847168,0.0011547622531178697,0.0019179442486795795,0.005215875896325846,2.2009291648864746,2019-06-21 12:48:47:492,0.0,0.0,0.0
0.09872355312108994,-0.16625550389289856,9.748156547546387,0.00435133604426289,5.327622958150625e-05,0.0038839702583797235,2.2049989700317383,2019-06-21 12:48:47:496,0.0,0.0,0.0
0.08674980700016022,-0.17822924256324768,9.72420883178711,-0.00044352460994534954,0.0020511348124741917,0.006680972358140907,2.2108864784240723,2019-06-21 12:48:47:502,0.0,0.0,0.0
0.12267105281352997,-0.18062399327754974,9.74576187133789,-0.0015090491528115383,-0.0006126766584737978,0.0022856834928443757,2.2158946990966797,2019-06-21 12:48:47:507,0.0,0.0,0.0
0.07238131016492844,-0.20457148551940918,9.779288291931152,0.002619858454858605,0.0049813273459928245,0.0028184457480228253,2.220890998840332,2019-06-21 12:48:47:512,0.0,0.0,0.0
0.11309205740690231,-0.19499249756336212,9.714630126953125,0.0011547622531178697,0.00298346888907364,0.0065477815342719695,2.225008964538574,2019-06-21 12:48:47:516,0.0,0.0,0.0
0.06998655945062637,-0.19259774684906006,9.798446655273438,-0.0025745737932055994,0.003383040580457477,-0.00011174689115100237,2.229351043701172,2019-06-21 12:48:47:520,0.0,0.0,0.0
0.08674980700016022,-0.18780824542045593,9.726603507995605,-0.0009762868976330894,-0.001944582361438502,0.0024188740566389883,2.234994888305664,2019-06-21 12:48:47:526,0.0,0.0,0.0
0.07956556230783463,-0.22372949123382568,9.736183166503906,-0.0036400983035624977,-0.0012786295424654405,0.004683113641147397,2.240884780883789,2019-06-21 12:48:47:532,0.0,0.0,0.0
0.06759180873632431,-0.2165452390909195,9.788866996765137,0.0034190020977006037,0.002717087761484416,0.004816304465016335,2.2459020614624023,2019-06-21 12:48:47:537,0.0,0.0,0.0
0.0939340591430664,-0.190202996134758,9.728999137878418,0.0006219999979394207,0.002717087761484416,0.004949494768736622,2.250006675720215,2019-06-21 12:48:47:541,0.0,0.0,0.0
0.0939340591430664,-0.19738724827766418,9.752945899963379,0.0046177169117777896,0.0003196573856163601,0.0013533494162449274,2.2558765411376953,2019-06-21 12:48:47:547,0.0,0.0,0.0
0.11309205740690231,-0.19259774684906006,9.772104263305664,0.0020870961996801557,-0.0014118201062600529,0.006680972358140907,2.2599916458129883,2019-06-21 12:48:47:551,0.0,0.0,0.0
0.07717081159353256,-0.18780824542045593,9.752945899963379,0.001687524508296319,0.0028502783252790285,0.001619730543834152,2.2658843994140625,2019-06-21 12:48:47:557,0.0,0.0,0.0
0.10590780526399612,-0.19738724827766418,9.69547176361084,-0.0005767152062492525,-0.0004794860621698949,-0.0006445091707114195,2.2709131240844727,2019-06-21 12:48:47:562,0.0,0.0,0.0
0.07717081159353256,-0.20457148551940918,9.769709587097168,0.003285811533905992,0.0015183725572957428,0.004816304465016335,2.2749991416931152,2019-06-21 12:48:47:566,0.0,0.0,0.0
0.07717081159353256,-0.15428175032138824,9.779288291931152,0.0015543339445017069,0.002317516070100579,0.00454992333742711,2.280886650085449,2019-06-21 12:48:47:572,0.0,0.0,0.0
0.08914455771446228,-0.1638607531785965,9.717024803161621,0.0003556188378409054,0.0001864668055671025,0.006281400406682744,2.285007953643799,2019-06-21 12:48:47:576,0.0,0.0,0.0
0.10351305454969406,-0.20696623623371124,9.748156547546387,0.000755190561734033,-0.0018113917976438896,0.00801287799608703,2.29091739654541,2019-06-21 12:48:47:582,0.0,0.0,0.0
0.0939340591430664,-0.20457148551940918,9.738577842712402,-0.001642239716606151,-0.0004794860621698949,0.002019302235217989,2.2950000762939453,2019-06-21 12:48:47:586,0.0,0.0,0.0
0.0747760608792305,-0.1638607531785965,9.798446655273438,0.0015543339445017069,0.0008524196733041,0.0022856834928443757,2.3008875846862793,2019-06-21 12:48:47:592,0.0,0.0,0.0
0.08674980700016022,-0.23091374337673187,9.769709587097168,0.00022242825779164786,0.0047149462184036,0.007346924917039643,2.3050079345703125,2019-06-21 12:48:47:596,0.0,0.0,0.0
0.11548680067062378,-0.2021767497062683,9.796051979064941,0.0003556188378409054,0.0015183725572957428,0.005615447847784009,2.3108935356140137,2019-06-21 12:48:47:602,0.0,0.0,0.0
0.12267105281352997,-0.235703244805336,9.819998741149902,8.92376858697129e-05,0.004581755914683313,0.0029516363118174374,2.3152074813842773,2019-06-21 12:48:47:606,0.0,0.0,0.0
0.11788155138492584,-0.22372949123382568,9.808025360107422,0.0011547622531178697,-0.002477344746654114,0.004017160822174336,2.320016860961914,2019-06-21 12:48:47:611,0.0,0.0,0.0
0.07717081159353256,-0.17343974113464355,9.769709587097168,0.0018207150720909312,-0.0018113917976438896,0.004683113641147397,2.3258800506591797,2019-06-21 12:48:47:617,0.0,0.0,0.0
0.08674980700016022,-0.17343974113464355,9.769709587097168,0.0023534773272693805,-0.0028769164380379507,0.0028184457480228253,2.329998016357422,2019-06-21 12:48:47:621,0.0,0.0,0.0
0.08435505628585815,-0.1830187439918518,9.78647232055664,0.004484526608057502,-0.0014118201062600529,0.0005542059684586724,2.335908889770508,2019-06-21 12:48:47:627,0.0,0.0,0.0
0.06040756031870842,-0.21415048837661743,9.79126262664795,-0.0005767152062492525,0.0028502783252790285,0.0002878248408694478,2.340005874633789,2019-06-21 12:48:47:631,0.0,0.0,0.0
0.06998655945062637,-0.20457148551940918,9.776893615722656,0.0035521926614952163,0.0003196573856163601,0.00428354194976356,2.3458786010742188,2019-06-21 12:48:47:637,0.0,0.0,0.0
0.0939340591430664,-0.2165452390909195,9.740972518920898,-0.0024413832294109873,-7.991434640409003e-05,0.0010869682236371214,2.3499979972839355,2019-06-21 12:48:47:641,0.0,0.0,0.0
0.03885481506586075,-0.23091374337673187,9.776893615722656,0.0027530490186532175,0.0020511348124741917,-0.002109605502489317,2.3558921813964844,2019-06-21 12:48:47:647,0.0,0.0,0.0
0.0484338141977787,-0.190202996134758,9.738577842712402,0.002619858454858605,0.0003196573856163601,-0.003574701834267215,2.360025405883789,2019-06-21 12:48:47:651,0.0,0.0,0.0
0.07238131016492844,-0.1638607531785965,9.779288291931152,0.0008883811255286454,0.0011188008659119059,-0.004773416648344401,2.365891456604004,2019-06-21 12:48:47:657,0.0,0.0,0.0
0.08674980700016022,-0.18780824542045593,9.750551223754883,0.0020870961996801557,0.0020511348124741917,-0.004507035520755176,2.3699965476989746,2019-06-21 12:48:47:661,0.0,0.0,0.0
0.08435505628585815,-0.18780824542045593,9.819998741149902,0.003285811533905992,0.002450706633895191,-0.000378128043122195,2.3759641647338867,2019-06-21 12:48:47:667,0.0,0.0,0.0
0.08674980700016022,-0.16146600246429443,9.812814712524414,0.001687524508296319,0.0008524196733041,-0.00823637182715297,2.380021572113037,2019-06-21 12:48:47:671,0.0,0.0,0.0
0.04124956205487251,-0.14230799674987793,9.743367195129395,0.0010215716893232575,5.327622958150625e-05,-0.005439369727391787,2.3858795166015625,2019-06-21 12:48:47:677,0.0,0.0,0.0
0.05561806261539459,-0.20457148551940918,9.798446655273438,-0.0013758585890169264,0.0003196573856163601,-0.0033083207066779904,2.390000820159912,2019-06-21 12:48:47:681,0.0,0.0,0.0
0.07238131016492844,-0.19978199899196625,9.779288291931152,-0.001642239716606151,0.0021843255063059668,-0.0066380850616176235,2.3958892822265625,2019-06-21 12:48:47:687,0.0,0.0,0.0
0.06519705802202225,-0.18541349470615387,9.72420883178711,-0.0013758585890169264,0.0003196573856163601,-0.006105322806439174,2.400003433227539,2019-06-21 12:48:47:691,0.0,0.0,0.0
0.08674980700016022,-0.1830187439918518,9.79126262664795,0.0014211433807070943,0.0003196573856163601,-0.0053061794236715,2.4058918952941895,2019-06-21 12:48:47:697,0.0,0.0,0.0
0.08674980700016022,-0.1566765010356903,9.748156547546387,-0.0020418114079899874,0.0049813273459928245,-0.005972131982570236,2.4108967781066895,2019-06-21 12:48:47:702,0.0,0.0,0.0
0.0747760608792305,-0.190202996134758,9.743367195129395,0.0003556188378409054,0.005380899297450987,-0.0038410829618564396,2.4149975776672363,2019-06-21 12:48:47:706,0.0,0.0,0.0
0.05322331190109253,-0.16865025460720062,9.719419479370117,0.0018207150720909312,0.005247708473582049,-0.0027755584514995413,2.4209108352661133,2019-06-21 12:48:47:712,0.0,0.0,0.0
0.09872355312108994,-0.1710449904203415,9.72420883178711,0.001287952816912482,-0.0004794860621698949,-0.0051729885998025625,2.4250097274780273,2019-06-21 12:48:47:716,0.0,0.0,0.0
0.07717081159353256,-0.18780824542045593,9.752945899963379,-4.395289011588339e-05,0.0028502783252790285,-0.001976414938694705,2.43088436126709,2019-06-21 12:48:47:722,0.0,0.0,0.0
0.07956556230783463,-0.19738724827766418,9.85352611541748,-4.395289011588339e-05,0.0004528479494109724,-0.001310461989684481,2.4350051879882812,2019-06-21 12:48:47:726,0.0,0.0,0.0
0.08914455771446228,-0.18062399327754974,9.755340576171875,0.0003556188378409054,0.0004528479494109724,-0.001310461989684481,2.440890312194824,2019-06-21 12:48:47:732,0.0,0.0,0.0
0.07717081159353256,-0.19499249756336212,9.78647232055664,0.003951764352879053,0.0008524196733041,-0.006504894237748685,2.4458799362182617,2019-06-21 12:48:47:737,0.0,0.0,0.0
0.05561806261539459,-0.19978199899196625,9.77449893951416,0.0027530490186532175,-0.003143297565627175,-0.003041939579088766,2.4500012397766113,2019-06-21 12:48:47:741,0.0,0.0,0.0
0.06998655945062637,-0.14709749817848206,9.757735252380371,0.005017288863235951,-0.0014118201062600529,-0.000378128043122195,2.455885410308838,2019-06-21 12:48:47:747,0.0,0.0,0.0
0.05801280960440636,-0.18780824542045593,9.714630126953125,0.0018207150720909312,-0.0011454389786708283,-0.002242795936246767,2.4599990844726562,2019-06-21 12:48:47:751,0.0,0.0,0.0
0.07717081159353256,-0.2165452390909195,9.76252555847168,0.003019430146242442,-0.0018113917976438896,-0.002109605502489317,2.4658918380737305,2019-06-21 12:48:47:757,0.0,0.0,0.0
0.1202763020992279,-0.18541349470615387,9.784077644348145,0.0015543339445017069,-0.0014118201062600529,0.0014865399800395396,2.4700093269348145,2019-06-21 12:48:47:761,0.0,0.0,0.0
0.06519705802202225,-0.17583449184894562,9.731393814086914,0.001687524508296319,-0.0010122483498576347,0.00548225702391507,2.4758806228637695,2019-06-21 12:48:47:767,0.0,0.0,0.0
0.10351305454969406,-0.1830187439918518,9.726603507995605,0.0024866678910639927,0.0005860385457148754,-0.0006445091707114195,2.4799981117248535,2019-06-21 12:48:47:771,0.0,0.0,0.0
0.03167056292295456,-0.1566765010356903,9.779288291931152,-0.0005767152062492525,5.327622958150625e-05,-0.0034415112704726026,2.485889434814453,2019-06-21 12:48:47:777,0.0,0.0,0.0
0.08196030557155609,-0.2165452390909195,9.76252555847168,0.003285811533905992,-0.00074586722226841,0.004017160822174336,2.4900035858154297,2019-06-21 12:48:47:781,0.0,0.0,0.0
0.08914455771446228,-0.2165452390909195,9.74576187133789,0.0028862395824478296,0.0047149462184036,0.002685255184228213,2.495882034301758,2019-06-21 12:48:47:787,0.0,0.0,0.0
0.08674980700016022,-0.17343974113464355,9.69547176361084,-0.0013758585890169264,5.327622958150625e-05,0.002152492799012601,2.4999990463256836,2019-06-21 12:48:47:791,0.0,0.0,0.0
0.08196030557155609,-0.18780824542045593,9.726603507995605,0.0038185737890844406,0.002450706633895191,-0.003574701834267215,2.505910873413086,2019-06-21 12:48:47:797,0.0,0.0,0.0
0.10830255597829819,-0.2021767497062683,9.697867393493652,-0.0031073360483840485,-0.004741584591236848,-0.0015768431172737056,2.510007858276367,2019-06-21 12:48:47:801,0.0,0.0,0.0
0.11548680067062378,-0.235703244805336,9.764920234680176,-0.0025745737932055994,-0.0012786295424654405,-0.0011772714258898686,2.515882968902588,2019-06-21 12:48:47:807,0.0,0.0,0.0
0.08196030557155609,-0.19499249756336212,9.779288291931152,0.001287952816912482,0.005780470728760498,0.004816304465016335,2.51999568939209,2019-06-21 12:48:47:811,0.0,0.0,0.0
0.11548680067062378,-0.20457148551940918,9.755340576171875,0.0035521926614952163,5.327622958150625e-05,0.0005542059684586724,2.525890350341797,2019-06-21 12:48:47:817,0.0,0.0,0.0
0.09872355312108994,-0.2093609869480133,9.748156547546387,-0.0005767152062492525,0.0003196573856163601,0.0017529211076287644,2.5300040245056152,2019-06-21 12:48:47:821,0.0,0.0,0.0
0.08674980700016022,-0.22133474051952362,9.700262069702148,-0.00044352460994534954,-0.0032764881294217877,0.0008205870960478969,2.535883903503418,2019-06-21 12:48:47:827,0.0,0.0,0.0
0.09632880985736847,-0.19978199899196625,9.79126262664795,0.0024866678910639927,-0.000213104918326025,0.0034843985669958865,2.539997100830078,2019-06-21 12:48:47:831,0.0,0.0,0.0
0.0939340591430664,-0.19259774684906006,9.717024803161621,0.0028862395824478296,0.00298346888907364,-0.00011174689115100237,2.5458903312683105,2019-06-21 12:48:47:837,0.0,0.0,0.0
0.10830255597829819,-0.22133474051952362,9.769709587097168,-0.00017714346610147965,0.0004528479494109724,0.0013533494162449274,2.5500059127807617,2019-06-21 12:48:47:841,0.0,0.0,0.0
0.08435505628585815,-0.17343974113464355,9.719419479370117,0.0004888094016355178,0.0017847536848849673,-0.0005113186069168071,2.555908203125,2019-06-21 12:48:47:847,0.0,0.0,0.0
0.10830255597829819,-0.17343974113464355,9.767314910888672,0.004084954916673665,-0.004208822075984073,-0.0009108902983006441,2.560904026031494,2019-06-21 12:48:47:852,0.0,0.0,0.0
0.07717081159353256,-0.18062399327754974,9.776893615722656,0.0020870961996801557,-0.0014118201062600529,0.004150351385968948,2.5650033950805664,2019-06-21 12:48:47:856,0.0,0.0,0.0
0.10590780526399612,-0.28599298000335693,9.779288291931152,0.0018207150720909312,-0.0008790577860630224,0.0006873965322532847,2.570895195007324,2019-06-21 12:48:47:862,0.0,0.0,0.0
0.050828561186790466,-0.20696623623371124,9.74576187133789,-0.0015090491528115383,0.0013851819935011304,0.0028184457480228253,2.5749964714050293,2019-06-21 12:48:47:866,0.0,0.0,0.0
0.10590780526399612,-0.15907125174999237,9.77449893951416,0.0020870961996801557,0.002450706633895191,-0.00011174689115100237,2.580890655517578,2019-06-21 12:48:47:872,0.0,0.0,0.0
0.10830255597829819,-0.16865025460720062,9.793657302856445,-0.0015090491528115383,0.0007192291095094877,-0.003041939579088766,2.5850062370300293,2019-06-21 12:48:47:876,0.0,0.0,0.0
0.07717081159353256,-0.18780824542045593,9.712235450744629,0.0042181454804682775,0.0032498500166628654,0.0006873965322532847,2.590892791748047,2019-06-21 12:48:47:882,0.0,0.0,0.0
0.06040756031870842,-0.17583449184894562,9.81520938873291,-4.395289011588339e-05,0.0013851819935011304,0.0006873965322532847,2.594998836517334,2019-06-21 12:48:47:886,0.0,0.0,0.0
0.13703955709934235,-0.20696623623371124,9.72420883178711,0.0014211433807070943,-0.0008790577860630224,0.0036175891307904987,2.6008944511413574,2019-06-21 12:48:47:892,0.0,0.0,0.0
0.06759180873632431,-0.17822924256324768,9.79126262664795,8.92376858697129e-05,-0.0023441541828595016,2.1443682802763245e-05,2.6060662269592285,2019-06-21 12:48:47:897,0.0,0.0,0.0
0.11788155138492584,-0.20696623623371124,9.77449893951416,-0.0007099057700438648,0.0035162311442520897,0.006814162661861195,2.6101388931274414,2019-06-21 12:48:47:901,0.0,0.0,0.0
0.07238131016492844,-0.18062399327754974,9.808025360107422,-4.395289011588339e-05,0.0013851819935011304,-0.001310461989684481,2.6158876419067383,2019-06-21 12:48:47:907,0.0,0.0,0.0
0.08435505628585815,-0.17583449184894562,9.743367195129395,-0.001242668025222314,-0.0014118201062600529,0.0018861116714233767,2.6199941635131836,2019-06-21 12:48:47:911,0.0,0.0,0.0
0.10351305454969406,-0.19499249756336212,9.731393814086914,0.0018207150720909312,0.003116659452868253,0.0024188740566389883,2.6258907318115234,2019-06-21 12:48:47:917,0.0,0.0,0.0
0.08674980700016022,-0.20457148551940918,9.808025360107422,-0.0007099057700438648,-0.00460839376736791,-0.0015768431172737056,2.630889415740967,2019-06-21 12:48:47:922,0.0,0.0,0.0
0.06519705802202225,-0.23330849409103394,9.776893615722656,0.0003556188378409054,0.0013851819935011304,-0.003707892398061828,2.6349987983703613,2019-06-21 12:48:47:926,0.0,0.0,0.0
0.11309205740690231,-0.2021767497062683,9.700262069702148,0.0023534773272693805,0.0019179442486795795,-0.004640226344624114,2.640890598297119,2019-06-21 12:48:47:932,0.0,0.0,0.0
0.06759180873632431,-0.1830187439918518,9.731393814086914,-0.0011094774614277016,0.005380899297450987,0.0018861116714233767,2.645003318786621,2019-06-21 12:48:47:936,0.0,0.0,0.0
0.043644312769174576,-0.19978199899196625,9.834367752075195,0.0028862395824478296,0.0005860385457148754,-0.001976414938694705,2.6509714126586914,2019-06-21 12:48:47:942,0.0,0.0,0.0
0.08674980700016022,-0.19259774684906006,9.77449893951416,0.002619858454858605,-7.991434640409003e-05,-0.0018432243749000928,2.655026435852051,2019-06-21 12:48:47:946,0.0,0.0,0.0
0.06998655945062637,-0.19499249756336212,9.824789047241211,-0.0005767152062492525,0.0004528479494109724,0.00454992333742711,2.6608948707580566,2019-06-21 12:48:47:952,0.0,0.0,0.0
0.07717081159353256,-0.18780824542045593,9.73378849029541,-0.0011094774614277016,-0.001944582361438502,-0.006371703934028398,2.6649956703186035,2019-06-21 12:48:47:956,0.0,0.0,0.0
0.06998655945062637,-0.17822924256324768,9.72420883178711,-0.0005767152062492525,-0.000213104918326025,0.0032180174394066618,2.670886516571045,2019-06-21 12:48:47:962,0.0,0.0,0.0
0.11069730669260025,-0.16146600246429443,9.736183166503906,-0.0007099057700438648,0.002450706633895191,-0.002242795936246767,2.675004005432129,2019-06-21 12:48:47:966,0.0,0.0,0.0
0.08674980700016022,-0.19259774684906006,9.748156547546387,0.001687524508296319,0.0013851819935011304,-0.00011174689115100237,2.6808857917785645,2019-06-21 12:48:47:972,0.0,0.0,0.0
0.07238131016492844,-0.14230799674987793,9.755340576171875,0.0022202867634747683,0.0017847536848849673,0.0002878248408694478,2.6849961280822754,2019-06-21 12:48:47:976,0.0,0.0,0.0
0.03885481506586075,-0.17583449184894562,9.757735252380371,0.00022242825779164786,-0.0004794860621698949,-0.005705750854981011,2.690889358520508,2019-06-21 12:48:47:982,0.0,0.0,0.0
0.036460064351558685,-0.190202996134758,9.776893615722656,-0.0009762868976330894,-7.991434640409003e-05,-0.003041939579088766,2.6950268745422363,2019-06-21 12:48:47:986,0.0,0.0,0.0
0.15140804648399353,-0.17343974113464355,9.836762428283691,0.0004888094016355178,5.327622958150625e-05,-0.001976414938694705,2.7009172439575195,2019-06-21 12:48:47:992,0.0,0.0,0.0
0.12985530495643616,-0.21175573766231537,9.74576187133789,0.0024866678910639927,-0.0003462954983752826,-0.005439369727391787,2.705902099609375,2019-06-21 12:48:47:997,0.0,0.0,0.0
0.07238131016492844,-0.18780824542045593,9.73378849029541,0.0019539056358855436,-0.0004794860621698949,-0.0005113186069168071,2.710887908935547,2019-06-21 12:48:48:002,0.0,0.0,0.0
0.08914455771446228,-0.19978199899196625,9.78647232055664,0.000755190561734033,0.002317516070100579,-0.0053061794236715,2.7150025367736816,2019-06-21 12:48:48:006,0.0,0.0,0.0
0.09632880985736847,-0.17343974113464355,9.750551223754883,-4.395289011588339e-05,-0.0016782012338492774,0.00308482687561205,2.720890998840332,2019-06-21 12:48:48:012,0.0,0.0,0.0
0.06280230730772018,-0.17822924256324768,9.721814155578613,-0.00017714346610147965,0.0003196573856163601,-0.004107464089445664,2.724996566772461,2019-06-21 12:48:48:016,0.0,0.0,0.0
0.08435505628585815,-0.15428175032138824,9.736183166503906,-0.001775430280400763,0.0020511348124741917,0.0002878248408694478,2.7308883666992188,2019-06-21 12:48:48:022,0.0,0.0,0.0
0.08914455771446228,-0.1638607531785965,9.752945899963379,-0.00017714346610147965,0.0005860385457148754,-0.005838941678849949,2.7350025177001953,2019-06-21 12:48:48:026,0.0,0.0,0.0
0.08196030557155609,-0.20457148551940918,9.719419479370117,-0.001642239716606151,0.0007192291095094877,0.0018861116714233767,2.7408885955810547,2019-06-21 12:48:48:032,0.0,0.0,0.0
0.09632880985736847,-0.1638607531785965,9.673919677734375,0.0024866678910639927,-0.0016782012338492774,-0.0009108902983006441,2.7450919151306152,2019-06-21 12:48:48:036,0.0,0.0,0.0
0.09632880985736847,-0.17822924256324768,9.788866996765137,-0.0021750019717846,-0.0023441541828595016,-0.006904466189206847,2.750894546508789,2019-06-21 12:48:48:042,0.0,0.0,0.0
0.06040756031870842,-0.18541349470615387,9.738577842712402,-0.001775430280400763,0.0028502783252790285,2.1443682802763245e-05,2.754995346069336,2019-06-21 12:48:48:046,0.0,0.0,0.0
0.09872355312108994,-0.2093609869480133,9.688287734985352,-0.0021750019717846,0.0009856102370987122,-0.002242795936246767,2.760885715484619,2019-06-21 12:48:48:052,0.0,0.0,0.0
0.08674980700016022,-0.20696623623371124,9.76252555847168,-0.001242668025222314,-0.0023441541828595016,-0.00024493746307293734,2.7650017738342285,2019-06-21 12:48:48:056,0.0,0.0,0.0
0.08914455771446228,-0.20457148551940918,9.68349838256836,-0.005105194505303233,0.0009856102370987122,-0.002109605502489317,2.7708888053894043,2019-06-21 12:48:48:062,0.0,0.0,0.0
0.07956556230783463,-0.17343974113464355,9.748156547546387,-0.00044352460994534954,0.001251991429706518,-0.0006445091707114195,2.7749972343444824,2019-06-21 12:48:48:066,0.0,0.0,0.0
0.05561806261539459,-0.1710449904203415,9.784077644348145,0.002619858454858605,-0.0016782012338492774,-0.003974273525651052,2.7808895111083984,2019-06-21 12:48:48:072,0.0,0.0,0.0
0.05801280960440636,-0.16625550389289856,9.743367195129395,0.0019539056358855436,-0.0011454389786708283,-0.004773416648344401,2.7850046157836914,2019-06-21 12:48:48:076,0.0,0.0,0.0
0.101118303835392,-0.17343974113464355,9.726603507995605,0.0015543339445017069,0.0015183725572957428,-0.003974273525651052,2.790938377380371,2019-06-21 12:48:48:082,0.0,0.0,0.0
0.07238131016492844,-0.16865025460720062,9.731393814086914,0.0018207150720909312,0.0015183725572957428,0.0014865399800395396,2.795022487640381,2019-06-21 12:48:48:086,0.0,0.0,0.0
0.07956556230783463,-0.21415048837661743,9.764920234680176,0.003019430146242442,-0.000213104918326025,-0.0027755584514995413,2.8008899688720703,2019-06-21 12:48:48:092,0.0,0.0,0.0
0.0939340591430664,-0.19978199899196625,9.755340576171875,0.0003556188378409054,-0.00074586722226841,-0.0014436525534790934,2.8050131797790527,2019-06-21 12:48:48:096,0.0,0.0,0.0
0.06280230730772018,-0.18541349470615387,9.72420883178711,0.0015543339445017069,-0.0006126766584737978,-0.0010440808620952565,2.8108839988708496,2019-06-21 12:48:48:102,0.0,0.0,0.0
0.07956556230783463,-0.2093609869480133,9.748156547546387,-0.0019086208441953755,0.001651563121090355,-0.003974273525651052,2.814999580383301,2019-06-21 12:48:48:106,0.0,0.0,0.0
0.05322331190109253,-0.21893998980522156,9.77449893951416,0.002619858454858605,-0.0015450106700546653,-0.0017100338111054802,2.820888042449951,2019-06-21 12:48:48:112,0.0,0.0,0.0
0.05801280960440636,-0.17343974113464355,9.757735252380371,0.0008883811255286454,0.001251991429706518,-0.001976414938694705,2.8249950408935547,2019-06-21 12:48:48:116,0.0,0.0,0.0
0.0939340591430664,-0.19738724827766418,9.757735252380371,0.003951764352879053,0.001651563121090355,2.1443682802763245e-05,2.8308868408203125,2019-06-21 12:48:48:122,0.0,0.0,0.0
0.08914455771446228,-0.16865025460720062,9.760130882263184,0.0004888094016355178,0.002317516070100579,-0.0009108902983006441,2.8350019454956055,2019-06-21 12:48:48:126,0.0,0.0,0.0
0.0939340591430664,-0.21415048837661743,9.752945899963379,0.00022242825779164786,-0.0008790577860630224,-0.001310461989684481,2.8409457206726074,2019-06-21 12:48:48:132,0.0,0.0,0.0
0.09153930842876434,-0.21415048837661743,9.769709587097168,0.0008883811255286454,0.0001864668055671025,-0.0051729885998025625,2.8450093269348145,2019-06-21 12:48:48:136,0.0,0.0,0.0
0.08914455771446228,-0.22133474051952362,9.760130882263184,0.003019430146242442,0.00298346888907364,-0.0038410829618564396,2.8508872985839844,2019-06-21 12:48:48:142,0.0,0.0,0.0
0.08674980700016022,-0.18541349470615387,9.717024803161621,0.0014211433807070943,-0.002610535310448726,0.0014865399800395396,2.855006217956543,2019-06-21 12:48:48:146,0.0,0.0,0.0
0.11548680067062378,-0.16625550389289856,9.779288291931152,-0.004306051122535559,0.0001864668055671025,-0.0051729885998025625,2.8608903884887695,2019-06-21 12:48:48:152,0.0,0.0,0.0
0.11788155138492584,-0.18541349470615387,9.78647232055664,0.0042181454804682775,0.0015183725572957428,-0.001976414938694705,2.8649978637695312,2019-06-21 12:48:48:156,0.0,0.0,0.0
0.101118303835392,-0.19259774684906006,9.740972518920898,-0.00031033404615073726,-0.0014118201062600529,-0.0007776997345060318,2.8708877563476562,2019-06-21 12:48:48:162,0.0,0.0,0.0
0.08435505628585815,-0.17343974113464355,9.750551223754883,-0.0020418114079899874,-0.0011454389786708283,-0.005972131982570236,2.8750104904174805,2019-06-21 12:48:48:166,0.0,0.0,0.0
0.14422379434108734,-0.23809799551963806,9.784077644348145,-0.0025745737932055994,-0.0008790577860630224,0.005881828975373233,2.880889892578125,2019-06-21 12:48:48:172,0.0,0.0,0.0
0.12267105281352997,-0.1830187439918518,9.738577842712402,-0.00031033404615073726,0.003116659452868253,0.0029516363118174374,2.8858885765075684,2019-06-21 12:48:48:177,0.0,0.0,0.0
0.09632880985736847,-0.18062399327754974,9.72420883178711,0.0008883811255286454,0.0001864668055671025,-0.004373845217034889,2.8909268379211426,2019-06-21 12:48:48:182,0.0,0.0,0.0
0.08196030557155609,-0.22612424194812775,9.661945343017578,0.0023534773272693805,-0.004208822075984073,-0.0025091770638359916,2.895000457763672,2019-06-21 12:48:48:186,0.0,0.0,0.0
0.07956556230783463,-0.2165452390909195,9.719419479370117,-0.00017714346610147965,-0.001944582361438502,0.0018861116714233767,2.9008913040161133,2019-06-21 12:48:48:192,0.0,0.0,0.0
0.07717081159353256,-0.2165452390909195,9.755340576171875,0.0022202867634747683,0.0041821839632251515,0.0012201588524503152,2.9050302505493164,2019-06-21 12:48:48:196,0.0,0.0,0.0
0.1394343078136444,-0.21893998980522156,9.798446655273438,-0.0013758585890169264,0.00298346888907364,0.0034843985669958865,2.9108924865722656,2019-06-21 12:48:48:202,0.0,0.0,0.0
0.06519705802202225,-0.19738724827766418,9.731393814086914,0.0024866678910639927,0.004448565090814376,0.0012201588524503152,2.91499662399292,2019-06-21 12:48:48:206,0.0,0.0,0.0
0.07238131016492844,-0.15907125174999237,9.709840774536133,0.0054168602945454634,-0.002077772925233114,-0.002109605502489317,2.920888900756836,2019-06-21 12:48:48:212,0.0,0.0,0.0
0.0939340591430664,-0.18780824542045593,9.781682968139648,-0.0011094774614277016,0.003116659452868253,-0.0011772714258898686,2.925006866455078,2019-06-21 12:48:48:216,0.0,0.0,0.0
0.08196030557155609,-0.2285189926624298,9.764920234680176,0.0022202867634747683,0.005380899297450987,-0.0007776997345060318,2.9309396743774414,2019-06-21 12:48:48:222,0.0,0.0,0.0
0.14422379434108734,-0.18780824542045593,9.805630683898926,0.0027530490186532175,-0.000213104918326025,-0.0033083207066779904,2.935915946960449,2019-06-21 12:48:48:227,0.0,0.0,0.0
0.12506580352783203,-0.15188699960708618,9.757735252380371,-0.0024413832294109873,-0.0011454389786708283,0.0025520646204336005,2.940007209777832,2019-06-21 12:48:48:231,0.0,0.0,0.0
0.0939340591430664,-0.1638607531785965,9.800841331481934,0.001687524508296319,0.00298346888907364,0.0018861116714233767,2.9458799362182617,2019-06-21 12:48:48:237,0.0,0.0,0.0
0.08435505628585815,-0.19978199899196625,9.80323600769043,0.001287952816912482,0.0019179442486795795,-0.0015768431172737056,2.9499950408935547,2019-06-21 12:48:48:241,0.0,0.0,0.0
0.06998655945062637,-0.21175573766231537,9.80323600769043,-0.0007099057700438648,-0.000213104918326025,-0.001310461989684481,2.955890655517578,2019-06-21 12:48:48:247,0.0,0.0,0.0
0.10351305454969406,-0.21175573766231537,9.702656745910645,-0.001775430280400763,0.0011188008659119059,0.0008205870960478969,2.960005283355713,2019-06-21 12:48:48:251,0.0,0.0,0.0
0.07717081159353256,-0.21415048837661743,9.752945899963379,0.003285811533905992,0.0017847536848849673,0.0013533494162449274,2.9658803939819336,2019-06-21 12:48:48:257,0.0,0.0,0.0
0.0747760608792305,-0.21175573766231537,9.772104263305664,0.0003556188378409054,0.0011188008659119059,0.0004210154046640601,2.970892906188965,2019-06-21 12:48:48:262,0.0,0.0,0.0
0.08674980700016022,-0.19499249756336212,9.779288291931152,0.0023534773272693805,0.0009856102370987122,-0.0025091770638359916,2.975353240966797,2019-06-21 12:48:48:266,0.0,0.0,0.0
0.11548680067062378,-0.15188699960708618,9.767314910888672,0.001287952816912482,0.003649421708046702,0.0018861116714233767,2.9800214767456055,2019-06-21 12:48:48:271,0.0,0.0,0.0
0.08674980700016022,-0.18062399327754974,9.750551223754883,-4.395289011588339e-05,0.003649421708046702,0.002685255184228213,2.9858789443969727,2019-06-21 12:48:48:277,0.0,0.0,0.0
0.09632880985736847,-0.2165452390909195,9.772104263305664,-0.00044352460994534954,0.0003196573856163601,0.008146068299807315,2.989996910095215,2019-06-21 12:48:48:281,0.0,0.0,0.0
0.0939340591430664,-0.17343974113464355,9.678709030151367,-0.0037732888673571103,0.0013851819935011304,0.00308482687561205,2.995889663696289,2019-06-21 12:48:48:287,0.0,0.0,0.0
0.09153930842876434,-0.1830187439918518,9.793657302856445,-0.000843096333838477,0.0011188008659119059,-0.001976414938694705,3.0000061988830566,2019-06-21 12:48:48:291,0.0,0.0,0.0
0.06998655945062637,-0.1710449904203415,9.738577842712402,8.92376858697129e-05,-0.0003462954983752826,-0.0011772714258898686,3.0059056282043457,2019-06-21 12:48:48:297,0.0,0.0,0.0
0.09632880985736847,-0.19978199899196625,9.69547176361084,0.0024866678910639927,0.0009856102370987122,0.0029516363118174374,3.0099992752075195,2019-06-21 12:48:48:301,0.0,0.0,0.0
0.06280230730772018,-0.17343974113464355,9.74576187133789,-0.0024413832294109873,-0.0027437258742433386,0.0029516363118174374,3.0158910751342773,2019-06-21 12:48:48:307,0.0,0.0,0.0
0.08435505628585815,-0.16865025460720062,9.740972518920898,0.0018207150720909312,-0.0004794860621698949,0.0034843985669958865,3.0208945274353027,2019-06-21 12:48:48:312,0.0,0.0,0.0
0.07956556230783463,-0.1638607531785965,9.764920234680176,0.0023534773272693805,-0.0030101070018325625,0.0017529211076287644,3.025026798248291,2019-06-21 12:48:48:316,0.0,0.0,0.0
0.04124956205487251,-0.235703244805336,9.76252555847168,-0.0033737171759732733,0.0011188008659119059,0.00308482687561205,3.0308942794799805,2019-06-21 12:48:48:322,0.0,0.0,0.0
0.07717081159353256,-0.19259774684906006,9.743367195129395,0.0038185737890844406,0.0001864668055671025,-0.0011772714258898686,3.034998893737793,2019-06-21 12:48:48:326,0.0,0.0,0.0
0.08196030557155609,-0.17583449184894562,9.760130882263184,-0.002308192665616375,-0.004741584591236848,0.0005542059684586724,3.0408878326416016,2019-06-21 12:48:48:332,0.0,0.0,0.0
0.06519705802202225,-0.19738724827766418,9.731393814086914,0.001287952816912482,0.0001864668055671025,0.0036175891307904987,3.04500675201416,2019-06-21 12:48:48:336,0.0,0.0,0.0
0.06998655945062637,-0.17583449184894562,9.755340576171875,-0.0031073360483840485,-0.0027437258742433386,0.001619730543834152,3.050887107849121,2019-06-21 12:48:48:342,0.0,0.0,0.0
0.12985530495643616,-0.2165452390909195,9.757735252380371,0.00022242825779164786,0.0008524196733041,0.0018861116714233767,3.054997444152832,2019-06-21 12:48:48:346,0.0,0.0,0.0
0.08196030557155609,-0.17343974113464355,9.76252555847168,0.0006219999979394207,0.0007192291095094877,0.0028184457480228253,3.0608882904052734,2019-06-21 12:48:48:352,0.0,0.0,0.0
0.11069730669260025,-0.190202996134758,9.839157104492188,-0.00044352460994534954,0.0028502783252790285,0.0053490667201947836,3.0661659240722656,2019-06-21 12:48:48:357,0.0,0.0,0.0
0.10830255597829819,-0.1710449904203415,9.752945899963379,0.0046177169117777896,-0.003942440948394849,0.002685255184228213,3.0700254440307617,2019-06-21 12:48:48:361,0.0,0.0,0.0
0.101118303835392,-0.19259774684906006,9.72420883178711,0.001287952816912482,0.00298346888907364,0.0028184457480228253,3.0758790969848633,2019-06-21 12:48:48:367,0.0,0.0,0.0
0.08914455771446228,-0.16146600246429443,9.776893615722656,0.001687524508296319,-0.005940299405314034,-0.003175130142883378,3.079996109008789,2019-06-21 12:48:48:371,0.0,0.0,0.0
0.101118303835392,-0.16625550389289856,9.736183166503906,0.0028862395824478296,0.0019179442486795795,-0.002109605502489317,3.0858888626098633,2019-06-21 12:48:48:377,0.0,0.0,0.0
0.0939340591430664,-0.17822924256324768,9.796051979064941,0.0015543339445017069,-0.0040756315121894615,0.0014865399800395396,3.0908899307250977,2019-06-21 12:48:48:382,0.0,0.0,0.0
0.08435505628585815,-0.15428175032138824,9.717024803161621,0.001687524508296319,-0.005407537150135584,0.0038839702583797235,3.0949959754943848,2019-06-21 12:48:48:386,0.0,0.0,0.0
0.12506580352783203,-0.16865025460720062,9.767314910888672,0.0020870961996801557,0.002317516070100579,0.0008205870960478969,3.0999975204467773,2019-06-21 12:48:48:391,0.0,0.0,0.0
0.11309205740690231,-0.15188699960708618,9.709840774536133,0.0014211433807070943,-0.003942440948394849,-0.0007776997345060318,3.1061997413635254,2019-06-21 12:48:48:397,0.0,0.0,0.0
0.07717081159353256,-0.23091374337673187,9.73378849029541,-0.0033737171759732733,-0.0006126766584737978,-0.001976414938694705,3.1100244522094727,2019-06-21 12:48:48:401,0.0,0.0,0.0
0.06280230730772018,-0.17822924256324768,9.776893615722656,0.005017288863235951,-0.003542869257011012,-0.0009108902983006441,3.115903854370117,2019-06-21 12:48:48:407,0.0,0.0,0.0
0.10590780526399612,-0.17583449184894562,9.726603507995605,-0.0007099057700438648,-0.0003462954983752826,-0.00011174689115100237,3.1208925247192383,2019-06-21 12:48:48:412,0.0,0.0,0.0
0.101118303835392,-0.21415048837661743,9.78647232055664,-0.002840954920794824,0.0020511348124741917,-0.0027755584514995413,3.1249966621398926,2019-06-21 12:48:48:416,0.0,0.0,0.0
0.0939340591430664,-0.18780824542045593,9.79126262664795,-0.0007099057700438648,0.004448565090814376,0.0008205870960478969,3.130892753601074,2019-06-21 12:48:48:422,0.0,0.0,0.0
0.14901329576969147,-0.21175573766231537,9.760130882263184,0.0024866678910639927,-0.0012786295424654405,0.002152492799012601,3.135009765625,2019-06-21 12:48:48:426,0.0,0.0,0.0
0.10830255597829819,-0.19259774684906006,9.743367195129395,0.0022202867634747683,0.004448565090814376,-0.002109605502489317,3.14088773727417,2019-06-21 12:48:48:432,0.0,0.0,0.0
0.09872355312108994,-0.19259774684906006,9.731393814086914,-0.0027077643570002116,-0.002610535310448726,0.002685255184228213,3.1449975967407227,2019-06-21 12:48:48:436,0.0,0.0,0.0
0.10351305454969406,-0.19738724827766418,9.798446655273438,-4.395289011588339e-05,-0.0004794860621698949,0.0036175891307904987,3.1509265899658203,2019-06-21 12:48:48:442,0.0,0.0,0.0
0.08914455771446228,-0.19738724827766418,9.719419479370117,0.004750907735646727,-0.004342012639778686,-0.0025091770638359916,3.155031204223633,2019-06-21 12:48:48:446,0.0,0.0,0.0
0.1202763020992279,-0.19978199899196625,9.767314910888672,0.0027530490186532175,0.001651563121090355,-0.0005113186069168071,3.1608948707580566,2019-06-21 12:48:48:452,0.0,0.0,0.0
0.07956556230783463,-0.18780824542045593,9.728999137878418,0.001287952816912482,0.002450706633895191,-0.0029087490152941535,3.1649937629699707,2019-06-21 12:48:48:456,0.0,0.0,0.0
0.13703955709934235,-0.17822924256324768,9.712235450744629,-0.00044352460994534954,-0.0027437258742433386,-0.004640226344624114,3.1708879470825195,2019-06-21 12:48:48:462,0.0,0.0,0.0
0.09153930842876434,-0.20696623623371124,9.709840774536133,0.0003556188378409054,-0.003942440948394849,-0.004107464089445664,3.1750078201293945,2019-06-21 12:48:48:466,0.0,0.0,0.0
0.13225005567073822,-0.20457148551940918,9.757735252380371,-0.002308192665616375,0.0003196573856163601,0.0010869682236371214,3.180889129638672,2019-06-21 12:48:48:472,0.0,0.0,0.0
0.12985530495643616,-0.190202996134758,9.779288291931152,-0.000843096333838477,-0.0010122483498576347,0.002019302235217989,3.184995651245117,2019-06-21 12:48:48:476,0.0,0.0,0.0
0.08196030557155609,-0.18780824542045593,9.74576187133789,0.0008883811255286454,0.0001864668055671025,-0.001310461989684481,3.1908907890319824,2019-06-21 12:48:48:482,0.0,0.0,0.0
0.08914455771446228,-0.19738724827766418,9.769709587097168,0.0006219999979394207,0.0009856102370987122,-0.002242795936246767,3.1950244903564453,2019-06-21 12:48:48:486,0.0,0.0,0.0
0.11069730669260025,-0.1638607531785965,9.784077644348145,0.0008883811255286454,-0.00074586722226841,-0.003574701834267215,3.201068878173828,2019-06-21 12:48:48:492,0.0,0.0,0.0
0.11548680067062378,-0.20457148551940918,9.740972518920898,-0.0024413832294109873,0.0019179442486795795,-0.002109605502489317,3.205003261566162,2019-06-21 12:48:48:496,0.0,0.0,0.0
0.11548680067062378,-0.2021767497062683,9.781682968139648,-0.001775430280400763,0.0009856102370987122,0.0024188740566389883,3.2108864784240723,2019-06-21 12:48:48:502,0.0,0.0,0.0
0.09632880985736847,-0.17343974113464355,9.73378849029541,0.00022242825779164786,-0.0027437258742433386,-0.0007776997345060318,3.215010643005371,2019-06-21 12:48:48:506,0.0,0.0,0.0
0.08674980700016022,-0.20457148551940918,9.750551223754883,-0.0027077643570002116,0.003116659452868253,0.0008205870960478969,3.220890522003174,2019-06-21 12:48:48:512,0.0,0.0,0.0
0.08914455771446228,-0.18541349470615387,9.743367195129395,0.0023534773272693805,0.0013851819935011304,-0.002242795936246767,3.224996566772461,2019-06-21 12:48:48:516,0.0,0.0,0.0
0.101118303835392,-0.1830187439918518,9.721814155578613,0.0028862395824478296,0.005380899297450987,-0.0006445091707114195,3.2308883666992188,2019-06-21 12:48:48:522,0.0,0.0,0.0
0.08914455771446228,-0.18541349470615387,9.740972518920898,-0.0005767152062492525,0.0025838971976898037,0.0010869682236371214,3.23500919342041,2019-06-21 12:48:48:526,0.0,0.0,0.0
0.11548680067062378,-0.22133474051952362,9.743367195129395,-0.004039669994946335,-0.0012786295424654405,-0.0027755584514995413,3.2408952713012695,2019-06-21 12:48:48:532,0.0,0.0,0.0
0.08674980700016022,-0.21415048837661743,9.79126262664795,0.0015543339445017069,-7.991434640409003e-05,-0.0010440808620952565,3.245908737182617,2019-06-21 12:48:48:537,0.0,0.0,0.0
0.10590780526399612,-0.22612424194812775,9.77449893951416,-0.002840954920794824,0.0008524196733041,-0.0027755584514995413,3.250894069671631,2019-06-21 12:48:48:542,0.0,0.0,0.0
0.08196030557155609,-0.19978199899196625,9.757735252380371,-0.00031033404615073726,-0.0016782012338492774,0.0029516363118174374,3.2549972534179688,2019-06-21 12:48:48:546,0.0,0.0,0.0
0.09153930842876434,-0.1830187439918518,9.702656745910645,0.00022242825779164786,0.0019179442486795795,0.0028184457480228253,3.2608885765075684,2019-06-21 12:48:48:552,0.0,0.0,0.0
0.06519705802202225,-0.2285189926624298,9.748156547546387,-0.001242668025222314,0.0013851819935011304,0.0017529211076287644,3.2650070190429688,2019-06-21 12:48:48:556,0.0,0.0,0.0
0.101118303835392,-0.2021767497062683,9.728999137878418,-0.0033737171759732733,0.0007192291095094877,0.0017529211076287644,3.2708892822265625,2019-06-21 12:48:48:562,0.0,0.0,0.0
0.09153930842876434,-0.20457148551940918,9.743367195129395,0.0018207150720909312,-0.0014118201062600529,0.0022856834928443757,3.274996757507324,2019-06-21 12:48:48:566,0.0,0.0,0.0
0.0939340591430664,-0.2021767497062683,9.740972518920898,0.0015543339445017069,0.0025838971976898037,0.005615447847784009,3.2808914184570312,2019-06-21 12:48:48:572,0.0,0.0,0.0
0.07717081159353256,-0.17583449184894562,9.750551223754883,-0.0024413832294109873,-7.991434640409003e-05,0.00308482687561205,3.2850074768066406,2019-06-21 12:48:48:576,0.0,0.0,0.0
0.09632880985736847,-0.17822924256324768,9.76252555847168,-0.000843096333838477,0.0008524196733041,0.002152492799012601,3.2909188270568848,2019-06-21 12:48:48:582,0.0,0.0,0.0
0.07717081159353256,-0.15188699960708618,9.784077644348145,0.001687524508296319,-0.002477344746654114,0.00308482687561205,3.294997215270996,2019-06-21 12:48:48:586,0.0,0.0,0.0
0.06998655945062637,-0.190202996134758,9.748156547546387,0.0042181454804682775,5.327622958150625e-05,0.004150351385968948,3.3008880615234375,2019-06-21 12:48:48:592,0.0,0.0,0.0
0.08435505628585815,-0.190202996134758,9.743367195129395,-0.001775430280400763,-0.0003462954983752826,0.0013533494162449274,3.3050079345703125,2019-06-21 12:48:48:596,0.0,0.0,0.0
0.03406531363725662,-0.15428175032138824,9.77449893951416,0.0020870961996801557,-0.0027437258742433386,0.0005542059684586724,3.3108911514282227,2019-06-21 12:48:48:602,0.0,0.0,0.0
0.0484338141977787,-0.12793950736522675,9.740972518920898,0.0010215716893232575,0.004048993399430539,-0.0029087490152941535,3.314995765686035,2019-06-21 12:48:48:606,0.0,0.0,0.0
0.06040756031870842,-0.17822924256324768,9.800841331481934,0.003285811533905992,0.0009856102370987122,0.0069473534857301305,3.320890426635742,2019-06-21 12:48:48:612,0.0,0.0,0.0
0.06280230730772018,-0.19499249756336212,9.717024803161621,-0.002840954920794824,0.0013851819935011304,0.005082685592605559,3.325009346008301,2019-06-21 12:48:48:616,0.0,0.0,0.0
