ACCELEROMETER X (m/s²),ACCELEROMETER Y (m/s²),ACCELEROMETER Z (m/s²),GYROSCOPE X (rad/s),GYROSCOPE Y (rad/s),GYROSCOPE Z (rad/s),Time since start in ms ,YYYY-MO-DD HH-MI-SS_SSS,MagX,MagY,MagZ
0.14322279393672943,-0.05718662217259407,9.7515287399292,-0.0004365987006280297,-0.002010778039135134,0.0020186363149083063,0.0,2019-06-21 14:52:50:044,0.0,0.0,0.0
0.12645955383777618,-0.05239712446928024,9.816186904907227,-0.003100410009029566,0.0022513201323296223,-0.0011779374762367137,0.0041217803955078125,2019-06-21 14:52:50:048,0.0,0.0,0.0
0.1647755354642868,-0.03802862390875816,9.76350212097168,-0.002567647753851117,-0.0002793006447865926,-0.0007783657198342955,0.009995460510253906,2019-06-21 14:52:50:054,0.0,0.0,0.0
0.17435453832149506,-0.023660127073526382,9.761107444763184,0.004358261823543047,0.00198493913477756,-0.0005119845597357803,0.014109134674072266,2019-06-21 14:52:50:058,0.0,0.0,0.0
0.15998604893684387,-0.02126537635922432,9.72279167175293,0.00036254474715822533,-0.0002793006447865926,-0.005440035517664307,0.019121170043945312,2019-06-21 14:52:50:063,0.0,0.0,0.0
0.15040704607963562,-0.07155512273311615,9.797028541564941,0.0027599750580077,0.0013189861857673363,-0.005706416645253532,0.024990081787109375,2019-06-21 14:52:50:069,0.0,0.0,0.0
0.11688055098056793,-0.05239712446928024,9.758712768554688,0.0010284975986405774,0.0021181296985721726,-0.003708558188334347,0.02909564971923828,2019-06-21 14:52:50:073,0.0,0.0,0.0
0.15040704607963562,-0.08831837028265,9.76350212097168,0.0014280692900244143,-0.002010778039135134,-0.007571085058526754,0.03499031066894531,2019-06-21 14:52:50:079,0.0,0.0,0.0
0.15519654750823975,-0.04281812533736229,9.7515287399292,0.003026356185596924,-1.2919485703992724e-05,-0.002776224241772061,0.04005002975463867,2019-06-21 14:52:50:084,0.0,0.0,0.0
0.16717028617858887,-0.018870627507567406,9.775476455688477,0.0006289259072567405,0.0035832260303500707,-0.002776224241772061,0.04410839080810547,2019-06-21 14:52:50:088,0.0,0.0,0.0
0.17435453832149506,-0.040423374623060226,9.787449836730957,-0.002834028881440342,0.004249178849323132,-0.0006451751560396832,0.04999399185180664,2019-06-21 14:52:50:094,0.0,0.0,0.0
0.15280179679393768,0.012261118739843369,9.758712768554688,-0.002834028881440342,0.002917273211377009,-0.005173654390075082,0.05410957336425781,2019-06-21 14:52:50:098,0.0,0.0,0.0
0.18153879046440125,-0.06437087059020996,9.753923416137695,-0.0042991253432554015,0.0014521767495619484,-0.0030426053693612854,0.059995174407958984,2019-06-21 14:52:50:104,0.0,0.0,0.0
0.15040704607963562,-0.04281812533736229,9.809002876281738,-0.0029672194452349536,0.0006530333667942747,-0.0033089864969505106,0.06410408020019531,2019-06-21 14:52:50:108,0.0,0.0,0.0
0.15998604893684387,-0.040423374623060226,9.797028541564941,0.0006289259072567405,-0.002143968602929746,-0.006638750851890143,0.06911468505859375,2019-06-21 14:52:50:113,0.0,0.0,0.0
0.15519654750823975,-0.07634461671113968,9.741949081420898,-0.0042991253432554015,0.0006530333667942747,-0.004640892134896633,0.0741109848022461,2019-06-21 14:52:50:118,0.0,0.0,0.0
0.16717028617858887,-0.07873936742544174,9.732370376586914,0.003958690132159211,0.003450035466555458,-0.0015775091676205506,0.0791158676147461,2019-06-21 14:52:50:123,0.0,0.0,0.0
0.171959787607193,-0.05239712446928024,9.789844512939453,-0.002834028881440342,0.003450035466555458,-0.004374511007307408,0.08411312103271484,2019-06-21 14:52:50:128,0.0,0.0,0.0
0.14801229536533356,-0.06916037201881409,9.7515287399292,0.0022272128028292507,0.003450035466555458,0.0006867306119436022,0.0891122817993164,2019-06-21 14:52:50:133,0.0,0.0,0.0
0.12885428965091705,-0.08352886885404587,9.727581024169922,0.0004957353109528376,0.0018517485709829478,-0.006505560028021206,0.09411048889160156,2019-06-21 14:52:50:138,0.0,0.0,0.0
0.1575912982225418,-0.03802862390875816,9.73476505279541,0.0011616881624351898,0.0010526050581781115,-0.002243461986593612,0.09999465942382812,2019-06-21 14:52:50:144,0.0,0.0,0.0
0.1384332925081253,-0.07155512273311615,9.727581024169922,0.0008953070348459651,0.0035832260303500707,-0.004374511007307408,0.10412883758544922,2019-06-21 14:52:50:148,0.0,0.0,0.0
0.18153879046440125,-0.061976123601198196,9.727581024169922,0.0020940221089974756,-0.002143968602929746,0.0013526834959352448,0.1100001335144043,2019-06-21 14:52:50:154,0.0,0.0,0.0
0.15519654750823975,-0.030844375491142273,9.761107444763184,0.0036923090045699854,-0.0013448252201620722,-0.003974939315923572,0.11411046981811523,2019-06-21 14:52:50:158,0.0,0.0,0.0
0.15280179679393768,-0.07873936742544174,9.749134063720703,-0.00017021755678415983,0.000786223930588887,-0.0015775091676205506,0.11999702453613281,2019-06-21 14:52:50:164,0.0,0.0,0.0
0.16956503689289093,-0.06437087059020996,9.794633865356445,0.001294878726229802,0.0015853673133565606,-0.005440035517664307,0.12499332427978516,2019-06-21 14:52:50:169,0.0,0.0,0.0
0.13364379107952118,-0.04521287605166435,9.823370933532715,0.005290595770105333,0.0030504637751716207,-0.0034421770607451223,0.12914752960205078,2019-06-21 14:52:50:173,0.0,0.0,0.0
0.14801229536533356,-0.06437087059020996,9.753923416137695,9.616359518703274e-05,0.0026508918237134593,-0.00024560341589191043,0.13499736785888672,2019-06-21 14:52:50:179,0.0,0.0,0.0
0.15040704607963562,-0.033239126205444336,9.737159729003906,0.0016944504176136389,0.0018517485709829478,-0.004241320443512797,0.13911151885986328,2019-06-21 14:52:50:183,0.0,0.0,0.0
0.16956503689289093,-0.016475878655910492,9.797028541564941,0.0019608315452028634,0.0025177012599188467,-0.0011779374762367137,0.1449899673461914,2019-06-21 14:52:50:189,0.0,0.0,0.0
0.1456175446510315,-0.04521287605166435,9.718002319335938,-0.0008361704245211573,0.003849607157939295,-0.004907273262485858,0.1491107940673828,2019-06-21 14:52:50:193,0.0,0.0,0.0
0.15519654750823975,-0.03802862390875816,9.770686149597168,0.0011616881624351898,0.0005198428029996624,-0.0021102714227989997,0.15411758422851562,2019-06-21 14:52:50:198,0.0,0.0,0.0
0.16956503689289093,-0.030844375491142273,9.753923416137695,-0.0013689326796996063,0.0011857956219727239,-0.0030426053693612854,0.1599903106689453,2019-06-21 14:52:50:204,0.0,0.0,0.0
0.1384332925081253,-0.023660127073526382,9.818581581115723,0.0022272128028292507,0.0059806561786530914,-0.0014443186038259382,0.1641077995300293,2019-06-21 14:52:50:208,0.0,0.0,0.0
0.17674928903579712,-0.030844375491142273,9.720396995544434,0.0020940221089974756,-1.2919485703992724e-05,0.0070798779991778985,0.16999530792236328,2019-06-21 14:52:50:214,0.0,0.0,0.0
0.14322279393672943,-0.07155512273311615,9.785055160522461,0.0014280692900244143,0.00198493913477756,-0.000378793995941168,0.17410945892333984,2019-06-21 14:52:50:218,0.0,0.0,0.0
0.15040704607963562,-0.03802862390875816,9.765896797180176,-0.002567647753851117,0.0011857956219727239,-0.003575367624539735,0.18003463745117188,2019-06-21 14:52:50:224,0.0,0.0,0.0
0.18153879046440125,-0.08831837028265,9.708422660827637,-0.006163793236379974,-1.2919485703992724e-05,-0.008636609568883652,0.18410873413085938,2019-06-21 14:52:50:228,0.0,0.0,0.0
0.18872304260730743,-0.026054875925183296,9.753923416137695,0.003425927876980761,0.0027840826475823964,-0.002376652550388224,0.18999481201171875,2019-06-21 14:52:50:234,0.0,0.0,0.0
0.14801229536533356,-0.08592361956834793,9.789844512939453,-0.0012357421159049941,0.0051815127958854176,0.0005535400481489899,0.19411659240722656,2019-06-21 14:52:50:238,0.0,0.0,0.0
0.16238079965114594,-0.061976123601198196,9.758712768554688,0.0010284975986405774,0.0026508918237134593,0.0037501136442382663,0.20000600814819336,2019-06-21 14:52:50:244,0.0,0.0,0.0
0.15040704607963562,-0.05239712446928024,9.770686149597168,-0.0034999819604877285,0.006912990385289703,-0.0061059885967116945,0.20411014556884766,2019-06-21 14:52:50:248,0.0,0.0,0.0
0.12167004495859146,-0.05000237375497818,9.732370376586914,-3.702698079856355e-05,0.0026508918237134593,-0.005706416645253532,0.21000194549560547,2019-06-21 14:52:50:254,0.0,0.0,0.0
0.15519654750823975,-0.04521287605166435,9.80421257019043,-0.002434457190056505,0.002917273211377009,-0.0061059885967116945,0.21411895751953125,2019-06-21 14:52:50:258,0.0,0.0,0.0
0.1647755354642868,-0.04521287605166435,9.741949081420898,-0.0008361704245211573,0.0013189861857673363,-0.0009115562836289078,0.22000360488891602,2019-06-21 14:52:50:264,0.0,0.0,0.0
0.14322279393672943,-0.061976123601198196,9.849713325500488,0.0032927373131861493,0.0045155597168380305,-0.0014443186038259382,0.22410202026367188,2019-06-21 14:52:50:268,0.0,0.0,0.0
0.15040704607963562,-0.04281812533736229,9.737159729003906,0.002893165621802312,0.0010526050581781115,-0.003708558188334347,0.2291111946105957,2019-06-21 14:52:50:273,0.0,0.0,0.0
0.1120910495519638,-0.03802862390875816,9.794633865356445,-0.0017685043710834434,-0.0006788723361704295,-0.005839607469122469,0.23410892486572266,2019-06-21 14:52:50:278,0.0,0.0,0.0
0.14082804322242737,-0.02126537635922432,9.756318092346191,-0.0027008383176457293,0.0003866522392050501,-0.006505560028021206,0.23911237716674805,2019-06-21 14:52:50:283,0.0,0.0,0.0
0.17435453832149506,-0.02844962663948536,9.780265808105469,-0.00030340813683341745,0.004249178849323132,-0.004241320443512797,0.24499130249023438,2019-06-21 14:52:50:289,0.0,0.0,0.0
0.13124904036521912,-0.03802862390875816,9.773080825805664,-0.0012357421159049941,0.0025177012599188467,-0.006372369724300918,0.24999523162841797,2019-06-21 14:52:50:294,0.0,0.0,0.0
0.11927530169487,-0.026054875925183296,9.816186904907227,-0.0023012666262618923,0.003982797721733907,-0.005173654390075082,0.25410938262939453,2019-06-21 14:52:50:298,0.0,0.0,0.0
0.14322279393672943,-0.04760762304067612,9.81379222869873,-0.0009693609883157694,0.0018517485709829478,-0.001843890295209775,0.2599964141845703,2019-06-21 14:52:50:304,0.0,0.0,0.0
0.11927530169487,-0.05718662217259407,9.794633865356445,9.616359518703274e-05,0.0013189861857673363,0.0006867306119436022,0.26421165466308594,2019-06-21 14:52:50:309,0.0,0.0,0.0
0.16238079965114594,-0.0811341181397438,9.749134063720703,-0.002034885498672668,0.0009194144943834993,-0.0033089864969505106,0.26912879943847656,2019-06-21 14:52:50:313,0.0,0.0,0.0
0.17914403975009918,-0.07634461671113968,9.746739387512207,0.0004957353109528376,-0.0017443969115459091,0.0008199211757382146,0.27500057220458984,2019-06-21 14:52:50:319,0.0,0.0,0.0
0.1575912982225418,-0.0356338769197464,9.820976257324219,0.0022272128028292507,0.0023845106961242345,-0.00104474684742352,0.2791104316711426,2019-06-21 14:52:50:323,0.0,0.0,0.0
0.1647755354642868,-0.06916037201881409,9.787449836730957,0.004225071259748435,0.00198493913477756,-0.005706416645253532,0.2849879264831543,2019-06-21 14:52:50:329,0.0,0.0,0.0
0.17435453832149506,-0.03802862390875816,9.710817337036133,-0.0009693609883157694,-0.0002793006447865926,-0.004241320443512797,0.2891116142272949,2019-06-21 14:52:50:333,0.0,0.0,0.0
0.15519654750823975,-0.06676562130451202,9.782660484313965,0.0036923090045699854,0.0023845106961242345,-0.0034421770607451223,0.2941136360168457,2019-06-21 14:52:50:338,0.0,0.0,0.0
0.1384332925081253,-0.05479187145829201,9.758712768554688,0.0006289259072567405,0.006646609257700478,-0.004374511007307408,0.29911136627197266,2019-06-21 14:52:50:343,0.0,0.0,0.0
0.16238079965114594,-0.05958137288689613,9.811397552490234,0.002893165621802312,0.0015853673133565606,-0.004640892134896633,0.30413150787353516,2019-06-21 14:52:50:348,0.0,0.0,0.0
0.12645955383777618,-0.03802862390875816,9.789844512939453,0.0031595467493915367,0.00012027108723385756,0.0010863023033274393,0.3099942207336426,2019-06-21 14:52:50:354,0.0,0.0,0.0
0.13124904036521912,-0.03802862390875816,9.737159729003906,0.002493593930418475,0.0023845106961242345,-0.003175795933155898,0.31410980224609375,2019-06-21 14:52:50:358,0.0,0.0,0.0
0.15280179679393768,-0.08352886885404587,9.775476455688477,0.0019608315452028634,-0.000146110064737335,-0.004241320443512797,0.31999683380126953,2019-06-21 14:52:50:364,0.0,0.0,0.0
0.16717028617858887,-0.04521287605166435,9.80421257019043,0.001827640981408251,-0.0006788723361704295,-0.0005119845597357803,0.3241100311279297,2019-06-21 14:52:50:368,0.0,0.0,0.0
0.13603854179382324,-0.023660127073526382,9.768291473388672,-0.001635313807288831,0.0026508918237134593,-0.002243461986593612,0.33007144927978516,2019-06-21 14:52:50:374,0.0,0.0,0.0
0.15040704607963562,-0.05479187145829201,9.811397552490234,-0.003100410009029566,-0.0005456817723758172,-0.0034421770607451223,0.3350038528442383,2019-06-21 14:52:50:379,0.0,0.0,0.0
0.15040704607963562,-0.0811341181397438,9.7515287399292,0.0011616881624351898,0.0025177012599188467,-0.004507701831176346,0.3391079902648926,2019-06-21 14:52:50:383,0.0,0.0,0.0
0.1575912982225418,-0.02126537635922432,9.744344711303711,9.616359518703274e-05,0.0015853673133565606,-0.0038417487521289597,0.3441801071166992,2019-06-21 14:52:50:388,0.0,0.0,0.0
0.12885428965091705,-0.030844375491142273,9.715607643127441,0.0007621164710513528,-0.0034758743709130315,-0.002243461986593612,0.34999561309814453,2019-06-21 14:52:50:394,0.0,0.0,0.0
0.16956503689289093,-0.026054875925183296,9.725186347961426,-0.0015021232434942187,0.0014521767495619484,-0.0050404640863547946,0.3541083335876465,2019-06-21 14:52:50:398,0.0,0.0,0.0
0.15998604893684387,-0.07394987344741821,9.744344711303711,-0.00030340813683341745,0.0017185580071883357,-0.0011779374762367137,0.3591127395629883,2019-06-21 14:52:50:403,0.0,0.0,0.0
0.13364379107952118,-0.09310787171125412,9.7515287399292,0.0016944504176136389,0.0037164165941446824,-0.0005119845597357803,0.36499595642089844,2019-06-21 14:52:50:409,0.0,0.0,0.0
0.13603854179382324,-0.06916037201881409,9.785055160522461,-0.0009693609883157694,-0.0016112063477512967,0.000420349451845087,0.3691110610961914,2019-06-21 14:52:50:413,0.0,0.0,0.0
0.1575912982225418,-0.06676562130451202,9.76350212097168,-0.0005697892969319327,0.004382369413117744,-0.000378793995941168,0.3741130828857422,2019-06-21 14:52:50:418,0.0,0.0,0.0
0.14322279393672943,-0.06676562130451202,9.7515287399292,0.002360403366623863,0.0003866522392050501,0.0006867306119436022,0.37999486923217773,2019-06-21 14:52:50:424,0.0,0.0,0.0
0.14322279393672943,-0.04521287605166435,9.72279167175293,0.0015612598538190267,0.0022513201323296223,-0.00104474684742352,0.3841123580932617,2019-06-21 14:52:50:428,0.0,0.0,0.0
0.17435453832149506,-0.07873936742544174,9.80421257019043,-0.0017685043710834434,0.0045155597168380305,-0.007837466186115978,0.3899974822998047,2019-06-21 14:52:50:434,0.0,0.0,0.0
0.1575912982225418,-0.023660127073526382,9.76350212097168,0.0010284975986405774,0.0023845106961242345,0.0013526834959352448,0.39411258697509766,2019-06-21 14:52:50:438,0.0,0.0,0.0
0.17435453832149506,-0.04281812533736229,9.770686149597168,0.002893165621802312,0.0009194144943834993,-0.0009115562836289078,0.40001583099365234,2019-06-21 14:52:50:444,0.0,0.0,0.0
0.1456175446510315,-0.04521287605166435,9.765896797180176,9.616359518703274e-05,0.0017185580071883357,-0.00530684521394402,0.4041290283203125,2019-06-21 14:52:50:448,0.0,0.0,0.0
0.14322279393672943,-0.01168637815862894,9.729975700378418,-0.0032336005728241784,0.0023845106961242345,-0.0029094148055666736,0.40911245346069336,2019-06-21 14:52:50:453,0.0,0.0,0.0
0.15998604893684387,-0.04521287605166435,9.72279167175293,-0.0012357421159049941,0.0010526050581781115,-0.0014443186038259382,0.41411304473876953,2019-06-21 14:52:50:458,0.0,0.0,0.0
0.17914403975009918,-0.02844962663948536,9.765896797180176,-0.002567647753851117,0.003982797721733907,-0.0006451751560396832,0.41999149322509766,2019-06-21 14:52:50:464,0.0,0.0,0.0
0.1839335411787033,-0.03802862390875816,9.761107444763184,-0.002567647753851117,0.000786223930588887,-0.003175795933155898,0.42410945892333984,2019-06-21 14:52:50:468,0.0,0.0,0.0
0.14801229536533356,-0.05000237375497818,9.765896797180176,0.0027599750580077,0.0026508918237134593,-0.003175795933155898,0.4291191101074219,2019-06-21 14:52:50:473,0.0,0.0,0.0
0.12645955383777618,-0.04281812533736229,9.76350212097168,0.0031595467493915367,0.0025177012599188467,-0.00011241284396997543,0.43498992919921875,2019-06-21 14:52:50:479,0.0,0.0,0.0
0.1647755354642868,-0.030844375491142273,9.72279167175293,0.0002293541671089677,0.00198493913477756,-0.0021102714227989997,0.43911075592041016,2019-06-21 14:52:50:483,0.0,0.0,0.0
0.17914403975009918,-0.05479187145829201,9.782660484313965,0.004624643211206597,0.0011857956219727239,-0.0021102714227989997,0.4441103935241699,2019-06-21 14:52:50:488,0.0,0.0,0.0
0.16238079965114594,-0.033239126205444336,9.782660484313965,0.0019608315452028634,0.0027840826475823964,-0.0013111280400313259,0.44999170303344727,2019-06-21 14:52:50:494,0.0,0.0,0.0
0.15040704607963562,-0.05000237375497818,9.744344711303711,0.0020940221089974756,-1.2919485703992724e-05,-0.002776224241772061,0.45410823822021484,2019-06-21 14:52:50:498,0.0,0.0,0.0
0.14801229536533356,-0.04281812533736229,9.746739387512207,0.00036254474715822533,-0.0017443969115459091,-0.0033089864969505106,0.45911312103271484,2019-06-21 14:52:50:503,0.0,0.0,0.0
0.1647755354642868,-0.04521287605166435,9.72279167175293,-0.0008361704245211573,-0.000146110064737335,0.0037501136442382663,0.464993953704834,2019-06-21 14:52:50:509,0.0,0.0,0.0
0.15519654750823975,-0.05958137288689613,9.76350212097168,0.0022272128028292507,-1.2919485703992724e-05,0.0033505419528544293,0.4691133499145508,2019-06-21 14:52:50:513,0.0,0.0,0.0
0.16238079965114594,-0.040423374623060226,9.780265808105469,0.0031595467493915367,0.00558108474734358,-0.003575367624539735,0.47499561309814453,2019-06-21 14:52:50:519,0.0,0.0,0.0
0.15998604893684387,-0.08592361956834793,9.756318092346191,-0.0009693609883157694,0.0017185580071883357,-0.0025098431141828367,0.4791116714477539,2019-06-21 14:52:50:523,0.0,0.0,0.0
0.15280179679393768,-0.040423374623060226,9.732370376586914,-3.702698079856355e-05,0.002917273211377009,-0.004241320443512797,0.4850282669067383,2019-06-21 14:52:50:529,0.0,0.0,0.0
0.12645955383777618,-0.009291628375649452,9.856897354125977,-0.002567647753851117,0.0035832260303500707,0.0012194929321406327,0.48912906646728516,2019-06-21 14:52:50:533,0.0,0.0,0.0
0.13124904036521912,-0.023660127073526382,9.79223918914795,-0.0004365987006280297,-0.00041249120858120484,-0.0030426053693612854,0.4949922561645508,2019-06-21 14:52:50:539,0.0,0.0,0.0
0.11927530169487,-0.05000237375497818,9.828160285949707,0.0015612598538190267,0.0033168449027608455,-0.0006451751560396832,0.49911022186279297,2019-06-21 14:52:50:543,0.0,0.0,0.0
0.1647755354642868,-0.02844962663948536,9.79223918914795,-0.0005697892969319327,0.00012027108723385756,-0.00011241284396997543,0.5050163269042969,2019-06-21 14:52:50:549,0.0,0.0,0.0
0.1647755354642868,-0.02844962663948536,9.825765609741211,0.0016944504176136389,-0.00121163465636746,-0.0017106997314151628,0.5091114044189453,2019-06-21 14:52:50:553,0.0,0.0,0.0
0.20309153199195862,-0.05479187145829201,9.828160285949707,-3.702698079856355e-05,0.005847465874932804,-0.00011241284396997543,0.5141096115112305,2019-06-21 14:52:50:558,0.0,0.0,0.0
0.12645955383777618,-0.03802862390875816,9.746739387512207,-0.0017685043710834434,0.002917273211377009,-0.004241320443512797,0.5199975967407227,2019-06-21 14:52:50:564,0.0,0.0,0.0
0.14082804322242737,-0.06437087059020996,9.823370933532715,0.0020940221089974756,0.0018517485709829478,-0.005440035517664307,0.5241127014160156,2019-06-21 14:52:50:568,0.0,0.0,0.0
0.17914403975009918,-0.04760762304067612,9.691659927368164,-0.0042991253432554015,0.004249178849323132,-0.005440035517664307,0.5291481018066406,2019-06-21 14:52:50:573,0.0,0.0,0.0
0.16238079965114594,-0.026054875925183296,9.770686149597168,-0.0004365987006280297,-0.0017443969115459091,-0.0006451751560396832,0.5349998474121094,2019-06-21 14:52:50:579,0.0,0.0,0.0
0.16956503689289093,-0.06676562130451202,9.787449836730957,-3.702698079856355e-05,0.0003866522392050501,-0.000378793995941168,0.5391111373901367,2019-06-21 14:52:50:583,0.0,0.0,0.0
0.15280179679393768,-0.05718662217259407,9.7515287399292,0.005157405466385046,-0.000146110064737335,-0.003708558188334347,0.5449919700622559,2019-06-21 14:52:50:589,0.0,0.0,0.0
0.1575912982225418,-0.03802862390875816,9.780265808105469,-0.0008361704245211573,0.0030504637751716207,-0.00011241284396997543,0.549109935760498,2019-06-21 14:52:50:593,0.0,0.0,0.0
0.15998604893684387,-0.03802862390875816,9.76350212097168,-0.007362508570605809,0.003849607157939295,0.0008199211757382146,0.5541133880615234,2019-06-21 14:52:50:598,0.0,0.0,0.0
0.14082804322242737,-0.05718662217259407,9.7515287399292,0.0020940221089974756,0.005847465874932804,-0.002243461986593612,0.5591135025024414,2019-06-21 14:52:50:603,0.0,0.0,0.0
0.12406479567289352,-0.05958137288689613,9.770686149597168,0.0004957353109528376,0.004382369413117744,-0.0017106997314151628,0.5641093254089355,2019-06-21 14:52:50:608,0.0,0.0,0.0
0.13603854179382324,-0.0356338769197464,9.765896797180176,-0.0027008383176457293,0.006247037306242317,-0.0021102714227989997,0.5691118240356445,2019-06-21 14:52:50:613,0.0,0.0,0.0
0.15998604893684387,-0.040423374623060226,9.732370376586914,0.002493593930418475,0.00558108474734358,0.0009531117395328268,0.5749921798706055,2019-06-21 14:52:50:619,0.0,0.0,0.0
0.15998604893684387,-0.02844962663948536,9.785055160522461,0.005024214642516109,0.0011857956219727239,-0.0029094148055666736,0.5791101455688477,2019-06-21 14:52:50:623,0.0,0.0,0.0
0.1839335411787033,-0.033239126205444336,9.775476455688477,0.002493593930418475,0.005714275051063867,0.000420349451845087,0.5841121673583984,2019-06-21 14:52:50:628,0.0,0.0,0.0
0.17914403975009918,0.012261118739843369,9.818581581115723,0.001294878726229802,0.0025177012599188467,2.0777729983790183e-05,0.589996337890625,2019-06-21 14:52:50:634,0.0,0.0,0.0
0.12645955383777618,0.012261118739843369,9.76350212097168,0.0011616881624351898,0.006113847002522029,-0.003575367624539735,0.5941123962402344,2019-06-21 14:52:50:638,0.0,0.0,0.0
0.17674928903579712,-0.07155512273311615,9.708422660827637,0.002626784494213087,0.0015853673133565606,-0.0006451751560396832,0.5991144180297852,2019-06-21 14:52:50:643,0.0,0.0,0.0
0.14801229536533356,-0.05718662217259407,9.758712768554688,0.003026356185596924,-0.00121163465636746,-0.002376652550388224,0.6041359901428223,2019-06-21 14:52:50:648,0.0,0.0,0.0
0.14082804322242737,-0.033239126205444336,9.823370933532715,-0.002567647753851117,0.00198493913477756,-0.0015775091676205506,0.6099953651428223,2019-06-21 14:52:50:654,0.0,0.0,0.0
0.17435453832149506,-0.04521287605166435,9.753923416137695,0.0019608315452028634,0.00558108474734358,-0.005972797772842756,0.614109992980957,2019-06-21 14:52:50:658,0.0,0.0,0.0
0.171959787607193,-0.026054875925183296,9.835344314575195,-0.0017685043710834434,0.005714275051063867,-0.0014443186038259382,0.6191139221191406,2019-06-21 14:52:50:663,0.0,0.0,0.0
0.16717028617858887,-0.061976123601198196,9.81379222869873,0.0015612598538190267,-0.0008120628999650418,0.0006867306119436022,0.624995231628418,2019-06-21 14:52:50:669,0.0,0.0,0.0
0.12885428965091705,-0.023660127073526382,9.76350212097168,0.0035591184407753737,0.0023845106961242345,-0.0029094148055666736,0.6291122436523438,2019-06-21 14:52:50:673,0.0,0.0,0.0
0.15280179679393768,-0.04760762304067612,9.720396995544434,0.0022272128028292507,0.0045155597168380305,-0.0038417487521289597,0.6349954605102539,2019-06-21 14:52:50:679,0.0,0.0,0.0
0.15280179679393768,-0.02126537635922432,9.756318092346191,-0.0005697892969319327,0.0014521767495619484,-0.002776224241772061,0.6391129493713379,2019-06-21 14:52:50:683,0.0,0.0,0.0
0.14082804322242737,-0.04521287605166435,9.765896797180176,-0.00216807606246728,0.0015853673133565606,-0.0009115562836289078,0.6441144943237305,2019-06-21 14:52:50:688,0.0,0.0,0.0
0.15998604893684387,-0.05718662217259407,9.76350212097168,0.0004957353109528376,0.004781940844427256,-0.004507701831176346,0.6499948501586914,2019-06-21 14:52:50:694,0.0,0.0,0.0
0.1647755354642868,-0.02844962663948536,9.72279167175293,-0.0005697892969319327,0.0018517485709829478,-0.0007783657198342955,0.6541404724121094,2019-06-21 14:52:50:698,0.0,0.0,0.0
0.10969629883766174,-0.04281812533736229,9.715607643127441,0.0010284975986405774,-0.0014780157839566846,-0.00930256212778239,0.6600146293640137,2019-06-21 14:52:50:704,0.0,0.0,0.0
0.16717028617858887,-0.01168637815862894,9.727581024169922,-0.0009693609883157694,0.004781940844427256,-0.00024560341589191043,0.6641173362731934,2019-06-21 14:52:50:708,0.0,0.0,0.0
0.14801229536533356,-0.04281812533736229,9.773080825805664,0.0020940221089974756,0.0006530333667942747,-0.0030426053693612854,0.6691093444824219,2019-06-21 14:52:50:713,0.0,0.0,0.0
0.17435453832149506,-0.05239712446928024,9.765896797180176,-0.00216807606246728,0.0018517485709829478,-0.0029094148055666736,0.6741094589233398,2019-06-21 14:52:50:718,0.0,0.0,0.0
0.1384332925081253,-0.014081127941608429,9.727581024169922,0.002626784494213087,0.0027840826475823964,-0.0021102714227989997,0.6791114807128906,2019-06-21 14:52:50:723,0.0,0.0,0.0
0.14322279393672943,-0.04760762304067612,9.758712768554688,0.0002293541671089677,0.003450035466555458,-0.0021102714227989997,0.6841135025024414,2019-06-21 14:52:50:728,0.0,0.0,0.0
0.21506528556346893,-0.0356338769197464,9.729975700378418,0.0006289259072567405,-0.0013448252201620722,-0.002643033677977449,0.689112663269043,2019-06-21 14:52:50:733,0.0,0.0,0.0
0.16956503689289093,-0.05718662217259407,9.746739387512207,0.0004957353109528376,0.0035832260303500707,-0.004241320443512797,0.6949939727783203,2019-06-21 14:52:50:739,0.0,0.0,0.0
0.18632829189300537,-0.030844375491142273,9.732370376586914,-0.00030340813683341745,-0.002010778039135134,0.0012194929321406327,0.6991105079650879,2019-06-21 14:52:50:743,0.0,0.0,0.0
0.17914403975009918,-0.09071312099695206,9.72279167175293,0.004358261823543047,0.0027840826475823964,-0.004907273262485858,0.705021858215332,2019-06-21 14:52:50:749,0.0,0.0,0.0
0.15519654750823975,-0.04521287605166435,9.773080825805664,0.002360403366623863,-0.002143968602929746,-0.0007783657198342955,0.7100000381469727,2019-06-21 14:52:50:754,0.0,0.0,0.0
0.1456175446510315,-0.04521287605166435,9.758712768554688,-3.702698079856355e-05,0.006380228130111254,-0.0061059885967116945,0.7141103744506836,2019-06-21 14:52:50:758,0.0,0.0,0.0
0.13124904036521912,-0.040423374623060226,9.739554405212402,-0.0019016949348780556,0.004382369413117744,-0.003175795933155898,0.7200040817260742,2019-06-21 14:52:50:764,0.0,0.0,0.0
0.17914403975009918,-0.05000237375497818,9.777871131896973,-0.003366791396693116,-0.00121163465636746,-0.006771941675759081,0.7241101264953613,2019-06-21 14:52:50:768,0.0,0.0,0.0
0.15040704607963562,-0.023660127073526382,9.777871131896973,0.00036254474715822533,-0.0016112063477512967,-0.004507701831176346,0.7299976348876953,2019-06-21 14:52:50:774,0.0,0.0,0.0
0.14801229536533356,-0.05479187145829201,9.80421257019043,-0.0034999819604877285,-0.0014780157839566846,-0.007304703930937529,0.7341108322143555,2019-06-21 14:52:50:778,0.0,0.0,0.0
0.1384332925081253,-0.023660127073526382,9.753923416137695,0.0010284975986405774,0.0009194144943834993,-0.005173654390075082,0.7399988174438477,2019-06-21 14:52:50:784,0.0,0.0,0.0
0.16238079965114594,-0.06916037201881409,9.842529296875,0.0022272128028292507,0.0033168449027608455,-0.006372369724300918,0.7441105842590332,2019-06-21 14:52:50:788,0.0,0.0,0.0
0.15998604893684387,-0.040423374623060226,9.768291473388672,-0.0027008383176457293,0.004781940844427256,-0.000378793995941168,0.7491121292114258,2019-06-21 14:52:50:793,0.0,0.0,0.0
0.13124904036521912,-0.07873936742544174,9.746739387512207,-0.00216807606246728,0.0045155597168380305,-0.004241320443512797,0.754112720489502,2019-06-21 14:52:50:798,0.0,0.0,0.0
0.14322279393672943,-0.05239712446928024,9.70602798461914,0.0002293541671089677,0.0011857956219727239,-0.003708558188334347,0.7591142654418945,2019-06-21 14:52:50:803,0.0,0.0,0.0
0.1120910495519638,-0.05000237375497818,9.713212966918945,0.0014280692900244143,-0.0008120628999650418,-0.001843890295209775,0.7641115188598633,2019-06-21 14:52:50:808,0.0,0.0,0.0
0.1575912982225418,-0.030844375491142273,9.720396995544434,0.0016944504176136389,-1.2919485703992724e-05,-0.004241320443512797,0.7700033187866211,2019-06-21 14:52:50:814,0.0,0.0,0.0
0.12645955383777618,-0.040423374623060226,9.753923416137695,0.0004957353109528376,0.0030504637751716207,-0.002376652550388224,0.7741141319274902,2019-06-21 14:52:50:818,0.0,0.0,0.0
0.15040704607963562,-0.01168637815862894,9.741949081420898,0.003825499568364598,0.002917273211377009,-0.0033089864969505106,0.7799968719482422,2019-06-21 14:52:50:824,0.0,0.0,0.0
0.15519654750823975,-0.04760762304067612,9.799423217773438,-0.0009693609883157694,0.0035832260303500707,-0.0014443186038259382,0.7841100692749023,2019-06-21 14:52:50:828,0.0,0.0,0.0
0.13124904036521912,-0.09310787171125412,9.79223918914795,9.616359518703274e-05,0.005714275051063867,-0.0017106997314151628,0.7899980545043945,2019-06-21 14:52:50:834,0.0,0.0,0.0
0.17914403975009918,-0.05958137288689613,9.80421257019043,-0.0012357421159049941,0.0022513201323296223,0.0024182080062921433,0.7941093444824219,2019-06-21 14:52:50:838,0.0,0.0,0.0
0.1575912982225418,-0.05958137288689613,9.739554405212402,0.0010284975986405774,0.0033168449027608455,0.0020186363149083063,0.7999992370605469,2019-06-21 14:52:50:844,0.0,0.0,0.0
0.17674928903579712,-0.033239126205444336,9.753923416137695,0.001294878726229802,0.0026508918237134593,-0.001977080859004387,0.8041143417358398,2019-06-21 14:52:50:848,0.0,0.0,0.0
0.12167004495859146,-0.04521287605166435,9.753923416137695,0.0015612598538190267,0.0027840826475823964,0.0009531117395328268,0.8091106414794922,2019-06-21 14:52:50:853,0.0,0.0,0.0
0.17435453832149506,-0.05239712446928024,9.746739387512207,-3.702698079856355e-05,-0.0010784440275542662,-0.0011779374762367137,0.8141117095947266,2019-06-21 14:52:50:858,0.0,0.0,0.0
0.14801229536533356,-0.04760762304067612,9.753923416137695,-0.002034885498672668,0.0006530333667942747,-0.002643033677977449,0.8191108703613281,2019-06-21 14:52:50:863,0.0,0.0,0.0
0.18153879046440125,-0.06676562130451202,9.76350212097168,0.001827640981408251,-0.004141827189886093,-0.004108129879718184,0.8241424560546875,2019-06-21 14:52:50:868,0.0,0.0,0.0
0.15040704607963562,-0.07155512273311615,9.737159729003906,0.0032927373131861493,0.0022513201323296223,-0.0007783657198342955,0.8299980163574219,2019-06-21 14:52:50:874,0.0,0.0,0.0
0.15280179679393768,-0.04760762304067612,9.758712768554688,0.0011616881624351898,0.0027840826475823964,-0.0011779374762367137,0.8341073989868164,2019-06-21 14:52:50:878,0.0,0.0,0.0
0.16717028617858887,-0.0356338769197464,9.713212966918945,-0.001635313807288831,0.0021181296985721726,-0.002376652550388224,0.8400058746337891,2019-06-21 14:52:50:884,0.0,0.0,0.0
0.14082804322242737,-0.05000237375497818,9.780265808105469,-0.00216807606246728,0.0035832260303500707,-0.005573226341533244,0.8441071510314941,2019-06-21 14:52:50:888,0.0,0.0,0.0
0.15998604893684387,-0.03802862390875816,9.765896797180176,-0.0004365987006280297,0.008378086326956111,-0.000378793995941168,0.8499970436096191,2019-06-21 14:52:50:894,0.0,0.0,0.0
0.12645955383777618,-0.018870627507567406,9.753923416137695,0.005556976897694558,0.0014521767495619484,0.0008199211757382146,0.8541126251220703,2019-06-21 14:52:50:898,0.0,0.0,0.0
0.12885428965091705,-0.04281812533736229,9.768291473388672,0.0004957353109528376,0.0025177012599188467,-0.005839607469122469,0.8599929809570312,2019-06-21 14:52:50:904,0.0,0.0,0.0
0.1120910495519638,-0.05479187145829201,9.76350212097168,0.004225071259748435,0.00012027108723385756,-0.0030426053693612854,0.8641033172607422,2019-06-21 14:52:50:908,0.0,0.0,0.0
0.1384332925081253,-0.06437087059020996,9.830554962158203,0.003825499568364598,0.00558108474734358,-0.0021102714227989997,0.8691110610961914,2019-06-21 14:52:50:913,0.0,0.0,0.0
0.1575912982225418,-0.009291628375649452,9.811397552490234,0.00036254474715822533,0.0051815127958854176,-0.002243461986593612,0.8741111755371094,2019-06-21 14:52:50:918,0.0,0.0,0.0
0.16717028617858887,-0.040423374623060226,9.799423217773438,0.0031595467493915367,0.0014521767495619484,-0.004507701831176346,0.879115104675293,2019-06-21 14:52:50:923,0.0,0.0,0.0
0.1575912982225418,-0.07394987344741821,9.777871131896973,0.0010284975986405774,0.0030504637751716207,0.0014858740597298572,0.8841099739074707,2019-06-21 14:52:50:928,0.0,0.0,0.0
0.14322279393672943,-0.040423374623060226,9.729975700378418,0.0010284975986405774,-0.00041249120858120484,0.0018854457511136942,0.8899946212768555,2019-06-21 14:52:50:934,0.0,0.0,0.0
0.13364379107952118,-0.03802862390875816,9.7515287399292,0.002360403366623863,-0.0005456817723758172,0.0013526834959352448,0.894108772277832,2019-06-21 14:52:50:938,0.0,0.0,0.0
0.15040704607963562,-0.04281812533736229,9.696449279785156,-0.0017685043710834434,0.0033168449027608455,-0.0025098431141828367,0.8991155624389648,2019-06-21 14:52:50:943,0.0,0.0,0.0
0.12167004495859146,-0.06676562130451202,9.741949081420898,0.004491452387337659,0.0014521767495619484,0.0014858740597298572,0.9041128158569336,2019-06-21 14:52:50:948,0.0,0.0,0.0
0.12167004495859146,-0.03802862390875816,9.732370376586914,0.0031595467493915367,0.002917273211377009,0.00028715888805047477,0.909113883972168,2019-06-21 14:52:50:953,0.0,0.0,0.0
0.1839335411787033,-0.033239126205444336,9.749134063720703,-0.00030340813683341745,0.0033168449027608455,-0.002643033677977449,0.9141139984130859,2019-06-21 14:52:50:958,0.0,0.0,0.0
0.15040704607963562,-0.04521287605166435,9.732370376586914,-0.0034999819604877285,0.0027840826475823964,-0.003708558188334347,0.9199991226196289,2019-06-21 14:52:50:964,0.0,0.0,0.0
0.12406479567289352,-0.04281812533736229,9.749134063720703,0.003958690132159211,0.0010526050581781115,-0.005972797772842756,0.9241118431091309,2019-06-21 14:52:50:968,0.0,0.0,0.0
0.14801229536533356,-0.07394987344741821,9.76350212097168,0.0015612598538190267,0.004382369413117744,-0.003575367624539735,0.9291133880615234,2019-06-21 14:52:50:973,0.0,0.0,0.0
0.13124904036521912,-0.016475878655910492,9.765896797180176,0.0016944504176136389,0.0018517485709829478,-0.003575367624539735,0.9349966049194336,2019-06-21 14:52:50:979,0.0,0.0,0.0
0.09772255271673203,-0.033239126205444336,9.785055160522461,-0.0005697892969319327,0.0021181296985721726,0.0005535400481489899,0.939112663269043,2019-06-21 14:52:50:983,0.0,0.0,0.0
0.1911177933216095,-0.05958137288689613,9.72279167175293,0.0036923090045699854,0.0017185580071883357,-0.000378793995941168,0.9441108703613281,2019-06-21 14:52:50:988,0.0,0.0,0.0
0.1575912982225418,-0.05718662217259407,9.718002319335938,-0.00216807606246728,0.0013189861857673363,-0.005706416645253532,0.9499983787536621,2019-06-21 14:52:50:994,0.0,0.0,0.0
0.1384332925081253,-0.06916037201881409,9.727581024169922,-0.0009693609883157694,0.0037164165941446824,-0.0017106997314151628,0.9541101455688477,2019-06-21 14:52:50:998,0.0,0.0,0.0
0.12406479567289352,-0.05958137288689613,9.68208122253418,0.004225071259748435,-0.0014780157839566846,-0.0038417487521289597,0.9591150283813477,2019-06-21 14:52:51:003,0.0,0.0,0.0
0.1456175446510315,-0.03802862390875816,9.770686149597168,-0.0034999819604877285,0.0037164165941446824,-0.001843890295209775,0.9641122817993164,2019-06-21 14:52:51:008,0.0,0.0,0.0
0.1456175446510315,-0.05479187145829201,9.729975700378418,-0.0015021232434942187,0.0031836543389662333,-0.002776224241772061,0.9691162109375,2019-06-21 14:52:51:013,0.0,0.0,0.0
0.1575912982225418,-0.009291628375649452,9.732370376586914,-0.0012357421159049941,0.0017185580071883357,0.0009531117395328268,0.975010871887207,2019-06-21 14:52:51:019,0.0,0.0,0.0
0.15040704607963562,-0.03802862390875816,9.718002319335938,0.0011616881624351898,0.0022513201323296223,-0.0038417487521289597,0.9791183471679688,2019-06-21 14:52:51:023,0.0,0.0,0.0
0.15040704607963562,-0.05239712446928024,9.785055160522461,-0.0009693609883157694,0.003982797721733907,0.0012194929321406327,0.9841070175170898,2019-06-21 14:52:51:028,0.0,0.0,0.0
0.14082804322242737,-0.040423374623060226,9.777871131896973,-0.001635313807288831,0.0045155597168380305,-0.002776224241772061,0.9899959564208984,2019-06-21 14:52:51:034,0.0,0.0,0.0
0.1120910495519638,-0.0811341181397438,9.80421257019043,-0.0017685043710834434,0.0022513201323296223,0.00015396830800121713,0.9941396713256836,2019-06-21 14:52:51:038,0.0,0.0,0.0
0.15040704607963562,-0.04521287605166435,9.789844512939453,0.004358261823543047,0.004115988285528519,0.0009531117395328268,0.9991245269775391,2019-06-21 14:52:51:043,0.0,0.0,0.0
0.19351254403591156,-0.04521287605166435,9.773080825805664,-0.002034885498672668,0.0023845106961242345,0.000420349451845087,1.0041098594665527,2019-06-21 14:52:51:048,0.0,0.0,0.0
0.15040704607963562,-0.014081127941608429,9.777871131896973,0.004491452387337659,0.0017185580071883357,-0.0005119845597357803,1.0091142654418945,2019-06-21 14:52:51:053,0.0,0.0,0.0
0.16717028617858887,-0.05479187145829201,9.770686149597168,-3.702698079856355e-05,0.00198493913477756,-0.0033089864969505106,1.0141105651855469,2019-06-21 14:52:51:058,0.0,0.0,0.0
0.1575912982225418,-0.04281812533736229,9.768291473388672,0.0020940221089974756,0.0003866522392050501,-0.0014443186038259382,1.019991397857666,2019-06-21 14:52:51:064,0.0,0.0,0.0
0.12167004495859146,-0.08592361956834793,9.8329496383667,0.0006289259072567405,0.0017185580071883357,-0.00104474684742352,1.0241026878356934,2019-06-21 14:52:51:068,0.0,0.0,0.0
0.15040704607963562,-0.05000237375497818,9.799423217773438,0.002360403366623863,-0.000146110064737335,-0.0009115562836289078,1.0299997329711914,2019-06-21 14:52:51:074,0.0,0.0,0.0
0.15998604893684387,-0.0356338769197464,9.775476455688477,0.002493593930418475,0.0037164165941446824,-0.002243461986593612,1.0341095924377441,2019-06-21 14:52:51:078,0.0,0.0,0.0
0.13364379107952118,-0.06437087059020996,9.785055160522461,-0.0005697892969319327,0.0027840826475823964,-0.004640892134896633,1.040022850036621,2019-06-21 14:52:51:084,0.0,0.0,0.0
0.1384332925081253,-0.08352886885404587,9.811397552490234,-0.00017021755678415983,0.0005198428029996624,-0.0014443186038259382,1.0450348854064941,2019-06-21 14:52:51:089,0.0,0.0,0.0
0.171959787607193,-0.07155512273311615,9.782660484313965,0.005556976897694558,0.003450035466555458,-0.0038417487521289597,1.0491323471069336,2019-06-21 14:52:51:093,0.0,0.0,0.0
0.14322279393672943,-0.040423374623060226,9.66531753540039,-0.004965077902154138,0.0037164165941446824,0.0005535400481489899,1.055006980895996,2019-06-21 14:52:51:099,0.0,0.0,0.0
0.19351254403591156,-0.02126537635922432,9.744344711303711,-0.001635313807288831,0.0018517485709829478,-0.005706416645253532,1.0591130256652832,2019-06-21 14:52:51:103,0.0,0.0,0.0
0.16717028617858887,-0.04760762304067612,9.768291473388672,0.002493593930418475,-0.0006788723361704295,-0.0033089864969505106,1.0649991035461426,2019-06-21 14:52:51:109,0.0,0.0,0.0
0.17435453832149506,-0.07394987344741821,9.753923416137695,0.00036254474715822533,0.0021181296985721726,-0.0025098431141828367,1.0691232681274414,2019-06-21 14:52:51:113,0.0,0.0,0.0
0.21506528556346893,-0.06437087059020996,9.806608200073242,-0.0004365987006280297,-1.2919485703992724e-05,0.0021518268787029185,1.075007438659668,2019-06-21 14:52:51:119,0.0,0.0,0.0
0.15040704607963562,-0.04281812533736229,9.768291473388672,0.0010284975986405774,-0.000146110064737335,-0.005839607469122469,1.0791258811950684,2019-06-21 14:52:51:123,0.0,0.0,0.0
0.1575912982225418,-0.05239712446928024,9.725186347961426,-0.001635313807288831,0.0013189861857673363,-0.005573226341533244,1.0841355323791504,2019-06-21 14:52:51:128,0.0,0.0,0.0
0.19351254403591156,-0.06916037201881409,9.739554405212402,-0.004032744215666177,-0.0018775874753405213,-0.003974939315923572,1.0891122817993164,2019-06-21 14:52:51:133,0.0,0.0,0.0
0.1647755354642868,-0.05479187145829201,9.794633865356445,0.0016944504176136389,0.0014521767495619484,2.0777729983790183e-05,1.0941095352172852,2019-06-21 14:52:51:138,0.0,0.0,0.0
0.17914403975009918,-0.03802862390875816,9.7515287399292,0.0027599750580077,-0.000945253463759654,0.0012194929321406327,1.0991106033325195,2019-06-21 14:52:51:143,0.0,0.0,0.0
0.15280179679393768,-0.05000237375497818,9.741949081420898,0.0016944504176136389,0.00198493913477756,-0.0011779374762367137,1.1041126251220703,2019-06-21 14:52:51:148,0.0,0.0,0.0
0.20309153199195862,-0.05000237375497818,9.720396995544434,0.0010284975986405774,0.0025177012599188467,-0.004640892134896633,1.1099910736083984,2019-06-21 14:52:51:154,0.0,0.0,0.0
0.15998604893684387,-0.04521287605166435,9.80421257019043,0.0004957353109528376,0.0030504637751716207,-0.00530684521394402,1.1141080856323242,2019-06-21 14:52:51:158,0.0,0.0,0.0
0.15280179679393768,-0.04760762304067612,9.770686149597168,0.0002293541671089677,0.0035832260303500707,-0.0014443186038259382,1.1191105842590332,2019-06-21 14:52:51:163,0.0,0.0,0.0
0.15998604893684387,-0.06916037201881409,9.765896797180176,0.006888882535640681,0.003982797721733907,-0.0021102714227989997,1.1241140365600586,2019-06-21 14:52:51:168,0.0,0.0,0.0
0.14322279393672943,-0.03802862390875816,9.739554405212402,-0.002034885498672668,0.004781940844427256,0.0009531117395328268,1.1291131973266602,2019-06-21 14:52:51:173,0.0,0.0,0.0
0.14322279393672943,-0.07394987344741821,9.737159729003906,-0.0009693609883157694,0.005048322492165131,0.0008199211757382146,1.134993553161621,2019-06-21 14:52:51:179,0.0,0.0,0.0
0.11688055098056793,-0.08831837028265,9.789844512939453,0.0002293541671089677,0.0051815127958854176,-0.0034421770607451223,1.1391229629516602,2019-06-21 14:52:51:183,0.0,0.0,0.0
0.15998604893684387,-0.04281812533736229,9.73476505279541,-0.0029672194452349536,-0.0005456817723758172,-0.0015775091676205506,1.144113540649414,2019-06-21 14:52:51:188,0.0,0.0,0.0
0.13364379107952118,-0.05239712446928024,9.809002876281738,-0.002434457190056505,-0.000146110064737335,-0.0034421770607451223,1.1500205993652344,2019-06-21 14:52:51:194,0.0,0.0,0.0
0.16717028617858887,-0.040423374623060226,9.765896797180176,0.004358261823543047,0.0023845106961242345,-0.001843890295209775,1.1541156768798828,2019-06-21 14:52:51:198,0.0,0.0,0.0
0.16956503689289093,-0.040423374623060226,9.840134620666504,-3.702698079856355e-05,0.0023845106961242345,-0.005173654390075082,1.159109115600586,2019-06-21 14:52:51:203,0.0,0.0,0.0
0.17674928903579712,-0.0811341181397438,9.73476505279541,0.0006289259072567405,0.0014521767495619484,-0.003974939315923572,1.16412353515625,2019-06-21 14:52:51:208,0.0,0.0,0.0
0.14801229536533356,-0.08831837028265,9.753923416137695,0.0022272128028292507,0.0021181296985721726,-0.0011779374762367137,1.1699914932250977,2019-06-21 14:52:51:214,0.0,0.0,0.0
0.1384332925081253,-0.0811341181397438,9.727581024169922,-0.0013689326796996063,0.002917273211377009,-0.00530684521394402,1.1741018295288086,2019-06-21 14:52:51:218,0.0,0.0,0.0
0.1647755354642868,-0.02844962663948536,9.753923416137695,0.0008953070348459651,0.0026508918237134593,-0.004241320443512797,1.1800155639648438,2019-06-21 14:52:51:224,0.0,0.0,0.0
0.17435453832149506,-0.04521287605166435,9.768291473388672,0.0019608315452028634,0.003450035466555458,-0.0017106997314151628,1.1841225624084473,2019-06-21 14:52:51:228,0.0,0.0,0.0
0.16238079965114594,-0.03802862390875816,9.777871131896973,-0.0004365987006280297,0.0030504637751716207,-0.005839607469122469,1.1899967193603516,2019-06-21 14:52:51:234,0.0,0.0,0.0
0.15519654750823975,-0.09310787171125412,9.72279167175293,0.0016944504176136389,-0.0008120628999650418,-0.003175795933155898,1.1941041946411133,2019-06-21 14:52:51:238,0.0,0.0,0.0
0.13603854179382324,-0.06437087059020996,9.758712768554688,0.0007621164710513528,0.00558108474734358,-0.004640892134896633,1.1999988555908203,2019-06-21 14:52:51:244,0.0,0.0,0.0
0.1575912982225418,-0.061976123601198196,9.698843955993652,0.0011616881624351898,0.0014521767495619484,-0.002776224241772061,1.2041120529174805,2019-06-21 14:52:51:248,0.0,0.0,0.0
0.12885428965091705,-0.05718662217259407,9.775476455688477,-0.0019016949348780556,0.0027840826475823964,-0.0013111280400313259,1.2091283798217773,2019-06-21 14:52:51:253,0.0,0.0,0.0
0.1647755354642868,-0.05718662217259407,9.761107444763184,-0.0005697892969319327,0.0010526050581781115,-0.003974939315923572,1.2149906158447266,2019-06-21 14:52:51:259,0.0,0.0,0.0
0.15998604893684387,-0.03802862390875816,9.703633308410645,0.0011616881624351898,0.0023845106961242345,-0.002643033677977449,1.2191104888916016,2019-06-21 14:52:51:263,0.0,0.0,0.0
0.12406479567289352,-0.06676562130451202,9.715607643127441,0.0015612598538190267,0.0027840826475823964,0.004416066723285653,1.2241125106811523,2019-06-21 14:52:51:268,0.0,0.0,0.0
0.16238079965114594,-0.02844962663948536,9.768291473388672,0.001827640981408251,0.003450035466555458,-0.006905131979479367,1.2299928665161133,2019-06-21 14:52:51:274,0.0,0.0,0.0
0.14082804322242737,-0.009291628375649452,9.789844512939453,0.003425927876980761,0.0025177012599188467,0.005481591233642551,1.2349910736083984,2019-06-21 14:52:51:279,0.0,0.0,0.0
0.1647755354642868,-0.061976123601198196,9.773080825805664,0.0019608315452028634,-0.002943112115734582,-0.0011779374762367137,1.2391109466552734,2019-06-21 14:52:51:283,0.0,0.0,0.0
0.11688055098056793,-0.04760762304067612,9.777871131896973,-0.0005697892969319327,0.005314703619754355,-0.005173654390075082,1.244112491607666,2019-06-21 14:52:51:288,0.0,0.0,0.0
0.14801229536533356,-0.05479187145829201,9.789844512939453,0.0020940221089974756,0.004115988285528519,-0.000378793995941168,1.2499933242797852,2019-06-21 14:52:51:294,0.0,0.0,0.0
0.15040704607963562,-0.07155512273311615,9.765896797180176,0.001294878726229802,0.0011857956219727239,0.0010863023033274393,1.2541093826293945,2019-06-21 14:52:51:298,0.0,0.0,0.0
0.13364379107952118,-0.0356338769197464,9.799423217773438,-0.0009693609883157694,0.0022513201323296223,-0.004374511007307408,1.2599964141845703,2019-06-21 14:52:51:304,0.0,0.0,0.0
0.17435453832149506,-0.03802862390875816,9.787449836730957,-0.0008361704245211573,0.002917273211377009,-0.002376652550388224,1.2641124725341797,2019-06-21 14:52:51:308,0.0,0.0,0.0
0.19351254403591156,-0.08831837028265,9.756318092346191,-0.00030340813683341745,0.003450035466555458,-0.003974939315923572,1.2700729370117188,2019-06-21 14:52:51:314,0.0,0.0,0.0
0.11927530169487,-0.06676562130451202,9.727581024169922,0.002626784494213087,0.0014521767495619484,-0.002376652550388224,1.2741098403930664,2019-06-21 14:52:51:318,0.0,0.0,0.0
0.14082804322242737,-0.03802862390875816,9.828160285949707,0.0007621164710513528,0.0010526050581781115,0.0010863023033274393,1.2791147232055664,2019-06-21 14:52:51:323,0.0,0.0,0.0
0.1384332925081253,-0.03802862390875816,9.741949081420898,-0.000702979860726545,0.004382369413117744,-0.0033089864969505106,1.2841110229492188,2019-06-21 14:52:51:328,0.0,0.0,0.0
0.15519654750823975,-0.04281812533736229,9.758712768554688,0.0014280692900244143,0.0021181296985721726,-0.0006451751560396832,1.2899971008300781,2019-06-21 14:52:51:334,0.0,0.0,0.0
0.1384332925081253,-0.05958137288689613,9.698843955993652,-0.0005697892969319327,-1.2919485703992724e-05,-0.000378793995941168,1.2941102981567383,2019-06-21 14:52:51:338,0.0,0.0,0.0
0.171959787607193,-0.040423374623060226,9.7515287399292,0.001294878726229802,0.003982797721733907,0.0033505419528544293,1.29911470413208,2019-06-21 14:52:51:343,0.0,0.0,0.0
0.14322279393672943,-0.05000237375497818,9.696449279785156,-0.0009693609883157694,0.004382369413117744,-0.007837466186115978,1.3049955368041992,2019-06-21 14:52:51:349,0.0,0.0,0.0
0.14801229536533356,-0.014081127941608429,9.746739387512207,0.0020940221089974756,0.0021181296985721726,-0.002243461986593612,1.3091325759887695,2019-06-21 14:52:51:353,0.0,0.0,0.0
0.13364379107952118,-0.023660127073526382,9.81379222869873,0.0010284975986405774,0.0018517485709829478,-0.001843890295209775,1.314997673034668,2019-06-21 14:52:51:359,0.0,0.0,0.0
0.1647755354642868,-0.03802862390875816,9.758712768554688,-0.0019016949348780556,0.0018517485709829478,0.0005535400481489899,1.3191118240356445,2019-06-21 14:52:51:363,0.0,0.0,0.0
0.16238079965114594,-0.04521287605166435,9.732370376586914,-0.0017685043710834434,0.0015853673133565606,-0.0011779374762367137,1.3249950408935547,2019-06-21 14:52:51:369,0.0,0.0,0.0
0.1456175446510315,-0.05479187145829201,9.703633308410645,0.0004957353109528376,0.0018517485709829478,-0.00104474684742352,1.329113483428955,2019-06-21 14:52:51:373,0.0,0.0,0.0
0.1384332925081253,-0.05239712446928024,9.73476505279541,-0.0046986967745649135,0.0005198428029996624,-0.005573226341533244,1.3349943161010742,2019-06-21 14:52:51:379,0.0,0.0,0.0
0.12406479567289352,-0.0811341181397438,9.782660484313965,-0.0015021232434942187,0.0045155597168380305,0.0008199211757382146,1.3391151428222656,2019-06-21 14:52:51:383,0.0,0.0,0.0
0.1456175446510315,-0.07155512273311615,9.713212966918945,0.003958690132159211,0.0030504637751716207,-0.003974939315923572,1.3441133499145508,2019-06-21 14:52:51:388,0.0,0.0,0.0
0.1384332925081253,-0.040423374623060226,9.777871131896973,0.002626784494213087,0.0015853673133565606,-0.0005119845597357803,1.3500351905822754,2019-06-21 14:52:51:394,0.0,0.0,0.0
0.16956503689289093,-0.03802862390875816,9.79223918914795,-0.001635313807288831,0.0026508918237134593,0.002684589133881368,1.3541154861450195,2019-06-21 14:52:51:398,0.0,0.0,0.0
0.1384332925081253,-0.040423374623060226,9.729975700378418,-0.0013689326796996063,-0.0017443969115459091,-0.0029094148055666736,1.3591117858886719,2019-06-21 14:52:51:403,0.0,0.0,0.0
0.1575912982225418,-0.0356338769197464,9.80421257019043,0.003958690132159211,-0.0002793006447865926,-0.0015775091676205506,1.3641090393066406,2019-06-21 14:52:51:408,0.0,0.0,0.0
0.14322279393672943,-0.0356338769197464,9.770686149597168,-0.00030340813683341745,0.0051815127958854176,-0.00104474684742352,1.3699951171875,2019-06-21 14:52:51:414,0.0,0.0,0.0
0.13124904036521912,-0.03802862390875816,9.7515287399292,0.0016944504176136389,0.004648750540706968,-0.0013111280400313259,1.3741092681884766,2019-06-21 14:52:51:418,0.0,0.0,0.0
0.13124904036521912,-0.002107379725202918,9.809002876281738,0.001827640981408251,-0.0006788723361704295,0.0009531117395328268,1.379992961883545,2019-06-21 14:52:51:424,0.0,0.0,0.0
0.11688055098056793,-0.05000237375497818,9.787449836730957,0.0002293541671089677,0.0026508918237134593,-0.0015775091676205506,1.3841075897216797,2019-06-21 14:52:51:428,0.0,0.0,0.0
0.1575912982225418,-0.04760762304067612,9.768291473388672,-0.0042991253432554015,0.0015853673133565606,-0.00024560341589191043,1.3899965286254883,2019-06-21 14:52:51:434,0.0,0.0,0.0
0.12645955383777618,-0.05958137288689613,9.785055160522461,-0.0008361704245211573,0.0037164165941446824,-0.0005119845597357803,1.3941144943237305,2019-06-21 14:52:51:438,0.0,0.0,0.0
0.12406479567289352,-0.05239712446928024,9.761107444763184,0.0002293541671089677,0.0031836543389662333,-0.0011779374762367137,1.3991146087646484,2019-06-21 14:52:51:443,0.0,0.0,0.0
0.1120910495519638,-0.05000237375497818,9.727581024169922,-0.00030340813683341745,0.0035832260303500707,-0.002776224241772061,1.4049954414367676,2019-06-21 14:52:51:449,0.0,0.0,0.0
0.11688055098056793,-0.04760762304067612,9.768291473388672,0.0070220733595096185,0.0014521767495619484,-0.003974939315923572,1.409130573272705,2019-06-21 14:52:51:453,0.0,0.0,0.0
0.1647755354642868,-0.02844962663948536,9.739554405212402,0.004757833514926884,0.003450035466555458,-0.004241320443512797,1.4141130447387695,2019-06-21 14:52:51:458,0.0,0.0,0.0
0.15280179679393768,-0.09550261497497559,9.780265808105469,0.0022272128028292507,0.000786223930588887,-0.001977080859004387,1.4199943542480469,2019-06-21 14:52:51:464,0.0,0.0,0.0
0.18153879046440125,-0.0811341181397438,9.76350212097168,-0.0013689326796996063,0.004382369413117744,-0.0014443186038259382,1.4241113662719727,2019-06-21 14:52:51:468,0.0,0.0,0.0
0.17674928903579712,-0.03802862390875816,9.76350212097168,0.0016944504176136389,-0.0005456817723758172,-0.00011241284396997543,1.4291143417358398,2019-06-21 14:52:51:473,0.0,0.0,0.0
0.1911177933216095,-0.026054875925183296,9.768291473388672,-0.000702979860726545,0.0015853673133565606,0.001752255187319082,1.4341120719909668,2019-06-21 14:52:51:478,0.0,0.0,0.0
0.13124904036521912,-0.04521287605166435,9.773080825805664,0.0006289259072567405,0.0021181296985721726,-0.002243461986593612,1.4391131401062012,2019-06-21 14:52:51:483,0.0,0.0,0.0
0.1983020305633545,-0.06676562130451202,9.710817337036133,0.0022272128028292507,0.00012027108723385756,-0.0034421770607451223,1.4449982643127441,2019-06-21 14:52:51:489,0.0,0.0,0.0
0.17435453832149506,-0.09310787171125412,9.715607643127441,0.0031595467493915367,0.0005198428029996624,-0.001977080859004387,1.449112892150879,2019-06-21 14:52:51:493,0.0,0.0,0.0
0.1575912982225418,-0.0356338769197464,9.727581024169922,-0.00017021755678415983,0.0017185580071883357,-0.003974939315923572,1.4541130065917969,2019-06-21 14:52:51:498,0.0,0.0,0.0
0.15998604893684387,-0.07394987344741821,9.789844512939453,0.002360403366623863,0.0022513201323296223,0.002285017442497531,1.4599947929382324,2019-06-21 14:52:51:504,0.0,0.0,0.0
0.171959787607193,-0.023660127073526382,9.739554405212402,0.0036923090045699854,0.004249178849323132,-0.0006451751560396832,1.4641098976135254,2019-06-21 14:52:51:508,0.0,0.0,0.0
0.16717028617858887,-0.07634461671113968,9.780265808105469,0.001827640981408251,0.0027840826475823964,-0.0025098431141828367,1.4691152572631836,2019-06-21 14:52:51:513,0.0,0.0,0.0
0.14082804322242737,-0.033239126205444336,9.785055160522461,0.0019608315452028634,-0.000146110064737335,0.004149685335622103,1.474113941192627,2019-06-21 14:52:51:518,0.0,0.0,0.0
0.15040704607963562,-0.07155512273311615,9.720396995544434,0.003958690132159211,0.0009194144943834993,-0.0009115562836289078,1.4791135787963867,2019-06-21 14:52:51:523,0.0,0.0,0.0
0.13124904036521912,-0.07873936742544174,9.785055160522461,-0.0012357421159049941,0.0010526050581781115,-0.0015775091676205506,1.4849977493286133,2019-06-21 14:52:51:529,0.0,0.0,0.0
0.14082804322242737,-0.009291628375649452,9.794633865356445,0.0031595467493915367,0.0010526050581781115,-0.0006451751560396832,1.4891128540039062,2019-06-21 14:52:51:533,0.0,0.0,0.0
0.15280179679393768,-0.03802862390875816,9.777871131896973,0.0006289259072567405,0.0025177012599188467,0.0009531117395328268,1.4949922561645508,2019-06-21 14:52:51:539,0.0,0.0,0.0
0.10969629883766174,-0.06676562130451202,9.773080825805664,0.004091880695953822,0.002917273211377009,0.0016190646235244696,1.499110221862793,2019-06-21 14:52:51:543,0.0,0.0,0.0
0.1456175446510315,-0.05479187145829201,9.715607643127441,0.004358261823543047,0.0045155597168380305,-0.00024560341589191043,1.5041136741638184,2019-06-21 14:52:51:548,0.0,0.0,0.0
0.15519654750823975,-0.016475878655910492,9.677290916442871,-0.001102551552110382,-0.0016112063477512967,-0.004374511007307408,1.5100183486938477,2019-06-21 14:52:51:554,0.0,0.0,0.0
0.12167004495859146,-0.05000237375497818,9.710817337036133,0.0031595467493915367,0.0026508918237134593,0.0009531117395328268,1.5142006874084473,2019-06-21 14:52:51:559,0.0,0.0,0.0
0.17435453832149506,-0.06916037201881409,9.68208122253418,0.0036923090045699854,0.0005198428029996624,0.004149685335622103,1.519134521484375,2019-06-21 14:52:51:563,0.0,0.0,0.0
0.1911177933216095,-0.040423374623060226,9.715607643127441,0.0019608315452028634,0.004382369413117744,-0.001977080859004387,1.5249910354614258,2019-06-21 14:52:51:569,0.0,0.0,0.0
0.15519654750823975,-0.030844375491142273,9.782660484313965,0.00036254474715822533,0.0005198428029996624,-0.0009115562836289078,1.5291132926940918,2019-06-21 14:52:51:573,0.0,0.0,0.0
0.15519654750823975,-0.02126537635922432,9.756318092346191,0.0019608315452028634,-0.0028099215519399702,-0.0011779374762367137,1.5349931716918945,2019-06-21 14:52:51:579,0.0,0.0,0.0
0.19590729475021362,-0.033239126205444336,9.765896797180176,0.004091880695953822,-0.0006788723361704295,0.0013526834959352448,1.5391082763671875,2019-06-21 14:52:51:583,0.0,0.0,0.0
0.12885428965091705,-0.07634461671113968,9.729975700378418,-0.0012357421159049941,0.000786223930588887,-0.003175795933155898,1.5441093444824219,2019-06-21 14:52:51:588,0.0,0.0,0.0
0.07377505302429199,-0.03802862390875816,9.799423217773438,-0.001635313807288831,0.0011857956219727239,-0.006505560028021206,1.5491113662719727,2019-06-21 14:52:51:593,0.0,0.0,0.0
0.17674928903579712,-0.009291628375649452,9.765896797180176,-0.00216807606246728,0.0025177012599188467,-0.0030426053693612854,1.5549964904785156,2019-06-21 14:52:51:599,0.0,0.0,0.0
0.12645955383777618,-0.06676562130451202,9.758712768554688,0.002626784494213087,0.006912990385289703,-0.0061059885967116945,1.5591106414794922,2019-06-21 14:52:51:603,0.0,0.0,0.0
0.1456175446510315,-0.03802862390875816,9.715607643127441,-3.702698079856355e-05,0.0015853673133565606,-0.0021102714227989997,1.5649914741516113,2019-06-21 14:52:51:609,0.0,0.0,0.0
0.12645955383777618,-0.07634461671113968,9.777871131896973,-0.0015021232434942187,-0.0010784440275542662,-0.0021102714227989997,1.5691108703613281,2019-06-21 14:52:51:613,0.0,0.0,0.0
0.13603854179382324,-0.04760762304067612,9.76350212097168,-0.002434457190056505,-0.0010784440275542662,-0.003175795933155898,1.574110984802246,2019-06-21 14:52:51:618,0.0,0.0,0.0
0.15280179679393768,-0.06437087059020996,9.787449836730957,-0.0017685043710834434,0.005048322492165131,-0.004241320443512797,1.5799884796142578,2019-06-21 14:52:51:624,0.0,0.0,0.0
0.14322279393672943,-0.05718662217259407,9.741949081420898,0.006489311104331168,-0.00121163465636746,-0.001977080859004387,1.5841031074523926,2019-06-21 14:52:51:628,0.0,0.0,0.0
0.12885428965091705,-0.04521287605166435,9.756318092346191,-0.000702979860726545,0.0035832260303500707,-0.0025098431141828367,1.5899982452392578,2019-06-21 14:52:51:634,0.0,0.0,0.0
0.14801229536533356,-0.023660127073526382,9.782660484313965,0.002493593930418475,0.0005198428029996624,-0.0011779374762367137,1.5941128730773926,2019-06-21 14:52:51:638,0.0,0.0,0.0
0.1839335411787033,-0.04521287605166435,9.729975700378418,0.0031595467493915367,-0.000146110064737335,-0.004507701831176346,1.599116325378418,2019-06-21 14:52:51:643,0.0,0.0,0.0
0.15519654750823975,-0.030844375491142273,9.746739387512207,-0.0015021232434942187,-0.0010784440275542662,-0.002376652550388224,1.6049928665161133,2019-06-21 14:52:51:649,0.0,0.0,0.0
0.10490679740905762,-0.05718662217259407,9.773080825805664,0.002493593930418475,-0.0006788723361704295,-0.002643033677977449,1.6091351509094238,2019-06-21 14:52:51:653,0.0,0.0,0.0
0.171959787607193,-0.061976123601198196,9.797028541564941,0.0016944504176136389,0.0023845106961242345,-0.0034421770607451223,1.6141142845153809,2019-06-21 14:52:51:658,0.0,0.0,0.0
0.15998604893684387,-0.07873936742544174,9.770686149597168,0.0019608315452028634,0.0003866522392050501,0.0009531117395328268,1.6199960708618164,2019-06-21 14:52:51:664,0.0,0.0,0.0
0.12167004495859146,-0.0356338769197464,9.73476505279541,0.0019608315452028634,0.0010526050581781115,-0.004507701831176346,1.6241106986999512,2019-06-21 14:52:51:668,0.0,0.0,0.0
0.14322279393672943,-0.040423374623060226,9.749134063720703,-0.0027008383176457293,0.0014521767495619484,-0.0015775091676205506,1.6299924850463867,2019-06-21 14:52:51:674,0.0,0.0,0.0
0.20069678127765656,-0.006896879058331251,9.744344711303711,-0.0023012666262618923,-0.0013448252201620722,-0.003575367624539735,1.63411283493042,2019-06-21 14:52:51:678,0.0,0.0,0.0
0.18153879046440125,-0.014081127941608429,9.780265808105469,-0.002434457190056505,0.003849607157939295,-0.0011779374762367137,1.6399965286254883,2019-06-21 14:52:51:684,0.0,0.0,0.0
0.17674928903579712,-0.05000237375497818,9.710817337036133,0.0008953070348459651,-0.000146110064737335,-0.002243461986593612,1.644108772277832,2019-06-21 14:52:51:688,0.0,0.0,0.0
0.1575912982225418,-0.0356338769197464,9.777871131896973,-0.0046986967745649135,0.0027840826475823964,0.000420349451845087,1.6491146087646484,2019-06-21 14:52:51:693,0.0,0.0,0.0
0.1456175446510315,-0.03802862390875816,9.710817337036133,-0.001102551552110382,0.0021181296985721726,-0.003974939315923572,1.65411376953125,2019-06-21 14:52:51:698,0.0,0.0,0.0
0.12406479567289352,-0.05000237375497818,9.761107444763184,0.0014280692900244143,0.0009194144943834993,0.0020186363149083063,1.659113883972168,2019-06-21 14:52:51:703,0.0,0.0,0.0
0.15280179679393768,-0.023660127073526382,9.708422660827637,0.0031595467493915367,-1.2919485703992724e-05,-0.003175795933155898,1.6641101837158203,2019-06-21 14:52:51:708,0.0,0.0,0.0
0.17914403975009918,-0.06676562130451202,9.782660484313965,0.003425927876980761,-0.0018775874753405213,-0.001977080859004387,1.669114112854004,2019-06-21 14:52:51:713,0.0,0.0,0.0
0.1647755354642868,-0.06916037201881409,9.773080825805664,0.0006289259072567405,0.005048322492165131,-0.0038417487521289597,1.674992561340332,2019-06-21 14:52:51:719,0.0,0.0,0.0
0.14801229536533356,-0.06676562130451202,9.70602798461914,-0.007229317746736873,0.0031836543389662333,-0.000378793995941168,1.679112434387207,2019-06-21 14:52:51:723,0.0,0.0,0.0
0.15280179679393768,-0.04521287605166435,9.749134063720703,-0.001102551552110382,0.0031836543389662333,-0.003175795933155898,1.6850757598876953,2019-06-21 14:52:51:729,0.0,0.0,0.0
0.15998604893684387,-0.030844375491142273,9.7515287399292,0.001827640981408251,-0.0006788723361704295,0.00015396830800121713,1.6891164779663086,2019-06-21 14:52:51:733,0.0,0.0,0.0
0.15280179679393768,-0.05479187145829201,9.727581024169922,0.0008953070348459651,0.0031836543389662333,-0.0029094148055666736,1.6941075325012207,2019-06-21 14:52:51:738,0.0,0.0,0.0
0.13124904036521912,-0.0811341181397438,9.806608200073242,0.0006289259072567405,0.0018517485709829478,-0.0013111280400313259,1.6991114616394043,2019-06-21 14:52:51:743,0.0,0.0,0.0
0.17674928903579712,-0.04281812533736229,9.758712768554688,-0.0013689326796996063,0.0017185580071883357,-0.0038417487521289597,1.7049951553344727,2019-06-21 14:52:51:749,0.0,0.0,0.0
0.12885428965091705,-0.05718662217259407,9.765896797180176,0.0011616881624351898,-0.0002793006447865926,-0.004907273262485858,1.7091317176818848,2019-06-21 14:52:51:753,0.0,0.0,0.0
0.15040704607963562,-0.026054875925183296,9.739554405212402,0.0006289259072567405,0.0003866522392050501,-0.0017106997314151628,1.7141098976135254,2019-06-21 14:52:51:758,0.0,0.0,0.0
0.14801229536533356,-0.04760762304067612,9.7515287399292,-0.002034885498672668,0.002917273211377009,-0.006638750851890143,1.7191104888916016,2019-06-21 14:52:51:763,0.0,0.0,0.0
0.13364379107952118,-0.006896879058331251,9.789844512939453,0.0015612598538190267,-0.0005456817723758172,-0.003575367624539735,1.7249970436096191,2019-06-21 14:52:51:769,0.0,0.0,0.0
0.14322279393672943,-0.05958137288689613,9.777871131896973,0.0008953070348459651,0.004915131668296193,-0.001977080859004387,1.7291135787963867,2019-06-21 14:52:51:773,0.0,0.0,0.0
0.17435453832149506,-0.05958137288689613,9.758712768554688,0.003026356185596924,-0.0014780157839566846,-0.001977080859004387,1.7341127395629883,2019-06-21 14:52:51:778,0.0,0.0,0.0
0.1456175446510315,-0.04281812533736229,9.797028541564941,0.002493593930418475,0.0013189861857673363,0.0032173513890598167,1.7391138076782227,2019-06-21 14:52:51:783,0.0,0.0,0.0
0.14322279393672943,-0.06916037201881409,9.777871131896973,0.001294878726229802,0.0003866522392050501,-0.0005119845597357803,1.7441129684448242,2019-06-21 14:52:51:788,0.0,0.0,0.0
0.16717028617858887,-0.05000237375497818,9.756318092346191,-0.005231459029743363,-0.000146110064737335,-0.0009115562836289078,1.7491326332092285,2019-06-21 14:52:51:793,0.0,0.0,0.0
0.1575912982225418,-0.033239126205444336,9.79223918914795,-0.003766363088076953,0.0022513201323296223,-0.00477408295876557,1.7542686462402344,2019-06-21 14:52:51:799,0.0,0.0,0.0
0.1456175446510315,-0.05000237375497818,9.794633865356445,-0.00030340813683341745,0.00198493913477756,0.0009531117395328268,1.7592692375183105,2019-06-21 14:52:51:804,0.0,0.0,0.0
0.15280179679393768,-0.05958137288689613,9.744344711303711,0.004225071259748435,0.0023845106961242345,0.002285017442497531,1.764266014099121,2019-06-21 14:52:51:809,0.0,0.0,0.0
0.14801229536533356,-0.05958137288689613,9.775476455688477,0.004624643211206597,-0.0016112063477512967,0.0014858740597298572,1.769270420074463,2019-06-21 14:52:51:814,0.0,0.0,0.0
0.14322279393672943,-0.04760762304067612,9.809002876281738,0.003425927876980761,0.0011857956219727239,-0.003708558188334347,1.7742681503295898,2019-06-21 14:52:51:819,0.0,0.0,0.0
0.15040704607963562,-0.033239126205444336,9.79223918914795,-0.0036331725242823402,0.0035832260303500707,-0.002376652550388224,1.779268741607666,2019-06-21 14:52:51:824,0.0,0.0,0.0
0.08335405588150024,-0.07873936742544174,9.828160285949707,-0.001102551552110382,0.006646609257700478,-0.0033089864969505106,1.7842683792114258,2019-06-21 14:52:51:829,0.0,0.0,0.0
0.16238079965114594,-0.03802862390875816,9.76350212097168,0.001294878726229802,0.0005198428029996624,-0.002243461986593612,1.789271354675293,2019-06-21 14:52:51:834,0.0,0.0,0.0
0.12406479567289352,-0.01168637815862894,9.753923416137695,0.0027599750580077,-0.0006788723361704295,-0.0005119845597357803,1.794267177581787,2019-06-21 14:52:51:839,0.0,0.0,0.0
0.1384332925081253,-0.04760762304067612,9.773080825805664,0.0020940221089974756,0.0021181296985721726,0.0012194929321406327,1.7992658615112305,2019-06-21 14:52:51:844,0.0,0.0,0.0
0.11927530169487,-0.10508161783218384,9.739554405212402,0.0006289259072567405,-0.0005456817723758172,-0.004241320443512797,1.8042645454406738,2019-06-21 14:52:51:849,0.0,0.0,0.0
0.14801229536533356,-0.04521287605166435,9.785055160522461,0.0036923090045699854,0.004249178849323132,-0.0038417487521289597,1.8092947006225586,2019-06-21 14:52:51:854,0.0,0.0,0.0
0.16956503689289093,-0.03802862390875816,9.741949081420898,0.0027599750580077,0.004648750540706968,-0.002376652550388224,1.8142666816711426,2019-06-21 14:52:51:859,0.0,0.0,0.0
0.12406479567289352,-0.05000237375497818,9.80421257019043,0.00036254474715822533,-0.0010784440275542662,-0.0014443186038259382,1.8192672729492188,2019-06-21 14:52:51:864,0.0,0.0,0.0
0.13603854179382324,-0.04281812533736229,9.782660484313965,0.002626784494213087,-0.0014780157839566846,0.001752255187319082,1.824270248413086,2019-06-21 14:52:51:869,0.0,0.0,0.0
0.15519654750823975,-0.01168637815862894,9.768291473388672,-0.00017021755678415983,-0.00041249120858120484,-0.005839607469122469,1.829267978668213,2019-06-21 14:52:51:874,0.0,0.0,0.0
0.13603854179382324,-0.0356338769197464,9.64376449584961,0.002493593930418475,0.0015853673133565606,-0.00104474684742352,1.8342671394348145,2019-06-21 14:52:51:879,0.0,0.0,0.0
0.1456175446510315,-0.033239126205444336,9.701238632202148,0.005423786593974271,-0.0025435404243507455,-0.0015775091676205506,1.8392720222473145,2019-06-21 14:52:51:884,0.0,0.0,0.0
0.16956503689289093,-0.02126537635922432,9.718002319335938,-0.002034885498672668,-0.0017443969115459091,0.0005535400481489899,1.8442659378051758,2019-06-21 14:52:51:889,0.0,0.0,0.0
0.13124904036521912,-0.04281812533736229,9.775476455688477,0.002626784494213087,0.0023845106961242345,-0.005440035517664307,1.849271297454834,2019-06-21 14:52:51:894,0.0,0.0,0.0
0.17914403975009918,-0.05000237375497818,9.749134063720703,0.002360403366623863,-0.0036090649347076437,-0.00011241284396997543,1.8550233840942383,2019-06-21 14:52:51:899,0.0,0.0,0.0
0.1647755354642868,-0.05718662217259407,9.765896797180176,0.0006289259072567405,0.0003866522392050501,-0.000378793995941168,1.8591136932373047,2019-06-21 14:52:51:903,0.0,0.0,0.0
0.16717028617858887,-0.03802862390875816,9.806608200073242,0.0036923090045699854,0.0025177012599188467,-0.000378793995941168,1.8650054931640625,2019-06-21 14:52:51:909,0.0,0.0,0.0
0.14082804322242737,-0.026054875925183296,9.806608200073242,0.002360403366623863,0.0010526050581781115,0.0016190646235244696,1.8691139221191406,2019-06-21 14:52:51:913,0.0,0.0,0.0
0.17435453832149506,0.00028736997046507895,9.737159729003906,0.004757833514926884,0.003849607157939295,0.0005535400481489899,1.874995231628418,2019-06-21 14:52:51:919,0.0,0.0,0.0
0.171959787607193,-0.05718662217259407,9.686870574951172,0.0035591184407753737,-0.0017443969115459091,0.00015396830800121713,1.879112720489502,2019-06-21 14:52:51:923,0.0,0.0,0.0
0.2102757841348648,-0.07394987344741821,9.797028541564941,-0.0009693609883157694,0.0013189861857673363,0.0010863023033274393,1.884995937347412,2019-06-21 14:52:51:929,0.0,0.0,0.0
0.16238079965114594,-0.05958137288689613,9.773080825805664,-0.001102551552110382,0.0022513201323296223,0.0037501136442382663,1.8891115188598633,2019-06-21 14:52:51:933,0.0,0.0,0.0
0.1911177933216095,-0.061976123601198196,9.739554405212402,0.0020940221089974756,0.0025177012599188467,-0.000378793995941168,1.894996166229248,2019-06-21 14:52:51:939,0.0,0.0,0.0
0.19351254403591156,-0.04521287605166435,9.758712768554688,-0.0013689326796996063,0.004915131668296193,0.0012194929321406327,1.8991150856018066,2019-06-21 14:52:51:943,0.0,0.0,0.0
0.15040704607963562,-0.05479187145829201,9.732370376586914,0.001294878726229802,0.0027840826475823964,0.00015396830800121713,1.9041109085083008,2019-06-21 14:52:51:948,0.0,0.0,0.0
0.171959787607193,-0.11226586252450943,9.758712768554688,-0.0027008383176457293,0.006113847002522029,-0.002243461986593612,1.910020351409912,2019-06-21 14:52:51:954,0.0,0.0,0.0
0.16717028617858887,-0.04760762304067612,9.73476505279541,-0.000702979860726545,0.0035832260303500707,0.0020186363149083063,1.9141135215759277,2019-06-21 14:52:51:958,0.0,0.0,0.0
0.1839335411787033,-0.0811341181397438,9.737159729003906,-0.001635313807288831,0.004648750540706968,-0.0011779374762367137,1.919999122619629,2019-06-21 14:52:51:964,0.0,0.0,0.0
0.13124904036521912,-0.06676562130451202,9.780265808105469,-0.0004365987006280297,0.0025177012599188467,-0.0014443186038259382,1.9241113662719727,2019-06-21 14:52:51:968,0.0,0.0,0.0
0.18153879046440125,-0.01168637815862894,9.696449279785156,0.0002293541671089677,0.0002534616591557925,-0.0006451751560396832,1.9299964904785156,2019-06-21 14:52:51:974,0.0,0.0,0.0
0.18153879046440125,-0.061976123601198196,9.770686149597168,-0.001102551552110382,0.004249178849323132,0.00028715888805047477,1.934112548828125,2019-06-21 14:52:51:978,0.0,0.0,0.0
0.18632829189300537,-0.04281812533736229,9.732370376586914,-0.0034999819604877285,0.0023845106961242345,-0.008902990176324226,1.939997673034668,2019-06-21 14:52:51:984,0.0,0.0,0.0
0.14322279393672943,-0.05479187145829201,9.703633308410645,0.0011616881624351898,0.00851127715082505,-0.0015775091676205506,1.9441099166870117,2019-06-21 14:52:51:988,0.0,0.0,0.0
0.16717028617858887,-0.06676562130451202,9.749134063720703,-0.00216807606246728,0.0006530333667942747,-0.005440035517664307,1.9499969482421875,2019-06-21 14:52:51:994,0.0,0.0,0.0
0.1120910495519638,-0.040423374623060226,9.746739387512207,0.003825499568364598,0.004915131668296193,-0.003175795933155898,1.9541120529174805,2019-06-21 14:52:51:998,0.0,0.0,0.0
0.1456175446510315,-0.05000237375497818,9.749134063720703,-0.0004365987006280297,-0.0016112063477512967,-0.004507701831176346,1.9599981307983398,2019-06-21 14:52:52:004,0.0,0.0,0.0
0.16717028617858887,-0.026054875925183296,9.775476455688477,-0.0008361704245211573,0.0005198428029996624,-0.00477408295876557,1.9641118049621582,2019-06-21 14:52:52:008,0.0,0.0,0.0
0.15040704607963562,-0.0356338769197464,9.794633865356445,-0.0008361704245211573,0.0005198428029996624,-0.004507701831176346,1.969996452331543,2019-06-21 14:52:52:014,0.0,0.0,0.0
0.21267053484916687,-0.030844375491142273,9.847318649291992,0.001827640981408251,-1.2919485703992724e-05,-0.002376652550388224,1.974111557006836,2019-06-21 14:52:52:018,0.0,0.0,0.0
0.14801229536533356,-0.04521287605166435,9.88323974609375,0.002360403366623863,0.0031836543389662333,-0.00477408295876557,1.9791135787963867,2019-06-21 14:52:52:023,0.0,0.0,0.0
0.2102757841348648,-0.014081127941608429,9.849713325500488,0.0032927373131861493,0.00651341843383154,-0.006638750851890143,1.9849939346313477,2019-06-21 14:52:52:029,0.0,0.0,0.0
0.1839335411787033,-0.01168637815862894,9.80421257019043,-0.00017021755678415983,0.0017185580071883357,-0.006372369724300918,1.9891119003295898,2019-06-21 14:52:52:033,0.0,0.0,0.0
0.16238079965114594,-0.02844962663948536,9.837739944458008,-0.0023012666262618923,0.003849607157939295,-0.005839607469122469,1.9949932098388672,2019-06-21 14:52:52:039,0.0,0.0,0.0
0.1839335411787033,-0.06916037201881409,9.70602798461914,0.005024214642516109,0.005314703619754355,-0.004507701831176346,1.9991145133972168,2019-06-21 14:52:52:043,0.0,0.0,0.0
0.15040704607963562,-0.018870627507567406,9.770686149597168,0.0015612598538190267,0.000786223930588887,-0.00477408295876557,2.004993438720703,2019-06-21 14:52:52:049,0.0,0.0,0.0
0.16956503689289093,-0.02844962663948536,9.777871131896973,-0.0005697892969319327,-0.0002793006447865926,-0.0077042753622470405,2.0091123580932617,2019-06-21 14:52:52:053,0.0,0.0,0.0
0.17914403975009918,-0.018870627507567406,9.794633865356445,0.0008953070348459651,0.0003866522392050501,-0.007571085058526754,2.014993667602539,2019-06-21 14:52:52:059,0.0,0.0,0.0
0.1647755354642868,-0.040423374623060226,9.7515287399292,0.0010284975986405774,-0.000945253463759654,-0.007837466186115978,2.0191431045532227,2019-06-21 14:52:52:063,0.0,0.0,0.0
0.1839335411787033,-0.05958137288689613,9.753923416137695,0.002360403366623863,0.0022513201323296223,-0.005173654390075082,2.0250024795532227,2019-06-21 14:52:52:069,0.0,0.0,0.0
0.18632829189300537,-0.05958137288689613,9.741949081420898,-0.0012357421159049941,-0.000945253463759654,-0.00530684521394402,2.029111862182617,2019-06-21 14:52:52:073,0.0,0.0,0.0
0.19590729475021362,-0.08352886885404587,9.718002319335938,0.0032927373131861493,-0.003742255498502256,-0.002376652550388224,2.0349884033203125,2019-06-21 14:52:52:079,0.0,0.0,0.0
0.1983020305633545,-0.07634461671113968,9.737159729003906,0.0019608315452028634,-0.0010784440275542662,-0.0011779374762367137,2.039112091064453,2019-06-21 14:52:52:083,0.0,0.0,0.0
0.19351254403591156,-0.02844962663948536,9.775476455688477,-0.0042991253432554015,-0.0013448252201620722,-0.007837466186115978,2.044994831085205,2019-06-21 14:52:52:089,0.0,0.0,0.0
0.22703903913497925,-0.018870627507567406,9.787449836730957,-0.0008361704245211573,-0.0036090649347076437,-0.009435752431502676,2.0491108894348145,2019-06-21 14:52:52:093,0.0,0.0,0.0
0.217460036277771,-0.03802862390875816,9.768291473388672,0.0020940221089974756,0.0003866522392050501,-0.0006451751560396832,2.054995536804199,2019-06-21 14:52:52:099,0.0,0.0,0.0
0.20548628270626068,-0.05958137288689613,9.753923416137695,-0.0008361704245211573,0.004382369413117744,-0.0038417487521289597,2.059112548828125,2019-06-21 14:52:52:103,0.0,0.0,0.0
0.14801229536533356,-0.030844375491142273,9.727581024169922,-0.00017021755678415983,0.003982797721733907,0.0014858740597298572,2.064112663269043,2019-06-21 14:52:52:108,0.0,0.0,0.0
0.14322279393672943,-0.018870627507567406,9.698843955993652,0.0002293541671089677,0.0011857956219727239,-0.0030426053693612854,2.0699987411499023,2019-06-21 14:52:52:114,0.0,0.0,0.0
0.20548628270626068,-0.040423374623060226,9.718002319335938,0.003825499568364598,-0.006006495083010664,-0.0038417487521289597,2.074110984802246,2019-06-21 14:52:52:118,0.0,0.0,0.0
0.16717028617858887,-0.061976123601198196,9.770686149597168,0.004225071259748435,-0.009735831389408459,-0.0034421770607451223,2.0799970626831055,2019-06-21 14:52:52:124,0.0,0.0,0.0
0.20788103342056274,-0.05239712446928024,9.732370376586914,-3.702698079856355e-05,0.0011857956219727239,-0.0015775091676205506,2.084113597869873,2019-06-21 14:52:52:128,0.0,0.0,0.0
0.17674928903579712,-0.018870627507567406,9.718002319335938,9.616359518703274e-05,0.0009194144943834993,-0.002243461986593612,2.0900015830993652,2019-06-21 14:52:52:134,0.0,0.0,0.0
0.20309153199195862,-0.01168637815862894,9.718002319335938,-0.002434457190056505,-0.0002793006447865926,-0.004640892134896633,2.094111442565918,2019-06-21 14:52:52:138,0.0,0.0,0.0
0.1839335411787033,-0.05479187145829201,9.732370376586914,-0.001635313807288831,0.0015853673133565606,-0.009702134079240551,2.0999984741210938,2019-06-21 14:52:52:144,0.0,0.0,0.0
0.2102757841348648,-0.04281812533736229,9.72279167175293,-0.000702979860726545,0.004781940844427256,-0.00477408295876557,2.104111671447754,2019-06-21 14:52:52:148,0.0,0.0,0.0
0.16717028617858887,-0.04760762304067612,9.729975700378418,0.0006289259072567405,0.0002534616591557925,-0.0009115562836289078,2.1100220680236816,2019-06-21 14:52:52:154,0.0,0.0,0.0
0.1839335411787033,-0.030844375491142273,9.753923416137695,0.0020940221089974756,0.0025177012599188467,-0.002376652550388224,2.1141138076782227,2019-06-21 14:52:52:158,0.0,0.0,0.0
0.1983020305633545,-0.040423374623060226,9.732370376586914,-0.0004365987006280297,-0.00121163465636746,-0.007304703930937529,2.1199989318847656,2019-06-21 14:52:52:164,0.0,0.0,0.0
0.1575912982225418,-0.002107379725202918,9.768291473388672,-0.0013689326796996063,0.00558108474734358,-0.005972797772842756,2.124114990234375,2019-06-21 14:52:52:168,0.0,0.0,0.0
0.19590729475021362,-0.01168637815862894,9.725186347961426,-0.002434457190056505,0.0059806561786530914,-0.004507701831176346,2.1299996376037598,2019-06-21 14:52:52:174,0.0,0.0,0.0
0.17674928903579712,-0.016475878655910492,9.753923416137695,0.0002293541671089677,0.006646609257700478,-0.002776224241772061,2.1341118812561035,2019-06-21 14:52:52:178,0.0,0.0,0.0
0.15998604893684387,-0.0356338769197464,9.698843955993652,9.616359518703274e-05,0.0023845106961242345,-0.005440035517664307,2.1391124725341797,2019-06-21 14:52:52:183,0.0,0.0,0.0
0.10251204669475555,-0.03802862390875816,9.799423217773438,0.0004957353109528376,0.006247037306242317,-0.003974939315923572,2.1449947357177734,2019-06-21 14:52:52:189,0.0,0.0,0.0
0.13603854179382324,-0.02844962663948536,9.696449279785156,0.0006289259072567405,-0.002143968602929746,-0.004241320443512797,2.149115562438965,2019-06-21 14:52:52:193,0.0,0.0,0.0
0.10490679740905762,-0.09550261497497559,9.782660484313965,0.002360403366623863,0.0021181296985721726,-0.007304703930937529,2.1549949645996094,2019-06-21 14:52:52:199,0.0,0.0,0.0
0.13124904036521912,-0.05239712446928024,9.746739387512207,0.003026356185596924,0.004915131668296193,-0.001977080859004387,2.1591153144836426,2019-06-21 14:52:52:203,0.0,0.0,0.0
0.12167004495859146,-0.006896879058331251,9.715607643127441,-0.00017021755678415983,0.0018517485709829478,-0.005573226341533244,2.164994239807129,2019-06-21 14:52:52:209,0.0,0.0,0.0
0.10011730343103409,-0.016475878655910492,9.76350212097168,0.003026356185596924,0.0021181296985721726,-0.006771941675759081,2.169997215270996,2019-06-21 14:52:52:214,0.0,0.0,0.0
0.13364379107952118,-0.030844375491142273,9.69405460357666,0.001294878726229802,0.0031836543389662333,-0.011034040237335323,2.174996852874756,2019-06-21 14:52:52:219,0.0,0.0,0.0
0.07616980373859406,-0.05958137288689613,9.725186347961426,0.0019608315452028634,0.008111705199366888,-0.004507701831176346,2.179116725921631,2019-06-21 14:52:52:223,0.0,0.0,0.0
0.05940655618906021,-0.023660127073526382,9.725186347961426,0.002893165621802312,0.008644467454545337,-0.004507701831176346,2.1841115951538086,2019-06-21 14:52:52:228,0.0,0.0,0.0
0.054617054760456085,0.00986636895686388,9.715607643127441,-0.0009693609883157694,0.0017185580071883357,-0.009036181520341814,2.1900367736816406,2019-06-21 14:52:52:234,0.0,0.0,0.0
0.07138030230998993,-0.002107379725202918,9.823370933532715,-0.0029672194452349536,0.0010526050581781115,-0.011833183099954346,2.1941184997558594,2019-06-21 14:52:52:238,0.0,0.0,0.0
0.09772255271673203,-0.016475878655910492,9.825765609741211,0.0004957353109528376,0.0023845106961242345,-0.005440035517664307,2.1999945640563965,2019-06-21 14:52:52:244,0.0,0.0,0.0
0.06898555159568787,-0.033239126205444336,9.773080825805664,0.0002293541671089677,0.004648750540706968,-0.009702134079240551,2.2041101455688477,2019-06-21 14:52:52:248,0.0,0.0,0.0
0.033064309507608414,-0.05479187145829201,9.785055160522461,0.002493593930418475,0.0033168449027608455,-0.008103847313705203,2.209993362426758,2019-06-21 14:52:52:254,0.0,0.0,0.0
0.06419605761766434,-0.004502129275351763,9.79223918914795,0.0002293541671089677,0.0013189861857673363,-0.0038417487521289597,2.2150001525878906,2019-06-21 14:52:52:259,0.0,0.0,0.0
0.033064309507608414,-0.002107379725202918,9.753923416137695,0.0004957353109528376,0.0003866522392050501,-0.011300420844775899,2.219111442565918,2019-06-21 14:52:52:263,0.0,0.0,0.0
0.07138030230998993,-0.03802862390875816,9.809002876281738,0.003026356185596924,0.004249178849323132,-0.015828900533941367,2.2249927520751953,2019-06-21 14:52:52:269,0.0,0.0,0.0
0.0665908083319664,-0.07394987344741821,9.749134063720703,0.004491452387337659,-0.0016112063477512967,-0.006372369724300918,2.2291126251220703,2019-06-21 14:52:52:273,0.0,0.0,0.0
0.10251204669475555,-0.0811341181397438,9.80421257019043,0.0016944504176136389,-0.0018775874753405213,-0.010234896334419,2.234111785888672,2019-06-21 14:52:52:278,0.0,0.0,0.0
0.06419605761766434,-0.05479187145829201,9.785055160522461,0.003425927876980761,-0.0005456817723758172,-0.00477408295876557,2.239995002746582,2019-06-21 14:52:52:284,0.0,0.0,0.0
0.08335405588150024,0.005076869390904903,9.806608200073242,-0.000702979860726545,0.0022513201323296223,-0.01116723054105561,2.244119167327881,2019-06-21 14:52:52:288,0.0,0.0,0.0
0.0929330512881279,-0.05958137288689613,9.768291473388672,0.0004957353109528376,0.003450035466555458,-0.0050404640863547946,2.249998092651367,2019-06-21 14:52:52:294,0.0,0.0,0.0
0.08814354985952377,-0.07873936742544174,9.777871131896973,0.0032927373131861493,0.003849607157939295,-0.006638750851890143,2.2541122436523438,2019-06-21 14:52:52:298,0.0,0.0,0.0
0.08095930516719818,-0.04281812533736229,9.794633865356445,0.005823358025283782,0.0013189861857673363,-0.009435752431502676,2.2600016593933105,2019-06-21 14:52:52:304,0.0,0.0,0.0
0.061801306903362274,-0.02844962663948536,9.782660484313965,0.0006289259072567405,0.0011857956219727239,-0.005573226341533244,2.2641115188598633,2019-06-21 14:52:52:308,0.0,0.0,0.0
0.13603854179382324,-0.05239712446928024,9.761107444763184,0.002493593930418475,0.0011857956219727239,-0.010501276941859575,2.2699966430664062,2019-06-21 14:52:52:314,0.0,0.0,0.0
0.11927530169487,-0.07155512273311615,9.7515287399292,0.002893165621802312,0.0021181296985721726,-0.006638750851890143,2.274110794067383,2019-06-21 14:52:52:318,0.0,0.0,0.0
0.15040704607963562,-0.08352886885404587,9.81379222869873,0.0011616881624351898,0.0005198428029996624,-0.0025098431141828367,2.2799954414367676,2019-06-21 14:52:52:324,0.0,0.0,0.0
0.1120910495519638,-0.09550261497497559,9.739554405212402,0.002360403366623863,-0.0014780157839566846,-0.001977080859004387,2.284111499786377,2019-06-21 14:52:52:328,0.0,0.0,0.0
0.11448580026626587,-0.04281812533736229,9.782660484313965,0.0022272128028292507,0.0010526050581781115,-0.005839607469122469,2.289112091064453,2019-06-21 14:52:52:333,0.0,0.0,0.0
0.08335405588150024,-0.002107379725202918,9.770686149597168,0.0031595467493915367,0.0021181296985721726,-0.003175795933155898,2.2949962615966797,2019-06-21 14:52:52:339,0.0,0.0,0.0
0.11688055098056793,-0.04521287605166435,9.741949081420898,0.002360403366623863,0.004115988285528519,-0.0050404640863547946,2.2991137504577637,2019-06-21 14:52:52:343,0.0,0.0,0.0
0.1456175446510315,-0.10987111926078796,9.758712768554688,-0.000702979860726545,0.0014521767495619484,-0.0038417487521289597,2.3049964904785156,2019-06-21 14:52:52:349,0.0,0.0,0.0
0.10969629883766174,-0.07155512273311615,9.746739387512207,0.0020940221089974756,0.0027840826475823964,0.00015396830800121713,2.3091135025024414,2019-06-21 14:52:52:353,0.0,0.0,0.0
0.16956503689289093,-0.07155512273311615,9.785055160522461,0.004358261823543047,-0.0006788723361704295,-0.0017106997314151628,2.315016746520996,2019-06-21 14:52:52:359,0.0,0.0,0.0
0.16238079965114594,-0.06437087059020996,9.7515287399292,0.0008953070348459651,0.004249178849323132,-0.002243461986593612,2.3191146850585938,2019-06-21 14:52:52:363,0.0,0.0,0.0
0.10011730343103409,-0.10508161783218384,9.73476505279541,-0.0023012666262618923,0.005847465874932804,-0.0017106997314151628,2.324997901916504,2019-06-21 14:52:52:369,0.0,0.0,0.0
0.12645955383777618,-0.07394987344741821,9.749134063720703,0.005823358025283782,-0.0008120628999650418,-0.00011241284396997543,2.3291196823120117,2019-06-21 14:52:52:373,0.0,0.0,0.0
0.16717028617858887,-0.07394987344741821,9.708422660827637,-0.003766363088076953,0.0009194144943834993,-0.0050404640863547946,2.3349952697753906,2019-06-21 14:52:52:379,0.0,0.0,0.0
0.1911177933216095,-0.06676562130451202,9.727581024169922,0.004091880695953822,0.0003866522392050501,-0.001843890295209775,2.3391170501708984,2019-06-21 14:52:52:383,0.0,0.0,0.0
0.18632829189300537,-0.07394987344741821,9.775476455688477,-0.0046986967745649135,0.0006530333667942747,0.0005535400481489899,2.3449954986572266,2019-06-21 14:52:52:389,0.0,0.0,0.0
0.19351254403591156,-0.1074763685464859,9.677290916442871,0.0019608315452028634,0.005447893923474643,-0.0006451751560396832,2.349111557006836,2019-06-21 14:52:52:393,0.0,0.0,0.0
0.18872304260730743,-0.09550261497497559,9.777871131896973,-0.002034885498672668,-0.0018775874753405213,0.0016190646235244696,2.354996681213379,2019-06-21 14:52:52:399,0.0,0.0,0.0
0.19351254403591156,-0.05000237375497818,9.691659927368164,-0.0019016949348780556,0.004249178849323132,0.002285017442497531,2.35917329788208,2019-06-21 14:52:52:403,0.0,0.0,0.0
0.16956503689289093,-0.061976123601198196,9.758712768554688,0.0008953070348459651,0.0014521767495619484,0.0018854457511136942,2.364995002746582,2019-06-21 14:52:52:409,0.0,0.0,0.0
0.1839335411787033,-0.02126537635922432,9.7515287399292,0.0022272128028292507,-0.0034758743709130315,-0.0014443186038259382,2.369112014770508,2019-06-21 14:52:52:413,0.0,0.0,0.0
0.1647755354642868,-0.08352886885404587,9.737159729003906,-0.0038995536518715646,0.0045155597168380305,0.0048156381545951645,2.374154567718506,2019-06-21 14:52:52:418,0.0,0.0,0.0
0.171959787607193,-0.11705536395311356,9.729975700378418,0.0031595467493915367,0.0033168449027608455,0.0014858740597298572,2.379993438720703,2019-06-21 14:52:52:424,0.0,0.0,0.0
0.22464428842067719,-0.033239126205444336,9.758712768554688,-0.0005697892969319327,0.006380228130111254,0.004149685335622103,2.3841118812561035,2019-06-21 14:52:52:428,0.0,0.0,0.0
0.23422327637672424,-0.06676562130451202,9.746739387512207,-0.00017021755678415983,0.0033168449027608455,0.006946687695457612,2.3899946212768555,2019-06-21 14:52:52:434,0.0,0.0,0.0
0.22464428842067719,-0.040423374623060226,9.725186347961426,-0.0023012666262618923,0.004382369413117744,0.0020186363149083063,2.3941121101379395,2019-06-21 14:52:52:438,0.0,0.0,0.0
0.21267053484916687,-0.05958137288689613,9.799423217773438,-3.702698079856355e-05,0.004915131668296193,0.006813496871588674,2.399991989135742,2019-06-21 14:52:52:444,0.0,0.0,0.0
0.19590729475021362,-0.07394987344741821,9.708422660827637,0.0004957353109528376,0.000786223930588887,0.006946687695457612,2.4041385650634766,2019-06-21 14:52:52:448,0.0,0.0,0.0
0.19351254403591156,-0.10268686711788177,9.765896797180176,0.003425927876980761,0.0013189861857673363,0.006813496871588674,2.4099960327148438,2019-06-21 14:52:52:454,0.0,0.0,0.0
0.18632829189300537,-0.07634461671113968,9.708422660827637,-0.001102551552110382,-1.2919485703992724e-05,0.00801221220581451,2.414128303527832,2019-06-21 14:52:52:458,0.0,0.0,0.0
0.19590729475021362,-0.02844962663948536,9.753923416137695,9.616359518703274e-05,0.004249178849323132,0.01094240460929598,2.4199962615966797,2019-06-21 14:52:52:464,0.0,0.0,0.0
0.18632829189300537,-0.04281812533736229,9.799423217773438,0.001827640981408251,0.006380228130111254,0.005348400409773614,2.42411470413208,2019-06-21 14:52:52:468,0.0,0.0,0.0
0.18153879046440125,-0.0356338769197464,9.720396995544434,-0.00017021755678415983,0.0033168449027608455,0.004948828978464102,2.4299964904785156,2019-06-21 14:52:52:474,0.0,0.0,0.0
0.17435453832149506,-0.026054875925183296,9.780265808105469,0.004891024338795822,0.006247037306242317,0.006813496871588674,2.4341115951538086,2019-06-21 14:52:52:478,0.0,0.0,0.0
0.1911177933216095,-0.06916037201881409,9.768291473388672,0.003425927876980761,0.0026508918237134593,0.006413924920130511,2.439992904663086,2019-06-21 14:52:52:484,0.0,0.0,0.0
0.20788103342056274,-0.040423374623060226,9.818581581115723,-0.0032336005728241784,0.00851127715082505,0.0056147815373628375,2.4441113471984863,2019-06-21 14:52:52:488,0.0,0.0,0.0
0.15998604893684387,-0.05479187145829201,9.765896797180176,-0.0012357421159049941,0.005447893923474643,0.006014353488821,2.4499950408935547,2019-06-21 14:52:52:494,0.0,0.0,0.0
0.16956503689289093,-0.0356338769197464,9.703633308410645,-0.0012357421159049941,0.00558108474734358,0.008811355588582185,2.454998016357422,2019-06-21 14:52:52:499,0.0,0.0,0.0
0.13364379107952118,-0.04281812533736229,9.782660484313965,0.003026356185596924,0.0022513201323296223,0.010676022961558106,2.4591193199157715,2019-06-21 14:52:52:503,0.0,0.0,0.0
0.16956503689289093,-0.05239712446928024,9.765896797180176,0.0035591184407753737,0.003982797721733907,0.010542832657837817,2.464111328125,2019-06-21 14:52:52:508,0.0,0.0,0.0
0.12167004495859146,-0.026054875925183296,9.765896797180176,0.0011616881624351898,0.007179371512878927,0.006946687695457612,2.4699959754943848,2019-06-21 14:52:52:514,0.0,0.0,0.0
0.17435453832149506,-0.04521287605166435,9.725186347961426,0.002493593930418475,0.0009194144943834993,0.005481591233642551,2.474112033843994,2019-06-21 14:52:52:518,0.0,0.0,0.0
0.17674928903579712,-0.04521287605166435,9.756318092346191,-0.002434457190056505,-0.00041249120858120484,0.00947730814748092,2.4801464080810547,2019-06-21 14:52:52:524,0.0,0.0,0.0
0.18153879046440125,-0.03802862390875816,9.768291473388672,0.0015612598538190267,0.0013189861857673363,0.007346259126767124,2.484248161315918,2019-06-21 14:52:52:529,0.0,0.0,0.0
0.16717028617858887,-0.0356338769197464,9.794633865356445,0.0027599750580077,0.003982797721733907,0.007745831078225285,2.4892778396606445,2019-06-21 14:52:52:534,0.0,0.0,0.0
0.1456175446510315,-0.040423374623060226,9.789844512939453,0.0006289259072567405,0.0017185580071883357,0.010809214305575694,2.4942612648010254,2019-06-21 14:52:52:539,0.0,0.0,0.0
0.17435453832149506,-0.016475878655910492,9.880845069885254,0.0015612598538190267,0.004115988285528519,0.009743689795218795,2.499267578125,2019-06-21 14:52:52:544,0.0,0.0,0.0
0.14801229536533356,-0.05479187145829201,9.782660484313965,-0.0009693609883157694,0.005447893923474643,0.008678164764713246,2.5042624473571777,2019-06-21 14:52:52:549,0.0,0.0,0.0
0.14801229536533356,-0.04281812533736229,9.756318092346191,-0.00017021755678415983,0.0014521767495619484,0.004416066723285653,2.509280204772949,2019-06-21 14:52:52:554,0.0,0.0,0.0
0.1647755354642868,-0.04281812533736229,9.744344711303711,0.0004957353109528376,-1.2919485703992724e-05,0.0056147815373628375,2.514286518096924,2019-06-21 14:52:52:559,0.0,0.0,0.0
0.12885428965091705,-0.040423374623060226,9.797028541564941,-0.0004365987006280297,0.0005198428029996624,0.005747972361231775,2.519268035888672,2019-06-21 14:52:52:564,0.0,0.0,0.0
0.1647755354642868,-0.07394987344741821,9.753923416137695,0.0010284975986405774,0.004648750540706968,0.0048156381545951645,2.524263381958008,2019-06-21 14:52:52:569,0.0,0.0,0.0
0.12406479567289352,-0.03802862390875816,9.737159729003906,0.0027599750580077,0.0023845106961242345,0.001752255187319082,2.529480457305908,2019-06-21 14:52:52:574,0.0,0.0,0.0
0.18153879046440125,-0.05000237375497818,9.70602798461914,0.003425927876980761,0.0005198428029996624,0.007879021381945572,2.5342817306518555,2019-06-21 14:52:52:579,0.0,0.0,0.0
0.15998604893684387,-0.009291628375649452,9.789844512939453,0.0008953070348459651,0.005048322492165131,0.004948828978464102,2.53926420211792,2019-06-21 14:52:52:584,0.0,0.0,0.0
0.15040704607963562,-0.02126537635922432,9.73476505279541,0.0031595467493915367,0.0031836543389662333,0.007879021381945572,2.5449934005737305,2019-06-21 14:52:52:589,0.0,0.0,0.0
0.14801229536533356,-0.04760762304067612,9.737159729003906,9.616359518703274e-05,0.0022513201323296223,0.0036169230804436537,2.5491018295288086,2019-06-21 14:52:52:593,0.0,0.0,0.0
0.19351254403591156,-0.02126537635922432,9.729975700378418,0.0020940221089974756,0.0002534616591557925,0.0048156381545951645,2.55410099029541,2019-06-21 14:52:52:598,0.0,0.0,0.0
0.12167004495859146,-0.018870627507567406,9.789844512939453,-0.0005697892969319327,0.006646609257700478,0.0018854457511136942,2.559103488922119,2019-06-21 14:52:52:603,0.0,0.0,0.0
0.1456175446510315,-0.05000237375497818,9.837739944458008,0.001294878726229802,0.0009194144943834993,0.002551398570086756,2.5641026496887207,2019-06-21 14:52:52:608,0.0,0.0,0.0
0.16717028617858887,0.005076869390904903,9.70602798461914,0.004225071259748435,0.00558108474734358,0.0012194929321406327,2.569103717803955,2019-06-21 14:52:52:613,0.0,0.0,0.0
0.16238079965114594,-0.030844375491142273,9.727581024169922,0.0019608315452028634,0.0015853673133565606,0.0021518268787029185,2.5741004943847656,2019-06-21 14:52:52:618,0.0,0.0,0.0
0.14322279393672943,-0.05718662217259407,9.715607643127441,0.001294878726229802,-0.002143968602929746,0.0018854457511136942,2.5791091918945312,2019-06-21 14:52:52:623,0.0,0.0,0.0
0.16717028617858887,-0.023660127073526382,9.7515287399292,0.0020940221089974756,0.002917273211377009,-0.0021102714227989997,2.5841264724731445,2019-06-21 14:52:52:628,0.0,0.0,0.0
0.15519654750823975,-0.018870627507567406,9.780265808105469,-0.004565506470844626,0.004648750540706968,-0.004108129879718184,2.5891075134277344,2019-06-21 14:52:52:633,0.0,0.0,0.0
0.15280179679393768,-0.026054875925183296,9.80421257019043,-0.0009693609883157694,0.0018517485709829478,-0.004108129879718184,2.5941028594970703,2019-06-21 14:52:52:638,0.0,0.0,0.0
0.17914403975009918,-0.03802862390875816,9.710817337036133,0.003425927876980761,0.0002534616591557925,0.00028715888805047477,2.5991106033325195,2019-06-21 14:52:52:643,0.0,0.0,0.0
0.17674928903579712,-0.016475878655910492,9.708422660827637,-0.0017685043710834434,-0.0013448252201620722,-0.004507701831176346,2.6041088104248047,2019-06-21 14:52:52:648,0.0,0.0,0.0
0.18632829189300537,-0.023660127073526382,9.768291473388672,0.005157405466385046,0.000786223930588887,-0.001843890295209775,2.609990119934082,2019-06-21 14:52:52:654,0.0,0.0,0.0
0.18872304260730743,-0.026054875925183296,9.806608200073242,-0.002034885498672668,0.0033168449027608455,-0.003175795933155898,2.6141223907470703,2019-06-21 14:52:52:658,0.0,0.0,0.0
0.20788103342056274,-0.009291628375649452,9.737159729003906,0.005823358025283782,0.000786223930588887,-0.0025098431141828367,2.6191091537475586,2019-06-21 14:52:52:663,0.0,0.0,0.0
0.21985478699207306,-0.0356338769197464,9.756318092346191,0.002360403366623863,-0.0013448252201620722,-0.0011779374762367137,2.624990463256836,2019-06-21 14:52:52:669,0.0,0.0,0.0
0.15040704607963562,-0.02126537635922432,9.787449836730957,0.0006289259072567405,0.0025177012599188467,-0.001977080859004387,2.6291093826293945,2019-06-21 14:52:52:673,0.0,0.0,0.0
0.19351254403591156,-0.04281812533736229,9.765896797180176,0.0002293541671089677,0.00558108474734358,-0.004507701831176346,2.6341066360473633,2019-06-21 14:52:52:678,0.0,0.0,0.0
0.19351254403591156,-0.04521287605166435,9.818581581115723,0.003425927876980761,0.0031836543389662333,-0.004907273262485858,2.6391096115112305,2019-06-21 14:52:52:683,0.0,0.0,0.0
0.16238079965114594,-0.040423374623060226,9.715607643127441,0.0008953070348459651,0.0014521767495619484,-0.005173654390075082,2.6449880599975586,2019-06-21 14:52:52:689,0.0,0.0,0.0
0.20309153199195862,-0.023660127073526382,9.746739387512207,-0.0013689326796996063,0.0037164165941446824,-0.009435752431502676,2.6491079330444336,2019-06-21 14:52:52:693,0.0,0.0,0.0
0.20548628270626068,-0.04521287605166435,9.79223918914795,-0.0009693609883157694,0.0017185580071883357,-0.006905131979479367,2.654110908508301,2019-06-21 14:52:52:698,0.0,0.0,0.0
0.2366180270910263,-0.05239712446928024,9.746739387512207,0.001294878726229802,0.003450035466555458,-0.004374511007307408,2.659109115600586,2019-06-21 14:52:52:703,0.0,0.0,0.0
0.19590729475021362,-0.033239126205444336,9.768291473388672,-0.0008361704245211573,0.0026508918237134593,-0.006505560028021206,2.6641054153442383,2019-06-21 14:52:52:708,0.0,0.0,0.0
0.15519654750823975,-0.009291628375649452,9.801817893981934,0.004091880695953822,-0.000146110064737335,-0.010767658589597448,2.6699910163879395,2019-06-21 14:52:52:714,0.0,0.0,0.0
0.22703903913497925,-0.04521287605166435,9.727581024169922,-0.0005697892969319327,-0.0006788723361704295,-0.005839607469122469,2.6741089820861816,2019-06-21 14:52:52:718,0.0,0.0,0.0
0.15519654750823975,-0.02844962663948536,9.782660484313965,-0.0009693609883157694,0.0018517485709829478,-0.010634468285877162,2.679108142852783,2019-06-21 14:52:52:723,0.0,0.0,0.0
0.19351254403591156,-0.02126537635922432,9.73476505279541,-0.0009693609883157694,0.0015853673133565606,-0.008636609568883652,2.6849889755249023,2019-06-21 14:52:52:729,0.0,0.0,0.0
0.19351254403591156,-0.030844375491142273,9.756318092346191,0.002493593930418475,0.004249178849323132,-0.011566802492513774,2.689107894897461,2019-06-21 14:52:52:733,0.0,0.0,0.0
0.19351254403591156,-0.030844375491142273,9.761107444763184,0.002493593930418475,0.0003866522392050501,-0.007970656489836267,2.694108486175537,2019-06-21 14:52:52:738,0.0,0.0,0.0
0.1983020305633545,-0.02126537635922432,9.737159729003906,0.0015612598538190267,0.0014521767495619484,-0.011034040237335323,2.7000436782836914,2019-06-21 14:52:52:744,0.0,0.0,0.0
0.16717028617858887,-0.06437087059020996,9.746739387512207,0.0007621164710513528,0.0014521767495619484,-0.01116723054105561,2.705009937286377,2019-06-21 14:52:52:749,0.0,0.0,0.0
0.15998604893684387,-0.016475878655910492,9.770686149597168,-0.004565506470844626,0.0033168449027608455,-0.009702134079240551,2.7091073989868164,2019-06-21 14:52:52:753,0.0,0.0,0.0
0.16956503689289093,-0.05958137288689613,9.775476455688477,0.00036254474715822533,0.0006530333667942747,-0.007437894234657816,2.7141246795654297,2019-06-21 14:52:52:758,0.0,0.0,0.0
0.15998604893684387,-0.061976123601198196,9.761107444763184,-0.0017685043710834434,0.0051815127958854176,-0.01316508925804912,2.7199935913085938,2019-06-21 14:52:52:764,0.0,0.0,0.0
0.1575912982225418,-0.05958137288689613,9.749134063720703,0.002626784494213087,0.0023845106961242345,-0.009568943775520262,2.7241082191467285,2019-06-21 14:52:52:768,0.0,0.0,0.0
0.14082804322242737,-0.061976123601198196,9.765896797180176,-0.002567647753851117,0.0021181296985721726,-0.007837466186115978,2.7291078567504883,2019-06-21 14:52:52:773,0.0,0.0,0.0
0.22703903913497925,-0.02126537635922432,9.720396995544434,0.0014280692900244143,0.006113847002522029,-0.009568943775520262,2.7349843978881836,2019-06-21 14:52:52:779,0.0,0.0,0.0
0.1575912982225418,-0.061976123601198196,9.816186904907227,-0.00216807606246728,0.0022513201323296223,-0.007437894234657816,2.7391042709350586,2019-06-21 14:52:52:783,0.0,0.0,0.0
0.17914403975009918,-0.08592361956834793,9.725186347961426,0.00036254474715822533,-0.0017443969115459091,-0.010368086638139287,2.7449917793273926,2019-06-21 14:52:52:789,0.0,0.0,0.0
0.21985478699207306,-0.05000237375497818,9.787449836730957,-0.0013689326796996063,-0.0022771592967615207,-0.008636609568883652,2.749110698699951,2019-06-21 14:52:52:793,0.0,0.0,0.0
0.13124904036521912,-0.08831837028265,9.820976257324219,0.002626784494213087,0.0021181296985721726,-0.007437894234657816,2.75410795211792,2019-06-21 14:52:52:798,0.0,0.0,0.0
0.1456175446510315,-0.07155512273311615,9.708422660827637,0.0006289259072567405,-0.00121163465636746,-0.010634468285877162,2.7591114044189453,2019-06-21 14:52:52:803,0.0,0.0,0.0
0.1575912982225418,-0.07634461671113968,9.809002876281738,-0.0029672194452349536,0.003849607157939295,-0.012765517306590958,2.7649903297424316,2019-06-21 14:52:52:809,0.0,0.0,0.0
0.15519654750823975,-0.04281812533736229,9.756318092346191,-0.00216807606246728,0.000786223930588887,-0.006505560028021206,2.769425392150879,2019-06-21 14:52:52:814,0.0,0.0,0.0
0.14322279393672943,-0.05239712446928024,9.708422660827637,-0.0013689326796996063,0.0015853673133565606,-0.01116723054105561,2.775538444519043,2019-06-21 14:52:52:820,0.0,0.0,0.0
0.12645955383777618,-0.04760762304067612,9.758712768554688,0.003026356185596924,0.0005198428029996624,-0.005839607469122469,2.780576229095459,2019-06-21 14:52:52:825,0.0,0.0,0.0
0.13603854179382324,-0.05000237375497818,9.691659927368164,-0.002834028881440342,0.000786223930588887,-0.011566802492513774,2.785555839538574,2019-06-21 14:52:52:830,0.0,0.0,0.0
0.14322279393672943,-0.030844375491142273,9.797028541564941,-0.0005697892969319327,0.0003866522392050501,-0.004374511007307408,2.7905807495117188,2019-06-21 14:52:52:835,0.0,0.0,0.0
0.17914403975009918,-0.030844375491142273,9.727581024169922,0.002360403366623863,0.000786223930588887,-0.00530684521394402,2.7955551147460938,2019-06-21 14:52:52:840,0.0,0.0,0.0
0.17674928903579712,-0.07634461671113968,9.715607643127441,0.0015612598538190267,-0.0017443969115459091,-0.004640892134896633,2.8005714416503906,2019-06-21 14:52:52:845,0.0,0.0,0.0
0.1384332925081253,-0.023660127073526382,9.756318092346191,0.0022272128028292507,-1.2919485703992724e-05,-0.008636609568883652,2.8055567741394043,2019-06-21 14:52:52:850,0.0,0.0,0.0
0.18153879046440125,-0.05239712446928024,9.749134063720703,0.005556976897694558,0.0017185580071883357,-0.010767658589597448,2.8105735778808594,2019-06-21 14:52:52:855,0.0,0.0,0.0
0.17435453832149506,-0.01168637815862894,9.797028541564941,-0.00030340813683341745,0.00558108474734358,-0.009968514686681125,2.8155651092529297,2019-06-21 14:52:52:860,0.0,0.0,0.0
0.15280179679393768,-0.06437087059020996,9.713212966918945,0.003026356185596924,-0.0008120628999650418,-0.007038322803348304,2.8205652236938477,2019-06-21 14:52:52:865,0.0,0.0,0.0
0.14082804322242737,-0.05718662217259407,9.744344711303711,0.003425927876980761,0.0006530333667942747,-0.010501276941859575,2.8255538940429688,2019-06-21 14:52:52:870,0.0,0.0,0.0
0.1456175446510315,-0.05718662217259407,9.809002876281738,-0.000702979860726545,0.0005198428029996624,-0.0030426053693612854,2.8305625915527344,2019-06-21 14:52:52:875,0.0,0.0,0.0
0.18632829189300537,-0.05479187145829201,9.775476455688477,0.0006289259072567405,-0.000146110064737335,-0.005972797772842756,2.835555076599121,2019-06-21 14:52:52:880,0.0,0.0,0.0
0.15040704607963562,-0.040423374623060226,9.775476455688477,0.0002293541671089677,0.00012027108723385756,-0.003708558188334347,2.8405590057373047,2019-06-21 14:52:52:885,0.0,0.0,0.0
0.15040704607963562,-0.04521287605166435,9.746739387512207,-0.0036331725242823402,0.005314703619754355,-0.004640892134896633,2.8455562591552734,2019-06-21 14:52:52:890,0.0,0.0,0.0
0.12885428965091705,-0.05718662217259407,9.758712768554688,0.002360403366623863,0.0045155597168380305,-0.006372369724300918,2.850562572479248,2019-06-21 14:52:52:895,0.0,0.0,0.0
0.1120910495519638,-0.06437087059020996,9.842529296875,0.0014280692900244143,-0.002010778039135134,-0.003175795933155898,2.8555550575256348,2019-06-21 14:52:52:900,0.0,0.0,0.0
0.13364379107952118,-0.06916037201881409,9.732370376586914,0.004491452387337659,0.0017185580071883357,-0.007571085058526754,2.8605566024780273,2019-06-21 14:52:52:905,0.0,0.0,0.0
0.08574879914522171,-0.023660127073526382,9.777871131896973,0.0020940221089974756,-1.2919485703992724e-05,-0.001843890295209775,2.865724563598633,2019-06-21 14:52:52:910,0.0,0.0,0.0
0.11688055098056793,-0.040423374623060226,9.76350212097168,-0.0005697892969319327,0.0030504637751716207,-0.004241320443512797,2.8706703186035156,2019-06-21 14:52:52:915,0.0,0.0,0.0
0.14082804322242737,-0.033239126205444336,9.782660484313965,-0.0015021232434942187,0.0003866522392050501,-0.005706416645253532,2.875552177429199,2019-06-21 14:52:52:920,0.0,0.0,0.0
0.10490679740905762,-0.04281812533736229,9.710817337036133,0.0020940221089974756,0.0017185580071883357,-0.00104474684742352,2.880575180053711,2019-06-21 14:52:52:925,0.0,0.0,0.0
0.12885428965091705,-0.09550261497497559,9.698843955993652,0.005290595770105333,0.00198493913477756,-0.0021102714227989997,2.885617733001709,2019-06-21 14:52:52:930,0.0,0.0,0.0
0.14082804322242737,-0.06916037201881409,9.787449836730957,0.0014280692900244143,0.0037164165941446824,-0.003175795933155898,2.8905696868896484,2019-06-21 14:52:52:935,0.0,0.0,0.0
0.16717028617858887,-0.02844962663948536,9.768291473388672,0.0022272128028292507,-0.002410349860556133,0.0014858740597298572,2.895547866821289,2019-06-21 14:52:52:940,0.0,0.0,0.0
0.10490679740905762,-0.05239712446928024,9.725186347961426,0.0008953070348459651,0.0015853673133565606,-0.0017106997314151628,2.900575637817383,2019-06-21 14:52:52:945,0.0,0.0,0.0
0.14322279393672943,-0.026054875925183296,9.828160285949707,9.616359518703274e-05,-0.000945253463759654,-0.00011241284396997543,2.905557632446289,2019-06-21 14:52:52:950,0.0,0.0,0.0
0.16238079965114594,-0.06437087059020996,9.81379222869873,0.0022272128028292507,-0.006672448162058052,-0.0030426053693612854,2.910554885864258,2019-06-21 14:52:52:955,0.0,0.0,0.0
0.171959787607193,-0.026054875925183296,9.73476505279541,0.001294878726229802,-0.0038754460622968685,-0.0025098431141828367,2.915569305419922,2019-06-21 14:52:52:960,0.0,0.0,0.0
0.12885428965091705,-0.07394987344741821,9.708422660827637,-0.004565506470844626,0.0009194144943834993,-0.003974939315923572,2.9205942153930664,2019-06-21 14:52:52:965,0.0,0.0,0.0
0.08095930516719818,-0.026054875925183296,9.7515287399292,0.002893165621802312,0.0027840826475823964,-0.0038417487521289597,2.925583839416504,2019-06-21 14:52:52:970,0.0,0.0,0.0
0.14082804322242737,-0.05000237375497818,9.801817893981934,-3.702698079856355e-05,0.00012027108723385756,0.004948828978464102,2.9305639266967773,2019-06-21 14:52:52:975,0.0,0.0,0.0
0.13364379107952118,-0.05479187145829201,9.73476505279541,0.003026356185596924,0.0005198428029996624,-0.0030426053693612854,2.935554027557373,2019-06-21 14:52:52:980,0.0,0.0,0.0
0.07616980373859406,-0.0356338769197464,9.732370376586914,0.002493593930418475,0.0031836543389662333,-0.004507701831176346,2.940566062927246,2019-06-21 14:52:52:985,0.0,0.0,0.0
0.13364379107952118,-0.01168637815862894,9.741949081420898,-3.702698079856355e-05,0.0010526050581781115,-0.002776224241772061,2.945553779602051,2019-06-21 14:52:52:990,0.0,0.0,0.0
0.14801229536533356,-0.06916037201881409,9.773080825805664,-0.0027008383176457293,0.0027840826475823964,0.0008199211757382146,2.950563430786133,2019-06-21 14:52:52:995,0.0,0.0,0.0
0.12406479567289352,-0.05958137288689613,9.797028541564941,0.001294878726229802,0.00198493913477756,-0.006372369724300918,2.955556869506836,2019-06-21 14:52:53:000,0.0,0.0,0.0
0.16717028617858887,-0.09310787171125412,9.765896797180176,0.0002293541671089677,0.0013189861857673363,-0.0030426053693612854,2.960559844970703,2019-06-21 14:52:53:005,0.0,0.0,0.0
0.12167004495859146,-0.061976123601198196,9.72279167175293,0.0035591184407753737,0.000786223930588887,-0.0011779374762367137,2.96555233001709,2019-06-21 14:52:53:010,0.0,0.0,0.0
0.13364379107952118,-0.07634461671113968,9.775476455688477,-0.001635313807288831,-0.0014780157839566846,-0.00024560341589191043,2.970560073852539,2019-06-21 14:52:53:015,0.0,0.0,0.0
0.13603854179382324,-0.05479187145829201,9.765896797180176,-0.0005697892969319327,0.005714275051063867,-0.003708558188334347,2.9755563735961914,2019-06-21 14:52:53:020,0.0,0.0,0.0
0.12645955383777618,-0.05958137288689613,9.775476455688477,-0.0008361704245211573,-0.00041249120858120484,-0.0030426053693612854,2.9805545806884766,2019-06-21 14:52:53:025,0.0,0.0,0.0
0.1647755354642868,-0.07155512273311615,9.81379222869873,0.004757833514926884,0.00198493913477756,-0.0006451751560396832,2.9855566024780273,2019-06-21 14:52:53:030,0.0,0.0,0.0
0.14082804322242737,0.007471619173884392,9.789844512939453,0.001827640981408251,0.00012027108723385756,0.003084160825265205,2.9905591011047363,2019-06-21 14:52:53:035,0.0,0.0,0.0
0.11448580026626587,-0.05958137288689613,9.732370376586914,0.0036923090045699854,-0.0010784440275542662,-0.008103847313705203,2.995553970336914,2019-06-21 14:52:53:040,0.0,0.0,0.0
0.11927530169487,-0.04281812533736229,9.758712768554688,-0.005364649853612301,0.0009194144943834993,-0.005173654390075082,3.000577926635742,2019-06-21 14:52:53:045,0.0,0.0,0.0
0.14801229536533356,-0.07634461671113968,9.761107444763184,0.0015612598538190267,-0.0014780157839566846,-0.0050404640863547946,3.005554676055908,2019-06-21 14:52:53:050,0.0,0.0,0.0
0.14801229536533356,-0.06676562130451202,9.809002876281738,0.0032927373131861493,0.0003866522392050501,-0.005972797772842756,3.0105600357055664,2019-06-21 14:52:53:055,0.0,0.0,0.0
0.15998604893684387,-0.07155512273311615,9.775476455688477,-0.00216807606246728,0.0005198428029996624,0.00028715888805047477,3.0155839920043945,2019-06-21 14:52:53:060,0.0,0.0,0.0
0.17674928903579712,-0.06916037201881409,9.782660484313965,-0.001102551552110382,-0.0014780157839566846,-0.0017106997314151628,3.0205626487731934,2019-06-21 14:52:53:065,0.0,0.0,0.0
0.1647755354642868,-0.014081127941608429,9.73476505279541,-0.0015021232434942187,0.0023845106961242345,-0.0017106997314151628,3.0255556106567383,2019-06-21 14:52:53:070,0.0,0.0,0.0
0.18632829189300537,-0.06916037201881409,9.672501564025879,0.0010284975986405774,0.000786223930588887,-0.001843890295209775,3.0305604934692383,2019-06-21 14:52:53:075,0.0,0.0,0.0
0.13124904036521912,-0.02844962663948536,9.775476455688477,0.002360403366623863,0.0003866522392050501,-0.003708558188334347,3.035679817199707,2019-06-21 14:52:53:080,0.0,0.0,0.0
0.1120910495519638,-0.06676562130451202,9.727581024169922,0.002360403366623863,0.0002534616591557925,-0.002243461986593612,3.04061222076416,2019-06-21 14:52:53:085,0.0,0.0,0.0
0.1384332925081253,-0.023660127073526382,9.773080825805664,0.004225071259748435,-0.0002793006447865926,0.0009531117395328268,3.0455427169799805,2019-06-21 14:52:53:090,0.0,0.0,0.0
0.1575912982225418,-0.061976123601198196,9.749134063720703,9.616359518703274e-05,0.0033168449027608455,-0.002376652550388224,3.0505714416503906,2019-06-21 14:52:53:095,0.0,0.0,0.0
0.1384332925081253,-0.06437087059020996,9.782660484313965,9.616359518703274e-05,0.0006530333667942747,-0.004640892134896633,3.0555567741394043,2019-06-21 14:52:53:100,0.0,0.0,0.0
0.14082804322242737,-0.06916037201881409,9.809002876281738,-0.0023012666262618923,0.0035832260303500707,-0.0033089864969505106,3.0605554580688477,2019-06-21 14:52:53:105,0.0,0.0,0.0
0.15040704607963562,-0.061976123601198196,9.761107444763184,0.0002293541671089677,0.005447893923474643,-0.0017106997314151628,3.0655412673950195,2019-06-21 14:52:53:110,0.0,0.0,0.0
0.14082804322242737,-0.05000237375497818,9.710817337036133,-3.702698079856355e-05,-1.2919485703992724e-05,-0.0006451751560396832,3.070833206176758,2019-06-21 14:52:53:115,0.0,0.0,0.0
0.13364379107952118,-0.05718662217259407,9.746739387512207,0.0007621164710513528,-0.0014780157839566846,-0.0005119845597357803,3.079616069793701,2019-06-21 14:52:53:124,0.0,0.0,0.0
0.1911177933216095,-0.05239712446928024,9.739554405212402,-0.0015021232434942187,-0.000945253463759654,-0.0014443186038259382,3.0868520736694336,2019-06-21 14:52:53:131,0.0,0.0,0.0
0.171959787607193,-0.061976123601198196,9.761107444763184,0.0032927373131861493,0.0013189861857673363,-0.002643033677977449,3.0952796936035156,2019-06-21 14:52:53:140,0.0,0.0,0.0
0.16717028617858887,-0.06437087059020996,9.79223918914795,-0.0036331725242823402,0.0015853673133565606,-0.0013111280400313259,3.099289894104004,2019-06-21 14:52:53:144,0.0,0.0,0.0
0.1384332925081253,-0.05000237375497818,9.729975700378418,0.0036923090045699854,0.0003866522392050501,-0.006771941675759081,3.1045966148376465,2019-06-21 14:52:53:149,0.0,0.0,0.0
0.14322279393672943,-0.026054875925183296,9.72279167175293,0.0022272128028292507,-0.0008120628999650418,-0.0030426053693612854,3.1084280014038086,2019-06-21 14:52:53:153,0.0,0.0,0.0
0.18153879046440125,-0.061976123601198196,9.765896797180176,0.003026356185596924,0.0051815127958854176,-0.004374511007307408,3.114225387573242,2019-06-21 14:52:53:159,0.0,0.0,0.0
0.15998604893684387,-0.08352886885404587,9.828160285949707,-0.000702979860726545,0.00012027108723385756,0.0005535400481489899,3.119281768798828,2019-06-21 14:52:53:164,0.0,0.0,0.0
0.18632829189300537,-0.04760762304067612,9.710817337036133,-0.002567647753851117,0.004648750540706968,-0.003575367624539735,3.1242570877075195,2019-06-21 14:52:53:169,0.0,0.0,0.0
0.1983020305633545,-0.05000237375497818,9.761107444763184,0.0016944504176136389,0.0005198428029996624,0.002684589133881368,3.1292648315429688,2019-06-21 14:52:53:174,0.0,0.0,0.0
0.17914403975009918,-0.03802862390875816,9.816186904907227,-0.00030340813683341745,0.0035832260303500707,-0.004640892134896633,3.1342554092407227,2019-06-21 14:52:53:179,0.0,0.0,0.0
0.16956503689289093,-0.05000237375497818,9.780265808105469,0.003026356185596924,0.0022513201323296223,-0.001843890295209775,3.139277458190918,2019-06-21 14:52:53:184,0.0,0.0,0.0
0.15998604893684387,-0.05000237375497818,9.818581581115723,0.003026356185596924,0.0021181296985721726,-0.003175795933155898,3.1442575454711914,2019-06-21 14:52:53:189,0.0,0.0,0.0
0.17674928903579712,-0.04521287605166435,9.765896797180176,0.004225071259748435,0.0010526050581781115,-0.0009115562836289078,3.1492671966552734,2019-06-21 14:52:53:194,0.0,0.0,0.0
0.1456175446510315,-0.07634461671113968,9.765896797180176,0.0015612598538190267,0.003982797721733907,-0.0029094148055666736,3.1542539596557617,2019-06-21 14:52:53:199,0.0,0.0,0.0
0.17674928903579712,-0.04521287605166435,9.770686149597168,-0.0032336005728241784,0.0011857956219727239,0.00015396830800121713,3.159269332885742,2019-06-21 14:52:53:204,0.0,0.0,0.0
0.18872304260730743,-0.10029211640357971,9.737159729003906,0.0015612598538190267,0.0014521767495619484,-0.00530684521394402,3.1642560958862305,2019-06-21 14:52:53:209,0.0,0.0,0.0
0.15998604893684387,-0.06916037201881409,9.753923416137695,-0.001635313807288831,0.0025177012599188467,-0.0030426053693612854,3.1693453788757324,2019-06-21 14:52:53:214,0.0,0.0,0.0
0.171959787607193,-0.04760762304067612,9.780265808105469,-0.000702979860726545,0.0013189861857673363,-0.004507701831176346,3.174257278442383,2019-06-21 14:52:53:219,0.0,0.0,0.0
0.09053830057382584,-0.07634461671113968,9.777871131896973,-0.00017021755678415983,0.0026508918237134593,-0.001843890295209775,3.1792688369750977,2019-06-21 14:52:53:224,0.0,0.0,0.0
0.13603854179382324,-0.023660127073526382,9.794633865356445,-0.00017021755678415983,-0.0017443969115459091,2.0777729983790183e-05,3.1842546463012695,2019-06-21 14:52:53:229,0.0,0.0,0.0
0.12885428965091705,-0.06916037201881409,9.744344711303711,0.002493593930418475,0.0006530333667942747,-0.0009115562836289078,3.189270496368408,2019-06-21 14:52:53:234,0.0,0.0,0.0
0.15280179679393768,-0.06437087059020996,9.756318092346191,-3.702698079856355e-05,0.0017185580071883357,-0.00024560341589191043,3.194284439086914,2019-06-21 14:52:53:239,0.0,0.0,0.0
0.14082804322242737,-0.03802862390875816,9.773080825805664,0.00036254474715822533,0.00651341843383154,-0.00477408295876557,3.199265480041504,2019-06-21 14:52:53:244,0.0,0.0,0.0
0.14801229536533356,-0.05718662217259407,9.770686149597168,-0.004032744215666177,0.0003866522392050501,-0.0062391789004319805,3.2042551040649414,2019-06-21 14:52:53:249,0.0,0.0,0.0
0.1384332925081253,-0.08352886885404587,9.732370376586914,0.0032927373131861493,0.0003866522392050501,0.0012194929321406327,3.209268093109131,2019-06-21 14:52:53:254,0.0,0.0,0.0
0.11927530169487,-0.05239712446928024,9.744344711303711,0.0036923090045699854,0.00198493913477756,-0.0013111280400313259,3.214254379272461,2019-06-21 14:52:53:259,0.0,0.0,0.0
0.16717028617858887,-0.05718662217259407,9.696449279785156,0.0008953070348459651,0.0006530333667942747,0.002285017442497531,3.2192740440368652,2019-06-21 14:52:53:264,0.0,0.0,0.0
0.12406479567289352,-0.04281812533736229,9.686870574951172,0.002626784494213087,0.004249178849323132,0.0018854457511136942,3.224252700805664,2019-06-21 14:52:53:269,0.0,0.0,0.0
0.12645955383777618,-0.06437087059020996,9.758712768554688,9.616359518703274e-05,0.0037164165941446824,-0.002243461986593612,3.2292747497558594,2019-06-21 14:52:53:274,0.0,0.0,0.0
0.171959787607193,-0.02844962663948536,9.856897354125977,0.0011616881624351898,0.0013189861857673363,0.001752255187319082,3.2342634201049805,2019-06-21 14:52:53:279,0.0,0.0,0.0
0.18632829189300537,-0.04281812533736229,9.768291473388672,0.002360403366623863,0.00198493913477756,-0.0009115562836289078,3.239283561706543,2019-06-21 14:52:53:284,0.0,0.0,0.0
0.13124904036521912,-0.08592361956834793,9.777871131896973,0.0022272128028292507,0.0015853673133565606,-0.00104474684742352,3.244267463684082,2019-06-21 14:52:53:289,0.0,0.0,0.0
0.12167004495859146,-0.018870627507567406,9.73476505279541,0.0002293541671089677,0.0006530333667942747,-0.00024560341589191043,3.249264717102051,2019-06-21 14:52:53:294,0.0,0.0,0.0
0.1456175446510315,0.002682119607925415,9.81379222869873,0.0011616881624351898,0.0030504637751716207,-0.0006451751560396832,3.254265785217285,2019-06-21 14:52:53:299,0.0,0.0,0.0
0.1575912982225418,-0.04281812533736229,9.76350212097168,0.002893165621802312,-0.000945253463759654,0.004016494771827491,3.2592697143554688,2019-06-21 14:52:53:304,0.0,0.0,0.0
0.16956503689289093,-0.026054875925183296,9.768291473388672,0.0007621164710513528,0.003982797721733907,2.0777729983790183e-05,3.264258861541748,2019-06-21 14:52:53:309,0.0,0.0,0.0
0.14322279393672943,-0.04521287605166435,9.737159729003906,0.0022272128028292507,0.002917273211377009,0.0008199211757382146,3.2692666053771973,2019-06-21 14:52:53:314,0.0,0.0,0.0
0.1647755354642868,-0.023660127073526382,9.713212966918945,0.002493593930418475,-0.003209493243323807,-0.0014443186038259382,3.2743167877197266,2019-06-21 14:52:53:319,0.0,0.0,0.0
0.12885428965091705,-0.06676562130451202,9.785055160522461,0.001827640981408251,0.0045155597168380305,-0.0029094148055666736,3.2793216705322266,2019-06-21 14:52:53:324,0.0,0.0,0.0
0.13603854179382324,-0.05718662217259407,9.761107444763184,-0.00030340813683341745,0.0033168449027608455,-0.002243461986593612,3.284268856048584,2019-06-21 14:52:53:329,0.0,0.0,0.0
0.12406479567289352,-0.002107379725202918,9.744344711303711,0.0010284975986405774,0.0015853673133565606,0.0006867306119436022,3.289274215698242,2019-06-21 14:52:53:334,0.0,0.0,0.0
0.13364379107952118,-0.04521287605166435,9.797028541564941,-0.000702979860726545,0.0037164165941446824,-0.0006451751560396832,3.29427433013916,2019-06-21 14:52:53:339,0.0,0.0,0.0
0.20309153199195862,-0.061976123601198196,9.823370933532715,-0.0012357421159049941,0.0006530333667942747,-0.00104474684742352,3.299239158630371,2019-06-21 14:52:53:344,0.0,0.0,0.0
0.15040704607963562,-0.023660127073526382,9.828160285949707,-0.00017021755678415983,0.004115988285528519,-0.0009115562836289078,3.304999828338623,2019-06-21 14:52:53:349,0.0,0.0,0.0
0.18153879046440125,-0.05479187145829201,9.732370376586914,0.002626784494213087,0.0051815127958854176,0.0009531117395328268,3.309109687805176,2019-06-21 14:52:53:353,0.0,0.0,0.0
0.171959787607193,-0.018870627507567406,9.70602798461914,0.0010284975986405774,0.0025177012599188467,-0.0025098431141828367,3.3149919509887695,2019-06-21 14:52:53:359,0.0,0.0,0.0
0.20788103342056274,-0.03802862390875816,9.744344711303711,0.001294878726229802,0.000786223930588887,0.0014858740597298572,3.3200016021728516,2019-06-21 14:52:53:364,0.0,0.0,0.0
