ACCELEROMETER X (m/s²),ACCELEROMETER Y (m/s²),ACCELEROMETER Z (m/s²),GYROSCOPE X (rad/s),GYROSCOPE Y (rad/s),GYROSCOPE Z (rad/s),Time since start in ms ,YYYY-MO-DD HH-MI-SS_SSS,MagX,MagY,MagZ
0.14901329576969147,-0.12554475665092468,9.800841331481934,-0.0005767152062492525,-7.991434640409003e-05,0.006814162661861195,0.0,2019-06-21 12:36:49:009,0.0,0.0,0.0
0.17056605219841003,-0.09920250624418259,9.855920791625977,0.0020870961996801557,0.0017847536848849673,0.01147583265474695,0.0040912628173828125,2019-06-21 12:36:49:013,0.0,0.0,0.0
0.17056605219841003,-0.06088650971651077,9.81520938873291,0.0003556188378409054,0.0020511348124741917,0.00841244994754519,0.009963512420654297,2019-06-21 12:36:49:019,0.0,0.0,0.0
0.17056605219841003,-0.12793950736522675,9.681103706359863,-0.002974145484589436,0.0041821839632251515,0.008146068299807315,0.014973640441894531,2019-06-21 12:36:49:024,0.0,0.0,0.0
0.12267105281352997,-0.13272900879383087,9.769709587097168,-0.001242668025222314,0.0011188008659119059,0.014139643930639196,0.01907968521118164,2019-06-21 12:36:49:028,0.0,0.0,0.0
0.17056605219841003,-0.10159725695848465,9.776893615722656,-0.00044352460994534954,5.327622958150625e-05,0.016137502647632706,0.024169921875,2019-06-21 12:36:49:033,0.0,0.0,0.0
0.14182904362678528,-0.16865025460720062,9.748156547546387,-0.00031033404615073726,-0.0030101070018325625,0.009211593330312866,0.029980182647705078,2019-06-21 12:36:49:039,0.0,0.0,0.0
0.1921187937259674,-0.1638607531785965,9.808025360107422,-0.0044392419464044965,0.003782612271841314,0.01693664655054903,0.03407478332519531,2019-06-21 12:36:49:043,0.0,0.0,0.0
0.11548680067062378,-0.04651801288127899,9.846341133117676,0.0042181454804682775,0.005380899297450987,0.023995747211886458,0.039969444274902344,2019-06-21 12:36:49:049,0.0,0.0,0.0
0.08196030557155609,-0.07525500655174255,9.819998741149902,-0.00031033404615073726,0.003383040580457477,0.014539215882097358,0.044078826904296875,2019-06-21 12:36:49:053,0.0,0.0,0.0
0.05561806261539459,-0.11357100307941437,9.755340576171875,0.0003556188378409054,-0.0008790577860630224,0.012541357165103849,0.049968719482421875,2019-06-21 12:36:49:059,0.0,0.0,0.0
0.06759180873632431,-0.05130751058459282,9.788866996765137,0.0011547622531178697,-7.991434640409003e-05,0.012408166861383562,0.05408000946044922,2019-06-21 12:36:49:063,0.0,0.0,0.0
0.06519705802202225,-0.06328126043081284,9.805630683898926,8.92376858697129e-05,0.0005860385457148754,0.016004312343912416,0.05995893478393555,2019-06-21 12:36:49:069,0.0,0.0,0.0
0.01730206608772278,-0.08004450798034668,9.84394645690918,0.005017288863235951,0.0049813273459928245,0.015604740392454255,0.06407308578491211,2019-06-21 12:36:49:073,0.0,0.0,0.0
-0.004250680562108755,-0.12315000593662262,9.841551780700684,-0.002308192665616375,0.005780470728760498,0.018934505267542538,0.0699920654296875,2019-06-21 12:36:49:079,0.0,0.0,0.0
0.04603906348347664,-0.041728515177965164,9.78647232055664,0.00022242825779164786,-0.0003462954983752826,0.014272835274656783,0.0740823745727539,2019-06-21 12:36:49:083,0.0,0.0,0.0
-0.040171924978494644,-0.14470274746418,9.884657859802246,0.001287952816912482,-0.0014118201062600529,0.014006453626918908,0.07996129989624023,2019-06-21 12:36:49:089,0.0,0.0,0.0
0.0077230678871273994,-0.12554475665092468,9.829578399658203,0.0036853832252898284,-0.006739442788081707,0.016137502647632706,0.08407402038574219,2019-06-21 12:36:49:093,0.0,0.0,0.0
0.010117817670106888,-0.13512374460697174,9.899025917053223,-0.0019086208441953755,-0.006206680532903257,0.012408166861383562,0.08997535705566406,2019-06-21 12:36:49:099,0.0,0.0,0.0
0.03885481506586075,-0.12793950736522675,9.903815269470215,0.0003556188378409054,-0.003942440948394849,0.009744355585491315,0.09407854080200195,2019-06-21 12:36:49:103,0.0,0.0,0.0
0.04603906348347664,-0.12315000593662262,9.796051979064941,0.004750907735646727,-0.00074586722226841,0.013473691371740459,0.09996318817138672,2019-06-21 12:36:49:109,0.0,0.0,0.0
0.029275815933942795,-0.12793950736522675,9.78647232055664,0.00435133604426289,-0.000213104918326025,0.015205168440996094,0.10407829284667969,2019-06-21 12:36:49:113,0.0,0.0,0.0
0.0029335683211684227,-0.11357100307941437,9.829578399658203,0.006615575628771298,-0.007405395867129095,0.011209452047306374,0.10997724533081055,2019-06-21 12:36:49:119,0.0,0.0,0.0
0.043644312769174576,-0.048912763595581055,9.839157104492188,0.0011547622531178697,-0.01006920714302134,0.00894521168257499,0.11500215530395508,2019-06-21 12:36:49:124,0.0,0.0,0.0
0.03167056292295456,-0.12315000593662262,9.84394645690918,0.006216004197461787,-0.009270064280402316,0.010010736192931888,0.11997413635253906,2019-06-21 12:36:49:129,0.0,0.0,0.0
0.05322331190109253,-0.07286025583744049,9.903815269470215,0.0018207150720909312,-0.0014118201062600529,0.011076260703288788,0.12407302856445312,2019-06-21 12:36:49:133,0.0,0.0,0.0
0.09872355312108994,-0.07046551257371902,9.79126262664795,0.003019430146242442,-0.007405395867129095,0.013207310764299884,0.12996816635131836,2019-06-21 12:36:49:139,0.0,0.0,0.0
0.05801280960440636,-0.14230799674987793,9.784077644348145,0.008080672090586358,-0.009669635191563178,0.008146068299807315,0.1340780258178711,2019-06-21 12:36:49:143,0.0,0.0,0.0
0.11309205740690231,-0.10159725695848465,9.721814155578613,0.004750907735646727,-0.009802826535580764,0.009344783634033153,0.13995838165283203,2019-06-21 12:36:49:149,0.0,0.0,0.0
0.13703955709934235,-0.08962351083755493,9.819998741149902,0.0019539056358855436,-0.013665352625550195,0.009078403026592578,0.14407587051391602,2019-06-21 12:36:49:153,0.0,0.0,0.0
0.22804003953933716,-0.12075525522232056,9.788866996765137,0.0031526207100370544,-0.012466637811473011,0.00947797393775344,0.1499767303466797,2019-06-21 12:36:49:159,0.0,0.0,0.0
0.24959278106689453,-0.09680775552988052,9.841551780700684,0.005949623069872562,-0.006206680532903257,0.006414591230551682,0.15407943725585938,2019-06-21 12:36:49:163,0.0,0.0,0.0
0.2783297896385193,-0.12793950736522675,9.858315467834473,0.006615575628771298,-0.010202397446741627,0.011609022958467236,0.1591043472290039,2019-06-21 12:36:49:168,0.0,0.0,0.0
0.32622477412223816,-0.14709749817848206,9.793657302856445,0.008080672090586358,-0.01446449652846652,0.01533835978501368,0.16498804092407227,2019-06-21 12:36:49:174,0.0,0.0,0.0
0.34059327840805054,-0.10399200767278671,9.764920234680176,0.006615575628771298,-0.012200256163735136,0.013873263323198621,0.16907787322998047,2019-06-21 12:36:49:178,0.0,0.0,0.0
0.3836987614631653,-0.08243925869464874,9.736183166503906,0.004484526608057502,-0.012200256163735136,0.017203027157989603,0.17496728897094727,2019-06-21 12:36:49:184,0.0,0.0,0.0
0.3765145242214203,-0.10638675838708878,9.829578399658203,0.0058164322460036244,-0.008470920377485992,0.014672406185817643,0.17908096313476562,2019-06-21 12:36:49:188,0.0,0.0,0.0
0.4028567671775818,-0.048912763595581055,9.800841331481934,0.0056832419422833385,-0.0056739182777248084,0.019067694530965525,0.18497419357299805,2019-06-21 12:36:49:194,0.0,0.0,0.0
0.4411727488040924,-0.09680775552988052,9.743367195129395,0.0054168602945454634,-0.0028769164380379507,0.02133193489569691,0.18907451629638672,2019-06-21 12:36:49:198,0.0,0.0,0.0
0.3956725299358368,-0.0656760111451149,9.618840217590332,-0.0005767152062492525,-0.0030101070018325625,0.01773578941316805,0.19496965408325195,2019-06-21 12:36:49:204,0.0,0.0,0.0
0.3238300383090973,-0.06807076185941696,9.65476131439209,0.0020870961996801557,-0.008337729553617055,0.020000029777899435,0.1990814208984375,2019-06-21 12:36:49:208,0.0,0.0,0.0
0.36454078555107117,-0.1111762523651123,9.736183166503906,8.92376858697129e-05,-0.010335588790759215,0.020266410385340012,0.20522212982177734,2019-06-21 12:36:49:214,0.0,0.0,0.0
0.34538277983665466,-0.14470274746418,9.752945899963379,0.00608281337359285,-0.010868351045937663,0.022397459406053807,0.20911121368408203,2019-06-21 12:36:49:218,0.0,0.0,0.0
0.37172502279281616,-0.08243925869464874,9.731393814086914,0.0004888094016355178,-0.0008790577860630224,0.02479488903420818,0.21497726440429688,2019-06-21 12:36:49:224,0.0,0.0,0.0
0.3094615340232849,-0.14949224889278412,9.657155990600586,0.0014211433807070943,0.002717087761484416,0.01986683843388185,0.21907424926757812,2019-06-21 12:36:49:228,0.0,0.0,0.0
0.30227726697921753,-0.14470274746418,9.609261512756348,0.0034190020977006037,-0.006073490229182971,0.02519446098566634,0.2249622344970703,2019-06-21 12:36:49:234,0.0,0.0,0.0
0.2591717839241028,-0.10638675838708878,9.678709030151367,-0.0020418114079899874,-0.005407537150135584,0.022397459406053807,0.2290792465209961,2019-06-21 12:36:49:238,0.0,0.0,0.0
0.3118562698364258,-0.13991324603557587,9.717024803161621,0.001687524508296319,-0.001944582361438502,0.020266410385340012,0.2349720001220703,2019-06-21 12:36:49:244,0.0,0.0,0.0
0.2831192910671234,-0.14230799674987793,9.740972518920898,-0.000843096333838477,0.002317516070100579,0.016137502647632706,0.2390737533569336,2019-06-21 12:36:49:248,0.0,0.0,0.0
0.2783297896385193,-0.1111762523651123,9.779288291931152,8.92376858697129e-05,0.005780470728760498,0.01733621850200719,0.24496984481811523,2019-06-21 12:36:49:254,0.0,0.0,0.0
0.28790879249572754,-0.16625550389289856,9.709840774536133,-0.004306051122535559,0.005514089601171274,0.016270692951352993,0.24919939041137695,2019-06-21 12:36:49:258,0.0,0.0,0.0
0.26156654953956604,-0.18541349470615387,9.776893615722656,-0.0032405266121786607,0.001251991429706518,0.019600457826441275,0.25411415100097656,2019-06-21 12:36:49:263,0.0,0.0,0.0
0.26875078678131104,-0.07286025583744049,9.709840774536133,-0.0007099057700438648,-0.000213104918326025,0.01640388429537058,0.25996875762939453,2019-06-21 12:36:49:269,0.0,0.0,0.0
0.25438228249549866,-0.0848340094089508,9.69547176361084,-0.006170719015660131,0.00298346888907364,0.015737930696174542,0.26407480239868164,2019-06-21 12:36:49:273,0.0,0.0,0.0
0.24959278106689453,-0.12793950736522675,9.769709587097168,-0.003906479431151722,0.0072455671905755584,0.013207310764299884,0.2690849304199219,2019-06-21 12:36:49:278,0.0,0.0,0.0
0.21127678453922272,-0.07764975726604462,9.812814712524414,0.001287952816912482,0.008311091700932456,0.01134264235102666,0.27408313751220703,2019-06-21 12:36:49:283,0.0,0.0,0.0
0.14182904362678528,-0.10878150165081024,9.798446655273438,0.000755190561734033,0.014304667331764335,0.012541357165103849,0.2799644470214844,2019-06-21 12:36:49:289,0.0,0.0,0.0
0.09153930842876434,-0.08962351083755493,9.743367195129395,-0.001775430280400763,0.004848137042272538,0.005881828975373233,0.2840766906738281,2019-06-21 12:36:49:293,0.0,0.0,0.0
0.09632880985736847,-0.034544263035058975,9.714630126953125,-0.007635815477475192,0.008177900877063521,0.007879687172218092,0.28996992111206055,2019-06-21 12:36:49:299,0.0,0.0,0.0
0.11788155138492584,-0.07046551257371902,9.757735252380371,-0.001775430280400763,0.00671280493539711,0.005881828975373233,0.2940797805786133,2019-06-21 12:36:49:303,0.0,0.0,0.0
0.022091565653681755,-0.0656760111451149,9.829578399658203,-0.0048388133777140085,0.0076451386218850705,0.004816304465016335,0.29999732971191406,2019-06-21 12:36:49:309,0.0,0.0,0.0
0.06998655945062637,-0.08962351083755493,9.822394371032715,-0.004172860558740947,0.010308949897777316,0.00308482687561205,0.3040804862976074,2019-06-21 12:36:49:313,0.0,0.0,0.0
-0.047356173396110535,-0.1111762523651123,9.73378849029541,-0.0021750019717846,0.0041821839632251515,-0.003041939579088766,0.3099641799926758,2019-06-21 12:36:49:319,0.0,0.0,0.0
-0.01622442901134491,-0.11596575379371643,9.796051979064941,-0.001242668025222314,-0.0018113917976438896,0.001619730543834152,0.3140983581542969,2019-06-21 12:36:49:323,0.0,0.0,0.0
-0.08567216992378235,-0.12315000593662262,9.796051979064941,-0.001775430280400763,0.0007192291095094877,-0.0014436525534790934,0.3190879821777344,2019-06-21 12:36:49:328,0.0,0.0,0.0
0.026881065219640732,-0.12793950736522675,9.784077644348145,-0.00523838532917217,-0.0011454389786708283,-0.006105322806439174,0.32497215270996094,2019-06-21 12:36:49:334,0.0,0.0,0.0
-0.032987676560878754,-0.1303342580795288,9.848735809326172,0.001287952816912482,0.0060468518563497236,-0.005705750854981011,0.32907772064208984,2019-06-21 12:36:49:338,0.0,0.0,0.0
0.026881065219640732,-0.06807076185941696,9.899025917053223,-0.0015090491528115383,0.0041821839632251515,-0.008635943258462482,0.33497142791748047,2019-06-21 12:36:49:344,0.0,0.0,0.0
0.0077230678871273994,-0.15428175032138824,9.805630683898926,-0.002974145484589436,0.0004528479494109724,-0.004906607472213338,0.3391275405883789,2019-06-21 12:36:49:348,0.0,0.0,0.0
-0.0497509241104126,-0.09680775552988052,9.779288291931152,-0.0009762868976330894,-0.0028769164380379507,-0.0038410829618564396,0.34499359130859375,2019-06-21 12:36:49:354,0.0,0.0,0.0
-0.0066454303450882435,-0.02496526576578617,9.855920791625977,-0.0013758585890169264,-0.008604110681206279,-0.008635943258462482,0.3490772247314453,2019-06-21 12:36:49:358,0.0,0.0,0.0
0.01730206608772278,-0.09680775552988052,9.901420593261719,0.0008883811255286454,-0.004208822075984073,-0.007969990699563747,0.3540787696838379,2019-06-21 12:36:49:363,0.0,0.0,0.0
0.026881065219640732,-0.08243925869464874,9.879867553710938,0.001687524508296319,0.001251991429706518,-0.007836799875694809,0.3599700927734375,2019-06-21 12:36:49:369,0.0,0.0,0.0
0.029275815933942795,-0.03693901374936104,9.875078201293945,-0.000843096333838477,-0.0018113917976438896,-0.011566135661943953,0.3640785217285156,2019-06-21 12:36:49:373,0.0,0.0,0.0
-0.004250680562108755,-0.08243925869464874,9.846341133117676,0.0015543339445017069,-0.002210963619064889,-0.012098897917122403,0.369964599609375,2019-06-21 12:36:49:379,0.0,0.0,0.0
0.03406531363725662,-0.07764975726604462,9.760130882263184,0.0024866678910639927,-0.007804967298438606,-0.006504894237748685,0.3740720748901367,2019-06-21 12:36:49:383,0.0,0.0,0.0
0.05801280960440636,-0.0848340094089508,9.867894172668457,-0.0019086208441953755,-0.01193387555629456,-0.010367420847866767,0.3799715042114258,2019-06-21 12:36:49:389,0.0,0.0,0.0
0.07238131016492844,-0.09680775552988052,9.846341133117676,0.0042181454804682775,-0.014997258783644971,-0.007836799875694809,0.3843374252319336,2019-06-21 12:36:49:394,0.0,0.0,0.0
0.08674980700016022,-0.09441300481557846,9.896631240844727,0.006216004197461787,-0.00913687293638473,-0.010367420847866767,0.3905220031738281,2019-06-21 12:36:49:400,0.0,0.0,0.0
0.09153930842876434,-0.07764975726604462,9.836762428283691,0.0038185737890844406,-0.007405395867129095,-0.011299755054503377,0.39545536041259766,2019-06-21 12:36:49:405,0.0,0.0,0.0
0.10590780526399612,-0.09680775552988052,9.798446655273438,0.0019539056358855436,-0.006872633611950644,-0.010367420847866767,0.3990907669067383,2019-06-21 12:36:49:408,0.0,0.0,0.0
0.13225005567073822,-0.09680775552988052,9.764920234680176,0.0010215716893232575,-0.013265780674092034,-0.00677127536533791,0.4040870666503906,2019-06-21 12:36:49:413,0.0,0.0,0.0
0.12506580352783203,-0.041728515177965164,9.74576187133789,0.0035521926614952163,-0.009802826535580764,-0.009435086641230155,0.40908050537109375,2019-06-21 12:36:49:418,0.0,0.0,0.0
0.1921187937259674,-0.09920250624418259,9.824789047241211,0.0034190020977006037,-0.01006920714302134,-0.0025091770638359916,0.41410064697265625,2019-06-21 12:36:49:423,0.0,0.0,0.0
0.19451354444026947,-0.09441300481557846,9.841551780700684,0.005283669990825176,-0.0056739182777248084,-0.00677127536533791,0.4190864562988281,2019-06-21 12:36:49:428,0.0,0.0,0.0
0.2567770481109619,-0.07764975726604462,9.824789047241211,0.0019539056358855436,-0.008204539249896767,-0.006904466189206847,0.4240865707397461,2019-06-21 12:36:49:433,0.0,0.0,0.0
0.2376190423965454,-0.06807076185941696,9.743367195129395,-0.0011094774614277016,-0.013532162321829909,-0.004107464089445664,0.4300804138183594,2019-06-21 12:36:49:439,0.0,0.0,0.0
0.22325053811073303,-0.11596575379371643,9.685893058776855,0.005949623069872562,-0.013665352625550195,-0.003574701834267215,0.43408870697021484,2019-06-21 12:36:49:443,0.0,0.0,0.0
0.22804003953933716,-0.07286025583744049,9.738577842712402,0.006349194501182075,-0.014997258783644971,-0.0053061794236715,0.43996524810791016,2019-06-21 12:36:49:449,0.0,0.0,0.0
0.24719803035259247,-0.11596575379371643,9.736183166503906,0.005550051118414401,-0.011534303604836399,-0.0005113186069168071,0.4440789222717285,2019-06-21 12:36:49:453,0.0,0.0,0.0
0.28072452545166016,-0.08962351083755493,9.784077644348145,0.0038185737890844406,-0.005940299405314034,0.0005542059684586724,0.44908905029296875,2019-06-21 12:36:49:458,0.0,0.0,0.0
0.2639612853527069,-0.09680775552988052,9.78647232055664,0.005150479166956239,-0.010601969398199788,0.004017160822174336,0.4540853500366211,2019-06-21 12:36:49:463,0.0,0.0,0.0
0.21606628596782684,-0.10159725695848465,9.726603507995605,0.0028862395824478296,-0.011534303604836399,0.005215875896325846,0.459958553314209,2019-06-21 12:36:49:469,0.0,0.0,0.0
0.24719803035259247,-0.0920182541012764,9.678709030151367,0.0023534773272693805,-0.011267921957098524,0.0028184457480228253,0.4640779495239258,2019-06-21 12:36:49:473,0.0,0.0,0.0
0.2567770481109619,-0.13512374460697174,9.633208274841309,-0.00017714346610147965,-0.013798542929270484,0.007080543789450418,0.469970703125,2019-06-21 12:36:49:479,0.0,0.0,0.0
0.2639612853527069,-0.10878150165081024,9.70505142211914,0.005017288863235951,-0.009403254584122604,0.0009537776598425092,0.47408294677734375,2019-06-21 12:36:49:483,0.0,0.0,0.0
0.30706676840782166,-0.12075525522232056,9.750551223754883,-0.0009762868976330894,-0.005407537150135584,0.006015019279093521,0.48001861572265625,2019-06-21 12:36:49:489,0.0,0.0,0.0
0.29269829392433167,-0.15188699960708618,9.726603507995605,0.0023534773272693805,-0.003542869257011012,0.0029516363118174374,0.48409557342529297,2019-06-21 12:36:49:493,0.0,0.0,0.0
0.27354028820991516,-0.12793950736522675,9.666735649108887,0.001287952816912482,-0.005940299405314034,0.0069473534857301305,0.4899625778198242,2019-06-21 12:36:49:499,0.0,0.0,0.0
0.2663560211658478,-0.1183605045080185,9.652366638183594,0.0020870961996801557,-0.007405395867129095,0.00428354194976356,0.4940776824951172,2019-06-21 12:36:49:503,0.0,0.0,0.0
0.26875078678131104,-0.10399200767278671,9.728999137878418,8.92376858697129e-05,-0.004874774894957135,0.007346924917039643,0.4999685287475586,2019-06-21 12:36:49:509,0.0,0.0,0.0
0.24240854382514954,-0.12315000593662262,9.731393814086914,0.00022242825779164786,-0.0028769164380379507,0.006680972358140907,0.5040826797485352,2019-06-21 12:36:49:513,0.0,0.0,0.0
0.27354028820991516,-0.10878150165081024,9.77449893951416,0.001687524508296319,-0.0027437258742433386,0.009611165281771028,0.5099611282348633,2019-06-21 12:36:49:519,0.0,0.0,0.0
0.22085578739643097,-0.08722876012325287,9.752945899963379,-0.0035069077397678855,-0.0016782012338492774,0.009611165281771028,0.5140976905822754,2019-06-21 12:36:49:523,0.0,0.0,0.0
0.18493454158306122,-0.11596575379371643,9.728999137878418,-0.004572432250124783,-0.0012786295424654405,0.0069473534857301305,0.5199723243713379,2019-06-21 12:36:49:529,0.0,0.0,0.0
0.17056605219841003,-0.12075525522232056,9.740972518920898,-0.000843096333838477,0.002317516070100579,0.00454992333742711,0.5240955352783203,2019-06-21 12:36:49:533,0.0,0.0,0.0
0.1466185450553894,-0.10878150165081024,9.736183166503906,-0.00523838532917217,-0.0040756315121894615,0.009744355585491315,0.5290918350219727,2019-06-21 12:36:49:538,0.0,0.0,0.0
0.1801450401544571,-0.14230799674987793,9.784077644348145,-0.001242668025222314,-0.002477344746654114,0.008545640251265479,0.534090518951416,2019-06-21 12:36:49:543,0.0,0.0,0.0
0.1274605542421341,-0.15907125174999237,9.836762428283691,-0.003906479431151722,0.0001864668055671025,0.006414591230551682,0.5390796661376953,2019-06-21 12:36:49:548,0.0,0.0,0.0
0.10830255597829819,-0.15907125174999237,9.793657302856445,-0.0048388133777140085,0.003649421708046702,0.008545640251265479,0.5440793037414551,2019-06-21 12:36:49:553,0.0,0.0,0.0
0.03885481506586075,-0.12075525522232056,9.798446655273438,-0.004972004201582946,0.001651563121090355,0.009344783634033153,0.5499701499938965,2019-06-21 12:36:49:559,0.0,0.0,0.0
0.024486316367983818,-0.14470274746418,9.731393814086914,-0.00577114758435062,-0.00514115602254636,0.0017529211076287644,0.5540838241577148,2019-06-21 12:36:49:563,0.0,0.0,0.0
0.043644312769174576,-0.15188699960708618,9.740972518920898,-0.004572432250124783,-0.006073490229182971,0.007480115740908581,0.55908203125,2019-06-21 12:36:49:568,0.0,0.0,0.0
0.0484338141977787,-0.17583449184894562,9.824789047241211,-0.002308192665616375,0.0007192291095094877,0.0001546342608201902,0.5640792846679688,2019-06-21 12:36:49:573,0.0,0.0,0.0
0.012512567453086376,-0.14709749817848206,9.834367752075195,-0.006437100143249356,-0.0034096786932164,0.0033512080032012744,0.5699701309204102,2019-06-21 12:36:49:579,0.0,0.0,0.0
0.024486316367983818,-0.1638607531785965,9.767314910888672,-0.0027077643570002116,-0.0010122483498576347,-0.00024493746307293734,0.5741066932678223,2019-06-21 12:36:49:583,0.0,0.0,0.0
0.029275815933942795,-0.15907125174999237,9.805630683898926,-0.005371575632892458,-0.0040756315121894615,-0.0006445091707114195,0.579106330871582,2019-06-21 12:36:49:588,0.0,0.0,0.0
-0.013829679228365421,-0.15428175032138824,9.805630683898926,-0.0037732888673571103,-0.0040756315121894615,-0.0017100338111054802,0.5840873718261719,2019-06-21 12:36:49:593,0.0,0.0,0.0
-0.040171924978494644,-0.11596575379371643,9.78647232055664,-0.0024413832294109873,-0.009936016839301053,-0.0027755584514995413,0.5890865325927734,2019-06-21 12:36:49:598,0.0,0.0,0.0
0.014907317236065865,-0.12793950736522675,9.80323600769043,-0.004705623073993721,-0.004475203463647623,-0.004640226344624114,0.5949678421020508,2019-06-21 12:36:49:604,0.0,0.0,0.0
0.01969681680202484,-0.10878150165081024,9.84394645690918,-4.395289011588339e-05,-0.002210963619064889,-0.004507035520755176,0.5990839004516602,2019-06-21 12:36:49:608,0.0,0.0,0.0
0.0077230678871273994,-0.06328126043081284,9.87268352508545,-0.0044392419464044965,-0.00074586722226841,-0.010101040240426193,0.6040854454040527,2019-06-21 12:36:49:613,0.0,0.0,0.0
-0.0018559310119599104,-0.10399200767278671,9.819998741149902,-0.0031073360483840485,-0.002477344746654114,-0.013031232123759012,0.6099624633789062,2019-06-21 12:36:49:619,0.0,0.0,0.0
-0.054540425539016724,-0.09920250624418259,9.80323600769043,-0.0015090491528115383,-0.011267921957098524,-0.013563994378937462,0.6140975952148438,2019-06-21 12:36:49:623,0.0,0.0,0.0
-0.021013928577303886,-0.1111762523651123,9.808025360107422,-0.002840954920794824,-0.008737302025223867,-0.012098897917122403,0.6200237274169922,2019-06-21 12:36:49:629,0.0,0.0,0.0
-0.0066454303450882435,-0.06328126043081284,9.85352611541748,-0.002974145484589436,-0.007272205043260157,-0.014363138281853788,0.6241006851196289,2019-06-21 12:36:49:633,0.0,0.0,0.0
-0.0234086774289608,-0.0848340094089508,9.925368309020996,-0.0015090491528115383,-0.005940299405314034,-0.01716013986146632,0.6299624443054199,2019-06-21 12:36:49:639,0.0,0.0,0.0
-0.03777717798948288,-0.0920182541012764,9.954105377197266,0.003285811533905992,-0.0038092503846002368,-0.015029090840752522,0.6340742111206055,2019-06-21 12:36:49:643,0.0,0.0,0.0
-0.07848791778087616,-0.08004450798034668,9.87268352508545,-0.001242668025222314,-0.00460839376736791,-0.01662737760628787,0.6399698257446289,2019-06-21 12:36:49:649,0.0,0.0,0.0
-0.054540425539016724,-0.05370226129889488,9.836762428283691,-0.0007099057700438648,-0.010735159701920075,-0.015428662792210685,0.6440825462341309,2019-06-21 12:36:49:653,0.0,0.0,0.0
-0.018619179725646973,-0.10399200767278671,9.796051979064941,0.0015543339445017069,-0.012466637811473011,-0.015029090840752522,0.6490802764892578,2019-06-21 12:36:49:658,0.0,0.0,0.0
0.0077230678871273994,-0.0848340094089508,9.788866996765137,-0.000843096333838477,-0.015130449087365256,-0.018492046019561094,0.6540842056274414,2019-06-21 12:36:49:663,0.0,0.0,0.0
0.06040756031870842,-0.09441300481557846,9.87268352508545,0.0006219999979394207,-0.014730877135907096,-0.01716013986146632,0.6599907875061035,2019-06-21 12:36:49:669,0.0,0.0,0.0
0.06040756031870842,-0.1111762523651123,9.851130485534668,0.0022202867634747683,-0.010601969398199788,-0.012898041820038725,0.6641044616699219,2019-06-21 12:36:49:673,0.0,0.0,0.0
0.09632880985736847,-0.08722876012325287,9.839157104492188,0.005017288863235951,-0.00953644488784289,-0.013031232123759012,0.6690874099731445,2019-06-21 12:36:49:678,0.0,0.0,0.0
0.11069730669260025,-0.11596575379371643,9.784077644348145,0.0028862395824478296,-0.014997258783644971,-0.017293330165186607,0.6740798950195312,2019-06-21 12:36:49:683,0.0,0.0,0.0
0.1466185450553894,-0.11596575379371643,9.776893615722656,0.0019539056358855436,-0.01592959194998428,-0.016360996998847296,0.6799707412719727,2019-06-21 12:36:49:689,0.0,0.0,0.0
0.16817130148410797,-0.11357100307941437,9.779288291931152,0.003285811533905992,-0.015796401646263995,-0.0194243791859004,0.6840829849243164,2019-06-21 12:36:49:693,0.0,0.0,0.0
0.23282954096794128,-0.11357100307941437,9.764920234680176,0.0011547622531178697,-0.015796401646263995,-0.011299755054503377,0.6890802383422852,2019-06-21 12:36:49:698,0.0,0.0,0.0
0.28072452545166016,-0.0848340094089508,9.743367195129395,0.006349194501182075,-0.015530021038823418,-0.020889475647715462,0.6940808296203613,2019-06-21 12:36:49:703,0.0,0.0,0.0
0.2256452888250351,-0.03214951604604721,9.736183166503906,0.0024866678910639927,-0.010735159701920075,-0.018492046019561094,0.6999726295471191,2019-06-21 12:36:49:709,0.0,0.0,0.0
0.28790879249572754,-0.03693901374936104,9.728999137878418,0.0003556188378409054,-0.014064924577008359,-0.015295472488490397,0.704106330871582,2019-06-21 12:36:49:713,0.0,0.0,0.0
0.2711455225944519,-0.027360014617443085,9.752945899963379,0.0015543339445017069,-0.017794260363257503,-0.007703609571974521,0.7090940475463867,2019-06-21 12:36:49:718,0.0,0.0,0.0
0.28072452545166016,-0.027360014617443085,9.709840774536133,0.001287952816912482,-0.012733018418913587,-0.013031232123759012,0.7149996757507324,2019-06-21 12:36:49:724,0.0,0.0,0.0
0.29509302973747253,-0.034544263035058975,9.76252555847168,-0.0037732888673571103,-0.01393173427328807,-0.01116656475078309,0.7190761566162109,2019-06-21 12:36:49:728,0.0,0.0,0.0
0.3166457712650299,-0.07764975726604462,9.726603507995605,0.0022202867634747683,-0.007938158122307543,-0.009435086641230155,0.7240772247314453,2019-06-21 12:36:49:733,0.0,0.0,0.0
0.2639612853527069,-0.08962351083755493,9.659550666809082,-0.0007099057700438648,-0.005807109101593746,-0.007836799875694809,0.7290878295898438,2019-06-21 12:36:49:738,0.0,0.0,0.0
0.20409254729747772,-0.07286025583744049,9.693077087402344,0.0008883811255286454,-0.009403254584122604,-0.010367420847866767,0.7349710464477539,2019-06-21 12:36:49:744,0.0,0.0,0.0
0.2567770481109619,-0.11596575379371643,9.707446098327637,0.0046177169117777896,-0.007139014739539869,-0.0034415112704726026,0.7390766143798828,2019-06-21 12:36:49:748,0.0,0.0,0.0
0.2831192910671234,-0.015386266633868217,9.707446098327637,-0.0024413832294109873,-0.010735159701920075,-0.004906607472213338,0.74407958984375,2019-06-21 12:36:49:753,0.0,0.0,0.0
0.2855140268802643,-0.0848340094089508,9.671525001525879,0.004750907735646727,-0.0075385861708493805,-0.004640226344624114,0.7490901947021484,2019-06-21 12:36:49:758,0.0,0.0,0.0
0.31904053688049316,-0.07046551257371902,9.77449893951416,0.000755190561734033,-0.004208822075984073,-0.004240654653240277,0.7541031837463379,2019-06-21 12:36:49:763,0.0,0.0,0.0
0.3429880142211914,-0.02496526576578617,9.68349838256836,-0.002308192665616375,-7.991434640409003e-05,0.0024188740566389883,0.7599644660949707,2019-06-21 12:36:49:769,0.0,0.0,0.0
0.3693302571773529,-0.048912763595581055,9.73378849029541,0.0015543339445017069,-0.002610535310448726,0.004949494768736622,0.7640752792358398,2019-06-21 12:36:49:773,0.0,0.0,0.0
0.35256701707839966,-0.08243925869464874,9.702656745910645,0.000755190561734033,-0.0028769164380379507,0.002685255184228213,0.7699704170227051,2019-06-21 12:36:49:779,0.0,0.0,0.0
0.3429880142211914,-0.0920182541012764,9.73378849029541,0.0003556188378409054,0.0003196573856163601,0.0037507796945851113,0.774085521697998,2019-06-21 12:36:49:783,0.0,0.0,0.0
0.31904053688049316,-0.12075525522232056,9.788866996765137,-0.0027077643570002116,0.0003196573856163601,0.0028184457480228253,0.779085636138916,2019-06-21 12:36:49:788,0.0,0.0,0.0
0.3381985127925873,-0.10638675838708878,9.77449893951416,-0.0032405266121786607,0.002317516070100579,0.007480115740908581,0.7849702835083008,2019-06-21 12:36:49:794,0.0,0.0,0.0
0.32622477412223816,-0.10878150165081024,9.743367195129395,-0.0044392419464044965,0.00671280493539711,0.007613306044628867,0.7890863418579102,2019-06-21 12:36:49:798,0.0,0.0,0.0
0.26156654953956604,-0.14709749817848206,9.685893058776855,-0.0021750019717846,0.0004528479494109724,0.008812021378854704,0.7950229644775391,2019-06-21 12:36:49:804,0.0,0.0,0.0
0.25438228249549866,-0.13272900879383087,9.693077087402344,-0.000843096333838477,0.005913661552629436,0.0033512080032012744,0.7990994453430176,2019-06-21 12:36:49:808,0.0,0.0,0.0
0.24001379311084747,-0.11596575379371643,9.681103706359863,-0.0020418114079899874,0.0008524196733041,0.006680972358140907,0.8049716949462891,2019-06-21 12:36:49:814,0.0,0.0,0.0
0.18972404301166534,-0.15428175032138824,9.79126262664795,-0.0013758585890169264,-0.001944582361438502,0.004683113641147397,0.8090767860412598,2019-06-21 12:36:49:818,0.0,0.0,0.0
0.17775028944015503,-0.10878150165081024,9.781682968139648,-0.002308192665616375,0.008577472828521681,0.004150351385968948,0.8149924278259277,2019-06-21 12:36:49:824,0.0,0.0,0.0
0.17056605219841003,-0.07525500655174255,9.764920234680176,-0.0033737171759732733,0.0003196573856163601,0.006015019279093521,0.8190855979919434,2019-06-21 12:36:49:828,0.0,0.0,0.0
0.101118303835392,-0.13272900879383087,9.824789047241211,-0.0031073360483840485,-0.0011454389786708283,0.0036175891307904987,0.8249692916870117,2019-06-21 12:36:49:834,0.0,0.0,0.0
0.05801280960440636,-0.13272900879383087,9.731393814086914,-0.0007099057700438648,-0.0004794860621698949,0.008146068299807315,0.8290762901306152,2019-06-21 12:36:49:838,0.0,0.0,0.0
0.05322331190109253,-0.1183605045080185,9.79126262664795,-0.004306051122535559,5.327622958150625e-05,0.0009537776598425092,0.8340778350830078,2019-06-21 12:36:49:843,0.0,0.0,0.0
0.05322331190109253,-0.16865025460720062,9.822394371032715,-0.00017714346610147965,0.0047149462184036,0.0037507796945851113,0.8391695022583008,2019-06-21 12:36:49:848,0.0,0.0,0.0
0.07956556230783463,-0.1638607531785965,9.865499496459961,-0.0032405266121786607,0.005380899297450987,-0.0007776997345060318,0.8441019058227539,2019-06-21 12:36:49:853,0.0,0.0,0.0
0.06280230730772018,-0.13512374460697174,9.784077644348145,-0.004705623073993721,0.0011188008659119059,0.0024188740566389883,0.8499622344970703,2019-06-21 12:36:49:859,0.0,0.0,0.0
0.06040756031870842,-0.13991324603557587,9.8319730758667,0.0034190020977006037,0.0008524196733041,-0.003974273525651052,0.8540782928466797,2019-06-21 12:36:49:863,0.0,0.0,0.0
0.06040756031870842,-0.1566765010356903,9.827183723449707,-0.002840954920794824,-0.0011454389786708283,-0.0023759865000413795,0.8599720001220703,2019-06-21 12:36:49:869,0.0,0.0,0.0
0.07956556230783463,-0.1183605045080185,9.827183723449707,-0.00044352460994534954,-0.0023441541828595016,-0.001976414938694705,0.8640851974487305,2019-06-21 12:36:49:873,0.0,0.0,0.0
0.08196030557155609,-0.09441300481557846,9.851130485534668,-0.0011094774614277016,0.0015183725572957428,-0.007037656492927135,0.8699636459350586,2019-06-21 12:36:49:879,0.0,0.0,0.0
0.12506580352783203,-0.1183605045080185,9.855920791625977,-0.0044392419464044965,0.005780470728760498,-0.0029087490152941535,0.8740768432617188,2019-06-21 12:36:49:883,0.0,0.0,0.0
0.09872355312108994,-0.12075525522232056,9.858315467834473,-0.0021750019717846,-0.00074586722226841,-0.006105322806439174,0.8799757957458496,2019-06-21 12:36:49:889,0.0,0.0,0.0
0.06998655945062637,-0.1183605045080185,9.819998741149902,0.0006219999979394207,-0.005407537150135584,-0.004240654653240277,0.8841023445129395,2019-06-21 12:36:49:893,0.0,0.0,0.0
0.04603906348347664,-0.0920182541012764,9.84394645690918,0.000755190561734033,-0.001944582361438502,-0.007437228444385297,0.8890886306762695,2019-06-21 12:36:49:898,0.0,0.0,0.0
0.08196030557155609,-0.1303342580795288,9.839157104492188,-0.0011094774614277016,-0.008204539249896767,-0.009168706033789581,0.8949661254882812,2019-06-21 12:36:49:904,0.0,0.0,0.0
0.06280230730772018,-0.14230799674987793,9.851130485534668,0.0018207150720909312,-0.00660625248436142,-0.008635943258462482,0.8990859985351562,2019-06-21 12:36:49:908,0.0,0.0,0.0
0.06040756031870842,-0.15188699960708618,9.851130485534668,0.003285811533905992,-0.004741584591236848,-0.010101040240426193,0.9049725532531738,2019-06-21 12:36:49:914,0.0,0.0,0.0
0.0747760608792305,-0.12075525522232056,9.79126262664795,0.0003556188378409054,-0.002610535310448726,-0.012498469868580563,0.9090757369995117,2019-06-21 12:36:49:918,0.0,0.0,0.0
0.0939340591430664,-0.13512374460697174,9.810420036315918,-0.001775430280400763,-0.007272205043260157,-0.011965707613402115,0.9141020774841309,2019-06-21 12:36:49:923,0.0,0.0,0.0
0.10590780526399612,-0.1303342580795288,9.784077644348145,0.002619858454858605,-0.00807134842602783,-0.008369562130873257,0.9199790954589844,2019-06-21 12:36:49:929,0.0,0.0,0.0
0.13464480638504028,-0.08962351083755493,9.79126262664795,-0.002840954920794824,-0.009669635191563178,-0.010633802495604642,0.9240851402282715,2019-06-21 12:36:49:933,0.0,0.0,0.0
0.16817130148410797,-0.08722876012325287,9.796051979064941,0.0010215716893232575,-0.007804967298438606,-0.016094615351109422,0.9299697875976562,2019-06-21 12:36:49:939,0.0,0.0,0.0
0.14901329576969147,-0.07046551257371902,9.824789047241211,-0.0019086208441953755,-0.0056739182777248084,-0.011033373406765504,0.9341106414794922,2019-06-21 12:36:49:943,0.0,0.0,0.0
0.1729608029127121,-0.04651801288127899,9.841551780700684,0.00022242825779164786,-0.007272205043260157,-0.011432945358223666,0.9399657249450684,2019-06-21 12:36:49:949,0.0,0.0,0.0
0.13464480638504028,-0.07046551257371902,9.81520938873291,0.0011547622531178697,-0.009403254584122604,-0.006904466189206847,0.9440770149230957,2019-06-21 12:36:49:953,0.0,0.0,0.0
0.1538027971982956,-0.13272900879383087,9.788866996765137,0.001287952816912482,-0.0063398713567721955,-0.010900183103045216,0.9499707221984863,2019-06-21 12:36:49:959,0.0,0.0,0.0
0.15619754791259766,-0.06088650971651077,9.728999137878418,-0.0025745737932055994,-0.008204539249896767,-0.006371703934028398,0.9540839195251465,2019-06-21 12:36:49:963,0.0,0.0,0.0
0.18493454158306122,-0.08004450798034668,9.750551223754883,0.0038185737890844406,-0.009936016839301053,-0.015428662792210685,0.9599618911743164,2019-06-21 12:36:49:969,0.0,0.0,0.0
0.18493454158306122,-0.08004450798034668,9.728999137878418,0.00022242825779164786,-0.009403254584122604,-0.00823637182715297,0.9640769958496094,2019-06-21 12:36:49:973,0.0,0.0,0.0
0.1993030458688736,-0.08722876012325287,9.73378849029541,0.0004888094016355178,-0.004874774894957135,-0.011033373406765504,0.9699716567993164,2019-06-21 12:36:49:979,0.0,0.0,0.0
0.22085578739643097,-0.08243925869464874,9.731393814086914,-0.002974145484589436,-0.007671776994718318,-0.01116656475078309,0.9740810394287109,2019-06-21 12:36:49:983,0.0,0.0,0.0
0.2783297896385193,-0.08722876012325287,9.690682411193848,-0.0005767152062492525,-0.013798542929270484,-0.015295472488490397,0.9799890518188477,2019-06-21 12:36:49:989,0.0,0.0,0.0
0.2855140268802643,-0.07046551257371902,9.755340576171875,0.0020870961996801557,-0.004475203463647623,-0.009168706033789581,0.9840865135192871,2019-06-21 12:36:49:993,0.0,0.0,0.0
0.3046720325946808,-0.07286025583744049,9.721814155578613,-0.00031033404615073726,-0.005407537150135584,-0.010101040240426193,0.9899625778198242,2019-06-21 12:36:49:999,0.0,0.0,0.0
0.2855140268802643,-0.03214951604604721,9.74576187133789,-0.0009762868976330894,-0.007005823915670932,-0.003175130142883378,0.9940762519836426,2019-06-21 12:36:50:003,0.0,0.0,0.0
0.2783297896385193,-0.01778101734817028,9.767314910888672,0.0034190020977006037,-0.0027437258742433386,-0.0034415112704726026,0.9999699592590332,2019-06-21 12:36:50:009,0.0,0.0,0.0
0.24240854382514954,-0.07286025583744049,9.748156547546387,0.0034190020977006037,-0.007139014739539869,-0.009701468288968031,1.0040855407714844,2019-06-21 12:36:50:013,0.0,0.0,0.0
0.30706676840782166,-0.07286025583744049,9.712235450744629,-0.0037732888673571103,-0.003143297565627175,-0.005705750854981011,1.0090827941894531,2019-06-21 12:36:50:018,0.0,0.0,0.0
0.2783297896385193,-0.08722876012325287,9.666735649108887,-0.0031073360483840485,-0.0030101070018325625,-0.007570418748105583,1.0140800476074219,2019-06-21 12:36:50:023,0.0,0.0,0.0
0.22085578739643097,-0.06088650971651077,9.690682411193848,-0.0032405266121786607,-0.003942440948394849,-0.007437228444385297,1.019991397857666,2019-06-21 12:36:50:029,0.0,0.0,0.0
0.22085578739643097,-0.09441300481557846,9.736183166503906,-0.0036400983035624977,-0.00514115602254636,-0.00677127536533791,1.024094581604004,2019-06-21 12:36:50:033,0.0,0.0,0.0
0.21367153525352478,-0.14470274746418,9.73378849029541,-0.001242668025222314,-0.00913687293638473,-0.007969990699563747,1.029083251953125,2019-06-21 12:36:50:038,0.0,0.0,0.0
0.26156654953956604,-0.12075525522232056,9.74576187133789,-0.00577114758435062,0.0004528479494109724,-0.004906607472213338,1.0349702835083008,2019-06-21 12:36:50:044,0.0,0.0,0.0
0.20409254729747772,-0.08004450798034668,9.755340576171875,-0.00031033404615073726,-0.0015450106700546653,-0.003175130142883378,1.0390863418579102,2019-06-21 12:36:50:048,0.0,0.0,0.0
0.2567770481109619,-0.12554475665092468,9.728999137878418,-0.0044392419464044965,-0.0004794860621698949,-0.004773416648344401,1.0440845489501953,2019-06-21 12:36:50:053,0.0,0.0,0.0
0.2591717839241028,-0.08004450798034668,9.796051979064941,-0.002974145484589436,-0.0023441541828595016,-0.00876913408233142,1.0499653816223145,2019-06-21 12:36:50:059,0.0,0.0,0.0
0.29269829392433167,-0.12315000593662262,9.776893615722656,-0.0024413832294109873,-0.006473061660492482,-0.004240654653240277,1.0540776252746582,2019-06-21 12:36:50:063,0.0,0.0,0.0
0.23043479025363922,-0.08962351083755493,9.800841331481934,-0.001642239716606151,-0.004475203463647623,-0.0010440808620952565,1.0599727630615234,2019-06-21 12:36:50:069,0.0,0.0,0.0
0.26156654953956604,-0.08962351083755493,9.764920234680176,-0.002840954920794824,-0.00074586722226841,-0.004906607472213338,1.0640926361083984,2019-06-21 12:36:50:073,0.0,0.0,0.0
0.23522429168224335,-0.09441300481557846,9.752945899963379,-0.001775430280400763,-0.0012786295424654405,-0.0029087490152941535,1.0691065788269043,2019-06-21 12:36:50:078,0.0,0.0,0.0
0.22804003953933716,-0.0920182541012764,9.750551223754883,-0.005105194505303233,-0.0038092503846002368,-0.00730403762051636,1.0740900039672852,2019-06-21 12:36:50:083,0.0,0.0,0.0
0.20169779658317566,-0.08962351083755493,9.767314910888672,-0.0055047664567613955,-0.002210963619064889,-0.004373845217034889,1.079960823059082,2019-06-21 12:36:50:089,0.0,0.0,0.0
0.23522429168224335,-0.08243925869464874,9.796051979064941,-0.0031073360483840485,-0.0014118201062600529,-0.004906607472213338,1.0840768814086914,2019-06-21 12:36:50:093,0.0,0.0,0.0
0.18253979086875916,-0.08962351083755493,9.819998741149902,-0.0027077643570002116,-7.991434640409003e-05,-0.004640226344624114,1.089970588684082,2019-06-21 12:36:50:099,0.0,0.0,0.0
0.1538027971982956,-0.08243925869464874,9.767314910888672,-0.002308192665616375,-0.0027437258742433386,-0.008902324386051706,1.0940837860107422,2019-06-21 12:36:50:103,0.0,0.0,0.0
0.1801450401544571,-0.08004450798034668,9.760130882263184,0.0024866678910639927,-0.002210963619064889,-0.0033083207066779904,1.099961757659912,2019-06-21 12:36:50:109,0.0,0.0,0.0
0.14901329576969147,-0.056097012013196945,9.78647232055664,0.0010215716893232575,-0.0032764881294217877,-0.0009108902983006441,1.1040782928466797,2019-06-21 12:36:50:113,0.0,0.0,0.0
0.18972404301166534,-0.08962351083755493,9.812814712524414,-0.0013758585890169264,-0.0018113917976438896,-0.0011772714258898686,1.1104216575622559,2019-06-21 12:36:50:120,0.0,0.0,0.0
0.18253979086875916,-0.07286025583744049,9.891841888427734,-0.0021750019717846,-0.004874774894957135,-0.007037656492927135,1.1141252517700195,2019-06-21 12:36:50:123,0.0,0.0,0.0
0.17056605219841003,-0.09680775552988052,9.899025917053223,0.001287952816912482,-0.0012786295424654405,-0.002109605502489317,1.1199679374694824,2019-06-21 12:36:50:129,0.0,0.0,0.0
0.20169779658317566,-0.10638675838708878,9.796051979064941,0.004084954916673665,-0.0023441541828595016,-0.0015768431172737056,1.1240777969360352,2019-06-21 12:36:50:133,0.0,0.0,0.0
0.15619754791259766,-0.10159725695848465,9.879867553710938,-0.002308192665616375,0.0020511348124741917,-0.0011772714258898686,1.129974365234375,2019-06-21 12:36:50:139,0.0,0.0,0.0
0.14901329576969147,-0.10878150165081024,9.829578399658203,-0.0007099057700438648,-0.002210963619064889,-0.002109605502489317,1.1340837478637695,2019-06-21 12:36:50:143,0.0,0.0,0.0
0.14422379434108734,-0.0920182541012764,9.784077644348145,0.0004888094016355178,-0.011800684212276974,-0.000378128043122195,1.1400337219238281,2019-06-21 12:36:50:149,0.0,0.0,0.0
0.11309205740690231,-0.15188699960708618,9.784077644348145,0.0006219999979394207,-0.0040756315121894615,-0.003974273525651052,1.1441025733947754,2019-06-21 12:36:50:153,0.0,0.0,0.0
0.16098704934120178,-0.12075525522232056,9.846341133117676,0.000755190561734033,-0.0010122483498576347,-0.0014436525534790934,1.1499738693237305,2019-06-21 12:36:50:159,0.0,0.0,0.0
0.17056605219841003,-0.13991324603557587,9.810420036315918,-4.395289011588339e-05,-0.0011454389786708283,0.0014865399800395396,1.154083251953125,2019-06-21 12:36:50:163,0.0,0.0,0.0
0.15619754791259766,-0.10638675838708878,9.819998741149902,0.0003556188378409054,-0.0016782012338492774,-0.0010440808620952565,1.1602230072021484,2019-06-21 12:36:50:169,0.0,0.0,0.0
0.0939340591430664,-0.07764975726604462,9.738577842712402,0.0020870961996801557,-0.005807109101593746,-0.00011174689115100237,1.1642446517944336,2019-06-21 12:36:50:173,0.0,0.0,0.0
0.12506580352783203,-0.10878150165081024,9.717024803161621,0.0022202867634747683,-0.009936016839301053,0.0029516363118174374,1.1699676513671875,2019-06-21 12:36:50:179,0.0,0.0,0.0
0.16817130148410797,-0.09680775552988052,9.779288291931152,-0.0024413832294109873,-0.009403254584122604,-0.0010440808620952565,1.1740732192993164,2019-06-21 12:36:50:183,0.0,0.0,0.0
0.23522429168224335,-0.05130751058459282,9.779288291931152,8.92376858697129e-05,-0.005807109101593746,0.0001546342608201902,1.1799650192260742,2019-06-21 12:36:50:189,0.0,0.0,0.0
0.20169779658317566,-0.09441300481557846,9.769709587097168,0.0023534773272693805,-0.000213104918326025,0.00308482687561205,1.1840753555297852,2019-06-21 12:36:50:193,0.0,0.0,0.0
0.2184610366821289,-0.09920250624418259,9.891841888427734,0.0020870961996801557,0.0009856102370987122,0.0005542059684586724,1.1899614334106445,2019-06-21 12:36:50:199,0.0,0.0,0.0
0.15859229862689972,-0.1375184953212738,9.788866996765137,-0.005637956760481682,-7.991434640409003e-05,0.005615447847784009,1.1940717697143555,2019-06-21 12:36:50:203,0.0,0.0,0.0
0.17775028944015503,-0.12554475665092468,9.769709587097168,-0.005105194505303233,-0.003143297565627175,0.00548225702391507,1.199965476989746,2019-06-21 12:36:50:209,0.0,0.0,0.0
0.10590780526399612,-0.12554475665092468,9.781682968139648,8.92376858697129e-05,-0.005407537150135584,0.006281400406682744,1.2040748596191406,2019-06-21 12:36:50:213,0.0,0.0,0.0
0.1394343078136444,-0.17343974113464355,9.788866996765137,0.0024866678910639927,-0.0075385861708493805,0.00548225702391507,1.2091035842895508,2019-06-21 12:36:50:218,0.0,0.0,0.0
0.050828561186790466,-0.15428175032138824,9.793657302856445,0.0008883811255286454,-0.003542869257011012,0.0028184457480228253,1.2140836715698242,2019-06-21 12:36:50:223,0.0,0.0,0.0
0.024486316367983818,-0.1566765010356903,9.77449893951416,-0.0009762868976330894,-0.004208822075984073,-0.0015768431172737056,1.2199668884277344,2019-06-21 12:36:50:229,0.0,0.0,0.0
0.012512567453086376,-0.12793950736522675,9.77449893951416,0.0006219999979394207,-0.0034096786932164,-0.0014436525534790934,1.22407865524292,2019-06-21 12:36:50:233,0.0,0.0,0.0
-0.0018559310119599104,-0.14949224889278412,9.714630126953125,-4.395289011588339e-05,-0.007804967298438606,-0.0009108902983006441,1.229968547821045,2019-06-21 12:36:50:239,0.0,0.0,0.0
-0.01622442901134491,-0.10878150165081024,9.805630683898926,-0.005371575632892458,-0.015396829694805832,-0.0029087490152941535,1.2340774536132812,2019-06-21 12:36:50:243,0.0,0.0,0.0
-0.0066454303450882435,-0.15907125174999237,9.858315467834473,-4.395289011588339e-05,-0.006073490229182971,-0.003707892398061828,1.239999771118164,2019-06-21 12:36:50:249,0.0,0.0,0.0
-0.0066454303450882435,-0.14230799674987793,9.834367752075195,0.0018207150720909312,-0.0003462954983752826,-0.006238513110159461,1.2440757751464844,2019-06-21 12:36:50:253,0.0,0.0,0.0
-0.0018559310119599104,-0.08962351083755493,9.836762428283691,-0.0019086208441953755,0.0004528479494109724,-0.004373845217034889,1.2490801811218262,2019-06-21 12:36:50:258,0.0,0.0,0.0
-0.028198176994919777,-0.10159725695848465,9.73378849029541,-0.003906479431151722,-0.009669635191563178,-0.012365279564860278,1.254995346069336,2019-06-21 12:36:50:264,0.0,0.0,0.0
-0.032987676560878754,-0.13991324603557587,9.721814155578613,-0.00523838532917217,-0.00900368263266444,-0.007969990699563747,1.259084701538086,2019-06-21 12:36:50:268,0.0,0.0,0.0
0.0029335683211684227,-0.10159725695848465,9.824789047241211,-0.0031073360483840485,-0.006739442788081707,-0.008502752954742196,1.2640762329101562,2019-06-21 12:36:50:273,0.0,0.0,0.0
0.06519705802202225,-0.13991324603557587,9.817604064941406,-0.002840954920794824,-0.0030101070018325625,-0.011566135661943953,1.2690801620483398,2019-06-21 12:36:50:278,0.0,0.0,0.0
0.07956556230783463,-0.09441300481557846,9.846341133117676,-0.0055047664567613955,-0.0010122483498576347,-0.0131644224274793,1.2749624252319336,2019-06-21 12:36:50:284,0.0,0.0,0.0
0.05561806261539459,-0.07525500655174255,9.78647232055664,-0.0044392419464044965,-0.00460839376736791,-0.012764851516318438,1.2790708541870117,2019-06-21 12:36:50:288,0.0,0.0,0.0
0.029275815933942795,-0.1303342580795288,9.76252555847168,-0.001242668025222314,-0.0075385861708493805,-0.01702694955774603,1.2840757369995117,2019-06-21 12:36:50:293,0.0,0.0,0.0
0.024486316367983818,-0.07764975726604462,9.681103706359863,-0.005371575632892458,-0.008204539249896767,-0.017293330165186607,1.2890815734863281,2019-06-21 12:36:50:298,0.0,0.0,0.0
-0.004250680562108755,-0.056097012013196945,9.750551223754883,-0.005105194505303233,-0.010335588790759215,-0.0142299479781335,1.294076919555664,2019-06-21 12:36:50:303,0.0,0.0,0.0
0.022091565653681755,-0.1183605045080185,9.867894172668457,-0.0027077643570002116,-0.007671776994718318,-0.01662737760628787,1.2990999221801758,2019-06-21 12:36:50:308,0.0,0.0,0.0
-0.0018559310119599104,-0.1375184953212738,9.841551780700684,-0.004705623073993721,-7.991434640409003e-05,-0.017692902116644767,1.3049745559692383,2019-06-21 12:36:50:314,0.0,0.0,0.0
0.0029335683211684227,-0.1566765010356903,9.738577842712402,-0.002974145484589436,-0.008604110681206279,-0.015828234743668845,1.3090810775756836,2019-06-21 12:36:50:318,0.0,0.0,0.0
-0.011434929445385933,-0.10159725695848465,9.817604064941406,-0.002974145484589436,-0.004874774894957135,-0.018358854675543504,1.314976692199707,2019-06-21 12:36:50:324,0.0,0.0,0.0
0.0005388186546042562,-0.10159725695848465,9.877472877502441,-0.00923410224301054,-0.00913687293638473,-0.02022352308881673,1.319082260131836,2019-06-21 12:36:50:328,0.0,0.0,0.0
0.024486316367983818,-0.1111762523651123,9.755340576171875,-0.0013758585890169264,-0.008604110681206279,-0.02102266699173305,1.324967384338379,2019-06-21 12:36:50:334,0.0,0.0,0.0
0.043644312769174576,-0.08004450798034668,9.81520938873291,-0.00523838532917217,-0.00460839376736791,-0.0215554282066142,1.3290786743164062,2019-06-21 12:36:50:338,0.0,0.0,0.0
0.0484338141977787,-0.056097012013196945,9.80323600769043,-0.0035069077397678855,-0.003143297565627175,-0.018225665412120517,1.3340816497802734,2019-06-21 12:36:50:343,0.0,0.0,0.0
0.04124956205487251,-0.10159725695848465,9.810420036315918,-0.0013758585890169264,-0.00660625248436142,-0.022487763453548113,1.3399648666381836,2019-06-21 12:36:50:349,0.0,0.0,0.0
0.01730206608772278,-0.11596575379371643,9.769709587097168,-0.0055047664567613955,-0.005274346846415297,-0.02648348088753513,1.3440799713134766,2019-06-21 12:36:50:353,0.0,0.0,0.0
0.03167056292295456,-0.07286025583744049,9.779288291931152,-0.007902196605064417,-0.008470920377485992,-0.022887335405006277,1.3499722480773926,2019-06-21 12:36:50:359,0.0,0.0,0.0
0.022091565653681755,-0.08243925869464874,9.84394645690918,-0.00870133998783209,-0.00900368263266444,-0.025817526248041792,1.3540830612182617,2019-06-21 12:36:50:363,0.0,0.0,0.0
0.06998655945062637,-0.09680775552988052,9.819998741149902,-0.0013758585890169264,-0.008204539249896767,-0.026350289543517542,1.3590989112854004,2019-06-21 12:36:50:368,0.0,0.0,0.0
0.04603906348347664,-0.1183605045080185,9.851130485534668,-0.0037732888673571103,-0.007005823915670932,-0.023153716012446847,1.3640828132629395,2019-06-21 12:36:50:373,0.0,0.0,0.0
0.06998655945062637,-0.08962351083755493,9.805630683898926,0.0027530490186532175,-0.0004794860621698949,-0.029946435026046398,1.3699655532836914,2019-06-21 12:36:50:379,0.0,0.0,0.0
0.04124956205487251,-0.0848340094089508,9.721814155578613,-0.002840954920794824,-0.0040756315121894615,-0.02541795637717823,1.3740777969360352,2019-06-21 12:36:50:383,0.0,0.0,0.0
0.0484338141977787,-0.06807076185941696,9.772104263305664,0.00022242825779164786,-0.008604110681206279,-0.029546863074588234,1.3799667358398438,2019-06-21 12:36:50:389,0.0,0.0,0.0
0.036460064351558685,-0.06328126043081284,9.73378849029541,-0.00577114758435062,-0.009669635191563178,-0.02355328796390501,1.384079933166504,2019-06-21 12:36:50:393,0.0,0.0,0.0
0.08914455771446228,-0.09680775552988052,9.767314910888672,-0.001242668025222314,-0.00807134842602783,-0.026616670150958116,1.3899645805358887,2019-06-21 12:36:50:399,0.0,0.0,0.0
0.08914455771446228,-0.012991516850888729,9.769709587097168,-0.0019086208441953755,-0.008470920377485992,-0.029147291123130078,1.3940949440002441,2019-06-21 12:36:50:403,0.0,0.0,0.0
0.14422379434108734,-0.0393337644636631,9.817604064941406,-0.0037732888673571103,-0.005940299405314034,-0.02701624210241628,1.399977684020996,2019-06-21 12:36:50:409,0.0,0.0,0.0
0.1274605542421341,-0.05370226129889488,9.808025360107422,-0.004039669994946335,-0.002477344746654114,-0.02501838442572007,1.404078483581543,2019-06-21 12:36:50:413,0.0,0.0,0.0
0.09872355312108994,-0.07286025583744049,9.750551223754883,-0.004306051122535559,-0.0023441541828595016,-0.021688619550631786,1.4091014862060547,2019-06-21 12:36:50:418,0.0,0.0,0.0
0.11788155138492584,-0.0656760111451149,9.748156547546387,-0.003906479431151722,-0.010468779094479502,-0.019291189922477414,1.414083480834961,2019-06-21 12:36:50:423,0.0,0.0,0.0
0.11548680067062378,-0.09920250624418259,9.764920234680176,-0.0020418114079899874,-0.009802826535580764,-0.022354572109530527,1.4199600219726562,2019-06-21 12:36:50:429,0.0,0.0,0.0
0.1657765507698059,-0.07525500655174255,9.79126262664795,-0.0033737171759732733,-0.00913687293638473,-0.02595071759205938,1.424074649810791,2019-06-21 12:36:50:433,0.0,0.0,0.0
0.14422379434108734,-0.10878150165081024,9.860710144042969,-0.0025745737932055994,-0.00514115602254636,-0.023153716012446847,1.429969310760498,2019-06-21 12:36:50:439,0.0,0.0,0.0
0.08674980700016022,-0.09920250624418259,9.827183723449707,-0.005105194505303233,-0.0027437258742433386,-0.020489903696257302,1.4340777397155762,2019-06-21 12:36:50:443,0.0,0.0,0.0
0.06280230730772018,-0.07046551257371902,9.767314910888672,0.0004888094016355178,-0.00460839376736791,-0.01676056791000816,1.439082145690918,2019-06-21 12:36:50:448,0.0,0.0,0.0
0.0747760608792305,-0.056097012013196945,9.769709587097168,-0.002308192665616375,-0.01100154134965795,-0.019157998578459828,1.4440836906433105,2019-06-21 12:36:50:453,0.0,0.0,0.0
0.07956556230783463,-0.0393337644636631,9.688287734985352,0.00022242825779164786,-0.00660625248436142,-0.02009033174479914,1.4499740600585938,2019-06-21 12:36:50:459,0.0,0.0,0.0
0.06280230730772018,-0.0920182541012764,9.800841331481934,0.0014211433807070943,-0.010868351045937663,-0.01716013986146632,1.4540948867797852,2019-06-21 12:36:50:463,0.0,0.0,0.0
0.0939340591430664,-0.08722876012325287,9.781682968139648,-0.00523838532917217,-0.004874774894957135,-0.021289047599173626,1.459096908569336,2019-06-21 12:36:50:468,0.0,0.0,0.0
0.01730206608772278,-0.09680775552988052,9.808025360107422,0.0003556188378409054,-0.0030101070018325625,-0.016494187302567583,1.4640827178955078,2019-06-21 12:36:50:473,0.0,0.0,0.0
0.05801280960440636,-0.029754765331745148,9.707446098327637,-0.002308192665616375,-0.005274346846415297,-0.020356714432834315,1.469965934753418,2019-06-21 12:36:50:479,0.0,0.0,0.0
0.04124956205487251,-0.06807076185941696,9.685893058776855,-4.395289011588339e-05,-0.0075385861708493805,-0.01676056791000816,1.4740791320800781,2019-06-21 12:36:50:483,0.0,0.0,0.0
0.10590780526399612,-0.06088650971651077,9.779288291931152,8.92376858697129e-05,-0.008737302025223867,-0.0194243791859004,1.4799728393554688,2019-06-21 12:36:50:489,0.0,0.0,0.0
0.1394343078136444,-0.06088650971651077,9.824789047241211,-0.004972004201582946,-0.008337729553617055,-0.018758426627001668,1.4840822219848633,2019-06-21 12:36:50:493,0.0,0.0,0.0
0.1202763020992279,-0.07525500655174255,9.784077644348145,0.0020870961996801557,-0.0056739182777248084,-0.01516228114447281,1.4891014099121094,2019-06-21 12:36:50:498,0.0,0.0,0.0
0.16098704934120178,-0.05130751058459282,9.757735252380371,-0.0021750019717846,-0.004208822075984073,-0.015561853095930972,1.4940848350524902,2019-06-21 12:36:50:503,0.0,0.0,0.0
0.1202763020992279,-0.0656760111451149,9.740972518920898,-0.0032405266121786607,-0.00807134842602783,-0.013563994378937462,1.4990911483764648,2019-06-21 12:36:50:508,0.0,0.0,0.0
0.11788155138492584,-0.06328126043081284,9.748156547546387,-0.0021750019717846,-0.006073490229182971,-0.012764851516318438,1.5049781799316406,2019-06-21 12:36:50:514,0.0,0.0,0.0
0.08435505628585815,-0.05130751058459282,9.812814712524414,-0.00044352460994534954,-0.007671776994718318,-0.009701468288968031,1.5090789794921875,2019-06-21 12:36:50:518,0.0,0.0,0.0
0.13703955709934235,-0.08962351083755493,9.810420036315918,-4.395289011588339e-05,-0.0034096786932164,-0.009834658592688318,1.5149950981140137,2019-06-21 12:36:50:524,0.0,0.0,0.0
0.05561806261539459,-0.08722876012325287,9.80323600769043,-0.0007099057700438648,-0.004475203463647623,-0.01023423054414648,1.5190839767456055,2019-06-21 12:36:50:528,0.0,0.0,0.0
0.06040756031870842,-0.06328126043081284,9.793657302856445,0.0036853832252898284,-0.00460839376736791,-0.0029087490152941535,1.5240821838378906,2019-06-21 12:36:50:533,0.0,0.0,0.0
0.010117817670106888,-0.08243925869464874,9.793657302856445,-0.0013758585890169264,-0.011401113301116114,-0.005572560551260725,1.5290827751159668,2019-06-21 12:36:50:538,0.0,0.0,0.0
0.024486316367983818,-0.10878150165081024,9.750551223754883,0.0054168602945454634,-0.006206680532903257,-0.006371703934028398,1.5349907875061035,2019-06-21 12:36:50:544,0.0,0.0,0.0
0.0029335683211684227,-0.10638675838708878,9.829578399658203,-0.0027077643570002116,-0.0023441541828595016,-0.003175130142883378,1.5399785041809082,2019-06-21 12:36:50:549,0.0,0.0,0.0
0.0077230678871273994,-0.12315000593662262,9.877472877502441,0.0015543339445017069,-0.001944582361438502,-0.0023759865000413795,1.5440778732299805,2019-06-21 12:36:50:553,0.0,0.0,0.0
-0.03538242727518082,-0.12315000593662262,9.812814712524414,-0.0013758585890169264,-0.001944582361438502,-0.005705750854981011,1.5491018295288086,2019-06-21 12:36:50:558,0.0,0.0,0.0
-0.03059292770922184,-0.12075525522232056,9.769709587097168,-0.0020418114079899874,-0.0038092503846002368,-0.006238513110159461,1.5540828704833984,2019-06-21 12:36:50:563,0.0,0.0,0.0
-0.021013928577303886,-0.1375184953212738,9.721814155578613,0.0036853832252898284,-0.00913687293638473,-0.0033083207066779904,1.5590825080871582,2019-06-21 12:36:50:568,0.0,0.0,0.0
0.01730206608772278,-0.15907125174999237,9.812814712524414,0.0023534773272693805,-0.010468779094479502,-0.005572560551260725,1.5649709701538086,2019-06-21 12:36:50:574,0.0,0.0,0.0
0.06759180873632431,-0.12554475665092468,9.805630683898926,0.0014211433807070943,-0.009270064280402316,2.1443682802763245e-05,1.5690803527832031,2019-06-21 12:36:50:578,0.0,0.0,0.0
0.03167056292295456,-0.14230799674987793,9.817604064941406,0.0036853832252898284,-0.006073490229182971,-0.00011174689115100237,1.5749688148498535,2019-06-21 12:36:50:584,0.0,0.0,0.0
0.05801280960440636,-0.10399200767278671,9.788866996765137,0.0003556188378409054,-0.002077772925233114,-0.002242795936246767,1.5790786743164062,2019-06-21 12:36:50:588,0.0,0.0,0.0
0.022091565653681755,-0.07046551257371902,9.80323600769043,-0.0021750019717846,-0.0008790577860630224,-0.0005113186069168071,1.5840826034545898,2019-06-21 12:36:50:593,0.0,0.0,0.0
0.0077230678871273994,-0.1111762523651123,9.77449893951416,-0.00044352460994534954,-0.006473061660492482,0.0010869682236371214,1.589996337890625,2019-06-21 12:36:50:599,0.0,0.0,0.0
0.0005388186546042562,-0.13991324603557587,9.78647232055664,-0.0025745737932055994,-0.010735159701920075,-0.004640226344624114,1.594106674194336,2019-06-21 12:36:50:603,0.0,0.0,0.0
0.029275815933942795,-0.1111762523651123,9.788866996765137,-0.0009762868976330894,-0.010202397446741627,0.0033512080032012744,1.5999784469604492,2019-06-21 12:36:50:609,0.0,0.0,0.0
-0.040171924978494644,-0.12075525522232056,9.841551780700684,0.002619858454858605,-0.002210963619064889,-0.0017100338111054802,1.6040749549865723,2019-06-21 12:36:50:613,0.0,0.0,0.0
-0.04496142640709877,-0.10159725695848465,9.824789047241211,0.000755190561734033,-0.0034096786932164,-0.0023759865000413795,1.609971046447754,2019-06-21 12:36:50:619,0.0,0.0,0.0
-0.0497509241104126,-0.15907125174999237,9.776893615722656,-0.00044352460994534954,-0.00514115602254636,0.0024188740566389883,1.6140828132629395,2019-06-21 12:36:50:623,0.0,0.0,0.0
-0.0234086774289608,-0.1375184953212738,9.72420883178711,8.92376858697129e-05,-0.002610535310448726,0.0033512080032012744,1.619084358215332,2019-06-21 12:36:50:628,0.0,0.0,0.0
-0.07369842380285263,-0.1566765010356903,9.77449893951416,-0.00044352460994534954,-0.007139014739539869,0.004683113641147397,1.6249732971191406,2019-06-21 12:36:50:634,0.0,0.0,0.0
-0.040171924978494644,-0.14470274746418,9.800841331481934,0.0027530490186532175,-0.008870492328944154,0.0032180174394066618,1.6290826797485352,2019-06-21 12:36:50:638,0.0,0.0,0.0
-0.07130367308855057,-0.10878150165081024,9.750551223754883,0.00022242825779164786,-0.008604110681206279,0.001619730543834152,1.6341004371643066,2019-06-21 12:36:50:643,0.0,0.0,0.0
-0.054540425539016724,-0.10878150165081024,9.793657302856445,-0.00031033404615073726,-0.006073490229182971,0.004949494768736622,1.6390948295593262,2019-06-21 12:36:50:648,0.0,0.0,0.0
-0.0689089223742485,-0.12554475665092468,9.819998741149902,-0.0027077643570002116,-0.002077772925233114,0.007613306044628867,1.6449823379516602,2019-06-21 12:36:50:654,0.0,0.0,0.0
-0.06411942094564438,-0.13272900879383087,9.855920791625977,-0.0020418114079899874,-0.0015450106700546653,0.005615447847784009,1.649078369140625,2019-06-21 12:36:50:658,0.0,0.0,0.0
-0.009040179662406445,-0.12554475665092468,9.738577842712402,-0.0033737171759732733,-0.0075385861708493805,0.006015019279093521,1.6540822982788086,2019-06-21 12:36:50:663,0.0,0.0,0.0
-0.061724673956632614,-0.14470274746418,9.81520938873291,-0.00044352460994534954,-0.0028769164380379507,0.01041030814439005,1.6599678993225098,2019-06-21 12:36:50:669,0.0,0.0,0.0
-0.013829679228365421,-0.14949224889278412,9.728999137878418,0.0023534773272693805,-0.002477344746654114,0.008146068299807315,1.664078712463379,2019-06-21 12:36:50:673,0.0,0.0,0.0
-0.061724673956632614,-0.14470274746418,9.757735252380371,0.0020870961996801557,-0.003143297565627175,0.008545640251265479,1.6699590682983398,2019-06-21 12:36:50:679,0.0,0.0,0.0
-0.0689089223742485,-0.16146600246429443,9.808025360107422,-0.0009762868976330894,-0.0006126766584737978,0.011076260703288788,1.674074649810791,2019-06-21 12:36:50:683,0.0,0.0,0.0
-0.07369842380285263,-0.18780824542045593,9.76252555847168,-0.001242668025222314,-0.0063398713567721955,0.00894521168257499,1.6799707412719727,2019-06-21 12:36:50:689,0.0,0.0,0.0
-0.028198176994919777,-0.14470274746418,9.805630683898926,-0.0021750019717846,-0.0040756315121894615,0.013473691371740459,1.6840834617614746,2019-06-21 12:36:50:693,0.0,0.0,0.0
-0.06651417165994644,-0.1303342580795288,9.834367752075195,-0.004172860558740947,-0.005407537150135584,0.015737930696174542,1.6891002655029297,2019-06-21 12:36:50:698,0.0,0.0,0.0
-0.09764591604471207,-0.21175573766231537,9.784077644348145,-0.0032405266121786607,-0.010335588790759215,0.014139643930639196,1.6949701309204102,2019-06-21 12:36:50:704,0.0,0.0,0.0
-0.10483016818761826,-0.10638675838708878,9.800841331481934,0.0008883811255286454,-0.009669635191563178,0.020000029777899435,1.6990776062011719,2019-06-21 12:36:50:708,0.0,0.0,0.0
-0.10722491890192032,-0.16146600246429443,9.764920234680176,-0.00923410224301054,-0.008337729553617055,0.019733649170458865,1.7040815353393555,2019-06-21 12:36:50:713,0.0,0.0,0.0
-0.0689089223742485,-0.15428175032138824,9.839157104492188,-0.0036400983035624977,-0.008737302025223867,0.02332979465298772,1.709965705871582,2019-06-21 12:36:50:719,0.0,0.0,0.0
-0.10961966961622238,-0.14470274746418,9.884657859802246,0.0027530490186532175,-0.005274346846415297,0.021997887454595647,1.714078426361084,2019-06-21 12:36:50:723,0.0,0.0,0.0
-0.10243541747331619,-0.19738724827766418,9.728999137878418,0.001687524508296319,-0.0014118201062600529,0.026526368184058412,1.7190885543823242,2019-06-21 12:36:50:728,0.0,0.0,0.0
-0.1407514065504074,-0.14470274746418,9.760130882263184,-0.0013758585890169264,-0.005407537150135584,0.02426212781932703,1.7240829467773438,2019-06-21 12:36:50:733,0.0,0.0,0.0
-0.13117241859436035,-0.08004450798034668,9.767314910888672,-0.0015090491528115383,-0.012466637811473011,0.022930222701529557,1.729121208190918,2019-06-21 12:36:50:738,0.0,0.0,0.0
-0.04256667569279671,-0.09920250624418259,9.793657302856445,0.001287952816912482,-0.01006920714302134,0.02133193489569691,1.7349820137023926,2019-06-21 12:36:50:744,0.0,0.0,0.0
-0.09046167135238647,-0.14470274746418,9.870288848876953,0.0020870961996801557,-0.00074586722226841,0.020000029777899435,1.739081859588623,2019-06-21 12:36:50:748,0.0,0.0,0.0
-0.03777717798948288,-0.15907125174999237,9.776893615722656,-0.001642239716606151,-0.0004794860621698949,0.01773578941316805,1.744081974029541,2019-06-21 12:36:50:753,0.0,0.0,0.0
-0.17667265236377716,-0.08962351083755493,9.810420036315918,-0.0048388133777140085,0.0004528479494109724,0.014805597529835233,1.749969482421875,2019-06-21 12:36:50:759,0.0,0.0,0.0
-0.10004066675901413,-0.17583449184894562,9.714630126953125,-0.001642239716606151,-0.006073490229182971,0.019733649170458865,1.754079818725586,2019-06-21 12:36:50:763,0.0,0.0,0.0
-0.2006201595067978,-0.1375184953212738,9.80323600769043,-0.007902196605064417,-0.013665352625550195,0.021997887454595647,1.7599668502807617,2019-06-21 12:36:50:769,0.0,0.0,0.0
-0.09285642206668854,-0.10159725695848465,9.810420036315918,-0.0011094774614277016,-0.009403254584122604,0.013873263323198621,1.7640790939331055,2019-06-21 12:36:50:773,0.0,0.0,0.0
-0.11201442033052444,-0.1111762523651123,9.901420593261719,-0.004572432250124783,-0.008870492328944154,0.012541357165103849,1.7690849304199219,2019-06-21 12:36:50:778,0.0,0.0,0.0
-0.11680391430854797,-0.1183605045080185,9.9229736328125,-0.004172860558740947,0.001251991429706518,0.011875404606205111,1.7741050720214844,2019-06-21 12:36:50:783,0.0,0.0,0.0
-0.18864640593528748,-0.10159725695848465,9.767314910888672,-0.0071030532222967424,-0.0032764881294217877,0.011209452047306374,1.7799749374389648,2019-06-21 12:36:50:789,0.0,0.0,0.0
-0.20540966093540192,-0.0920182541012764,9.748156547546387,-0.0077690063013441295,-0.0056739182777248084,0.009877545889211602,1.784078598022461,2019-06-21 12:36:50:793,0.0,0.0,0.0
-0.20540966093540192,-0.09680775552988052,9.714630126953125,-0.006570290967118294,-0.010335588790759215,0.010543498448110339,1.7899656295776367,2019-06-21 12:36:50:799,0.0,0.0,0.0
-0.16230416297912598,-0.0848340094089508,9.796051979064941,-0.008434958860242866,-0.011800684212276974,0.013873263323198621,1.7940788269042969,2019-06-21 12:36:50:803,0.0,0.0,0.0
-0.1215934157371521,-0.06807076185941696,9.8319730758667,-0.0048388133777140085,-0.007671776994718318,0.011076260703288788,1.799966812133789,2019-06-21 12:36:50:809,0.0,0.0,0.0
-0.13117241859436035,-0.08004450798034668,9.906209945678711,-0.002974145484589436,-0.005540727974004522,0.012274976557663273,1.8040800094604492,2019-06-21 12:36:50:813,0.0,0.0,0.0
-0.15272516012191772,-0.11357100307941437,9.719419479370117,0.0020870961996801557,0.0021843255063059668,0.01147583265474695,1.8099713325500488,2019-06-21 12:36:50:819,0.0,0.0,0.0
-0.18864640593528748,-0.05849176272749901,9.70505142211914,-0.002974145484589436,-0.007272205043260157,0.014139643930639196,1.8140993118286133,2019-06-21 12:36:50:823,0.0,0.0,0.0
-0.16469891369342804,-0.12793950736522675,9.676314353942871,0.0027530490186532175,-0.01206706586001485,0.01334050106802017,1.819974422454834,2019-06-21 12:36:50:829,0.0,0.0,0.0
-0.2006201595067978,-0.08243925869464874,9.717024803161621,-0.0025745737932055994,-0.016861926156620893,0.014672406185817643,1.824082374572754,2019-06-21 12:36:50:833,0.0,0.0,0.0
-0.08567216992378235,-0.03214951604604721,9.848735809326172,-0.0025745737932055994,-0.010601969398199788,0.010943070399568499,1.8299674987792969,2019-06-21 12:36:50:839,0.0,0.0,0.0
-0.15033040940761566,-0.15428175032138824,9.87268352508545,-0.0024413832294109873,-0.002077772925233114,0.008678831075134416,1.8340768814086914,2019-06-21 12:36:50:843,0.0,0.0,0.0
-0.10004066675901413,-0.05849176272749901,9.834367752075195,0.003285811533905992,-0.0003462954983752826,0.010143927536949477,1.8399658203125,2019-06-21 12:36:50:849,0.0,0.0,0.0
-0.1670936644077301,0.003771730698645115,9.764920234680176,-0.006969862398427805,-0.004475203463647623,0.01134264235102666,1.8440799713134766,2019-06-21 12:36:50:853,0.0,0.0,0.0
-0.08088266849517822,-0.13512374460697174,9.659550666809082,-0.00044352460994534954,-0.007938158122307543,0.010543498448110339,1.8499698638916016,2019-06-21 12:36:50:859,0.0,0.0,0.0
-0.19583065807819366,-0.07525500655174255,9.772104263305664,0.001687524508296319,-0.010335588790759215,0.012008594909925398,1.854081153869629,2019-06-21 12:36:50:863,0.0,0.0,0.0
-0.08806692063808441,-0.06328126043081284,9.829578399658203,-0.0005767152062492525,-0.012599828115193298,0.009877545889211602,1.8599720001220703,2019-06-21 12:36:50:869,0.0,0.0,0.0
-0.10961966961622238,-0.10399200767278671,9.822394371032715,0.0022202867634747683,-0.001944582361438502,0.014406025578377071,1.8640942573547363,2019-06-21 12:36:50:873,0.0,0.0,0.0
-0.10483016818761826,0.006166480481624603,9.858315467834473,-0.0021750019717846,-0.0028769164380379507,0.004683113641147397,1.869969367980957,2019-06-21 12:36:50:879,0.0,0.0,0.0
-0.11919866502285004,-0.13272900879383087,9.721814155578613,-0.000843096333838477,-0.005940299405314034,0.00841244994754519,1.8740811347961426,2019-06-21 12:36:50:883,0.0,0.0,0.0
-0.13356716930866241,-0.04651801288127899,9.693077087402344,0.00022242825779164786,-0.002610535310448726,0.012141785213645687,1.879969596862793,2019-06-21 12:36:50:889,0.0,0.0,0.0
-0.13596192002296448,-0.022570515051484108,9.84394645690918,-0.00670348127083858,-0.0038092503846002368,0.01041030814439005,1.8840794563293457,2019-06-21 12:36:50:893,0.0,0.0,0.0
-0.12638291716575623,-0.12075525522232056,9.784077644348145,-0.0031073360483840485,-0.000213104918326025,0.01693664655054903,1.889084815979004,2019-06-21 12:36:50:898,0.0,0.0,0.0
0.17535555362701416,0.10195647180080414,9.54460334777832,-0.01762510802214544,-0.0030101070018325625,0.004816304465016335,1.8949732780456543,2019-06-21 12:36:50:904,0.0,0.0,0.0
-0.396989643573761,-0.027360014617443085,10.23189640045166,-0.0015090491528115383,0.0068459952391173974,0.011076260703288788,1.8990850448608398,2019-06-21 12:36:50:908,0.0,0.0,0.0
-0.03777717798948288,-0.2692297399044037,9.899025917053223,0.019002299362041866,-0.007938158122307543,0.014805597529835233,1.9041004180908203,2019-06-21 12:36:50:913,0.0,0.0,0.0
0.03885481506586075,-0.14230799674987793,9.47754955291748,-0.025616542890119477,0.0011188008659119059,0.0001546342608201902,1.9099855422973633,2019-06-21 12:36:50:919,0.0,0.0,0.0
-0.351489394903183,-0.12075525522232056,9.657155990600586,-0.04173259980889594,-0.000213104918326025,0.002019302235217989,1.9140815734863281,2019-06-21 12:36:50:923,0.0,0.0,0.0
0.3956725299358368,-0.07764975726604462,9.817604064941406,0.014740200280316973,-0.013532162321829909,0.012674548509121435,1.9199800491333008,2019-06-21 12:36:50:929,0.0,0.0,0.0
-0.1551199108362198,0.08758796751499176,10.224712371826172,0.019268679969482443,-0.004741584591236848,0.010010736192931888,1.9240727424621582,2019-06-21 12:36:50:933,0.0,0.0,0.0
0.0029335683211684227,-0.2021767497062683,9.283575057983398,-0.011631532911462211,0.003383040580457477,0.008279259123676254,1.929966926574707,2019-06-21 12:36:50:939,0.0,0.0,0.0
-0.351489394903183,-0.21175573766231537,9.59728717803955,0.0028862395824478296,0.004848137042272538,0.001619730543834152,1.9340782165527344,2019-06-21 12:36:50:943,0.0,0.0,0.0
0.0029335683211684227,0.0325087271630764,9.80323600769043,-0.000843096333838477,-0.009802826535580764,0.0010869682236371214,1.9399662017822266,2019-06-21 12:36:50:949,0.0,0.0,0.0
-0.21498864889144897,0.042087726294994354,9.958894729614258,0.0038185737890844406,-0.006473061660492482,-0.00024493746307293734,1.944079875946045,2019-06-21 12:36:50:953,0.0,0.0,0.0
-0.11680391430854797,-0.12793950736522675,9.788866996765137,-0.006437100143249356,0.0001864668055671025,-0.0038410829618564396,1.9499945640563965,2019-06-21 12:36:50:959,0.0,0.0,0.0
-0.28922590613365173,-0.25965073704719543,9.822394371032715,0.00022242825779164786,0.006180042680218661,0.0012201588524503152,1.9540891647338867,2019-06-21 12:36:50:963,0.0,0.0,0.0
-0.08088266849517822,0.006166480481624603,9.848735809326172,0.005283669990825176,0.0013851819935011304,-0.000378128043122195,1.9599695205688477,2019-06-21 12:36:50:969,0.0,0.0,0.0
-0.29641014337539673,0.03729822486639023,9.784077644348145,-0.009766864498188988,-0.005407537150135584,-0.0051729885998025625,1.9640750885009766,2019-06-21 12:36:50:973,0.0,0.0,0.0
-0.27006790041923523,-0.2740192413330078,9.618840217590332,0.005283669990825176,-0.009936016839301053,0.0010869682236371214,1.9699678421020508,2019-06-21 12:36:50:979,0.0,0.0,0.0
-0.16230416297912598,-0.12793950736522675,9.719419479370117,0.0010215716893232575,-0.01193387555629456,-0.004240654653240277,1.9740791320800781,2019-06-21 12:36:50:983,0.0,0.0,0.0
-0.23414665460586548,0.049271974712610245,9.901420593261719,-0.008434958860242866,-0.00660625248436142,-0.009701468288968031,1.9790830612182617,2019-06-21 12:36:50:988,0.0,0.0,0.0
-0.15272516012191772,-0.3410722315311432,9.827183723449707,0.012209579308145016,-0.0011454389786708283,0.0006873965322532847,1.984975814819336,2019-06-21 12:36:50:994,0.0,0.0,0.0
-0.1862516552209854,-0.03693901374936104,9.74576187133789,0.0020870961996801557,0.0072455671905755584,0.0001546342608201902,1.9890837669372559,2019-06-21 12:36:50:998,0.0,0.0,0.0
-0.3107786476612091,-0.022570515051484108,9.74576187133789,-0.0021750019717846,-0.004475203463647623,-0.012898041820038725,1.9940929412841797,2019-06-21 12:36:51:003,0.0,0.0,0.0
-0.1551199108362198,-0.23809799551963806,9.673919677734375,0.009412577728532483,-0.007671776994718318,-0.008103181003284032,1.9999923706054688,2019-06-21 12:36:51:009,0.0,0.0,0.0
-0.22217290103435516,0.01095598004758358,9.84394645690918,0.0022202867634747683,-0.01393173427328807,-0.007969990699563747,2.004091739654541,2019-06-21 12:36:51:013,0.0,0.0,0.0
-0.15272516012191772,-0.02496526576578617,9.925368309020996,-0.0055047664567613955,-0.0040756315121894615,-0.0025091770638359916,2.009082794189453,2019-06-21 12:36:51:018,0.0,0.0,0.0
-0.21498864889144897,-0.2572559714317322,9.851130485534668,0.0054168602945454634,0.003116659452868253,-0.003974273525651052,2.0140814781188965,2019-06-21 12:36:51:023,0.0,0.0,0.0
-0.20301491022109985,0.03969297558069229,9.867894172668457,-0.00044352460994534954,0.003782612271841314,-0.008103181003284032,2.019988536834717,2019-06-21 12:36:51:029,0.0,0.0,0.0
-0.25569939613342285,-0.0848340094089508,9.798446655273438,-0.0027077643570002116,-0.0016782012338492774,-0.011432945358223666,2.0240793228149414,2019-06-21 12:36:51:033,0.0,0.0,0.0
-0.19822540879249573,-0.19499249756336212,9.62602424621582,0.008347053218175584,-0.007804967298438606,-0.006105322806439174,2.029083251953125,2019-06-21 12:36:51:038,0.0,0.0,0.0
-0.2125938981771469,0.042087726294994354,9.855920791625977,-0.006969862398427805,-0.006473061660492482,-0.01263166017230085,2.034970283508301,2019-06-21 12:36:51:044,0.0,0.0,0.0
-0.15272516012191772,-0.23091374337673187,9.870288848876953,0.004884098039367014,-0.009403254584122604,-0.009035514689771994,2.0390806198120117,2019-06-21 12:36:51:048,0.0,0.0,0.0
-0.17667265236377716,-0.16625550389289856,9.834367752075195,-0.00044352460994534954,-0.0016782012338492774,-0.008369562130873257,2.044099807739258,2019-06-21 12:36:51:053,0.0,0.0,0.0
-0.17667265236377716,0.06124572455883026,9.855920791625977,-0.007635815477475192,0.0013851819935011304,-0.013031232123759012,2.049100875854492,2019-06-21 12:36:51:058,0.0,0.0,0.0
-0.20540966093540192,-0.28599298000335693,9.712235450744629,0.00608281337359285,-0.002477344746654114,-0.008902324386051706,2.0549659729003906,2019-06-21 12:36:51:064,0.0,0.0,0.0
-0.22217290103435516,-0.12315000593662262,9.697867393493652,-0.003906479431151722,-0.006739442788081707,-0.011299755054503377,2.0590786933898926,2019-06-21 12:36:51:068,0.0,0.0,0.0
-0.13596192002296448,-0.020175766199827194,9.851130485534668,-0.008568149684111803,-0.011534303604836399,-0.012498469868580563,2.0649728775024414,2019-06-21 12:36:51:074,0.0,0.0,0.0
-0.16230416297912598,-0.2812034785747528,9.85352611541748,0.00608281337359285,-0.007005823915670932,-0.010367420847866767,2.0690813064575195,2019-06-21 12:36:51:078,0.0,0.0,0.0
-0.11680391430854797,-0.08243925869464874,9.822394371032715,-0.001242668025222314,-0.005540727974004522,-0.009168706033789581,2.0740818977355957,2019-06-21 12:36:51:083,0.0,0.0,0.0
-0.24372565746307373,-0.0920182541012764,9.834367752075195,0.000755190561734033,0.0009856102370987122,-0.013031232123759012,2.0799617767333984,2019-06-21 12:36:51:089,0.0,0.0,0.0
-0.1287776678800583,-0.22612424194812775,9.628418922424316,0.0011547622531178697,-0.004475203463647623,-0.010101040240426193,2.0840845108032227,2019-06-21 12:36:51:093,0.0,0.0,0.0
-0.260488897562027,-0.0034125184174627066,9.740972518920898,-0.0077690063013441295,-0.008204539249896767,-0.013297613771496887,2.089994430541992,2019-06-21 12:36:51:099,0.0,0.0,0.0
-0.17188316583633423,-0.16625550389289856,9.748156547546387,-0.0032405266121786607,-0.010868351045937663,-0.009834658592688318,2.0940937995910645,2019-06-21 12:36:51:103,0.0,0.0,0.0
-0.1742779016494751,-0.18062399327754974,9.78647232055664,0.00848024352189587,-0.00913687293638473,-0.010367420847866767,2.099083423614502,2019-06-21 12:36:51:108,0.0,0.0,0.0
-0.13835667073726654,-0.06328126043081284,9.884657859802246,-0.0035069077397678855,-0.005807109101593746,-0.010500611151587054,2.104970932006836,2019-06-21 12:36:51:114,0.0,0.0,0.0
-0.1479356586933136,-0.22612424194812775,9.80323600769043,-0.0007099057700438648,-0.0011454389786708283,-0.012098897917122403,2.1090822219848633,2019-06-21 12:36:51:118,0.0,0.0,0.0
-0.1742779016494751,-0.1183605045080185,9.784077644348145,0.004750907735646727,-0.0014118201062600529,-0.010633802495604642,2.1140823364257812,2019-06-21 12:36:51:123,0.0,0.0,0.0
-0.20540966093540192,-0.029754765331745148,9.760130882263184,-0.005637956760481682,-0.009403254584122604,-0.015295472488490397,2.119986057281494,2019-06-21 12:36:51:129,0.0,0.0,0.0
-0.15751466155052185,-0.20457148551940918,9.717024803161621,0.0058164322460036244,-0.008470920377485992,-0.007836799875694809,2.1240768432617188,2019-06-21 12:36:51:133,0.0,0.0,0.0
-0.1287776678800583,-0.05130751058459282,9.846341133117676,-0.002308192665616375,-0.004208822075984073,-0.00677127536533791,2.129985809326172,2019-06-21 12:36:51:139,0.0,0.0,0.0
-0.16230416297912598,-0.05370226129889488,9.85352611541748,-0.000843096333838477,-0.0063398713567721955,-0.009967848896408605,2.1340999603271484,2019-06-21 12:36:51:143,0.0,0.0,0.0
-0.13835667073726654,-0.20696623623371124,9.805630683898926,0.007547909835407911,-0.0012786295424654405,-0.006238513110159461,2.13997220993042,2019-06-21 12:36:51:149,0.0,0.0,0.0
-0.1551199108362198,-0.04651801288127899,9.812814712524414,-0.002974145484589436,-0.0038092503846002368,-0.007437228444385297,2.144077777862549,2019-06-21 12:36:51:153,0.0,0.0,0.0
-0.1407514065504074,-0.10878150165081024,9.750551223754883,8.92376858697129e-05,-0.006739442788081707,-0.0053061794236715,2.1490821838378906,2019-06-21 12:36:51:158,0.0,0.0,0.0
-0.13596192002296448,-0.19259774684906006,9.819998741149902,0.003951764352879053,-0.011800684212276974,-0.005705750854981011,2.154083728790283,2019-06-21 12:36:51:163,0.0,0.0,0.0
-0.1287776678800583,-0.06328126043081284,9.810420036315918,-0.0059043378880709076,-0.006739442788081707,-0.005439369727391787,2.1599531173706055,2019-06-21 12:36:51:169,0.0,0.0,0.0
-0.1742779016494751,-0.15188699960708618,9.79126262664795,0.004750907735646727,-0.004208822075984073,-0.0015768431172737056,2.1640701293945312,2019-06-21 12:36:51:173,0.0,0.0,0.0
-0.16469891369342804,-0.1375184953212738,9.798446655273438,-0.0013758585890169264,-0.00514115602254636,-0.004373845217034889,2.1699676513671875,2019-06-21 12:36:51:179,0.0,0.0,0.0
-0.1407514065504074,-0.0920182541012764,9.726603507995605,-0.0055047664567613955,-0.003676059820805624,-0.003707892398061828,2.174086570739746,2019-06-21 12:36:51:183,0.0,0.0,0.0
-0.16948841512203217,-0.17343974113464355,9.73378849029541,0.0008883811255286454,-0.00913687293638473,0.0002878248408694478,2.179971694946289,2019-06-21 12:36:51:189,0.0,0.0,0.0
-0.10483016818761826,-0.09441300481557846,9.788866996765137,-0.0007099057700438648,-0.0063398713567721955,-0.0033083207066779904,2.184081554412842,2019-06-21 12:36:51:193,0.0,0.0,0.0
-0.15751466155052185,-0.1303342580795288,9.769709587097168,-0.0036400983035624977,-0.0023441541828595016,2.1443682802763245e-05,2.1890807151794434,2019-06-21 12:36:51:198,0.0,0.0,0.0
-0.11440916359424591,-0.14709749817848206,9.70505142211914,0.0031526207100370544,-0.0030101070018325625,-0.0038410829618564396,2.1949710845947266,2019-06-21 12:36:51:204,0.0,0.0,0.0
-0.10004066675901413,-0.04412326216697693,9.752945899963379,-0.0044392419464044965,-0.00807134842602783,0.0009537776598425092,2.1990795135498047,2019-06-21 12:36:51:208,0.0,0.0,0.0
-0.09285642206668854,-0.12793950736522675,9.757735252380371,0.0010215716893232575,-0.008337729553617055,0.0004210154046640601,2.204967498779297,2019-06-21 12:36:51:214,0.0,0.0,0.0
-0.09285642206668854,-0.12315000593662262,9.77449893951416,0.0031526207100370544,-0.010202397446741627,-0.0011772714258898686,2.209075927734375,2019-06-21 12:36:51:218,0.0,0.0,0.0
-0.11440916359424591,-0.0034125184174627066,9.822394371032715,8.92376858697129e-05,-0.007405395867129095,0.004949494768736622,2.2140817642211914,2019-06-21 12:36:51:223,0.0,0.0,0.0
-0.13117241859436035,-0.16865025460720062,9.77449893951416,0.0028862395824478296,-0.005807109101593746,-0.0018432243749000928,2.219104766845703,2019-06-21 12:36:51:228,0.0,0.0,0.0
-0.1479356586933136,-0.1183605045080185,9.810420036315918,0.0015543339445017069,-0.007671776994718318,0.00454992333742711,2.224100112915039,2019-06-21 12:36:51:233,0.0,0.0,0.0
-0.0952511727809906,-0.07525500655174255,9.824789047241211,-0.002840954920794824,-0.007139014739539869,0.00308482687561205,2.2299671173095703,2019-06-21 12:36:51:239,0.0,0.0,0.0
-0.13835667073726654,-0.1566765010356903,9.752945899963379,-0.001242668025222314,-0.006073490229182971,-0.000378128043122195,2.2340784072875977,2019-06-21 12:36:51:243,0.0,0.0,0.0
-0.05693517252802849,-0.10878150165081024,9.760130882263184,-0.00017714346610147965,-0.0075385861708493805,0.0025520646204336005,2.2399673461914062,2019-06-21 12:36:51:249,0.0,0.0,0.0
-0.0952511727809906,-0.07764975726604462,9.819998741149902,-0.004572432250124783,-0.002077772925233114,0.004949494768736622,2.244077682495117,2019-06-21 12:36:51:253,0.0,0.0,0.0
-0.10483016818761826,-0.1375184953212738,9.74576187133789,-0.0005767152062492525,-0.00913687293638473,-0.00011174689115100237,2.249081611633301,2019-06-21 12:36:51:258,0.0,0.0,0.0
-0.1215934157371521,-0.12075525522232056,9.877472877502441,-0.001242668025222314,-0.006739442788081707,0.0022856834928443757,2.2540817260742188,2019-06-21 12:36:51:263,0.0,0.0,0.0
-0.07848791778087616,-0.1183605045080185,9.81520938873291,0.0018207150720909312,-0.007005823915670932,0.002152492799012601,2.259972095489502,2019-06-21 12:36:51:269,0.0,0.0,0.0
-0.12638291716575623,-0.15428175032138824,9.719419479370117,0.0019539056358855436,-0.006872633611950644,0.0017529211076287644,2.2640976905822754,2019-06-21 12:36:51:273,0.0,0.0,0.0
-0.08567216992378235,-0.12315000593662262,9.817604064941406,0.0010215716893232575,-0.005540727974004522,0.0033512080032012744,2.269979953765869,2019-06-21 12:36:51:279,0.0,0.0,0.0
-0.10961966961622238,-0.07046551257371902,9.78647232055664,0.0004888094016355178,-0.005807109101593746,0.0029516363118174374,2.274078369140625,2019-06-21 12:36:51:283,0.0,0.0,0.0
-0.10722491890192032,-0.0656760111451149,9.748156547546387,0.0004888094016355178,-0.0040756315121894615,0.0033512080032012744,2.2790822982788086,2019-06-21 12:36:51:288,0.0,0.0,0.0
-0.16230416297912598,-0.08243925869464874,9.666735649108887,-0.000843096333838477,-0.007804967298438606,0.004017160822174336,2.2840805053710938,2019-06-21 12:36:51:293,0.0,0.0,0.0
-0.1287776678800583,-0.11357100307941437,9.772104263305664,0.0010215716893232575,-0.006872633611950644,0.0038839702583797235,2.2890825271606445,2019-06-21 12:36:51:298,0.0,0.0,0.0
-0.08327741920948029,-0.048912763595581055,9.793657302856445,0.00022242825779164786,-0.005807109101593746,0.005881828975373233,2.2949671745300293,2019-06-21 12:36:51:304,0.0,0.0,0.0
-0.054540425539016724,-0.06328126043081284,9.851130485534668,-0.0007099057700438648,-0.001944582361438502,0.0032180174394066618,2.2990808486938477,2019-06-21 12:36:51:308,0.0,0.0,0.0
-0.09285642206668854,-0.08243925869464874,9.812814712524414,0.0014211433807070943,-0.004874774894957135,0.008279259123676254,2.3049755096435547,2019-06-21 12:36:51:314,0.0,0.0,0.0
-0.17906740307807922,-0.0848340094089508,9.769709587097168,0.0022202867634747683,-0.003542869257011012,0.007480115740908581,2.3090944290161133,2019-06-21 12:36:51:318,0.0,0.0,0.0
-0.07130367308855057,-0.12075525522232056,9.697867393493652,8.92376858697129e-05,-0.008204539249896767,0.010143927536949477,2.314100742340088,2019-06-21 12:36:51:323,0.0,0.0,0.0
-0.0952511727809906,-0.15428175032138824,9.743367195129395,-0.0009762868976330894,-0.008337729553617055,0.007346924917039643,2.3199877738952637,2019-06-21 12:36:51:329,0.0,0.0,0.0
-0.061724673956632614,-0.07286025583744049,9.867894172668457,-0.001775430280400763,-0.008604110681206279,0.011609022958467236,2.324080467224121,2019-06-21 12:36:51:333,0.0,0.0,0.0
-0.07369842380285263,-0.11357100307941437,9.776893615722656,0.0027530490186532175,-0.0038092503846002368,0.007746496868497805,2.3290843963623047,2019-06-21 12:36:51:338,0.0,0.0,0.0
-0.10961966961622238,-0.1111762523651123,9.740972518920898,0.0019539056358855436,-0.0030101070018325625,0.008279259123676254,2.3340816497802734,2019-06-21 12:36:51:343,0.0,0.0,0.0
-0.06651417165994644,-0.07764975726604462,9.740972518920898,0.004750907735646727,-0.004475203463647623,0.013606881675460746,2.339080810546875,2019-06-21 12:36:51:348,0.0,0.0,0.0
-0.1287776678800583,-0.12315000593662262,9.757735252380371,0.0011547622531178697,-0.008470920377485992,0.006680972358140907,2.3449740409851074,2019-06-21 12:36:51:354,0.0,0.0,0.0
-0.12638291716575623,-0.12075525522232056,9.748156547546387,0.0018207150720909312,-0.00900368263266444,0.012541357165103849,2.349081039428711,2019-06-21 12:36:51:358,0.0,0.0,0.0
-0.1215934157371521,-0.0848340094089508,9.800841331481934,0.005150479166956239,-0.008737302025223867,0.008545640251265479,2.3541040420532227,2019-06-21 12:36:51:363,0.0,0.0,0.0
-0.09285642206668854,-0.09920250624418259,9.860710144042969,0.0035521926614952163,-0.0063398713567721955,0.01533835978501368,2.359980583190918,2019-06-21 12:36:51:369,0.0,0.0,0.0
-0.10722491890192032,-0.08243925869464874,9.767314910888672,0.0058164322460036244,-0.006206680532903257,0.008812021378854704,2.364081382751465,2019-06-21 12:36:51:373,0.0,0.0,0.0
-0.1287776678800583,-0.07764975726604462,9.740972518920898,0.0027530490186532175,-0.00514115602254636,0.012274976557663273,2.369084358215332,2019-06-21 12:36:51:378,0.0,0.0,0.0
-0.1407514065504074,-0.08004450798034668,9.796051979064941,-0.00044352460994534954,-0.006073490229182971,0.010676689792127925,2.374967098236084,2019-06-21 12:36:51:384,0.0,0.0,0.0
-0.13117241859436035,-0.08722876012325287,9.788866996765137,-0.0019086208441953755,-0.012999400066651462,0.008279259123676254,2.379077434539795,2019-06-21 12:36:51:388,0.0,0.0,0.0
-0.0952511727809906,-0.09680775552988052,9.836762428283691,0.0015543339445017069,-0.0030101070018325625,0.006680972358140907,2.3849716186523438,2019-06-21 12:36:51:394,0.0,0.0,0.0
-0.1407514065504074,-0.10159725695848465,9.822394371032715,0.0020870961996801557,-0.002610535310448726,0.007613306044628867,2.389080047607422,2019-06-21 12:36:51:398,0.0,0.0,0.0
-0.1407514065504074,-0.11357100307941437,9.819998741149902,-0.000843096333838477,-0.005540727974004522,0.007746496868497805,2.3940839767456055,2019-06-21 12:36:51:403,0.0,0.0,0.0
-0.13117241859436035,-0.07046551257371902,9.798446655273438,0.002619858454858605,-0.008870492328944154,0.008545640251265479,2.39996337890625,2019-06-21 12:36:51:409,0.0,0.0,0.0
-0.16230416297912598,-0.1111762523651123,9.772104263305664,0.0036853832252898284,-0.005274346846415297,0.01041030814439005,2.404080390930176,2019-06-21 12:36:51:413,0.0,0.0,0.0
-0.16469891369342804,-0.08962351083755493,9.788866996765137,-0.0033737171759732733,-0.014864067439627381,0.0009537776598425092,2.4090895652770996,2019-06-21 12:36:51:418,0.0,0.0,0.0
-0.1407514065504074,-0.07525500655174255,9.824789047241211,-0.0005767152062492525,-0.0063398713567721955,0.00454992333742711,2.414081573486328,2019-06-21 12:36:51:423,0.0,0.0,0.0
-0.0689089223742485,-0.11596575379371643,9.875078201293945,-0.0032405266121786607,-0.00460839376736791,0.0038839702583797235,2.419981002807617,2019-06-21 12:36:51:429,0.0,0.0,0.0
-0.10961966961622238,-0.1111762523651123,9.808025360107422,0.0034190020977006037,-0.004874774894957135,-0.00011174689115100237,2.4240736961364746,2019-06-21 12:36:51:433,0.0,0.0,0.0
-0.16230416297912598,-0.12315000593662262,9.717024803161621,-0.002308192665616375,-0.005940299405314034,0.00308482687561205,2.4299659729003906,2019-06-21 12:36:51:439,0.0,0.0,0.0
-0.16469891369342804,-0.12315000593662262,9.757735252380371,-0.0009762868976330894,-0.013665352625550195,0.002685255184228213,2.4340782165527344,2019-06-21 12:36:51:443,0.0,0.0,0.0
-0.09285642206668854,-0.09680775552988052,9.798446655273438,0.0018207150720909312,-0.013132590370371748,-0.00024493746307293734,2.439082622528076,2019-06-21 12:36:51:448,0.0,0.0,0.0
-0.11201442033052444,-0.1303342580795288,9.81520938873291,0.001687524508296319,-0.010202397446741627,0.0006873965322532847,2.4440793991088867,2019-06-21 12:36:51:453,0.0,0.0,0.0
-0.047356173396110535,-0.10399200767278671,9.750551223754883,-0.004705623073993721,-0.0014118201062600529,-0.004507035520755176,2.449101448059082,2019-06-21 12:36:51:458,0.0,0.0,0.0
-0.0952511727809906,-0.08004450798034668,9.700262069702148,0.008213862394306647,-0.006739442788081707,-0.0007776997345060318,2.454975128173828,2019-06-21 12:36:51:464,0.0,0.0,0.0
-0.11201442033052444,-0.06088650971651077,9.707446098327637,-0.0048388133777140085,-0.010202397446741627,-0.00011174689115100237,2.4590797424316406,2019-06-21 12:36:51:468,0.0,0.0,0.0
-0.11201442033052444,-0.0920182541012764,9.726603507995605,-0.0037732888673571103,-0.015130449087365256,-0.00024493746307293734,2.464081287384033,2019-06-21 12:36:51:473,0.0,0.0,0.0
-0.04256667569279671,-0.07046551257371902,9.77449893951416,-0.0025745737932055994,-0.007938158122307543,-0.004906607472213338,2.469083786010742,2019-06-21 12:36:51:478,0.0,0.0,0.0
-0.009040179662406445,-0.08243925869464874,9.829578399658203,0.0014211433807070943,-0.002610535310448726,-0.001310461989684481,2.4740819931030273,2019-06-21 12:36:51:483,0.0,0.0,0.0
-0.05932992324233055,-0.0848340094089508,9.808025360107422,0.0008883811255286454,-0.0063398713567721955,-0.00011174689115100237,2.479966163635254,2019-06-21 12:36:51:489,0.0,0.0,0.0
-0.04256667569279671,-0.14470274746418,9.760130882263184,0.006748766452640236,-0.004208822075984073,-0.0014436525534790934,2.4840774536132812,2019-06-21 12:36:51:493,0.0,0.0,0.0
-0.0760931745171547,-0.07046551257371902,9.764920234680176,-0.00031033404615073726,-0.00807134842602783,-0.003041939579088766,2.4899659156799316,2019-06-21 12:36:51:499,0.0,0.0,0.0
-0.05214567482471466,-0.03693901374936104,9.72420883178711,-0.00017714346610147965,-0.009270064280402316,-0.0017100338111054802,2.4940948486328125,2019-06-21 12:36:51:503,0.0,0.0,0.0
0.01730206608772278,-0.11357100307941437,9.80323600769043,0.0027530490186532175,-0.007405395867129095,0.0002878248408694478,2.499100685119629,2019-06-21 12:36:51:508,0.0,0.0,0.0
0.01730206608772278,-0.08722876012325287,9.810420036315918,0.0019539056358855436,-0.0027437258742433386,-0.0017100338111054802,2.504972457885742,2019-06-21 12:36:51:514,0.0,0.0,0.0
0.0029335683211684227,-0.0920182541012764,9.810420036315918,0.0008883811255286454,-0.002477344746654114,-0.0018432243749000928,2.5090785026550293,2019-06-21 12:36:51:518,0.0,0.0,0.0
0.029275815933942795,-0.07764975726604462,9.693077087402344,0.0018207150720909312,-0.0027437258742433386,0.0018861116714233767,2.514967441558838,2019-06-21 12:36:51:524,0.0,0.0,0.0
0.0029335683211684227,-0.056097012013196945,9.712235450744629,0.006615575628771298,-0.008870492328944154,0.0017529211076287644,2.5191006660461426,2019-06-21 12:36:51:528,0.0,0.0,0.0
0.07238131016492844,-0.11357100307941437,9.73378849029541,-0.0013758585890169264,-0.013398972018109623,0.0009537776598425092,2.5249714851379395,2019-06-21 12:36:51:534,0.0,0.0,0.0
0.01969681680202484,-0.11596575379371643,9.721814155578613,0.005949623069872562,-0.007272205043260157,0.0028184457480228253,2.5290799140930176,2019-06-21 12:36:51:538,0.0,0.0,0.0
0.05801280960440636,-0.08243925869464874,9.805630683898926,0.0003556188378409054,-0.0027437258742433386,-0.0010440808620952565,2.534966468811035,2019-06-21 12:36:51:544,0.0,0.0,0.0
0.06998655945062637,-0.10878150165081024,9.8319730758667,0.0020870961996801557,-0.005940299405314034,0.0001546342608201902,2.5390777587890625,2019-06-21 12:36:51:548,0.0,0.0,0.0
0.05801280960440636,-0.07764975726604462,9.731393814086914,0.00022242825779164786,-0.0030101070018325625,0.0008205870960478969,2.5440926551818848,2019-06-21 12:36:51:553,0.0,0.0,0.0
0.01730206608772278,-0.08243925869464874,9.73378849029541,-0.00017714346610147965,-0.004208822075984073,0.0005542059684586724,2.5490875244140625,2019-06-21 12:36:51:558,0.0,0.0,0.0
0.07956556230783463,-0.08962351083755493,9.78647232055664,0.004750907735646727,-0.005007965718826072,0.0037507796945851113,2.55496883392334,2019-06-21 12:36:51:564,0.0,0.0,0.0
0.0747760608792305,-0.11357100307941437,9.73378849029541,0.0023534773272693805,-0.0034096786932164,0.0002878248408694478,2.5590782165527344,2019-06-21 12:36:51:568,0.0,0.0,0.0
0.0747760608792305,-0.04412326216697693,9.8319730758667,-0.001642239716606151,-0.0028769164380379507,0.0006873965322532847,2.564967155456543,2019-06-21 12:36:51:574,0.0,0.0,0.0
0.06280230730772018,-0.12793950736522675,9.755340576171875,0.0027530490186532175,-0.005274346846415297,0.0006873965322532847,2.5690793991088867,2019-06-21 12:36:51:578,0.0,0.0,0.0
0.07717081159353256,-0.05370226129889488,9.748156547546387,0.000755190561734033,-0.0014118201062600529,0.0012201588524503152,2.5749711990356445,2019-06-21 12:36:51:584,0.0,0.0,0.0
0.08196030557155609,-0.056097012013196945,9.748156547546387,0.0011547622531178697,0.001651563121090355,0.002019302235217989,2.579080581665039,2019-06-21 12:36:51:588,0.0,0.0,0.0
0.06759180873632431,-0.07046551257371902,9.681103706359863,-0.00044352460994534954,-0.0016782012338492774,0.009344783634033153,2.584967613220215,2019-06-21 12:36:51:594,0.0,0.0,0.0
0.06519705802202225,-0.08962351083755493,9.755340576171875,0.005150479166956239,0.0011188008659119059,0.0053490667201947836,2.5891008377075195,2019-06-21 12:36:51:598,0.0,0.0,0.0
0.08914455771446228,-0.034544263035058975,9.810420036315918,-0.0007099057700438648,0.001251991429706518,0.007746496868497805,2.594083786010742,2019-06-21 12:36:51:603,0.0,0.0,0.0
0.10830255597829819,-0.0848340094089508,9.752945899963379,0.004484526608057502,0.0008524196733041,0.005615447847784009,2.5999650955200195,2019-06-21 12:36:51:609,0.0,0.0,0.0
0.04603906348347664,-0.08004450798034668,9.728999137878418,-0.0033737171759732733,-0.0004794860621698949,0.007746496868497805,2.6040778160095215,2019-06-21 12:36:51:613,0.0,0.0,0.0
0.06040756031870842,-0.14470274746418,9.77449893951416,0.0015543339445017069,0.001251991429706518,0.007213734613319356,2.6099653244018555,2019-06-21 12:36:51:619,0.0,0.0,0.0
0.050828561186790466,-0.14230799674987793,9.776893615722656,0.0008883811255286454,-0.003143297565627175,0.00894521168257499,2.614076614379883,2019-06-21 12:36:51:623,0.0,0.0,0.0
-0.013829679228365421,-0.04412326216697693,9.827183723449707,0.001287952816912482,-7.991434640409003e-05,0.007213734613319356,2.61910343170166,2019-06-21 12:36:51:628,0.0,0.0,0.0
0.012512567453086376,-0.08962351083755493,9.793657302856445,0.0019539056358855436,0.0004528479494109724,0.008678831075134416,2.624082565307617,2019-06-21 12:36:51:633,0.0,0.0,0.0
0.06998655945062637,-0.07525500655174255,9.805630683898926,0.0036853832252898284,0.002717087761484416,0.011742214302484824,2.629997730255127,2019-06-21 12:36:51:639,0.0,0.0,0.0
0.026881065219640732,-0.07046551257371902,9.805630683898926,0.0011547622531178697,0.0008524196733041,0.010943070399568499,2.634097099304199,2019-06-21 12:36:51:643,0.0,0.0,0.0
0.01730206608772278,-0.0920182541012764,9.808025360107422,0.0022202867634747683,0.0001864668055671025,0.011875404606205111,2.639932632446289,2019-06-21 12:36:51:649,0.0,0.0,0.0
-0.03538242727518082,-0.12793950736522675,9.819998741149902,-0.0025745737932055994,-0.0011454389786708283,0.006148210102962458,2.6450014114379883,2019-06-21 12:36:51:654,0.0,0.0,0.0
-0.05214567482471466,-0.0656760111451149,9.714630126953125,0.0015543339445017069,-0.0010122483498576347,0.009211593330312866,2.649081230163574,2019-06-21 12:36:51:658,0.0,0.0,0.0
-0.009040179662406445,-0.1183605045080185,9.860710144042969,0.0028862395824478296,0.0025838971976898037,0.013473691371740459,2.6549649238586426,2019-06-21 12:36:51:664,0.0,0.0,0.0
-0.0066454303450882435,-0.08722876012325287,9.87268352508545,0.000755190561734033,-0.001944582361438502,0.010143927536949477,2.659076690673828,2019-06-21 12:36:51:668,0.0,0.0,0.0
-0.0066454303450882435,-0.12554475665092468,9.73378849029541,-0.002308192665616375,0.0032498500166628654,0.014006453626918908,2.664970874786377,2019-06-21 12:36:51:674,0.0,0.0,0.0
-0.05693517252802849,-0.12793950736522675,9.748156547546387,0.0006219999979394207,-0.001944582361438502,0.012674548509121435,2.669078826904297,2019-06-21 12:36:51:678,0.0,0.0,0.0
-0.040171924978494644,-0.10878150165081024,9.796051979064941,-0.0013758585890169264,0.0013851819935011304,0.014672406185817643,2.6749658584594727,2019-06-21 12:36:51:684,0.0,0.0,0.0
-0.08567216992378235,-0.14230799674987793,9.808025360107422,0.0027530490186532175,0.0008524196733041,0.012940929116562009,2.679076671600342,2019-06-21 12:36:51:688,0.0,0.0,0.0
-0.0760931745171547,-0.14230799674987793,9.839157104492188,0.0006219999979394207,0.0025838971976898037,0.007613306044628867,2.68410062789917,2019-06-21 12:36:51:693,0.0,0.0,0.0
-0.12638291716575623,-0.10638675838708878,9.805630683898926,-0.004306051122535559,0.0020511348124741917,0.010676689792127925,2.6899871826171875,2019-06-21 12:36:51:699,0.0,0.0,0.0
-0.09285642206668854,-0.1566765010356903,9.748156547546387,-0.0009762868976330894,5.327622958150625e-05,0.011076260703288788,2.694080352783203,2019-06-21 12:36:51:703,0.0,0.0,0.0
-0.1215934157371521,-0.14230799674987793,9.776893615722656,0.0034190020977006037,0.0005860385457148754,0.011609022958467236,2.6999588012695312,2019-06-21 12:36:51:709,0.0,0.0,0.0
-0.10722491890192032,-0.10638675838708878,9.781682968139648,0.0031526207100370544,-0.0027437258742433386,0.014539215882097358,2.704072952270508,2019-06-21 12:36:51:713,0.0,0.0,0.0
-0.13356716930866241,-0.15907125174999237,9.77449893951416,0.0018207150720909312,0.002450706633895191,0.014672406185817643,2.7099690437316895,2019-06-21 12:36:51:719,0.0,0.0,0.0
-0.11440916359424591,-0.14709749817848206,9.757735252380371,8.92376858697129e-05,0.0008524196733041,0.013074119420282295,2.714080810546875,2019-06-21 12:36:51:723,0.0,0.0,0.0
-0.13117241859436035,-0.1303342580795288,9.784077644348145,-0.0007099057700438648,0.0021843255063059668,0.011609022958467236,2.7199878692626953,2019-06-21 12:36:51:729,0.0,0.0,0.0
-0.1814621537923813,-0.20457148551940918,9.779288291931152,-0.0035069077397678855,-0.005007965718826072,0.011875404606205111,2.724081516265869,2019-06-21 12:36:51:733,0.0,0.0,0.0
-0.16948841512203217,-0.22372949123382568,9.74576187133789,0.001687524508296319,-0.0032764881294217877,0.00894521168257499,2.7290849685668945,2019-06-21 12:36:51:738,0.0,0.0,0.0
-0.20301491022109985,-0.14230799674987793,9.767314910888672,-4.395289011588339e-05,-0.005807109101593746,0.01334050106802017,2.7349939346313477,2019-06-21 12:36:51:744,0.0,0.0,0.0
-0.12398816645145416,-0.12554475665092468,9.851130485534668,0.0014211433807070943,0.0003196573856163601,0.01533835978501368,2.7390799522399902,2019-06-21 12:36:51:748,0.0,0.0,0.0
-0.16230416297912598,-0.14949224889278412,9.839157104492188,0.001687524508296319,-0.0015450106700546653,0.007080543789450418,2.744081497192383,2019-06-21 12:36:51:753,0.0,0.0,0.0
-0.10961966961622238,-0.10638675838708878,9.77449893951416,-0.001642239716606151,-0.002477344746654114,0.007746496868497805,2.749966621398926,2019-06-21 12:36:51:759,0.0,0.0,0.0
-0.13835667073726654,-0.13991324603557587,9.798446655273438,-0.00044352460994534954,-0.0010122483498576347,0.008678831075134416,2.7540788650512695,2019-06-21 12:36:51:763,0.0,0.0,0.0
-0.18864640593528748,-0.09920250624418259,9.884657859802246,-0.0019086208441953755,-0.001944582361438502,0.008545640251265479,2.75996732711792,2019-06-21 12:36:51:769,0.0,0.0,0.0
-0.10722491890192032,-0.10159725695848465,9.79126262664795,0.0024866678910639927,-0.005407537150135584,0.00947797393775344,2.7640790939331055,2019-06-21 12:36:51:773,0.0,0.0,0.0
-0.1551199108362198,-0.1303342580795288,9.79126262664795,-0.00044352460994534954,-0.0023441541828595016,0.010543498448110339,2.769968032836914,2019-06-21 12:36:51:779,0.0,0.0,0.0
-0.08327741920948029,-0.08962351083755493,9.829578399658203,0.0003556188378409054,-0.0034096786932164,0.005881828975373233,2.774078369140625,2019-06-21 12:36:51:783,0.0,0.0,0.0
-0.11201442033052444,-0.06807076185941696,9.767314910888672,-0.0020418114079899874,-0.005540727974004522,0.00947797393775344,2.779966354370117,2019-06-21 12:36:51:789,0.0,0.0,0.0
-0.12638291716575623,-0.09441300481557846,9.743367195129395,0.00022242825779164786,-0.0034096786932164,0.0053490667201947836,2.784078598022461,2019-06-21 12:36:51:793,0.0,0.0,0.0
-0.15033040940761566,-0.0920182541012764,9.776893615722656,-0.002308192665616375,-0.003676059820805624,0.0013533494162449274,2.7900772094726562,2019-06-21 12:36:51:799,0.0,0.0,0.0
-0.10722491890192032,-0.10399200767278671,9.738577842712402,-0.002840954920794824,-0.007405395867129095,0.0028184457480228253,2.794102668762207,2019-06-21 12:36:51:803,0.0,0.0,0.0
-0.0952511727809906,-0.14949224889278412,9.784077644348145,0.0031526207100370544,-0.0015450106700546653,0.00841244994754519,2.799966812133789,2019-06-21 12:36:51:809,0.0,0.0,0.0
-0.09285642206668854,-0.1183605045080185,9.891841888427734,0.0014211433807070943,-0.004475203463647623,0.005615447847784009,2.804080009460449,2019-06-21 12:36:51:813,0.0,0.0,0.0
-0.1215934157371521,-0.11357100307941437,9.80323600769043,8.92376858697129e-05,0.002717087761484416,0.004416732513558173,2.809964179992676,2019-06-21 12:36:51:819,0.0,0.0,0.0
-0.11201442033052444,-0.17822924256324768,9.76252555847168,0.0006219999979394207,0.0005860385457148754,0.007480115740908581,2.8140783309936523,2019-06-21 12:36:51:823,0.0,0.0,0.0
-0.0952511727809906,-0.10159725695848465,9.757735252380371,-0.00044352460994534954,-0.008870492328944154,0.00428354194976356,2.819103240966797,2019-06-21 12:36:51:828,0.0,0.0,0.0
-0.06651417165994644,-0.12793950736522675,9.781682968139648,-0.0032405266121786607,-0.002610535310448726,0.0032180174394066618,2.824082851409912,2019-06-21 12:36:51:833,0.0,0.0,0.0
-0.15272516012191772,-0.14949224889278412,9.841551780700684,-0.0005767152062492525,-0.0028769164380379507,0.006015019279093521,2.829965114593506,2019-06-21 12:36:51:839,0.0,0.0,0.0
-0.0689089223742485,-0.10399200767278671,9.79126262664795,-0.0019086208441953755,-0.0003462954983752826,0.009344783634033153,2.834075927734375,2019-06-21 12:36:51:843,0.0,0.0,0.0
-0.16230416297912598,-0.1183605045080185,9.750551223754883,-0.0015090491528115383,0.004048993399430539,0.008678831075134416,2.839975357055664,2019-06-21 12:36:51:849,0.0,0.0,0.0
-0.10004066675901413,-0.11357100307941437,9.738577842712402,0.0003556188378409054,-7.991434640409003e-05,0.006680972358140907,2.844087600708008,2019-06-21 12:36:51:853,0.0,0.0,0.0
-0.09046167135238647,-0.06328126043081284,9.77449893951416,-0.00044352460994534954,-0.00460839376736791,0.01147583265474695,2.8499670028686523,2019-06-21 12:36:51:859,0.0,0.0,0.0
-0.09764591604471207,-0.13272900879383087,9.810420036315918,0.0008883811255286454,-0.001944582361438502,0.012541357165103849,2.8540778160095215,2019-06-21 12:36:51:863,0.0,0.0,0.0
-0.0689089223742485,-0.08243925869464874,9.77449893951416,-0.0037732888673571103,-0.003143297565627175,0.014139643930639196,2.8599681854248047,2019-06-21 12:36:51:869,0.0,0.0,0.0
-0.0689089223742485,-0.09680775552988052,9.79126262664795,0.0004888094016355178,-0.0030101070018325625,0.014805597529835233,2.864079475402832,2019-06-21 12:36:51:873,0.0,0.0,0.0
-0.0497509241104126,-0.1111762523651123,9.757735252380371,0.0015543339445017069,-0.005007965718826072,0.012940929116562009,2.8699684143066406,2019-06-21 12:36:51:879,0.0,0.0,0.0
-0.09764591604471207,-0.14230799674987793,9.767314910888672,-0.0035069077397678855,-0.003942440948394849,0.018002170020608627,2.8740787506103516,2019-06-21 12:36:51:883,0.0,0.0,0.0
-0.0497509241104126,-0.0848340094089508,9.781682968139648,0.0003556188378409054,-0.0016782012338492774,0.019067694530965525,2.879965305328369,2019-06-21 12:36:51:889,0.0,0.0,0.0
-0.0689089223742485,-0.10399200767278671,9.824789047241211,0.001687524508296319,0.0005860385457148754,0.02586041562515968,2.8840789794921875,2019-06-21 12:36:51:893,0.0,0.0,0.0
-0.04256667569279671,-0.03693901374936104,9.812814712524414,0.0011547622531178697,-0.004741584591236848,0.02133193489569691,2.88999080657959,2019-06-21 12:36:51:899,0.0,0.0,0.0
-0.05932992324233055,-0.07286025583744049,9.750551223754883,0.0006219999979394207,-0.003942440948394849,0.023596175260428294,2.8940820693969727,2019-06-21 12:36:51:903,0.0,0.0,0.0
-0.0689089223742485,-0.10638675838708878,9.77449893951416,0.0036853832252898284,-0.005007965718826072,0.02719232074295715,2.899080276489258,2019-06-21 12:36:51:908,0.0,0.0,0.0
-0.040171924978494644,-0.07525500655174255,9.755340576171875,-0.0021750019717846,-0.006872633611950644,0.026126796232600252,2.904083251953125,2019-06-21 12:36:51:913,0.0,0.0,0.0
-0.06651417165994644,-0.09680775552988052,9.793657302856445,0.0003556188378409054,0.0013851819935011304,0.02958975037111152,2.909966468811035,2019-06-21 12:36:51:919,0.0,0.0,0.0
-0.11919866502285004,-0.09441300481557846,9.738577842712402,0.004484526608057502,-0.005274346846415297,0.029190178419653358,2.914076805114746,2019-06-21 12:36:51:923,0.0,0.0,0.0
-0.047356173396110535,-0.05849176272749901,9.836762428283691,0.005150479166956239,-0.0018113917976438896,0.028923797812212784,2.9199600219726562,2019-06-21 12:36:51:929,0.0,0.0,0.0
-0.07130367308855057,-0.10638675838708878,9.760130882263184,0.0015543339445017069,-0.003676059820805624,0.03158761012840233,2.924075126647949,2019-06-21 12:36:51:933,0.0,0.0,0.0
-0.09046167135238647,-0.022570515051484108,9.764920234680176,0.0038185737890844406,0.0004528479494109724,0.03358546780509854,2.929107666015625,2019-06-21 12:36:51:938,0.0,0.0,0.0
-0.06651417165994644,-0.0920182541012764,9.678709030151367,0.008879815473354034,-0.001944582361438502,0.03584970608923532,2.934103488922119,2019-06-21 12:36:51:943,0.0,0.0,0.0
-0.08327741920948029,-0.1183605045080185,9.767314910888672,0.007015147580229461,-0.0011454389786708283,0.03451780097143785,2.9390835762023926,2019-06-21 12:36:51:948,0.0,0.0,0.0
-0.05693517252802849,-0.08722876012325287,9.738577842712402,0.003285811533905992,-0.0038092503846002368,0.03571651890640694,2.9440789222717285,2019-06-21 12:36:51:953,0.0,0.0,0.0
-0.10961966961622238,-0.14230799674987793,9.717024803161621,0.0058164322460036244,-0.003542869257011012,0.03251994329474164,2.9499707221984863,2019-06-21 12:36:51:959,0.0,0.0,0.0
-0.10961966961622238,-0.12554475665092468,9.781682968139648,0.007148337883949748,0.0003196573856163601,0.036382471465305675,2.9540810585021973,2019-06-21 12:36:51:963,0.0,0.0,0.0
-0.09764591604471207,-0.07286025583744049,9.79126262664795,0.006615575628771298,-0.004874774894957135,0.03398503975655671,2.959963798522949,2019-06-21 12:36:51:969,0.0,0.0,0.0
-0.07369842380285263,-0.10399200767278671,9.76252555847168,0.0023534773272693805,-0.000213104918326025,0.031054846832926582,2.9640769958496094,2019-06-21 12:36:51:973,0.0,0.0,0.0
-0.10004066675901413,-0.0848340094089508,9.819998741149902,0.004084954916673665,-0.002610535310448726,0.034251420363997274,2.9690847396850586,2019-06-21 12:36:51:978,0.0,0.0,0.0
-0.13596192002296448,-0.08004450798034668,9.812814712524414,0.001287952816912482,-0.002610535310448726,0.03398503975655671,2.9740819931030273,2019-06-21 12:36:51:983,0.0,0.0,0.0
-0.0952511727809906,-0.12793950736522675,9.764920234680176,0.007414719011538973,0.0021843255063059668,0.027458701350397727,2.9790821075439453,2019-06-21 12:36:51:988,0.0,0.0,0.0
-0.1814621537923813,-0.09680775552988052,9.752945899963379,0.002619858454858605,5.327622958150625e-05,0.028391034516737034,2.984100341796875,2019-06-21 12:36:51:993,0.0,0.0,0.0
-0.13835667073726654,-0.08722876012325287,9.757735252380371,0.0031526207100370544,-0.00514115602254636,0.031054846832926582,2.9899682998657227,2019-06-21 12:36:51:999,0.0,0.0,0.0
-0.13835667073726654,-0.14949224889278412,9.78647232055664,0.007947481266717422,-0.0006126766584737978,0.029856130978552095,2.9940810203552246,2019-06-21 12:36:52:003,0.0,0.0,0.0
-0.10483016818761826,-0.12554475665092468,9.796051979064941,0.0056832419422833385,-0.0004794860621698949,0.027725081957838297,2.9999656677246094,2019-06-21 12:36:52:009,0.0,0.0,0.0
-0.16230416297912598,-0.14709749817848206,9.846341133117676,0.005017288863235951,-0.00074586722226841,0.030921655488908996,3.004077911376953,2019-06-21 12:36:52:013,0.0,0.0,0.0
-0.13835667073726654,-0.09441300481557846,9.738577842712402,0.0038185737890844406,-0.0028769164380379507,0.028257845253314047,3.0099658966064453,2019-06-21 12:36:52:019,0.0,0.0,0.0
-0.15033040940761566,-0.0656760111451149,9.748156547546387,0.0024866678910639927,-0.0016782012338492774,0.026126796232600252,3.014078140258789,2019-06-21 12:36:52:023,0.0,0.0,0.0
-0.1215934157371521,-0.13272900879383087,9.834367752075195,0.005550051118414401,-0.005407537150135584,0.026526368184058412,3.0199713706970215,2019-06-21 12:36:52:029,0.0,0.0,0.0
-0.08567216992378235,-0.12315000593662262,9.79126262664795,0.0038185737890844406,-0.0016782012338492774,0.02133193489569691,3.0240793228149414,2019-06-21 12:36:52:033,0.0,0.0,0.0
-0.08327741920948029,-0.10878150165081024,9.781682968139648,0.001687524508296319,0.0011188008659119059,0.02625998549602324,3.029987335205078,2019-06-21 12:36:52:039,0.0,0.0,0.0
-0.0689089223742485,-0.14230799674987793,9.812814712524414,0.006349194501182075,-0.006473061660492482,0.024395319163344618,3.034079074859619,2019-06-21 12:36:52:043,0.0,0.0,0.0
-0.06411942094564438,-0.13991324603557587,9.808025360107422,0.0046177169117777896,-0.003542869257011012,0.017602600149745067,3.0390825271606445,2019-06-21 12:36:52:048,0.0,0.0,0.0
-0.061724673956632614,-0.11357100307941437,9.77449893951416,0.002619858454858605,-0.00460839376736791,0.0203996017293576,3.0449695587158203,2019-06-21 12:36:52:054,0.0,0.0,0.0
-0.0760931745171547,-0.13512374460697174,9.836762428283691,0.0028862395824478296,-0.009802826535580764,0.01693664655054903,3.049078941345215,2019-06-21 12:36:52:058,0.0,0.0,0.0
-0.0497509241104126,-0.09680775552988052,9.755340576171875,0.005550051118414401,-0.003942440948394849,0.01640388429537058,3.0540809631347656,2019-06-21 12:36:52:063,0.0,0.0,0.0
0.005328318104147911,-0.0848340094089508,9.841551780700684,-0.0009762868976330894,-0.004741584591236848,0.014539215882097358,3.05908203125,2019-06-21 12:36:52:068,0.0,0.0,0.0
0.026881065219640732,-0.1638607531785965,9.800841331481934,0.0015543339445017069,-0.0003462954983752826,0.014938787833555518,3.0649709701538086,2019-06-21 12:36:52:074,0.0,0.0,0.0
0.029275815933942795,-0.11596575379371643,9.78647232055664,0.0031526207100370544,-0.005940299405314034,0.01920088587498311,3.0690994262695312,2019-06-21 12:36:52:078,0.0,0.0,0.0
0.029275815933942795,-0.10638675838708878,9.779288291931152,0.003019430146242442,-0.008870492328944154,0.012274976557663273,3.074094772338867,2019-06-21 12:36:52:083,0.0,0.0,0.0
0.04124956205487251,-0.17583449184894562,9.79126262664795,0.006216004197461787,-0.006073490229182971,0.015071978137275805,3.079082489013672,2019-06-21 12:36:52:088,0.0,0.0,0.0
0.026881065219640732,-0.10878150165081024,9.851130485534668,0.0014211433807070943,-0.002477344746654114,0.007613306044628867,3.084972381591797,2019-06-21 12:36:52:094,0.0,0.0,0.0
0.029275815933942795,-0.1303342580795288,9.808025360107422,0.002619858454858605,0.0008524196733041,0.009744355585491315,3.089080333709717,2019-06-21 12:36:52:098,0.0,0.0,0.0
0.08196030557155609,-0.13272900879383087,9.736183166503906,0.004884098039367014,-0.002210963619064889,0.0053490667201947836,3.0940794944763184,2019-06-21 12:36:52:103,0.0,0.0,0.0
0.03406531363725662,-0.06328126043081284,9.834367752075195,0.0003556188378409054,-0.005007965718826072,0.008812021378854704,3.0999631881713867,2019-06-21 12:36:52:109,0.0,0.0,0.0
0.07956556230783463,-0.11596575379371643,9.760130882263184,0.0018207150720909312,-0.006473061660492482,0.007613306044628867,3.1040802001953125,2019-06-21 12:36:52:113,0.0,0.0,0.0
0.09632880985736847,-0.1303342580795288,9.769709587097168,0.002619858454858605,-0.007938158122307543,0.008146068299807315,3.1090831756591797,2019-06-21 12:36:52:118,0.0,0.0,0.0
0.14182904362678528,-0.07286025583744049,9.81520938873291,0.005017288863235951,-0.002077772925233114,0.0014865399800395396,3.1140928268432617,2019-06-21 12:36:52:123,0.0,0.0,0.0
0.1538027971982956,-0.12554475665092468,9.764920234680176,0.002619858454858605,0.0008524196733041,0.0010869682236371214,3.119978904724121,2019-06-21 12:36:52:129,0.0,0.0,0.0
0.12985530495643616,-0.16146600246429443,9.74576187133789,0.0014211433807070943,-0.007139014739539869,0.0034843985669958865,3.1249780654907227,2019-06-21 12:36:52:134,0.0,0.0,0.0
0.16098704934120178,-0.06807076185941696,9.769709587097168,-0.000843096333838477,-0.010335588790759215,0.0037507796945851113,3.1290788650512695,2019-06-21 12:36:52:138,0.0,0.0,0.0
0.17775028944015503,-0.14230799674987793,9.757735252380371,-0.001242668025222314,-0.005007965718826072,-0.0015768431172737056,3.1340818405151367,2019-06-21 12:36:52:143,0.0,0.0,0.0
0.2783297896385193,-0.08722876012325287,9.738577842712402,-0.0007099057700438648,-0.004874774894957135,0.005215875896325846,3.139963150024414,2019-06-21 12:36:52:149,0.0,0.0,0.0
0.21127678453922272,-0.09920250624418259,9.819998741149902,-0.001242668025222314,-0.0030101070018325625,-0.003041939579088766,3.144078254699707,2019-06-21 12:36:52:153,0.0,0.0,0.0
0.23522429168224335,-0.14230799674987793,9.769709587097168,0.001687524508296319,-0.0038092503846002368,-0.005838941678849949,3.1499671936035156,2019-06-21 12:36:52:159,0.0,0.0,0.0
0.20169779658317566,-0.07525500655174255,9.772104263305664,0.0003556188378409054,-0.002610535310448726,-0.0018432243749000928,3.154080390930176,2019-06-21 12:36:52:163,0.0,0.0,0.0
0.29988253116607666,-0.1303342580795288,9.78647232055664,0.001287952816912482,-0.002477344746654114,-0.0038410829618564396,3.15997314453125,2019-06-21 12:36:52:169,0.0,0.0,0.0
0.23522429168224335,-0.11357100307941437,9.70505142211914,0.0028862395824478296,-0.0038092503846002368,-0.0034415112704726026,3.1640830039978027,2019-06-21 12:36:52:173,0.0,0.0,0.0
0.29509302973747253,0.003771730698645115,9.714630126953125,-0.0007099057700438648,0.0003196573856163601,-0.003175130142883378,3.169961929321289,2019-06-21 12:36:52:179,0.0,0.0,0.0
0.2711455225944519,-0.027360014617443085,9.748156547546387,-4.395289011588339e-05,-0.0030101070018325625,-0.004640226344624114,3.1740732192993164,2019-06-21 12:36:52:183,0.0,0.0,0.0
0.30706676840782166,-0.10638675838708878,9.755340576171875,0.006216004197461787,-0.000213104918326025,-0.004107464089445664,3.179966449737549,2019-06-21 12:36:52:189,0.0,0.0,0.0
0.2591717839241028,-0.015386266633868217,9.666735649108887,0.0003556188378409054,-0.00074586722226841,-0.005705750854981011,3.1840782165527344,2019-06-21 12:36:52:193,0.0,0.0,0.0
0.2783297896385193,-0.029754765331745148,9.728999137878418,-0.0009762868976330894,-0.003676059820805624,-0.007570418748105583,3.1899642944335938,2019-06-21 12:36:52:199,0.0,0.0,0.0
0.2639612853527069,-0.09680775552988052,9.693077087402344,0.0023534773272693805,-0.0003462954983752826,-0.005039798296082276,3.194077491760254,2019-06-21 12:36:52:203,0.0,0.0,0.0
0.2591717839241028,-0.07286025583744049,9.79126262664795,-0.00031033404615073726,-0.0014118201062600529,0.0010869682236371214,3.1999588012695312,2019-06-21 12:36:52:209,0.0,0.0,0.0
0.27593502402305603,-0.056097012013196945,9.848735809326172,0.0014211433807070943,0.005913661552629436,-0.0009108902983006441,3.204073905944824,2019-06-21 12:36:52:213,0.0,0.0,0.0
0.29509302973747253,-0.1375184953212738,9.738577842712402,0.0003556188378409054,0.008577472828521681,-0.0033083207066779904,3.209109306335449,2019-06-21 12:36:52:218,0.0,0.0,0.0
0.2591717839241028,-0.12075525522232056,9.707446098327637,0.0028862395824478296,0.0001864668055671025,0.0001546342608201902,3.214972496032715,2019-06-21 12:36:52:224,0.0,0.0,0.0
0.2376190423965454,-0.13512374460697174,9.671525001525879,0.0015543339445017069,0.003116659452868253,-0.0033083207066779904,3.21907901763916,2019-06-21 12:36:52:228,0.0,0.0,0.0
0.31904053688049316,-0.08962351083755493,9.750551223754883,-0.00031033404615073726,-0.0028769164380379507,-0.0053061794236715,3.2249717712402344,2019-06-21 12:36:52:234,0.0,0.0,0.0
0.33340901136398315,-0.1111762523651123,9.781682968139648,0.0006219999979394207,0.0025838971976898037,-0.003974273525651052,3.229081153869629,2019-06-21 12:36:52:238,0.0,0.0,0.0
0.31425103545188904,-0.10399200767278671,9.836762428283691,-0.0035069077397678855,0.0003196573856163601,-0.010900183103045216,3.234083652496338,2019-06-21 12:36:52:243,0.0,0.0,0.0
0.33340901136398315,-0.07764975726604462,9.875078201293945,0.0024866678910639927,0.008177900877063521,-0.003974273525651052,3.239081382751465,2019-06-21 12:36:52:248,0.0,0.0,0.0
0.2519875466823578,-0.06328126043081284,9.697867393493652,0.0006219999979394207,-0.0004794860621698949,-0.009435086641230155,3.24497127532959,2019-06-21 12:36:52:254,0.0,0.0,0.0
0.2591717839241028,-0.020175766199827194,9.702656745910645,-0.0024413832294109873,-0.003143297565627175,-0.009701468288968031,3.2490806579589844,2019-06-21 12:36:52:258,0.0,0.0,0.0
0.2448032945394516,-0.048912763595581055,9.740972518920898,-0.0037732888673571103,-0.004741584591236848,-0.00823637182715297,3.254094123840332,2019-06-21 12:36:52:263,0.0,0.0,0.0
0.3238300383090973,-0.01059676706790924,9.855920791625977,0.0031526207100370544,-0.0012786295424654405,-0.004507035520755176,3.25997257232666,2019-06-21 12:36:52:269,0.0,0.0,0.0
0.29509302973747253,-0.06328126043081284,9.841551780700684,0.000755190561734033,0.0013851819935011304,-0.009168706033789581,3.264078140258789,2019-06-21 12:36:52:273,0.0,0.0,0.0
0.26156654953956604,-0.056097012013196945,9.776893615722656,0.00435133604426289,0.003915802835635926,-0.009435086641230155,3.269967555999756,2019-06-21 12:36:52:279,0.0,0.0,0.0
0.2519875466823578,-0.022570515051484108,9.748156547546387,0.0015543339445017069,0.0035162311442520897,-0.011699327005961541,3.2740793228149414,2019-06-21 12:36:52:283,0.0,0.0,0.0
0.21606628596782684,-0.03214951604604721,9.671525001525879,-0.0009762868976330894,-0.002210963619064889,-0.006238513110159461,3.279080867767334,2019-06-21 12:36:52:288,0.0,0.0,0.0
0.2974877953529358,-0.08243925869464874,9.700262069702148,0.0003556188378409054,-0.007804967298438606,-0.00823637182715297,3.2849769592285156,2019-06-21 12:36:52:294,0.0,0.0,0.0
0.2663560211658478,-0.01059676706790924,9.805630683898926,-0.004172860558740947,0.0007192291095094877,-0.013297613771496887,3.2890806198120117,2019-06-21 12:36:52:298,0.0,0.0,0.0
0.28790879249572754,-0.06328126043081284,9.855920791625977,-0.00017714346610147965,0.005380899297450987,-0.007037656492927135,3.294968605041504,2019-06-21 12:36:52:304,0.0,0.0,0.0
0.2663560211658478,-0.13272900879383087,9.798446655273438,0.0006219999979394207,0.007378757494295846,-0.0053061794236715,3.2990922927856445,2019-06-21 12:36:52:308,0.0,0.0,0.0
0.2567770481109619,-0.09920250624418259,9.719419479370117,0.002619858454858605,0.004315374527019763,-0.0034415112704726026,3.3040876388549805,2019-06-21 12:36:52:313,0.0,0.0,0.0
0.24240854382514954,-0.10159725695848465,9.709840774536133,0.0038185737890844406,-0.003143297565627175,-0.005972131982570236,3.30908203125,2019-06-21 12:36:52:318,0.0,0.0,0.0
0.27593502402305603,-0.16146600246429443,9.78647232055664,0.0023534773272693805,-0.010601969398199788,-0.006904466189206847,3.3140811920166016,2019-06-21 12:36:52:323,0.0,0.0,0.0
