ACCELEROMETER X (m/s²),ACCELEROMETER Y (m/s²),ACCELEROMETER Z (m/s²),GYROSCOPE X (rad/s),GYROSCOPE Y (rad/s),GYROSCOPE Z (rad/s),Time since start in ms ,YYYY-MO-DD HH-MI-SS_SSS,MagX,MagY,MagZ
0.047432806342840195,0.00028736997046507895,9.782660484313965,-0.0009693609883157694,-0.0030763026795291946,-0.001843890295209775,0.0,2019-06-21 14:29:10:767,0.0,0.0,0.0
0.08574879914522171,0.0362086147069931,9.818581581115723,0.0022272128028292507,-0.005873304779290378,-0.0011779374762367137,0.005000591278076172,2019-06-21 14:29:10:772,0.0,0.0,0.0
0.061801306903362274,0.0362086147069931,9.780265808105469,-0.0004365987006280297,-0.00121163465636746,-0.0025098431141828367,0.009130001068115234,2019-06-21 14:29:10:776,0.0,0.0,0.0
0.07138030230998993,0.10326160490512848,9.744344711303711,0.0002293541671089677,-0.003742255498502256,0.0010863023033274393,0.015004158020019531,2019-06-21 14:29:10:782,0.0,0.0,0.0
0.03066955879330635,0.007471619173884392,9.806608200073242,-0.0008361704245211573,-0.004141827189886093,-0.002776224241772061,0.019119739532470703,2019-06-21 14:29:10:786,0.0,0.0,0.0
0.07138030230998993,0.03381386399269104,9.830554962158203,0.005290595770105333,-0.0002793006447865926,-0.002243461986593612,0.02500009536743164,2019-06-21 14:29:10:792,0.0,0.0,0.0
0.061801306903362274,0.021840117871761322,9.801817893981934,0.0011616881624351898,-0.0038754460622968685,-0.0061059885967116945,0.029116153717041016,2019-06-21 14:29:10:796,0.0,0.0,0.0
0.01630106195807457,0.045787613838911057,9.816186904907227,0.0002293541671089677,0.0002534616591557925,2.0777729983790183e-05,0.03415346145629883,2019-06-21 14:29:10:801,0.0,0.0,0.0
0.03785380721092224,0.021840117871761322,9.852108001708984,0.003958690132159211,-0.0034758743709130315,0.000420349451845087,0.039278507232666016,2019-06-21 14:29:10:806,0.0,0.0,0.0
0.021090559661388397,0.06015611067414284,9.794633865356445,0.0019608315452028634,-0.0016112063477512967,-0.00104474684742352,0.044281005859375,2019-06-21 14:29:10:811,0.0,0.0,0.0
0.040248557925224304,0.021840117871761322,9.749134063720703,-0.002434457190056505,-0.004674589445064542,-0.0009115562836289078,0.049275875091552734,2019-06-21 14:29:10:816,0.0,0.0,0.0
0.04982755705714226,0.0362086147069931,9.746739387512207,0.0032927373131861493,-0.002010778039135134,-0.004241320443512797,0.0543217658996582,2019-06-21 14:29:10:821,0.0,0.0,0.0
0.04503805935382843,0.0266296174377203,9.782660484313965,0.0036923090045699854,-0.003742255498502256,-0.0021102714227989997,0.05927610397338867,2019-06-21 14:29:10:826,0.0,0.0,0.0
0.013906311243772507,0.002682119607925415,9.773080825805664,0.0014280692900244143,-0.003209493243323807,-0.005440035517664307,0.06428289413452148,2019-06-21 14:29:10:831,0.0,0.0,0.0
0.04503805935382843,0.03381386399269104,9.770686149597168,9.616359518703274e-05,-0.0065392573381891144,-0.0007783657198342955,0.06927776336669922,2019-06-21 14:29:10:836,0.0,0.0,0.0
0.06419605761766434,0.045787613838911057,9.794633865356445,-0.00216807606246728,-0.0053405425241119285,0.0005535400481489899,0.0744166374206543,2019-06-21 14:29:10:841,0.0,0.0,0.0
0.054617054760456085,0.024234866723418236,9.744344711303711,-0.001635313807288831,-0.000945253463759654,-0.002376652550388224,0.0800175666809082,2019-06-21 14:29:10:847,0.0,0.0,0.0
0.04503805935382843,0.012261118739843369,9.789844512939453,0.001294878726229802,-0.008403925751462336,0.00015396830800121713,0.08499860763549805,2019-06-21 14:29:10:852,0.0,0.0,0.0
-0.005251686088740826,0.0362086147069931,9.746739387512207,0.0006289259072567405,-0.005074161396522704,-0.0029094148055666736,0.08911275863647461,2019-06-21 14:29:10:856,0.0,0.0,0.0
0.06898555159568787,-0.002107379725202918,9.799423217773438,-0.001102551552110382,-0.0036090649347076437,-0.003974939315923572,0.09418630599975586,2019-06-21 14:29:10:861,0.0,0.0,0.0
0.04503805935382843,0.007471619173884392,9.8329496383667,-0.00216807606246728,-0.006006495083010664,-0.0011779374762367137,0.10001039505004883,2019-06-21 14:29:10:867,0.0,0.0,0.0
0.0665908083319664,0.0625508651137352,9.80421257019043,0.004091880695953822,-0.007871162976135238,-0.000378793995941168,0.10500144958496094,2019-06-21 14:29:10:872,0.0,0.0,0.0
0.054617054760456085,0.05297186225652695,9.732370376586914,-0.0036331725242823402,-0.004674589445064542,0.001752255187319082,0.1091160774230957,2019-06-21 14:29:10:876,0.0,0.0,0.0
0.02348531037569046,0.04099811613559723,9.758712768554688,0.0016944504176136389,-0.00400863662609148,0.0008199211757382146,0.11499929428100586,2019-06-21 14:29:10:882,0.0,0.0,0.0
0.04503805935382843,0.0362086147069931,9.835344314575195,0.0010284975986405774,-0.0025435404243507455,-0.004907273262485858,0.11911630630493164,2019-06-21 14:29:10:886,0.0,0.0,0.0
0.047432806342840195,0.0266296174377203,9.876055717468262,0.0007621164710513528,-0.004408208317475317,-0.003575367624539735,0.1249995231628418,2019-06-21 14:29:10:892,0.0,0.0,0.0
0.06419605761766434,0.021840117871761322,9.837739944458008,-0.002434457190056505,-0.0026767309881453576,0.0013526834959352448,0.12913274765014648,2019-06-21 14:29:10:896,0.0,0.0,0.0
0.054617054760456085,0.017050618305802345,9.859292030334473,-0.0042991253432554015,-0.006006495083010664,-0.004241320443512797,0.13500261306762695,2019-06-21 14:29:10:902,0.0,0.0,0.0
0.07856455445289612,0.021840117871761322,9.773080825805664,0.0011616881624351898,-0.0073384007209567875,-0.0009115562836289078,0.13913631439208984,2019-06-21 14:29:10:906,0.0,0.0,0.0
0.04503805935382843,0.017050618305802345,9.806608200073242,0.003825499568364598,-0.004408208317475317,-0.005173654390075082,0.1450028419494629,2019-06-21 14:29:10:912,0.0,0.0,0.0
0.05222230777144432,0.05057711526751518,9.770686149597168,0.0022272128028292507,-0.0036090649347076437,0.0005535400481489899,0.14911127090454102,2019-06-21 14:29:10:916,0.0,0.0,0.0
0.04264330863952637,0.021840117871761322,9.744344711303711,0.0016944504176136389,-0.004275017753680705,2.0777729983790183e-05,0.15500354766845703,2019-06-21 14:29:10:922,0.0,0.0,0.0
0.05222230777144432,0.00986636895686388,9.835344314575195,-0.000702979860726545,-0.0036090649347076437,0.002684589133881368,0.15911626815795898,2019-06-21 14:29:10:926,0.0,0.0,0.0
0.08814354985952377,0.038603365421295166,9.837739944458008,0.0014280692900244143,-0.0053405425241119285,0.0014858740597298572,0.16499853134155273,2019-06-21 14:29:10:932,0.0,0.0,0.0
0.047432806342840195,0.014655868522822857,9.780265808105469,9.616359518703274e-05,-0.003742255498502256,-0.0009115562836289078,0.1691126823425293,2019-06-21 14:29:10:936,0.0,0.0,0.0
0.07616980373859406,0.0362086147069931,9.801817893981934,-0.0027008383176457293,-0.0038754460622968685,-0.0033089864969505106,0.17432022094726562,2019-06-21 14:29:10:941,0.0,0.0,0.0
0.02348531037569046,0.05776136368513107,9.816186904907227,0.0008953070348459651,-0.006272876210599889,-0.003575367624539735,0.17912817001342773,2019-06-21 14:29:10:946,0.0,0.0,0.0
0.08335405588150024,0.0362086147069931,9.809002876281738,-0.0012357421159049941,-0.0022771592967615207,-0.003974939315923572,0.1850438117980957,2019-06-21 14:29:10:952,0.0,0.0,0.0
0.07856455445289612,0.00986636895686388,9.789844512939453,0.0010284975986405774,-0.004408208317475317,-0.005173654390075082,0.18911314010620117,2019-06-21 14:29:10:956,0.0,0.0,0.0
0.04982755705714226,0.012261118739843369,9.732370376586914,-0.0032336005728241784,-0.00480778026893348,-0.002376652550388224,0.19502019882202148,2019-06-21 14:29:10:962,0.0,0.0,0.0
0.03785380721092224,0.00028736997046507895,9.787449836730957,0.0031595467493915367,-0.0028099215519399702,-0.0021102714227989997,0.1991133689880371,2019-06-21 14:29:10:966,0.0,0.0,0.0
0.033064309507608414,0.04099811613559723,9.7515287399292,-0.0027008383176457293,-0.0026767309881453576,-0.0014443186038259382,0.20499849319458008,2019-06-21 14:29:10:972,0.0,0.0,0.0
0.0665908083319664,0.031419117003679276,9.73476505279541,0.0032927373131861493,-0.0013448252201620722,-0.004241320443512797,0.2091078758239746,2019-06-21 14:29:10:976,0.0,0.0,0.0
0.03545906022191048,0.05297186225652695,9.770686149597168,0.0032927373131861493,-0.0065392573381891144,-0.004241320443512797,0.2149968147277832,2019-06-21 14:29:10:982,0.0,0.0,0.0
0.06898555159568787,0.06015611067414284,9.775476455688477,-0.002567647753851117,-0.0026767309881453576,-0.003974939315923572,0.22000360488891602,2019-06-21 14:29:10:987,0.0,0.0,0.0
0.03785380721092224,0.031419117003679276,9.80421257019043,0.0007621164710513528,-0.005873304779290378,-0.0015775091676205506,0.22411584854125977,2019-06-21 14:29:10:991,0.0,0.0,0.0
0.061801306903362274,0.031419117003679276,9.79223918914795,-0.000702979860726545,-0.006938829289647276,-0.005440035517664307,0.22999906539916992,2019-06-21 14:29:10:997,0.0,0.0,0.0
0.09532780200242996,0.03381386399269104,9.801817893981934,-0.005098268726023076,-0.004940970572653767,-0.005706416645253532,0.2350001335144043,2019-06-21 14:29:11:002,0.0,0.0,0.0
0.05940655618906021,0.0266296174377203,9.835344314575195,0.002493593930418475,-0.0022771592967615207,-0.0050404640863547946,0.23999404907226562,2019-06-21 14:29:11:007,0.0,0.0,0.0
0.05940655618906021,-0.006896879058331251,9.818581581115723,-0.0005697892969319327,-0.0030763026795291946,-0.0061059885967116945,0.24411344528198242,2019-06-21 14:29:11:011,0.0,0.0,0.0
0.04264330863952637,0.017050618305802345,9.801817893981934,0.0007621164710513528,-0.003342683807118419,0.0012194929321406327,0.24999380111694336,2019-06-21 14:29:11:017,0.0,0.0,0.0
0.06898555159568787,0.05057711526751518,9.876055717468262,-0.0032336005728241784,-0.0014780157839566846,-0.004241320443512797,0.25411272048950195,2019-06-21 14:29:11:021,0.0,0.0,0.0
0.061801306903362274,0.024234866723418236,9.809002876281738,0.0014280692900244143,-0.004408208317475317,0.0016190646235244696,0.2599935531616211,2019-06-21 14:29:11:027,0.0,0.0,0.0
0.05701180547475815,0.0625508651137352,9.780265808105469,0.001827640981408251,-0.006006495083010664,-0.00104474684742352,0.2649979591369629,2019-06-21 14:29:11:032,0.0,0.0,0.0
0.028274809941649437,0.007471619173884392,9.828160285949707,0.0016944504176136389,-0.006938829289647276,-0.007837466186115978,0.26911306381225586,2019-06-21 14:29:11:036,0.0,0.0,0.0
0.03066955879330635,0.038603365421295166,9.753923416137695,0.0010284975986405774,-0.000146110064737335,-0.006505560028021206,0.27412939071655273,2019-06-21 14:29:11:041,0.0,0.0,0.0
0.08335405588150024,0.017050618305802345,9.809002876281738,-0.0004365987006280297,-0.0026767309881453576,-0.001977080859004387,0.27999258041381836,2019-06-21 14:29:11:047,0.0,0.0,0.0
0.08574879914522171,-0.004502129275351763,9.844923973083496,0.003825499568364598,-0.006272876210599889,-0.002376652550388224,0.28411340713500977,2019-06-21 14:29:11:051,0.0,0.0,0.0
0.018695810809731483,0.05297186225652695,9.81379222869873,-3.702698079856355e-05,-0.005873304779290378,-0.002643033677977449,0.2899928092956543,2019-06-21 14:29:11:057,0.0,0.0,0.0
0.054617054760456085,0.024234866723418236,9.756318092346191,-0.002034885498672668,-0.007205210417236501,-0.003175795933155898,0.29413366317749023,2019-06-21 14:29:11:061,0.0,0.0,0.0
0.04503805935382843,0.04818236455321312,9.844923973083496,-0.00017021755678415983,-0.0053405425241119285,-0.0021102714227989997,0.29999399185180664,2019-06-21 14:29:11:067,0.0,0.0,0.0
0.03066955879330635,0.038603365421295166,9.818581581115723,-3.702698079856355e-05,-0.003209493243323807,-0.0034421770607451223,0.30411386489868164,2019-06-21 14:29:11:071,0.0,0.0,0.0
0.03785380721092224,0.045787613838911057,9.789844512939453,0.001294878726229802,-0.002010778039135134,-0.0013111280400313259,0.3091282844543457,2019-06-21 14:29:11:076,0.0,0.0,0.0
0.08095930516719818,0.0266296174377203,9.811397552490234,0.004757833514926884,-0.000146110064737335,-0.004108129879718184,0.31499528884887695,2019-06-21 14:29:11:082,0.0,0.0,0.0
0.10490679740905762,0.0625508651137352,9.768291473388672,0.0007621164710513528,-0.006006495083010664,-0.0017106997314151628,0.31999921798706055,2019-06-21 14:29:11:087,0.0,0.0,0.0
0.06898555159568787,0.021840117871761322,9.801817893981934,-0.0029672194452349536,-0.002143968602929746,-0.0029094148055666736,0.32412052154541016,2019-06-21 14:29:11:091,0.0,0.0,0.0
0.05940655618906021,0.021840117871761322,9.789844512939453,-0.0013689326796996063,-0.0030763026795291946,-0.002376652550388224,0.32999467849731445,2019-06-21 14:29:11:097,0.0,0.0,0.0
0.05701180547475815,0.04818236455321312,9.744344711303711,0.00036254474715822533,-0.0018775874753405213,0.0020186363149083063,0.33411359786987305,2019-06-21 14:29:11:101,0.0,0.0,0.0
0.018695810809731483,0.0266296174377203,9.85450267791748,-0.002567647753851117,-0.004275017753680705,-0.005706416645253532,0.3399930000305176,2019-06-21 14:29:11:107,0.0,0.0,0.0
0.06898555159568787,0.00986636895686388,9.830554962158203,0.001827640981408251,-0.005606923651701153,-0.00011241284396997543,0.3441128730773926,2019-06-21 14:29:11:111,0.0,0.0,0.0
0.09772255271673203,0.0266296174377203,9.799423217773438,-0.002434457190056505,-0.003209493243323807,-0.00011241284396997543,0.34999990463256836,2019-06-21 14:29:11:117,0.0,0.0,0.0
0.10730154812335968,0.024234866723418236,9.81379222869873,0.002626784494213087,-0.0073384007209567875,-0.005173654390075082,0.35413265228271484,2019-06-21 14:29:11:121,0.0,0.0,0.0
0.047432806342840195,-0.01168637815862894,9.840134620666504,0.0014280692900244143,-0.0025435404243507455,0.0018854457511136942,0.35999250411987305,2019-06-21 14:29:11:127,0.0,0.0,0.0
0.07377505302429199,0.024234866723418236,9.758712768554688,0.001827640981408251,-0.0061396859068796016,-0.00024560341589191043,0.36411333084106445,2019-06-21 14:29:11:131,0.0,0.0,0.0
0.05701180547475815,0.0362086147069931,9.785055160522461,0.00036254474715822533,-0.0038754460622968685,-0.0017106997314151628,0.3699932098388672,2019-06-21 14:29:11:137,0.0,0.0,0.0
0.054617054760456085,0.04099811613559723,9.820976257324219,0.0010284975986405774,-0.0025435404243507455,-0.004108129879718184,0.3741154670715332,2019-06-21 14:29:11:141,0.0,0.0,0.0
0.04982755705714226,-0.002107379725202918,9.835344314575195,-0.0013689326796996063,-0.0030763026795291946,-0.0021102714227989997,0.37999677658081055,2019-06-21 14:29:11:147,0.0,0.0,0.0
0.054617054760456085,0.0266296174377203,9.8329496383667,-0.001102551552110382,-0.0016112063477512967,-0.0017106997314151628,0.3849954605102539,2019-06-21 14:29:11:152,0.0,0.0,0.0
0.04982755705714226,0.014655868522822857,9.820976257324219,0.001827640981408251,-0.004141827189886093,-0.0025098431141828367,0.38999414443969727,2019-06-21 14:29:11:157,0.0,0.0,0.0
0.04982755705714226,0.014655868522822857,9.818581581115723,-0.0013689326796996063,-0.0034758743709130315,-0.002776224241772061,0.3941478729248047,2019-06-21 14:29:11:161,0.0,0.0,0.0
0.054617054760456085,-0.006896879058331251,9.801817893981934,0.00036254474715822533,-0.00400863662609148,-0.002376652550388224,0.3991217613220215,2019-06-21 14:29:11:166,0.0,0.0,0.0
0.061801306903362274,0.03381386399269104,9.837739944458008,-0.00416593477946079,-0.0061396859068796016,-0.0033089864969505106,0.40499448776245117,2019-06-21 14:29:11:172,0.0,0.0,0.0
0.05701180547475815,0.01944536715745926,9.8329496383667,0.002493593930418475,0.0017185580071883357,-0.0011779374762367137,0.40910863876342773,2019-06-21 14:29:11:176,0.0,0.0,0.0
0.028274809941649437,0.05536661297082901,9.789844512939453,-0.002034885498672668,-0.0082707349275934,0.0028177796976759806,0.4149937629699707,2019-06-21 14:29:11:182,0.0,0.0,0.0
0.06419605761766434,0.05297186225652695,9.828160285949707,-0.002434457190056505,-0.0038754460622968685,0.0024182080062921433,0.4199986457824707,2019-06-21 14:29:11:187,0.0,0.0,0.0
0.040248557925224304,0.05776136368513107,9.811397552490234,-0.005497840677481238,-0.0057401139554214406,-0.005706416645253532,0.4241147041320801,2019-06-21 14:29:11:191,0.0,0.0,0.0
0.047432806342840195,0.05297186225652695,9.823370933532715,0.00036254474715822533,-0.005207351700242991,-0.003175795933155898,0.4299941062927246,2019-06-21 14:29:11:197,0.0,0.0,0.0
0.09532780200242996,0.014655868522822857,9.777871131896973,0.001827640981408251,-0.004275017753680705,-0.00011241284396997543,0.4349985122680664,2019-06-21 14:29:11:202,0.0,0.0,0.0
0.07138030230998993,0.04099811613559723,9.789844512939453,-0.001635313807288831,-0.008803497182771848,0.0021518268787029185,0.4391202926635742,2019-06-21 14:29:11:206,0.0,0.0,0.0
0.02348531037569046,0.029024366289377213,9.770686149597168,-0.00030340813683341745,-0.004141827189886093,-0.0009115562836289078,0.44500207901000977,2019-06-21 14:29:11:212,0.0,0.0,0.0
0.0043273125775158405,0.0266296174377203,9.820976257324219,-0.000702979860726545,-0.0022771592967615207,2.0777729983790183e-05,0.4491095542907715,2019-06-21 14:29:11:216,0.0,0.0,0.0
0.05222230777144432,-0.01168637815862894,9.773080825805664,0.0014280692900244143,-0.006272876210599889,-0.004241320443512797,0.45499563217163086,2019-06-21 14:29:11:222,0.0,0.0,0.0
0.07856455445289612,0.043392863124608994,9.835344314575195,0.0019608315452028634,-0.00480778026893348,0.003084160825265205,0.459108829498291,2019-06-21 14:29:11:226,0.0,0.0,0.0
0.03066955879330635,0.017050618305802345,9.785055160522461,0.0036923090045699854,-0.007471591544825725,-0.0017106997314151628,0.4649958610534668,2019-06-21 14:29:11:232,0.0,0.0,0.0
0.06419605761766434,0.017050618305802345,9.765896797180176,-3.702698079856355e-05,-0.0013448252201620722,0.0029509702614705924,0.46999502182006836,2019-06-21 14:29:11:237,0.0,0.0,0.0
0.040248557925224304,0.01944536715745926,9.789844512939453,0.0020940221089974756,-0.004940970572653767,-0.0033089864969505106,0.47499608993530273,2019-06-21 14:29:11:242,0.0,0.0,0.0
0.061801306903362274,0.017050618305802345,9.76350212097168,0.0016944504176136389,-0.0065392573381891144,-0.0014443186038259382,0.4791092872619629,2019-06-21 14:29:11:246,0.0,0.0,0.0
0.04264330863952637,0.038603365421295166,9.801817893981934,-0.004432315646975689,-0.006672448162058052,-0.000378793995941168,0.48499250411987305,2019-06-21 14:29:11:252,0.0,0.0,0.0
0.07377505302429199,0.05057711526751518,9.799423217773438,0.0016944504176136389,-0.0034758743709130315,-0.0017106997314151628,0.48912477493286133,2019-06-21 14:29:11:256,0.0,0.0,0.0
0.061801306903362274,0.0362086147069931,9.840134620666504,0.002626784494213087,-0.00121163465636746,-0.002243461986593612,0.49501657485961914,2019-06-21 14:29:11:262,0.0,0.0,0.0
0.07138030230998993,0.05057711526751518,9.80421257019043,0.002893165621802312,-0.002143968602929746,-0.001843890295209775,0.49999570846557617,2019-06-21 14:29:11:267,0.0,0.0,0.0
0.05940655618906021,0.021840117871761322,9.789844512939453,0.0007621164710513528,-0.0025435404243507455,-0.004374511007307408,0.5049962997436523,2019-06-21 14:29:11:272,0.0,0.0,0.0
0.05940655618906021,0.021840117871761322,9.85450267791748,-0.002034885498672668,-0.0026767309881453576,0.0008199211757382146,0.5091080665588379,2019-06-21 14:29:11:276,0.0,0.0,0.0
0.0665908083319664,0.0266296174377203,9.775476455688477,0.0014280692900244143,-0.00400863662609148,-0.0009115562836289078,0.5150108337402344,2019-06-21 14:29:11:282,0.0,0.0,0.0
0.08814354985952377,0.024234866723418236,9.844923973083496,-0.0015021232434942187,-0.0016112063477512967,-0.0007783657198342955,0.5199956893920898,2019-06-21 14:29:11:287,0.0,0.0,0.0
0.054617054760456085,0.0362086147069931,9.756318092346191,0.0011616881624351898,-0.004408208317475317,-0.0021102714227989997,0.5249972343444824,2019-06-21 14:29:11:292,0.0,0.0,0.0
0.040248557925224304,0.06494560837745667,9.797028541564941,-0.002034885498672668,-0.0061396859068796016,-0.0014443186038259382,0.529109001159668,2019-06-21 14:29:11:296,0.0,0.0,0.0
0.054617054760456085,0.017050618305802345,9.80421257019043,-0.0029672194452349536,-0.002943112115734582,-0.0033089864969505106,0.5350069999694824,2019-06-21 14:29:11:302,0.0,0.0,0.0
0.05222230777144432,0.0266296174377203,9.835344314575195,-0.000702979860726545,-0.0014780157839566846,-0.0017106997314151628,0.5391116142272949,2019-06-21 14:29:11:306,0.0,0.0,0.0
0.08574879914522171,0.03381386399269104,9.797028541564941,-0.002034885498672668,-0.005074161396522704,-0.00011241284396997543,0.5449967384338379,2019-06-21 14:29:11:312,0.0,0.0,0.0
0.061801306903362274,-0.009291628375649452,9.789844512939453,0.0022272128028292507,-0.0034758743709130315,-0.000378793995941168,0.549109935760498,2019-06-21 14:29:11:316,0.0,0.0,0.0
0.08095930516719818,0.04099811613559723,9.761107444763184,-0.0023012666262618923,-0.0045413991413442555,-0.001977080859004387,0.5549969673156738,2019-06-21 14:29:11:322,0.0,0.0,0.0
0.04503805935382843,0.05776136368513107,9.797028541564941,-0.0012357421159049941,-0.0026767309881453576,-0.0009115562836289078,0.5600018501281738,2019-06-21 14:29:11:327,0.0,0.0,0.0
0.03066955879330635,0.0625508651137352,9.8329496383667,0.0008953070348459651,-0.004275017753680705,-0.004241320443512797,0.5641169548034668,2019-06-21 14:29:11:331,0.0,0.0,0.0
0.08574879914522171,0.0362086147069931,9.785055160522461,-0.002034885498672668,-0.0036090649347076437,-0.0011779374762367137,0.5699849128723145,2019-06-21 14:29:11:337,0.0,0.0,0.0
0.05940655618906021,0.05057711526751518,9.799423217773438,0.0022272128028292507,-0.002943112115734582,-0.00530684521394402,0.5750060081481934,2019-06-21 14:29:11:342,0.0,0.0,0.0
0.061801306903362274,0.043392863124608994,9.780265808105469,0.0002293541671089677,-0.000945253463759654,-0.0025098431141828367,0.5791234970092773,2019-06-21 14:29:11:346,0.0,0.0,0.0
0.05940655618906021,0.05776136368513107,9.773080825805664,0.001827640981408251,-0.005606923651701153,0.00028715888805047477,0.5849971771240234,2019-06-21 14:29:11:352,0.0,0.0,0.0
0.04264330863952637,0.00028736997046507895,9.775476455688477,0.0011616881624351898,-0.000146110064737335,-0.001843890295209775,0.589113712310791,2019-06-21 14:29:11:356,0.0,0.0,0.0
0.08335405588150024,0.03381386399269104,9.8329496383667,-0.002034885498672668,-0.0014780157839566846,-0.00477408295876557,0.5941133499145508,2019-06-21 14:29:11:361,0.0,0.0,0.0
0.06898555159568787,0.017050618305802345,9.811397552490234,0.0022272128028292507,-0.0008120628999650418,-0.0015775091676205506,0.5999941825866699,2019-06-21 14:29:11:367,0.0,0.0,0.0
0.061801306903362274,0.002682119607925415,9.765896797180176,0.0008953070348459651,-0.005873304779290378,-0.002376652550388224,0.6050033569335938,2019-06-21 14:29:11:372,0.0,0.0,0.0
0.04982755705714226,0.0266296174377203,9.830554962158203,-0.003766363088076953,-0.0013448252201620722,-0.002643033677977449,0.6091127395629883,2019-06-21 14:29:11:376,0.0,0.0,0.0
0.05701180547475815,0.017050618305802345,9.773080825805664,-0.001635313807288831,-0.0057401139554214406,-0.00104474684742352,0.6149935722351074,2019-06-21 14:29:11:382,0.0,0.0,0.0
0.11448580026626587,0.05536661297082901,9.80421257019043,-3.702698079856355e-05,-0.002943112115734582,-0.0015775091676205506,0.6191139221191406,2019-06-21 14:29:11:386,0.0,0.0,0.0
0.04503805935382843,0.002682119607925415,9.844923973083496,-0.0032336005728241784,-0.006805638465778339,-0.0011779374762367137,0.6250009536743164,2019-06-21 14:29:11:392,0.0,0.0,0.0
0.03545906022191048,0.043392863124608994,9.81379222869873,-0.00030340813683341745,-0.0022771592967615207,-0.004507701831176346,0.6291098594665527,2019-06-21 14:29:11:396,0.0,0.0,0.0
0.04982755705714226,0.017050618305802345,9.861686706542969,-0.001635313807288831,-0.000945253463759654,-0.0034421770607451223,0.6341848373413086,2019-06-21 14:29:11:401,0.0,0.0,0.0
0.06898555159568787,0.04099811613559723,9.8329496383667,0.0031595467493915367,-0.00121163465636746,0.0006867306119436022,0.6399950981140137,2019-06-21 14:29:11:407,0.0,0.0,0.0
0.047432806342840195,-0.002107379725202918,9.739554405212402,0.00036254474715822533,-0.0036090649347076437,-0.0017106997314151628,0.6441130638122559,2019-06-21 14:29:11:411,0.0,0.0,0.0
0.05701180547475815,0.002682119607925415,9.80421257019043,0.004624643211206597,-0.004674589445064542,-0.0038417487521289597,0.6491293907165527,2019-06-21 14:29:11:416,0.0,0.0,0.0
0.09053830057382584,0.021840117871761322,9.830554962158203,0.0022272128028292507,-0.005473732827832216,-0.001843890295209775,0.6549997329711914,2019-06-21 14:29:11:422,0.0,0.0,0.0
0.06419605761766434,0.017050618305802345,9.780265808105469,0.0010284975986405774,-0.0005456817723758172,-0.0014443186038259382,0.6591091156005859,2019-06-21 14:29:11:426,0.0,0.0,0.0
0.04264330863952637,0.012261118739843369,9.765896797180176,0.0019608315452028634,-0.0065392573381891144,-0.00024560341589191043,0.6650009155273438,2019-06-21 14:29:11:432,0.0,0.0,0.0
0.06898555159568787,-0.002107379725202918,9.773080825805664,-0.0023012666262618923,-0.0057401139554214406,-0.006905131979479367,0.6691126823425293,2019-06-21 14:29:11:436,0.0,0.0,0.0
0.028274809941649437,0.04818236455321312,9.765896797180176,0.0019608315452028634,-0.007604781848546013,0.0006867306119436022,0.6749954223632812,2019-06-21 14:29:11:442,0.0,0.0,0.0
0.07856455445289612,0.03381386399269104,9.789844512939453,0.0002293541671089677,-0.0036090649347076437,-0.0017106997314151628,0.6791090965270996,2019-06-21 14:29:11:446,0.0,0.0,0.0
0.08335405588150024,0.05297186225652695,9.765896797180176,0.0007621164710513528,-0.0030763026795291946,-0.0034421770607451223,0.6841139793395996,2019-06-21 14:29:11:451,0.0,0.0,0.0
0.0665908083319664,0.05297186225652695,9.835344314575195,0.005956548849152719,-0.004940970572653767,-0.0025098431141828367,0.6900181770324707,2019-06-21 14:29:11:457,0.0,0.0,0.0
0.07856455445289612,0.04818236455321312,9.777871131896973,0.0016944504176136389,-0.0022771592967615207,-0.0009115562836289078,0.6941266059875488,2019-06-21 14:29:11:461,0.0,0.0,0.0
0.06898555159568787,0.06015611067414284,9.785055160522461,0.0027599750580077,-0.0025435404243507455,-0.0007783657198342955,0.6999926567077637,2019-06-21 14:29:11:467,0.0,0.0,0.0
0.040248557925224304,0.029024366289377213,9.746739387512207,-0.0069629366191476475,-0.0010784440275542662,-0.003575367624539735,0.7041101455688477,2019-06-21 14:29:11:471,0.0,0.0,0.0
0.05701180547475815,0.043392863124608994,9.782660484313965,-0.001635313807288831,-0.0013448252201620722,0.00015396830800121713,0.7100105285644531,2019-06-21 14:29:11:477,0.0,0.0,0.0
0.047432806342840195,-0.006896879058331251,9.765896797180176,-0.003766363088076953,-0.0038754460622968685,-0.005573226341533244,0.714118480682373,2019-06-21 14:29:11:481,0.0,0.0,0.0
0.05940655618906021,0.029024366289377213,9.830554962158203,-0.0009693609883157694,-0.00041249120858120484,-0.005839607469122469,0.7199931144714355,2019-06-21 14:29:11:487,0.0,0.0,0.0
0.054617054760456085,0.0266296174377203,9.777871131896973,0.0006289259072567405,-0.0034758743709130315,-0.0061059885967116945,0.7249960899353027,2019-06-21 14:29:11:492,0.0,0.0,0.0
0.018695810809731483,0.012261118739843369,9.820976257324219,-0.00030340813683341745,-0.00041249120858120484,-0.0014443186038259382,0.7291088104248047,2019-06-21 14:29:11:496,0.0,0.0,0.0
0.054617054760456085,0.021840117871761322,9.715607643127441,0.0004957353109528376,-0.004275017753680705,-0.00477408295876557,0.7349963188171387,2019-06-21 14:29:11:502,0.0,0.0,0.0
0.08335405588150024,-0.002107379725202918,9.775476455688477,-0.0023012666262618923,-0.008004353800004175,-0.0014443186038259382,0.7391152381896973,2019-06-21 14:29:11:506,0.0,0.0,0.0
0.054617054760456085,0.03381386399269104,9.88323974609375,-0.004432315646975689,0.0015853673133565606,-0.001843890295209775,0.7450003623962402,2019-06-21 14:29:11:512,0.0,0.0,0.0
0.05222230777144432,0.04818236455321312,9.794633865356445,0.004358261823543047,-0.003742255498502256,-0.0033089864969505106,0.7491250038146973,2019-06-21 14:29:11:516,0.0,0.0,0.0
0.040248557925224304,0.05057711526751518,9.816186904907227,-0.002567647753851117,-0.002143968602929746,0.0034837325166490415,0.7541232109069824,2019-06-21 14:29:11:521,0.0,0.0,0.0
0.04264330863952637,0.0625508651137352,9.785055160522461,-0.0023012666262618923,-0.006006495083010664,0.0016190646235244696,0.7599959373474121,2019-06-21 14:29:11:527,0.0,0.0,0.0
0.05222230777144432,0.014655868522822857,9.811397552490234,-0.001102551552110382,0.0005198428029996624,0.003084160825265205,0.7641119956970215,2019-06-21 14:29:11:531,0.0,0.0,0.0
0.04503805935382843,0.017050618305802345,9.770686149597168,-0.0004365987006280297,-0.003742255498502256,0.0008199211757382146,0.7699894905090332,2019-06-21 14:29:11:537,0.0,0.0,0.0
0.02348531037569046,0.043392863124608994,9.852108001708984,-0.001635313807288831,-0.006272876210599889,-0.002243461986593612,0.7749977111816406,2019-06-21 14:29:11:542,0.0,0.0,0.0
0.04264330863952637,0.05536661297082901,9.809002876281738,0.0014280692900244143,-0.009602641085688172,-0.000378793995941168,0.7799930572509766,2019-06-21 14:29:11:547,0.0,0.0,0.0
0.04503805935382843,0.05776136368513107,9.785055160522461,-0.0005697892969319327,-0.0045413991413442555,-0.0030426053693612854,0.784113883972168,2019-06-21 14:29:11:551,0.0,0.0,0.0
0.08095930516719818,0.021840117871761322,9.818581581115723,0.00036254474715822533,-0.006406067034468827,-0.0034421770607451223,0.7900099754333496,2019-06-21 14:29:11:557,0.0,0.0,0.0
0.0929330512881279,0.01944536715745926,9.782660484313965,9.616359518703274e-05,-0.0038754460622968685,-0.0030426053693612854,0.7950034141540527,2019-06-21 14:29:11:562,0.0,0.0,0.0
0.07616980373859406,0.017050618305802345,9.741949081420898,-0.00216807606246728,-0.008403925751462336,-0.0021102714227989997,0.8000168800354004,2019-06-21 14:29:11:567,0.0,0.0,0.0
0.05222230777144432,0.05776136368513107,9.789844512939453,-0.002434457190056505,-0.0018775874753405213,-0.0034421770607451223,0.8041162490844727,2019-06-21 14:29:11:571,0.0,0.0,0.0
0.04503805935382843,0.0266296174377203,9.76350212097168,0.0004957353109528376,-0.0017443969115459091,-0.0014443186038259382,0.8099932670593262,2019-06-21 14:29:11:577,0.0,0.0,0.0
0.07138030230998993,0.03381386399269104,9.787449836730957,-0.0034999819604877285,-0.0008120628999650418,-0.004907273262485858,0.8149895668029785,2019-06-21 14:29:11:582,0.0,0.0,0.0
0.05701180547475815,0.00986636895686388,9.782660484313965,-0.001635313807288831,-0.005873304779290378,-0.003575367624539735,0.8191061019897461,2019-06-21 14:29:11:586,0.0,0.0,0.0
0.07856455445289612,0.04099811613559723,9.820976257324219,0.0014280692900244143,-0.004408208317475317,0.0005535400481489899,0.8249940872192383,2019-06-21 14:29:11:592,0.0,0.0,0.0
0.054617054760456085,0.043392863124608994,9.758712768554688,0.0020940221089974756,-0.0017443969115459091,-0.0017106997314151628,0.8291230201721191,2019-06-21 14:29:11:596,0.0,0.0,0.0
0.054617054760456085,0.021840117871761322,9.828160285949707,-0.000702979860726545,-0.004940970572653767,-0.00530684521394402,0.8350033760070801,2019-06-21 14:29:11:602,0.0,0.0,0.0
0.03785380721092224,0.038603365421295166,9.794633865356445,-0.00216807606246728,-0.0018775874753405213,-0.0007783657198342955,0.8399934768676758,2019-06-21 14:29:11:607,0.0,0.0,0.0
0.06419605761766434,0.014655868522822857,9.777871131896973,0.0011616881624351898,-0.0028099215519399702,-0.000378793995941168,0.8441309928894043,2019-06-21 14:29:11:611,0.0,0.0,0.0
0.03066955879330635,0.03381386399269104,9.864081382751465,-0.004965077902154138,-0.004275017753680705,-0.005972797772842756,0.8499946594238281,2019-06-21 14:29:11:617,0.0,0.0,0.0
0.05222230777144432,0.0266296174377203,9.773080825805664,9.616359518703274e-05,-0.006406067034468827,-0.00530684521394402,0.8541140556335449,2019-06-21 14:29:11:621,0.0,0.0,0.0
0.0665908083319664,0.031419117003679276,9.806608200073242,0.001294878726229802,-0.0045413991413442555,-0.0038417487521289597,0.859992504119873,2019-06-21 14:29:11:627,0.0,0.0,0.0
0.07377505302429199,0.04099811613559723,9.816186904907227,-0.0038995536518715646,-0.000945253463759654,-0.000378793995941168,0.8641133308410645,2019-06-21 14:29:11:631,0.0,0.0,0.0
0.09772255271673203,0.024234866723418236,9.809002876281738,0.0032927373131861493,-0.0036090649347076437,-0.00011241284396997543,0.8699936866760254,2019-06-21 14:29:11:637,0.0,0.0,0.0
0.040248557925224304,0.00986636895686388,9.866476058959961,-0.0008361704245211573,-0.00920306913423001,-0.003175795933155898,0.8750004768371582,2019-06-21 14:29:11:642,0.0,0.0,0.0
0.0665908083319664,0.0625508651137352,9.852108001708984,0.001294878726229802,-0.002143968602929746,-0.00011241284396997543,0.8791298866271973,2019-06-21 14:29:11:646,0.0,0.0,0.0
0.06898555159568787,0.017050618305802345,9.864081382751465,0.0008953070348459651,-0.004141827189886093,-0.002643033677977449,0.8850226402282715,2019-06-21 14:29:11:652,0.0,0.0,0.0
0.07138030230998993,0.029024366289377213,9.852108001708984,0.0011616881624351898,-0.00041249120858120484,-0.005972797772842756,0.889122486114502,2019-06-21 14:29:11:656,0.0,0.0,0.0
0.07616980373859406,0.03381386399269104,9.782660484313965,-0.002567647753851117,-0.003742255498502256,0.0006867306119436022,0.894996166229248,2019-06-21 14:29:11:662,0.0,0.0,0.0
0.04982755705714226,0.014655868522822857,9.868871688842773,-0.0008361704245211573,-0.002143968602929746,-0.003708558188334347,0.8991131782531738,2019-06-21 14:29:11:666,0.0,0.0,0.0
0.08814354985952377,0.00028736997046507895,9.744344711303711,0.0020940221089974756,0.0002534616591557925,-0.004241320443512797,0.9049978256225586,2019-06-21 14:29:11:672,0.0,0.0,0.0
0.054617054760456085,0.00028736997046507895,9.801817893981934,0.0010284975986405774,-0.004940970572653767,-0.001843890295209775,0.9099936485290527,2019-06-21 14:29:11:677,0.0,0.0,0.0
0.07856455445289612,0.031419117003679276,9.809002876281738,-0.0005697892969319327,-0.002943112115734582,-0.0029094148055666736,0.9141135215759277,2019-06-21 14:29:11:681,0.0,0.0,0.0
0.06419605761766434,0.014655868522822857,9.756318092346191,0.00036254474715822533,-0.0018775874753405213,-0.007304703930937529,0.9199919700622559,2019-06-21 14:29:11:687,0.0,0.0,0.0
0.09772255271673203,0.0266296174377203,9.770686149597168,-0.00030340813683341745,-0.007072019593367563,-0.003575367624539735,0.924135684967041,2019-06-21 14:29:11:691,0.0,0.0,0.0
0.07138030230998993,0.045787613838911057,9.794633865356445,-0.00216807606246728,-0.007072019593367563,-0.00530684521394402,0.9300112724304199,2019-06-21 14:29:11:697,0.0,0.0,0.0
0.05701180547475815,0.0362086147069931,9.761107444763184,-0.001635313807288831,-0.0025435404243507455,-0.001977080859004387,0.9341239929199219,2019-06-21 14:29:11:701,0.0,0.0,0.0
0.05701180547475815,0.007471619173884392,9.79223918914795,-0.0017685043710834434,-0.008004353800004175,-0.0021102714227989997,0.9399929046630859,2019-06-21 14:29:11:707,0.0,0.0,0.0
0.08814354985952377,0.05057711526751518,9.799423217773438,-0.0019016949348780556,-0.005606923651701153,-0.004241320443512797,0.9449915885925293,2019-06-21 14:29:11:712,0.0,0.0,0.0
0.061801306903362274,0.014655868522822857,9.79223918914795,-0.0015021232434942187,-0.0030763026795291946,-0.0006451751560396832,0.9491086006164551,2019-06-21 14:29:11:716,0.0,0.0,0.0
0.04264330863952637,-0.002107379725202918,9.852108001708984,0.0002293541671089677,-0.0045413991413442555,-0.003974939315923572,0.9549918174743652,2019-06-21 14:29:11:722,0.0,0.0,0.0
0.03785380721092224,0.07212986052036285,9.787449836730957,-0.00017021755678415983,-0.0025435404243507455,0.0005535400481489899,0.9599952697753906,2019-06-21 14:29:11:727,0.0,0.0,0.0
0.08814354985952377,0.024234866723418236,9.816186904907227,0.0006289259072567405,0.000786223930588887,-0.0005119845597357803,0.9641151428222656,2019-06-21 14:29:11:731,0.0,0.0,0.0
0.05940655618906021,0.00986636895686388,9.837739944458008,0.001294878726229802,-0.004408208317475317,-0.004640892134896633,0.9700102806091309,2019-06-21 14:29:11:737,0.0,0.0,0.0
0.07138030230998993,0.038603365421295166,9.761107444763184,-0.001102551552110382,-0.00400863662609148,-0.00477408295876557,0.9749975204467773,2019-06-21 14:29:11:742,0.0,0.0,0.0
0.03545906022191048,0.04818236455321312,9.801817893981934,-0.00017021755678415983,-0.004275017753680705,-0.003575367624539735,0.9791145324707031,2019-06-21 14:29:11:746,0.0,0.0,0.0
0.040248557925224304,0.0362086147069931,9.7515287399292,0.001294878726229802,-0.0073384007209567875,-0.0034421770607451223,0.9849972724914551,2019-06-21 14:29:11:752,0.0,0.0,0.0
0.03066955879330635,0.024234866723418236,9.806608200073242,0.0007621164710513528,-0.004408208317475317,0.0029509702614705924,0.989992618560791,2019-06-21 14:29:11:757,0.0,0.0,0.0
0.05701180547475815,0.00028736997046507895,9.811397552490234,0.0014280692900244143,-0.007205210417236501,-0.006905131979479367,0.994997501373291,2019-06-21 14:29:11:762,0.0,0.0,0.0
0.07377505302429199,0.04099811613559723,9.892818450927734,-0.00030340813683341745,0.0006530333667942747,-0.0017106997314151628,0.9991316795349121,2019-06-21 14:29:11:766,0.0,0.0,0.0
0.07856455445289612,0.012261118739843369,9.842529296875,0.0031595467493915367,-0.0018775874753405213,-0.0033089864969505106,1.0049958229064941,2019-06-21 14:29:11:772,0.0,0.0,0.0
0.03785380721092224,-0.002107379725202918,9.787449836730957,-0.000702979860726545,-0.005873304779290378,-0.0017106997314151628,1.0091204643249512,2019-06-21 14:29:11:776,0.0,0.0,0.0
-0.0028569363057613373,0.029024366289377213,9.79223918914795,0.001827640981408251,-0.000945253463759654,-0.004108129879718184,1.015002727508545,2019-06-21 14:29:11:782,0.0,0.0,0.0
0.03785380721092224,0.04818236455321312,9.816186904907227,0.001827640981408251,-0.0057401139554214406,-0.002376652550388224,1.0199933052062988,2019-06-21 14:29:11:787,0.0,0.0,0.0
0.06898555159568787,0.05536661297082901,9.799423217773438,0.005290595770105333,-0.002943112115734582,0.00028715888805047477,1.0241293907165527,2019-06-21 14:29:11:791,0.0,0.0,0.0
0.05940655618906021,0.06015611067414284,9.770686149597168,0.0002293541671089677,-0.004940970572653767,0.0021518268787029185,1.0299954414367676,2019-06-21 14:29:11:797,0.0,0.0,0.0
0.05940655618906021,0.014655868522822857,9.799423217773438,-0.002834028881440342,-0.003742255498502256,-0.002376652550388224,1.0349946022033691,2019-06-21 14:29:11:802,0.0,0.0,0.0
0.06419605761766434,0.031419117003679276,9.79223918914795,-0.0013689326796996063,-0.002410349860556133,-0.0015775091676205506,1.0391087532043457,2019-06-21 14:29:11:806,0.0,0.0,0.0
0.05222230777144432,0.021840117871761322,9.73476505279541,-0.002034885498672668,-0.004141827189886093,-0.002243461986593612,1.0449976921081543,2019-06-21 14:29:11:812,0.0,0.0,0.0
0.04264330863952637,0.014655868522822857,9.79223918914795,0.0027599750580077,-0.0002793006447865926,0.0021518268787029185,1.0491085052490234,2019-06-21 14:29:11:816,0.0,0.0,0.0
0.028274809941649437,0.021840117871761322,9.761107444763184,-0.001102551552110382,-0.003742255498502256,-0.0062391789004319805,1.054995059967041,2019-06-21 14:29:11:822,0.0,0.0,0.0
0.08814354985952377,0.024234866723418236,9.809002876281738,0.0007621164710513528,-0.007205210417236501,-0.0061059885967116945,1.0591316223144531,2019-06-21 14:29:11:826,0.0,0.0,0.0
0.028274809941649437,0.0266296174377203,9.809002876281738,0.0007621164710513528,-0.0017443969115459091,-0.0014443186038259382,1.064990520477295,2019-06-21 14:29:11:832,0.0,0.0,0.0
0.08574879914522171,0.031419117003679276,9.744344711303711,-0.003366791396693116,-0.00773797267241495,-0.002376652550388224,1.069122314453125,2019-06-21 14:29:11:836,0.0,0.0,0.0
0.03785380721092224,0.017050618305802345,9.76350212097168,-0.0012357421159049941,-0.004940970572653767,-0.0061059885967116945,1.07499361038208,2019-06-21 14:29:11:842,0.0,0.0,0.0
0.025880059227347374,0.038603365421295166,9.820976257324219,9.616359518703274e-05,-0.0061396859068796016,0.0020186363149083063,1.079993724822998,2019-06-21 14:29:11:847,0.0,0.0,0.0
0.05940655618906021,0.01944536715745926,9.825765609741211,-0.0027008383176457293,-0.0082707349275934,2.0777729983790183e-05,1.0841145515441895,2019-06-21 14:29:11:851,0.0,0.0,0.0
0.08574879914522171,0.038603365421295166,9.801817893981934,0.003026356185596924,-0.005606923651701153,-0.0017106997314151628,1.0899901390075684,2019-06-21 14:29:11:857,0.0,0.0,0.0
0.033064309507608414,0.00028736997046507895,9.900003433227539,-0.002567647753851117,-0.006006495083010664,-0.0030426053693612854,1.0949959754943848,2019-06-21 14:29:11:862,0.0,0.0,0.0
0.04982755705714226,0.00986636895686388,9.797028541564941,0.001294878726229802,-0.00480778026893348,0.004016494771827491,1.1000151634216309,2019-06-21 14:29:11:867,0.0,0.0,0.0
0.061801306903362274,0.017050618305802345,9.835344314575195,-0.000702979860726545,-0.0025435404243507455,-0.004241320443512797,1.104114055633545,2019-06-21 14:29:11:871,0.0,0.0,0.0
0.047432806342840195,0.06973510980606079,9.768291473388672,0.0014280692900244143,-0.0026767309881453576,-0.003575367624539735,1.1100106239318848,2019-06-21 14:29:11:877,0.0,0.0,0.0
0.07138030230998993,0.05536661297082901,9.780265808105469,0.0019608315452028634,-0.0018775874753405213,-0.0009115562836289078,1.114997386932373,2019-06-21 14:29:11:882,0.0,0.0,0.0
0.054617054760456085,0.01944536715745926,9.770686149597168,0.0006289259072567405,-0.0025435404243507455,0.0013526834959352448,1.119997501373291,2019-06-21 14:29:11:887,0.0,0.0,0.0
0.07138030230998993,0.038603365421295166,9.876055717468262,0.0010284975986405774,-0.0014780157839566846,-0.0007783657198342955,1.124112606048584,2019-06-21 14:29:11:891,0.0,0.0,0.0
0.04982755705714226,0.06494560837745667,9.785055160522461,-0.0013689326796996063,0.0013189861857673363,2.0777729983790183e-05,1.129992961883545,2019-06-21 14:29:11:897,0.0,0.0,0.0
0.07138030230998993,0.002682119607925415,9.852108001708984,0.0011616881624351898,-0.005473732827832216,-0.0033089864969505106,1.1341137886047363,2019-06-21 14:29:11:901,0.0,0.0,0.0
0.040248557925224304,0.031419117003679276,9.806608200073242,0.0022272128028292507,-0.0022771592967615207,0.00028715888805047477,1.1399946212768555,2019-06-21 14:29:11:907,0.0,0.0,0.0
0.04264330863952637,0.029024366289377213,9.761107444763184,-0.00030340813683341745,-0.0018775874753405213,-0.0061059885967116945,1.144111156463623,2019-06-21 14:29:11:911,0.0,0.0,0.0
0.09772255271673203,0.043392863124608994,9.777871131896973,0.001827640981408251,-0.006006495083010664,-0.005706416645253532,1.149996280670166,2019-06-21 14:29:11:917,0.0,0.0,0.0
0.05701180547475815,0.0362086147069931,9.789844512939453,-0.003766363088076953,-1.2919485703992724e-05,-0.002376652550388224,1.1550021171569824,2019-06-21 14:29:11:922,0.0,0.0,0.0
0.047432806342840195,0.024234866723418236,9.770686149597168,0.002893165621802312,-0.0073384007209567875,-0.0030426053693612854,1.1591076850891113,2019-06-21 14:29:11:926,0.0,0.0,0.0
0.07377505302429199,0.017050618305802345,9.811397552490234,-0.0019016949348780556,-0.004408208317475317,-0.004507701831176346,1.1650032997131348,2019-06-21 14:29:11:932,0.0,0.0,0.0
0.01630106195807457,0.038603365421295166,9.773080825805664,0.0015612598538190267,-0.007471591544825725,-0.004374511007307408,1.1691155433654785,2019-06-21 14:29:11:936,0.0,0.0,0.0
0.08095930516719818,0.029024366289377213,9.76350212097168,-0.000702979860726545,-0.0045413991413442555,-0.006771941675759081,1.1749939918518066,2019-06-21 14:29:11:942,0.0,0.0,0.0
0.10011730343103409,0.05057711526751518,9.811397552490234,0.0002293541671089677,-0.006272876210599889,-0.0011779374762367137,1.1791067123413086,2019-06-21 14:29:11:946,0.0,0.0,0.0
0.07856455445289612,0.07452461123466492,9.797028541564941,-0.001635313807288831,-0.005074161396522704,-0.0013111280400313259,1.1849980354309082,2019-06-21 14:29:11:952,0.0,0.0,0.0
0.07138030230998993,0.03381386399269104,9.729975700378418,-0.003100410009029566,-0.006406067034468827,-0.002776224241772061,1.1891093254089355,2019-06-21 14:29:11:956,0.0,0.0,0.0
0.07138030230998993,-0.002107379725202918,9.828160285949707,-0.002434457190056505,-0.0016112063477512967,-0.005972797772842756,1.194997787475586,2019-06-21 14:29:11:962,0.0,0.0,0.0
0.04982755705714226,0.04099811613559723,9.753923416137695,-0.002567647753851117,-0.004275017753680705,-0.005173654390075082,1.2000184059143066,2019-06-21 14:29:11:967,0.0,0.0,0.0
0.040248557925224304,0.0362086147069931,9.780265808105469,0.0031595467493915367,-0.005074161396522704,-0.002643033677977449,1.204113483428955,2019-06-21 14:29:11:971,0.0,0.0,0.0
0.08814354985952377,0.0362086147069931,9.799423217773438,-0.000702979860726545,-0.0026767309881453576,-0.0013111280400313259,1.210005283355713,2019-06-21 14:29:11:977,0.0,0.0,0.0
0.03785380721092224,0.05536661297082901,9.811397552490234,0.0027599750580077,-0.005873304779290378,-0.003575367624539735,1.214128017425537,2019-06-21 14:29:11:981,0.0,0.0,0.0
0.08574879914522171,0.03381386399269104,9.801817893981934,0.0019608315452028634,-0.003209493243323807,-0.005839607469122469,1.2199921607971191,2019-06-21 14:29:11:987,0.0,0.0,0.0
0.05222230777144432,0.002682119607925415,9.770686149597168,0.0007621164710513528,-0.0010784440275542662,-0.003175795933155898,1.2241177558898926,2019-06-21 14:29:11:991,0.0,0.0,0.0
0.10730154812335968,0.012261118739843369,9.806608200073242,9.616359518703274e-05,-0.00041249120858120484,-0.004507701831176346,1.229992389678955,2019-06-21 14:29:11:997,0.0,0.0,0.0
0.047432806342840195,0.05536661297082901,9.777871131896973,-0.002567647753851117,0.000786223930588887,-0.0009115562836289078,1.23411226272583,2019-06-21 14:29:12:001,0.0,0.0,0.0
0.08574879914522171,0.024234866723418236,9.797028541564941,-0.0034999819604877285,-0.0061396859068796016,-0.002643033677977449,1.2400131225585938,2019-06-21 14:29:12:007,0.0,0.0,0.0
0.07616980373859406,0.029024366289377213,9.801817893981934,0.0032927373131861493,-0.003742255498502256,-0.006372369724300918,1.2441143989562988,2019-06-21 14:29:12:011,0.0,0.0,0.0
0.07138030230998993,0.0266296174377203,9.801817893981934,-0.000702979860726545,-0.003742255498502256,-0.001977080859004387,1.2499947547912598,2019-06-21 14:29:12:017,0.0,0.0,0.0
0.07377505302429199,0.0266296174377203,9.80421257019043,0.0004957353109528376,-0.002943112115734582,-0.003974939315923572,1.255014419555664,2019-06-21 14:29:12:022,0.0,0.0,0.0
0.040248557925224304,0.04099811613559723,9.809002876281738,0.0008953070348459651,-0.0065392573381891144,-0.003575367624539735,1.2599964141845703,2019-06-21 14:29:12:027,0.0,0.0,0.0
0.05701180547475815,0.0266296174377203,9.823370933532715,0.001294878726229802,0.0009194144943834993,-0.005573226341533244,1.2649970054626465,2019-06-21 14:29:12:032,0.0,0.0,0.0
0.06419605761766434,0.03381386399269104,9.878450393676758,-0.00030340813683341745,-0.0034758743709130315,-0.0015775091676205506,1.2691082954406738,2019-06-21 14:29:12:036,0.0,0.0,0.0
0.025880059227347374,0.029024366289377213,9.799423217773438,0.0032927373131861493,-0.005207351700242991,-0.0038417487521289597,1.274996280670166,2019-06-21 14:29:12:042,0.0,0.0,0.0
0.01630106195807457,0.03381386399269104,9.8329496383667,-0.0019016949348780556,-0.00041249120858120484,-0.003575367624539735,1.2791118621826172,2019-06-21 14:29:12:046,0.0,0.0,0.0
0.040248557925224304,0.03381386399269104,9.799423217773438,0.0007621164710513528,-0.0028099215519399702,-0.004374511007307408,1.2850089073181152,2019-06-21 14:29:12:052,0.0,0.0,0.0
0.03545906022191048,0.017050618305802345,9.797028541564941,0.0036923090045699854,-0.0036090649347076437,-0.003974939315923572,1.2899956703186035,2019-06-21 14:29:12:057,0.0,0.0,0.0
0.025880059227347374,0.00986636895686388,9.823370933532715,-0.002434457190056505,-0.0022771592967615207,-0.00530684521394402,1.2941136360168457,2019-06-21 14:29:12:061,0.0,0.0,0.0
0.040248557925224304,0.05057711526751518,9.782660484313965,-0.003100410009029566,-0.007205210417236501,-0.0050404640863547946,1.2991442680358887,2019-06-21 14:29:12:066,0.0,0.0,0.0
0.07616980373859406,0.017050618305802345,9.789844512939453,0.002893165621802312,-0.003342683807118419,-0.0005119845597357803,1.3049960136413574,2019-06-21 14:29:12:072,0.0,0.0,0.0
0.047432806342840195,0.043392863124608994,9.785055160522461,-0.0008361704245211573,-0.0026767309881453576,-0.001977080859004387,1.3091082572937012,2019-06-21 14:29:12:076,0.0,0.0,0.0
0.11448580026626587,0.04099811613559723,9.758712768554688,0.002360403366623863,0.0011857956219727239,-0.00477408295876557,1.314995288848877,2019-06-21 14:29:12:082,0.0,0.0,0.0
0.061801306903362274,0.038603365421295166,9.830554962158203,0.0020940221089974756,-0.0010784440275542662,-0.003175795933155898,1.3199901580810547,2019-06-21 14:29:12:087,0.0,0.0,0.0
0.061801306903362274,0.01944536715745926,9.80421257019043,0.0020940221089974756,-0.0065392573381891144,-0.001843890295209775,1.3241324424743652,2019-06-21 14:29:12:091,0.0,0.0,0.0
0.03545906022191048,0.0266296174377203,9.799423217773438,-0.0009693609883157694,-0.003742255498502256,-0.00024560341589191043,1.3300061225891113,2019-06-21 14:29:12:097,0.0,0.0,0.0
0.07138030230998993,0.01944536715745926,9.749134063720703,-0.0019016949348780556,-0.0010784440275542662,0.00015396830800121713,1.334998607635498,2019-06-21 14:29:12:102,0.0,0.0,0.0
0.08814354985952377,0.06973510980606079,9.741949081420898,0.0011616881624351898,-0.003742255498502256,-0.002776224241772061,1.339108943939209,2019-06-21 14:29:12:106,0.0,0.0,0.0
0.01630106195807457,0.00028736997046507895,9.842529296875,-0.000702979860726545,-0.003342683807118419,0.001752255187319082,1.3450078964233398,2019-06-21 14:29:12:112,0.0,0.0,0.0
0.04264330863952637,0.007471619173884392,9.794633865356445,9.616359518703274e-05,-0.0025435404243507455,-0.00477408295876557,1.349992275238037,2019-06-21 14:29:12:117,0.0,0.0,0.0
0.08095930516719818,0.005076869390904903,9.801817893981934,0.003026356185596924,-0.005606923651701153,-0.006638750851890143,1.3541131019592285,2019-06-21 14:29:12:121,0.0,0.0,0.0
0.03785380721092224,0.00028736997046507895,9.775476455688477,-0.0012357421159049941,-0.004940970572653767,-0.002776224241772061,1.3599934577941895,2019-06-21 14:29:12:127,0.0,0.0,0.0
0.07616980373859406,0.043392863124608994,9.777871131896973,-0.0005697892969319327,-0.009469449741670584,-0.0005119845597357803,1.3641128540039062,2019-06-21 14:29:12:131,0.0,0.0,0.0
0.040248557925224304,0.038603365421295166,9.823370933532715,0.0020940221089974756,-0.000146110064737335,-0.005173654390075082,1.3699984550476074,2019-06-21 14:29:12:137,0.0,0.0,0.0
0.08095930516719818,0.05057711526751518,9.79223918914795,-0.0004365987006280297,-0.0036090649347076437,0.0014858740597298572,1.3741211891174316,2019-06-21 14:29:12:141,0.0,0.0,0.0
0.06898555159568787,0.045787613838911057,9.801817893981934,0.0007621164710513528,-0.0061396859068796016,-0.0006451751560396832,1.379995346069336,2019-06-21 14:29:12:147,0.0,0.0,0.0
0.08335405588150024,0.0266296174377203,9.782660484313965,0.0019608315452028634,-0.0025435404243507455,0.0014858740597298572,1.3841137886047363,2019-06-21 14:29:12:151,0.0,0.0,0.0
0.04503805935382843,-0.002107379725202918,9.809002876281738,0.0031595467493915367,-0.004275017753680705,0.0005535400481489899,1.3891282081604004,2019-06-21 14:29:12:156,0.0,0.0,0.0
0.061801306903362274,0.038603365421295166,9.775476455688477,-0.0012357421159049941,-0.0028099215519399702,0.0013526834959352448,1.3950018882751465,2019-06-21 14:29:12:162,0.0,0.0,0.0
0.06419605761766434,0.043392863124608994,9.794633865356445,0.0014280692900244143,-0.0061396859068796016,-0.00024560341589191043,1.399132251739502,2019-06-21 14:29:12:166,0.0,0.0,0.0
0.04503805935382843,-0.014081127941608429,9.780265808105469,-0.0017685043710834434,-0.0045413991413442555,0.0021518268787029185,1.4049973487854004,2019-06-21 14:29:12:172,0.0,0.0,0.0
0.04982755705714226,0.01944536715745926,9.761107444763184,0.004624643211206597,-0.0005456817723758172,-0.0007783657198342955,1.4099907875061035,2019-06-21 14:29:12:177,0.0,0.0,0.0
0.06898555159568787,0.01944536715745926,9.761107444763184,0.0008953070348459651,-0.005473732827832216,0.0006867306119436022,1.415006160736084,2019-06-21 14:29:12:182,0.0,0.0,0.0
0.028274809941649437,0.04099811613559723,9.797028541564941,0.004624643211206597,-0.005473732827832216,0.0021518268787029185,1.419996738433838,2019-06-21 14:29:12:187,0.0,0.0,0.0
0.1120910495519638,0.031419117003679276,9.844923973083496,0.003825499568364598,-0.0057401139554214406,0.00028715888805047477,1.4249968528747559,2019-06-21 14:29:12:192,0.0,0.0,0.0
0.061801306903362274,0.014655868522822857,9.782660484313965,0.0004957353109528376,-0.006006495083010664,-0.0034421770607451223,1.4299931526184082,2019-06-21 14:29:12:197,0.0,0.0,0.0
0.07138030230998993,0.04099811613559723,9.789844512939453,-0.001102551552110382,-0.0045413991413442555,2.0777729983790183e-05,1.434114933013916,2019-06-21 14:29:12:201,0.0,0.0,0.0
0.07377505302429199,0.0266296174377203,9.809002876281738,-0.00017021755678415983,-0.0038754460622968685,-0.005706416645253532,1.4399957656860352,2019-06-21 14:29:12:207,0.0,0.0,0.0
0.054617054760456085,0.04099811613559723,9.72279167175293,0.002360403366623863,-0.0053405425241119285,-0.00011241284396997543,1.4441137313842773,2019-06-21 14:29:12:211,0.0,0.0,0.0
0.07616980373859406,0.06015611067414284,9.80421257019043,-0.0008361704245211573,-0.005473732827832216,-0.007837466186115978,1.44999361038208,2019-06-21 14:29:12:217,0.0,0.0,0.0
0.0665908083319664,0.04099811613559723,9.787449836730957,-0.0017685043710834434,-0.002410349860556133,-0.0014443186038259382,1.4549946784973145,2019-06-21 14:29:12:222,0.0,0.0,0.0
0.07138030230998993,0.031419117003679276,9.823370933532715,0.0004957353109528376,-0.0016112063477512967,-0.003575367624539735,1.4591259956359863,2019-06-21 14:29:12:226,0.0,0.0,0.0
0.07616980373859406,0.038603365421295166,9.816186904907227,-0.002567647753851117,-0.0016112063477512967,0.00028715888805047477,1.4649958610534668,2019-06-21 14:29:12:232,0.0,0.0,0.0
0.10490679740905762,0.021840117871761322,9.746739387512207,-0.0009693609883157694,-0.002143968602929746,-0.0025098431141828367,1.4691085815429688,2019-06-21 14:29:12:236,0.0,0.0,0.0
0.0929330512881279,0.05057711526751518,9.847318649291992,-0.0015021232434942187,-0.002010778039135134,-0.0007783657198342955,1.4749951362609863,2019-06-21 14:29:12:242,0.0,0.0,0.0
0.047432806342840195,0.043392863124608994,9.79223918914795,-0.0034999819604877285,-0.007604781848546013,0.000420349451845087,1.479128360748291,2019-06-21 14:29:12:246,0.0,0.0,0.0
0.04264330863952637,0.0266296174377203,9.765896797180176,0.0019608315452028634,0.0002534616591557925,-0.007571085058526754,1.484997272491455,2019-06-21 14:29:12:252,0.0,0.0,0.0
0.06898555159568787,0.017050618305802345,9.794633865356445,0.0007621164710513528,-0.004674589445064542,-0.005839607469122469,1.4899959564208984,2019-06-21 14:29:12:257,0.0,0.0,0.0
0.061801306903362274,0.043392863124608994,9.880845069885254,-0.0005697892969319327,-0.00773797267241495,-0.002776224241772061,1.4949955940246582,2019-06-21 14:29:12:262,0.0,0.0,0.0
0.054617054760456085,0.05297186225652695,9.816186904907227,-0.0012357421159049941,-0.003742255498502256,0.0016190646235244696,1.499131202697754,2019-06-21 14:29:12:266,0.0,0.0,0.0
0.040248557925224304,0.043392863124608994,9.7515287399292,-3.702698079856355e-05,-0.00400863662609148,-0.0007783657198342955,1.5050110816955566,2019-06-21 14:29:12:272,0.0,0.0,0.0
0.06898555159568787,0.06015611067414284,9.79223918914795,0.00036254474715822533,-0.004674589445064542,-0.0025098431141828367,1.5099968910217285,2019-06-21 14:29:12:277,0.0,0.0,0.0
0.03785380721092224,0.04818236455321312,9.866476058959961,-0.00416593477946079,-0.0045413991413442555,-0.006505560028021206,1.5149970054626465,2019-06-21 14:29:12:282,0.0,0.0,0.0
0.040248557925224304,0.05057711526751518,9.768291473388672,-0.0015021232434942187,-0.002943112115734582,-0.0033089864969505106,1.519106388092041,2019-06-21 14:29:12:286,0.0,0.0,0.0
0.05222230777144432,0.03381386399269104,9.787449836730957,-0.0009693609883157694,-0.005207351700242991,-0.0029094148055666736,1.5249934196472168,2019-06-21 14:29:12:292,0.0,0.0,0.0
0.07856455445289612,0.0266296174377203,9.79223918914795,0.0006289259072567405,-0.0034758743709130315,0.0032173513890598167,1.5291128158569336,2019-06-21 14:29:12:296,0.0,0.0,0.0
0.07138030230998993,0.05057711526751518,9.840134620666504,0.0006289259072567405,-0.0038754460622968685,-0.005173654390075082,1.5349984169006348,2019-06-21 14:29:12:302,0.0,0.0,0.0
0.018695810809731483,0.05297186225652695,9.79223918914795,0.0004957353109528376,-0.0045413991413442555,-0.0009115562836289078,1.5399961471557617,2019-06-21 14:29:12:307,0.0,0.0,0.0
0.05940655618906021,0.00028736997046507895,9.789844512939453,-0.000702979860726545,-0.0014780157839566846,-0.000378793995941168,1.5441126823425293,2019-06-21 14:29:12:311,0.0,0.0,0.0
0.047432806342840195,0.05297186225652695,9.7515287399292,-0.0008361704245211573,-0.002943112115734582,-0.003175795933155898,1.5500025749206543,2019-06-21 14:29:12:317,0.0,0.0,0.0
0.02348531037569046,0.05297186225652695,9.835344314575195,0.00036254474715822533,-0.005207351700242991,-0.0029094148055666736,1.5550036430358887,2019-06-21 14:29:12:322,0.0,0.0,0.0
0.06419605761766434,-0.004502129275351763,9.739554405212402,0.00036254474715822533,-0.002943112115734582,-0.002376652550388224,1.559992790222168,2019-06-21 14:29:12:327,0.0,0.0,0.0
0.07616980373859406,0.04099811613559723,9.828160285949707,0.0020940221089974756,-0.002943112115734582,-0.0011779374762367137,1.5641083717346191,2019-06-21 14:29:12:331,0.0,0.0,0.0
0.04982755705714226,0.03381386399269104,9.81379222869873,0.0032927373131861493,-0.0036090649347076437,-0.0015775091676205506,1.569983959197998,2019-06-21 14:29:12:337,0.0,0.0,0.0
0.04503805935382843,0.007471619173884392,9.799423217773438,0.0020940221089974756,-0.006938829289647276,-0.0006451751560396832,1.5741138458251953,2019-06-21 14:29:12:341,0.0,0.0,0.0
0.0665908083319664,0.06015611067414284,9.789844512939453,0.003425927876980761,-0.005473732827832216,-0.003175795933155898,1.5799956321716309,2019-06-21 14:29:12:347,0.0,0.0,0.0
0.06419605761766434,0.01944536715745926,9.789844512939453,0.005823358025283782,-0.005473732827832216,-0.006505560028021206,1.5841155052185059,2019-06-21 14:29:12:351,0.0,0.0,0.0
0.04503805935382843,-0.002107379725202918,9.729975700378418,-0.002834028881440342,-0.006672448162058052,-0.001977080859004387,1.5899896621704102,2019-06-21 14:29:12:357,0.0,0.0,0.0
0.07616980373859406,0.021840117871761322,9.785055160522461,-3.702698079856355e-05,-0.000146110064737335,-0.0009115562836289078,1.5941205024719238,2019-06-21 14:29:12:361,0.0,0.0,0.0
0.09772255271673203,0.03381386399269104,9.777871131896973,0.006222929976741945,-0.0034758743709130315,-0.008103847313705203,1.6000170707702637,2019-06-21 14:29:12:367,0.0,0.0,0.0
0.04982755705714226,0.007471619173884392,9.729975700378418,0.0007621164710513528,-0.0016112063477512967,-0.002643033677977449,1.6041131019592285,2019-06-21 14:29:12:371,0.0,0.0,0.0
0.07616980373859406,0.038603365421295166,9.811397552490234,0.0016944504176136389,-0.007205210417236501,-0.003575367624539735,1.6099896430969238,2019-06-21 14:29:12:377,0.0,0.0,0.0
0.07616980373859406,0.00986636895686388,9.787449836730957,0.0020940221089974756,-0.0065392573381891144,-0.0005119845597357803,1.6150026321411133,2019-06-21 14:29:12:382,0.0,0.0,0.0
0.054617054760456085,0.07212986052036285,9.816186904907227,0.002360403366623863,-0.00400863662609148,-0.004907273262485858,1.6191086769104004,2019-06-21 14:29:12:386,0.0,0.0,0.0
0.04982755705714226,0.0266296174377203,9.830554962158203,-0.000702979860726545,-0.004275017753680705,-0.0030426053693612854,1.625011920928955,2019-06-21 14:29:12:392,0.0,0.0,0.0
0.06898555159568787,-0.002107379725202918,9.842529296875,-0.00030340813683341745,-0.002010778039135134,-0.001843890295209775,1.6299996376037598,2019-06-21 14:29:12:397,0.0,0.0,0.0
0.07616980373859406,0.024234866723418236,9.864081382751465,-0.00017021755678415983,-0.0061396859068796016,-0.0038417487521289597,1.6341133117675781,2019-06-21 14:29:12:401,0.0,0.0,0.0
0.08814354985952377,-0.014081127941608429,9.818581581115723,0.00742164479081913,0.0011857956219727239,-0.0013111280400313259,1.6400256156921387,2019-06-21 14:29:12:407,0.0,0.0,0.0
0.05701180547475815,0.06734035909175873,9.76350212097168,-0.002834028881440342,-0.007072019593367563,0.0008199211757382146,1.6441283226013184,2019-06-21 14:29:12:411,0.0,0.0,0.0
0.07138030230998993,0.031419117003679276,9.811397552490234,0.0002293541671089677,-0.002010778039135134,-0.0014443186038259382,1.6499924659729004,2019-06-21 14:29:12:417,0.0,0.0,0.0
0.05701180547475815,-0.01168637815862894,9.811397552490234,0.0007621164710513528,-0.006938829289647276,-0.0029094148055666736,1.654996395111084,2019-06-21 14:29:12:422,0.0,0.0,0.0
0.06898555159568787,0.00028736997046507895,9.820976257324219,-0.00017021755678415983,-0.003209493243323807,-0.003708558188334347,1.6591076850891113,2019-06-21 14:29:12:426,0.0,0.0,0.0
0.054617054760456085,0.031419117003679276,9.749134063720703,-0.0032336005728241784,-0.00480778026893348,-0.004507701831176346,1.6650137901306152,2019-06-21 14:29:12:432,0.0,0.0,0.0
0.07377505302429199,0.017050618305802345,9.761107444763184,0.0020940221089974756,-0.006938829289647276,-0.0061059885967116945,1.6700029373168945,2019-06-21 14:29:12:437,0.0,0.0,0.0
0.05940655618906021,0.04099811613559723,9.744344711303711,0.0008953070348459651,-0.006805638465778339,-0.001843890295209775,1.674112319946289,2019-06-21 14:29:12:441,0.0,0.0,0.0
0.08335405588150024,0.03381386399269104,9.782660484313965,0.0019608315452028634,-0.0053405425241119285,0.0012194929321406327,1.6799921989440918,2019-06-21 14:29:12:447,0.0,0.0,0.0
0.061801306903362274,0.01944536715745926,9.80421257019043,-0.001635313807288831,-0.005873304779290378,0.0016190646235244696,1.685009479522705,2019-06-21 14:29:12:452,0.0,0.0,0.0
0.04264330863952637,0.0266296174377203,9.729975700378418,0.0027599750580077,-0.004141827189886093,-0.00104474684742352,1.6900019645690918,2019-06-21 14:29:12:457,0.0,0.0,0.0
0.0929330512881279,0.00028736997046507895,9.849713325500488,-0.00216807606246728,-0.005873304779290378,-0.0013111280400313259,1.6941132545471191,2019-06-21 14:29:12:461,0.0,0.0,0.0
0.05701180547475815,0.0362086147069931,9.801817893981934,0.002626784494213087,-0.006938829289647276,0.000420349451845087,1.700014591217041,2019-06-21 14:29:12:467,0.0,0.0,0.0
0.03066955879330635,0.0266296174377203,9.777871131896973,0.001294878726229802,-0.008803497182771848,0.0020186363149083063,1.7041125297546387,2019-06-21 14:29:12:471,0.0,0.0,0.0
0.07138030230998993,0.038603365421295166,9.770686149597168,0.001294878726229802,-0.0013448252201620722,-0.004640892134896633,1.7100038528442383,2019-06-21 14:29:12:477,0.0,0.0,0.0
0.05940655618906021,0.038603365421295166,9.76350212097168,0.0020940221089974756,-0.0045413991413442555,-0.0038417487521289597,1.714116096496582,2019-06-21 14:29:12:481,0.0,0.0,0.0
0.061801306903362274,0.021840117871761322,9.780265808105469,-0.00216807606246728,-0.0017443969115459091,-0.0005119845597357803,1.719994068145752,2019-06-21 14:29:12:487,0.0,0.0,0.0
0.040248557925224304,0.0362086147069931,9.835344314575195,0.0002293541671089677,-0.0014780157839566846,-0.005972797772842756,1.7241129875183105,2019-06-21 14:29:12:491,0.0,0.0,0.0
0.05222230777144432,0.04099811613559723,9.710817337036133,0.0004957353109528376,-0.0018775874753405213,0.0021518268787029185,1.7299985885620117,2019-06-21 14:29:12:497,0.0,0.0,0.0
0.06419605761766434,0.029024366289377213,9.816186904907227,-0.0023012666262618923,-0.004275017753680705,-0.0005119845597357803,1.7341179847717285,2019-06-21 14:29:12:501,0.0,0.0,0.0
0.054617054760456085,0.03381386399269104,9.789844512939453,0.0035591184407753737,-0.007205210417236501,0.0021518268787029185,1.7399897575378418,2019-06-21 14:29:12:507,0.0,0.0,0.0
0.03066955879330635,0.0625508651137352,9.818581581115723,-3.702698079856355e-05,-0.002143968602929746,-0.004507701831176346,1.7441134452819824,2019-06-21 14:29:12:511,0.0,0.0,0.0
0.04982755705714226,0.031419117003679276,9.8329496383667,-0.0013689326796996063,-0.007604781848546013,-0.0009115562836289078,1.7499933242797852,2019-06-21 14:29:12:517,0.0,0.0,0.0
0.07377505302429199,0.021840117871761322,9.809002876281738,-0.0004365987006280297,-0.00480778026893348,-0.0017106997314151628,1.7541241645812988,2019-06-21 14:29:12:521,0.0,0.0,0.0
0.061801306903362274,0.05776136368513107,9.777871131896973,0.0002293541671089677,-1.2919485703992724e-05,-0.00104474684742352,1.7599949836730957,2019-06-21 14:29:12:527,0.0,0.0,0.0
0.04264330863952637,0.029024366289377213,9.749134063720703,-0.0013689326796996063,-0.002410349860556133,-0.004241320443512797,1.764112949371338,2019-06-21 14:29:12:531,0.0,0.0,0.0
0.05222230777144432,0.05057711526751518,9.780265808105469,-0.0012357421159049941,-0.0030763026795291946,-0.0030426053693612854,1.769991397857666,2019-06-21 14:29:12:537,0.0,0.0,0.0
0.08814354985952377,0.017050618305802345,9.741949081420898,0.0006289259072567405,-0.0022771592967615207,-0.0025098431141828367,1.7741122245788574,2019-06-21 14:29:12:541,0.0,0.0,0.0
0.061801306903362274,0.014655868522822857,9.81379222869873,-0.00030340813683341745,-0.0061396859068796016,-0.003974939315923572,1.779128074645996,2019-06-21 14:29:12:546,0.0,0.0,0.0
0.07856455445289612,0.031419117003679276,9.8329496383667,-0.0017685043710834434,-0.005207351700242991,-0.006372369724300918,1.7849946022033691,2019-06-21 14:29:12:552,0.0,0.0,0.0
0.05940655618906021,0.021840117871761322,9.756318092346191,9.616359518703274e-05,-0.0025435404243507455,-0.00011241284396997543,1.789992332458496,2019-06-21 14:29:12:557,0.0,0.0,0.0
0.08574879914522171,0.04818236455321312,9.770686149597168,0.00036254474715822533,-0.0010784440275542662,0.0014858740597298572,1.794996738433838,2019-06-21 14:29:12:562,0.0,0.0,0.0
0.028274809941649437,0.0362086147069931,9.801817893981934,-0.0008361704245211573,-0.00041249120858120484,-0.001977080859004387,1.7991280555725098,2019-06-21 14:29:12:566,0.0,0.0,0.0
0.06898555159568787,0.00986636895686388,9.801817893981934,0.0010284975986405774,-0.00773797267241495,-0.0013111280400313259,1.8049979209899902,2019-06-21 14:29:12:572,0.0,0.0,0.0
0.054617054760456085,0.0362086147069931,9.847318649291992,0.003026356185596924,-0.0030763026795291946,-0.004640892134896633,1.8099942207336426,2019-06-21 14:29:12:577,0.0,0.0,0.0
0.07138030230998993,0.0362086147069931,9.770686149597168,0.0008953070348459651,-0.007604781848546013,-0.0007783657198342955,1.8141121864318848,2019-06-21 14:29:12:581,0.0,0.0,0.0
0.07377505302429199,0.01944536715745926,9.782660484313965,0.0032927373131861493,-0.0045413991413442555,0.0010863023033274393,1.8200149536132812,2019-06-21 14:29:12:587,0.0,0.0,0.0
0.06898555159568787,0.0362086147069931,9.787449836730957,-0.000702979860726545,-0.0045413991413442555,-0.0021102714227989997,1.825009822845459,2019-06-21 14:29:12:592,0.0,0.0,0.0
0.07616980373859406,0.01944536715745926,9.761107444763184,-0.000702979860726545,0.0010526050581781115,-0.001977080859004387,1.8299918174743652,2019-06-21 14:29:12:597,0.0,0.0,0.0
0.06419605761766434,0.002682119607925415,9.777871131896973,0.005157405466385046,-0.0053405425241119285,-0.001843890295209775,1.834113597869873,2019-06-21 14:29:12:601,0.0,0.0,0.0
0.06419605761766434,0.012261118739843369,9.72279167175293,0.002893165621802312,-0.005207351700242991,-0.0009115562836289078,1.8400182723999023,2019-06-21 14:29:12:607,0.0,0.0,0.0
0.06419605761766434,0.01944536715745926,9.816186904907227,0.0010284975986405774,-0.003209493243323807,0.0020186363149083063,1.844123363494873,2019-06-21 14:29:12:611,0.0,0.0,0.0
0.06419605761766434,0.05057711526751518,9.828160285949707,0.0011616881624351898,-0.004408208317475317,-0.003575367624539735,1.8499913215637207,2019-06-21 14:29:12:617,0.0,0.0,0.0
0.04264330863952637,0.014655868522822857,9.770686149597168,0.001827640981408251,-0.0018775874753405213,-0.0034421770607451223,1.8549957275390625,2019-06-21 14:29:12:622,0.0,0.0,0.0
0.054617054760456085,-0.014081127941608429,9.753923416137695,-0.002834028881440342,-0.00480778026893348,0.0029509702614705924,1.8599934577941895,2019-06-21 14:29:12:627,0.0,0.0,0.0
0.09053830057382584,0.07691936194896698,9.770686149597168,0.0007621164710513528,-0.0045413991413442555,-0.0005119845597357803,1.864121437072754,2019-06-21 14:29:12:631,0.0,0.0,0.0
0.03785380721092224,-0.004502129275351763,9.797028541564941,0.0002293541671089677,-0.0022771592967615207,-0.005573226341533244,1.8699965476989746,2019-06-21 14:29:12:637,0.0,0.0,0.0
0.04503805935382843,0.03381386399269104,9.85450267791748,0.0016944504176136389,-0.004275017753680705,-0.0014443186038259382,1.874112606048584,2019-06-21 14:29:12:641,0.0,0.0,0.0
0.05701180547475815,0.014655868522822857,9.830554962158203,-0.00030340813683341745,-0.005873304779290378,-0.003175795933155898,1.8799920082092285,2019-06-21 14:29:12:647,0.0,0.0,0.0
0.040248557925224304,0.05776136368513107,9.768291473388672,0.0002293541671089677,-0.005606923651701153,-0.0033089864969505106,1.884122371673584,2019-06-21 14:29:12:651,0.0,0.0,0.0
0.07377505302429199,0.031419117003679276,9.789844512939453,-0.00030340813683341745,-0.005606923651701153,-0.006505560028021206,1.8899965286254883,2019-06-21 14:29:12:657,0.0,0.0,0.0
0.0665908083319664,0.017050618305802345,9.794633865356445,-0.0017685043710834434,-0.005473732827832216,-0.00024560341589191043,1.8941125869750977,2019-06-21 14:29:12:661,0.0,0.0,0.0
0.07377505302429199,0.05776136368513107,9.73476505279541,-0.0019016949348780556,-0.008137544103724461,-0.006638750851890143,1.9000182151794434,2019-06-21 14:29:12:667,0.0,0.0,0.0
0.06419605761766434,0.029024366289377213,9.85450267791748,-0.0015021232434942187,-0.005207351700242991,2.0777729983790183e-05,1.9049992561340332,2019-06-21 14:29:12:672,0.0,0.0,0.0
0.061801306903362274,-0.009291628375649452,9.785055160522461,-0.0008361704245211573,-0.008403925751462336,-0.0014443186038259382,1.9091095924377441,2019-06-21 14:29:12:676,0.0,0.0,0.0
0.061801306903362274,0.05776136368513107,9.835344314575195,-0.0005697892969319327,-0.005074161396522704,-0.003708558188334347,1.9149985313415527,2019-06-21 14:29:12:682,0.0,0.0,0.0
0.07377505302429199,0.05776136368513107,9.79223918914795,0.0011616881624351898,-0.0016112063477512967,0.002551398570086756,1.9199919700622559,2019-06-21 14:29:12:687,0.0,0.0,0.0
0.0665908083319664,0.04099811613559723,9.811397552490234,-0.00017021755678415983,-0.0017443969115459091,-0.003175795933155898,1.9241137504577637,2019-06-21 14:29:12:691,0.0,0.0,0.0
0.07377505302429199,0.05057711526751518,9.761107444763184,0.002360403366623863,-0.003209493243323807,-0.00024560341589191043,1.9299960136413574,2019-06-21 14:29:12:697,0.0,0.0,0.0
0.08095930516719818,0.05536661297082901,9.811397552490234,-0.0029672194452349536,-0.004275017753680705,-0.006372369724300918,1.934129238128662,2019-06-21 14:29:12:701,0.0,0.0,0.0
0.08574879914522171,0.045787613838911057,9.79223918914795,-0.0008361704245211573,-0.005606923651701153,-0.003575367624539735,1.9399938583374023,2019-06-21 14:29:12:707,0.0,0.0,0.0
0.08335405588150024,-0.004502129275351763,9.830554962158203,0.0016944504176136389,-0.004408208317475317,0.0009531117395328268,1.9449944496154785,2019-06-21 14:29:12:712,0.0,0.0,0.0
0.07856455445289612,0.002682119607925415,9.823370933532715,0.0022272128028292507,-0.002943112115734582,-0.0017106997314151628,1.949108600616455,2019-06-21 14:29:12:716,0.0,0.0,0.0
0.05940655618906021,0.029024366289377213,9.780265808105469,0.0004957353109528376,-0.007871162976135238,-0.0009115562836289078,1.9550118446350098,2019-06-21 14:29:12:722,0.0,0.0,0.0
0.04503805935382843,0.017050618305802345,9.823370933532715,0.002626784494213087,-0.0036090649347076437,-0.005573226341533244,1.95912504196167,2019-06-21 14:29:12:726,0.0,0.0,0.0
0.07856455445289612,0.038603365421295166,9.861686706542969,0.003825499568364598,0.0014521767495619484,-0.006638750851890143,1.9649968147277832,2019-06-21 14:29:12:732,0.0,0.0,0.0
0.04982755705714226,0.0362086147069931,9.844923973083496,0.0035591184407753737,-0.0038754460622968685,-0.005706416645253532,1.969998836517334,2019-06-21 14:29:12:737,0.0,0.0,0.0
0.04503805935382843,0.05297186225652695,9.7515287399292,0.001827640981408251,-0.0028099215519399702,0.002551398570086756,1.9741129875183105,2019-06-21 14:29:12:741,0.0,0.0,0.0
0.03785380721092224,0.014655868522822857,9.847318649291992,0.0007621164710513528,-0.0036090649347076437,-0.0034421770607451223,1.9800095558166504,2019-06-21 14:29:12:747,0.0,0.0,0.0
0.054617054760456085,0.017050618305802345,9.837739944458008,0.0016944504176136389,-0.006406067034468827,-0.0014443186038259382,1.9841265678405762,2019-06-21 14:29:12:751,0.0,0.0,0.0
0.0665908083319664,0.00986636895686388,9.746739387512207,-0.00030340813683341745,-0.0005456817723758172,-0.00011241284396997543,1.989992618560791,2019-06-21 14:29:12:757,0.0,0.0,0.0
0.04503805935382843,0.05297186225652695,9.847318649291992,-0.0017685043710834434,0.000786223930588887,-0.0025098431141828367,1.994112491607666,2019-06-21 14:29:12:761,0.0,0.0,0.0
0.09053830057382584,0.038603365421295166,9.866476058959961,0.0008953070348459651,-0.002010778039135134,0.004416066723285653,2.000016689300537,2019-06-21 14:29:12:767,0.0,0.0,0.0
0.05222230777144432,0.012261118739843369,9.820976257324219,-0.0013689326796996063,-0.0006788723361704295,-0.0025098431141828367,2.004119396209717,2019-06-21 14:29:12:771,0.0,0.0,0.0
0.03066955879330635,0.017050618305802345,9.811397552490234,-0.0008361704245211573,-0.00400863662609148,-0.0005119845597357803,2.0099968910217285,2019-06-21 14:29:12:777,0.0,0.0,0.0
0.04982755705714226,0.024234866723418236,9.741949081420898,0.002360403366623863,-0.0028099215519399702,-0.0021102714227989997,2.0149970054626465,2019-06-21 14:29:12:782,0.0,0.0,0.0
0.07138030230998993,0.01944536715745926,9.81379222869873,0.002893165621802312,-0.002943112115734582,0.00015396830800121713,2.019993305206299,2019-06-21 14:29:12:787,0.0,0.0,0.0
0.07616980373859406,0.05057711526751518,9.823370933532715,0.003026356185596924,-0.004141827189886093,0.000420349451845087,2.024113178253174,2019-06-21 14:29:12:791,0.0,0.0,0.0
0.061801306903362274,0.017050618305802345,9.8329496383667,-0.0046986967745649135,-0.004408208317475317,0.0020186363149083063,2.029996395111084,2019-06-21 14:29:12:797,0.0,0.0,0.0
0.0019325630273669958,0.007471619173884392,9.868871688842773,-0.0008361704245211573,-0.002143968602929746,-0.00024560341589191043,2.0350003242492676,2019-06-21 14:29:12:802,0.0,0.0,0.0
0.08814354985952377,0.05297186225652695,9.765896797180176,-0.0023012666262618923,-0.0036090649347076437,-0.002643033677977449,2.0391077995300293,2019-06-21 14:29:12:806,0.0,0.0,0.0
0.04264330863952637,-0.002107379725202918,9.787449836730957,0.0004957353109528376,0.0005198428029996624,-0.002643033677977449,2.044996738433838,2019-06-21 14:29:12:812,0.0,0.0,0.0
0.04264330863952637,0.038603365421295166,9.835344314575195,0.0006289259072567405,-0.00920306913423001,-0.00530684521394402,2.0491104125976562,2019-06-21 14:29:12:816,0.0,0.0,0.0
0.06419605761766434,0.002682119607925415,9.806608200073242,0.0011616881624351898,-0.0013448252201620722,0.0029509702614705924,2.054116725921631,2019-06-21 14:29:12:821,0.0,0.0,0.0
0.04503805935382843,0.0625508651137352,9.744344711303711,0.001294878726229802,-0.0038754460622968685,0.00015396830800121713,2.0599961280822754,2019-06-21 14:29:12:827,0.0,0.0,0.0
0.040248557925224304,0.00028736997046507895,9.80421257019043,-0.001102551552110382,-0.004408208317475317,2.0777729983790183e-05,2.064110279083252,2019-06-21 14:29:12:831,0.0,0.0,0.0
0.05940655618906021,0.029024366289377213,9.825765609741211,0.0014280692900244143,-0.004141827189886093,-0.004507701831176346,2.0699868202209473,2019-06-21 14:29:12:837,0.0,0.0,0.0
0.08335405588150024,0.043392863124608994,9.758712768554688,-0.0019016949348780556,0.0005198428029996624,0.0014858740597298572,2.0750174522399902,2019-06-21 14:29:12:842,0.0,0.0,0.0
0.06419605761766434,0.002682119607925415,9.780265808105469,-0.00216807606246728,-0.005606923651701153,-0.003175795933155898,2.079113483428955,2019-06-21 14:29:12:846,0.0,0.0,0.0
0.021090559661388397,0.07452461123466492,9.780265808105469,0.0007621164710513528,-0.003742255498502256,-0.0015775091676205506,2.084994316101074,2019-06-21 14:29:12:852,0.0,0.0,0.0
0.033064309507608414,0.021840117871761322,9.811397552490234,0.0016944504176136389,-0.0013448252201620722,-0.00104474684742352,2.089992046356201,2019-06-21 14:29:12:857,0.0,0.0,0.0
0.05701180547475815,0.05776136368513107,9.823370933532715,-0.0036331725242823402,-0.000945253463759654,0.002285017442497531,2.094130516052246,2019-06-21 14:29:12:861,0.0,0.0,0.0
0.05222230777144432,0.031419117003679276,9.787449836730957,0.0002293541671089677,-0.0038754460622968685,-0.003708558188334347,2.0999951362609863,2019-06-21 14:29:12:867,0.0,0.0,0.0
0.08574879914522171,0.038603365421295166,9.828160285949707,0.0008953070348459651,-0.006272876210599889,0.001752255187319082,2.1049952507019043,2019-06-21 14:29:12:872,0.0,0.0,0.0
0.06898555159568787,0.0362086147069931,9.876055717468262,0.0032927373131861493,-0.0010784440275542662,-0.003575367624539735,2.1091079711914062,2019-06-21 14:29:12:876,0.0,0.0,0.0
0.03066955879330635,0.04818236455321312,9.809002876281738,0.0031595467493915367,-0.0017443969115459091,-0.00011241284396997543,2.1150050163269043,2019-06-21 14:29:12:882,0.0,0.0,0.0
0.040248557925224304,-0.004502129275351763,9.818581581115723,-0.004565506470844626,-0.0034758743709130315,-0.005706416645253532,2.1191277503967285,2019-06-21 14:29:12:886,0.0,0.0,0.0
0.07138030230998993,0.014655868522822857,9.825765609741211,-0.0017685043710834434,-0.0057401139554214406,-0.0007783657198342955,2.1249942779541016,2019-06-21 14:29:12:892,0.0,0.0,0.0
0.10251204669475555,0.05536661297082901,9.849713325500488,0.002360403366623863,-0.005074161396522704,-0.005173654390075082,2.1300292015075684,2019-06-21 14:29:12:897,0.0,0.0,0.0
0.03066955879330635,-0.026054875925183296,9.773080825805664,-0.004831887598433851,-0.009735831389408459,-0.0033089864969505106,2.1351189613342285,2019-06-21 14:29:12:902,0.0,0.0,0.0
0.05701180547475815,0.0266296174377203,9.864081382751465,0.0002293541671089677,-0.00773797267241495,-0.003708558188334347,2.139125347137451,2019-06-21 14:29:12:906,0.0,0.0,0.0
0.08574879914522171,0.017050618305802345,9.835344314575195,-0.0034999819604877285,-0.002943112115734582,-0.00104474684742352,2.14499568939209,2019-06-21 14:29:12:912,0.0,0.0,0.0
0.07138030230998993,0.01944536715745926,9.811397552490234,0.0002293541671089677,-0.005074161396522704,-0.004907273262485858,2.149108409881592,2019-06-21 14:29:12:916,0.0,0.0,0.0
0.061801306903362274,0.014655868522822857,9.746739387512207,0.0008953070348459651,-0.003742255498502256,-0.0062391789004319805,2.1549973487854004,2019-06-21 14:29:12:922,0.0,0.0,0.0
0.08335405588150024,0.04099811613559723,9.715607643127441,-0.0012357421159049941,-0.0034758743709130315,0.0010863023033274393,2.159125804901123,2019-06-21 14:29:12:926,0.0,0.0,0.0
0.047432806342840195,0.04818236455321312,9.816186904907227,-0.0009693609883157694,-0.0013448252201620722,-0.0062391789004319805,2.1641221046447754,2019-06-21 14:29:12:931,0.0,0.0,0.0
0.07377505302429199,-0.002107379725202918,9.761107444763184,0.003825499568364598,-0.0038754460622968685,-0.002243461986593612,2.169987201690674,2019-06-21 14:29:12:937,0.0,0.0,0.0
0.06419605761766434,0.021840117871761322,9.81379222869873,0.004358261823543047,-0.004275017753680705,0.0005535400481489899,2.1749958992004395,2019-06-21 14:29:12:942,0.0,0.0,0.0
0.08095930516719818,0.01944536715745926,9.809002876281738,0.005823358025283782,-0.0028099215519399702,-0.003708558188334347,2.1800107955932617,2019-06-21 14:29:12:947,0.0,0.0,0.0
0.03545906022191048,0.06973510980606079,9.849713325500488,-0.00017021755678415983,0.000786223930588887,-0.0021102714227989997,2.1841249465942383,2019-06-21 14:29:12:951,0.0,0.0,0.0
0.08574879914522171,0.0362086147069931,9.828160285949707,0.001294878726229802,-0.0053405425241119285,-0.003175795933155898,2.189995765686035,2019-06-21 14:29:12:957,0.0,0.0,0.0
0.10011730343103409,0.038603365421295166,9.749134063720703,0.0011616881624351898,-0.004940970572653767,0.00015396830800121713,2.1941094398498535,2019-06-21 14:29:12:961,0.0,0.0,0.0
0.07856455445289612,0.04099811613559723,9.85450267791748,0.0019608315452028634,-0.006406067034468827,-0.006771941675759081,2.19999361038208,2019-06-21 14:29:12:967,0.0,0.0,0.0
0.040248557925224304,0.005076869390904903,9.749134063720703,-0.000702979860726545,-0.002410349860556133,-0.0034421770607451223,2.204113483428955,2019-06-21 14:29:12:971,0.0,0.0,0.0
0.047432806342840195,0.012261118739843369,9.739554405212402,0.0006289259072567405,-0.002943112115734582,0.000420349451845087,2.2099976539611816,2019-06-21 14:29:12:977,0.0,0.0,0.0
0.05222230777144432,0.04818236455321312,9.806608200073242,0.001827640981408251,-0.0053405425241119285,-0.001843890295209775,2.2141165733337402,2019-06-21 14:29:12:981,0.0,0.0,0.0
0.040248557925224304,0.05776136368513107,9.768291473388672,-0.0027008383176457293,-0.0005456817723758172,-0.004241320443512797,2.2199907302856445,2019-06-21 14:29:12:987,0.0,0.0,0.0
0.05701180547475815,-0.006896879058331251,9.785055160522461,-0.002567647753851117,-0.0045413991413442555,0.0013526834959352448,2.2241196632385254,2019-06-21 14:29:12:991,0.0,0.0,0.0
0.09053830057382584,-0.002107379725202918,9.837739944458008,0.0031595467493915367,-0.005606923651701153,-0.0033089864969505106,2.2299962043762207,2019-06-21 14:29:12:997,0.0,0.0,0.0
0.05701180547475815,0.045787613838911057,9.765896797180176,0.0004957353109528376,-0.0030763026795291946,-0.004907273262485858,2.234997272491455,2019-06-21 14:29:13:002,0.0,0.0,0.0
0.06898555159568787,-0.002107379725202918,9.741949081420898,-0.004965077902154138,-0.0026767309881453576,0.0021518268787029185,2.2399916648864746,2019-06-21 14:29:13:007,0.0,0.0,0.0
0.06419605761766434,0.00028736997046507895,9.830554962158203,0.0007621164710513528,-1.2919485703992724e-05,-0.003575367624539735,2.2441134452819824,2019-06-21 14:29:13:011,0.0,0.0,0.0
0.01630106195807457,0.05776136368513107,9.820976257324219,0.005024214642516109,-0.0022771592967615207,-0.00104474684742352,2.249992847442627,2019-06-21 14:29:13:017,0.0,0.0,0.0
0.0665908083319664,0.024234866723418236,9.849713325500488,-0.0017685043710834434,-0.0030763026795291946,-0.0025098431141828367,2.2541122436523438,2019-06-21 14:29:13:021,0.0,0.0,0.0
0.08574879914522171,0.012261118739843369,9.866476058959961,9.616359518703274e-05,0.0015853673133565606,-0.003708558188334347,2.260009288787842,2019-06-21 14:29:13:027,0.0,0.0,0.0
0.03066955879330635,0.03381386399269104,9.81379222869873,-0.002434457190056505,-0.004674589445064542,-0.002776224241772061,2.264997959136963,2019-06-21 14:29:13:032,0.0,0.0,0.0
0.07856455445289612,0.031419117003679276,9.818581581115723,0.0016944504176136389,-0.003209493243323807,-0.001977080859004387,2.269118309020996,2019-06-21 14:29:13:036,0.0,0.0,0.0
0.06898555159568787,0.017050618305802345,9.782660484313965,0.0031595467493915367,-0.004275017753680705,-0.001843890295209775,2.2749977111816406,2019-06-21 14:29:13:042,0.0,0.0,0.0
0.10011730343103409,0.0266296174377203,9.799423217773438,-0.002434457190056505,-0.0018775874753405213,-0.0025098431141828367,2.279994487762451,2019-06-21 14:29:13:047,0.0,0.0,0.0
0.07616980373859406,0.031419117003679276,9.794633865356445,0.0014280692900244143,-0.0016112063477512967,-0.0007783657198342955,2.284994602203369,2019-06-21 14:29:13:052,0.0,0.0,0.0
0.07377505302429199,0.0266296174377203,9.852108001708984,-0.004032744215666177,-0.000146110064737335,-0.0017106997314151628,2.2891087532043457,2019-06-21 14:29:13:056,0.0,0.0,0.0
0.07616980373859406,0.06494560837745667,9.820976257324219,0.001294878726229802,-0.004408208317475317,-0.005972797772842756,2.294999599456787,2019-06-21 14:29:13:062,0.0,0.0,0.0
0.07856455445289612,0.017050618305802345,9.758712768554688,0.0032927373131861493,-0.0022771592967615207,-0.0017106997314151628,2.2999911308288574,2019-06-21 14:29:13:067,0.0,0.0,0.0
0.04982755705714226,0.007471619173884392,9.847318649291992,0.00036254474715822533,-0.0061396859068796016,-0.0013111280400313259,2.3041205406188965,2019-06-21 14:29:13:071,0.0,0.0,0.0
0.05701180547475815,0.01944536715745926,9.830554962158203,-0.004032744215666177,-0.003209493243323807,-0.0034421770607451223,2.309998035430908,2019-06-21 14:29:13:077,0.0,0.0,0.0
0.05701180547475815,0.024234866723418236,9.773080825805664,0.0020940221089974756,-0.004275017753680705,-0.0006451751560396832,2.3150105476379395,2019-06-21 14:29:13:082,0.0,0.0,0.0
0.09532780200242996,0.0362086147069931,9.746739387512207,-0.004831887598433851,-0.0034758743709130315,-0.002776224241772061,2.319118022918701,2019-06-21 14:29:13:086,0.0,0.0,0.0
0.04503805935382843,0.024234866723418236,9.8329496383667,-0.003766363088076953,0.0014521767495619484,-0.003708558188334347,2.325000286102295,2019-06-21 14:29:13:092,0.0,0.0,0.0
0.06419605761766434,0.03381386399269104,9.799423217773438,-0.000702979860726545,-0.0045413991413442555,-0.0021102714227989997,2.3291125297546387,2019-06-21 14:29:13:096,0.0,0.0,0.0
0.03066955879330635,0.021840117871761322,9.768291473388672,0.0016944504176136389,-0.0026767309881453576,-0.00477408295876557,2.3349967002868652,2019-06-21 14:29:13:102,0.0,0.0,0.0
0.07377505302429199,0.00986636895686388,9.756318092346191,-0.001635313807288831,-0.0022771592967615207,-0.002776224241772061,2.3399925231933594,2019-06-21 14:29:13:107,0.0,0.0,0.0
0.05222230777144432,0.014655868522822857,9.794633865356445,-0.0017685043710834434,-0.0030763026795291946,-0.00011241284396997543,2.3441128730773926,2019-06-21 14:29:13:111,0.0,0.0,0.0
0.10251204669475555,0.029024366289377213,9.794633865356445,-0.001635313807288831,-0.00400863662609148,-0.002243461986593612,2.3500027656555176,2019-06-21 14:29:13:117,0.0,0.0,0.0
0.08335405588150024,0.06494560837745667,9.775476455688477,-0.001102551552110382,-0.0018775874753405213,-0.0030426053693612854,2.354119300842285,2019-06-21 14:29:13:121,0.0,0.0,0.0
0.040248557925224304,0.017050618305802345,9.76350212097168,0.003026356185596924,-0.005473732827832216,-0.0038417487521289597,2.3600049018859863,2019-06-21 14:29:13:127,0.0,0.0,0.0
0.05222230777144432,0.038603365421295166,9.856897354125977,-0.00216807606246728,-0.004275017753680705,-0.0029094148055666736,2.3641257286071777,2019-06-21 14:29:13:131,0.0,0.0,0.0
0.05701180547475815,0.03381386399269104,9.773080825805664,0.0031595467493915367,-0.00480778026893348,-0.0033089864969505106,2.369992733001709,2019-06-21 14:29:13:137,0.0,0.0,0.0
0.04503805935382843,0.00028736997046507895,9.789844512939453,0.003026356185596924,-0.005473732827832216,-0.002776224241772061,2.374997615814209,2019-06-21 14:29:13:142,0.0,0.0,0.0
0.03545906022191048,0.017050618305802345,9.809002876281738,0.00036254474715822533,-0.004141827189886093,0.0009531117395328268,2.379992961883545,2019-06-21 14:29:13:147,0.0,0.0,0.0
0.0665908083319664,0.05297186225652695,9.816186904907227,-0.000702979860726545,-0.0036090649347076437,-0.003708558188334347,2.3849940299987793,2019-06-21 14:29:13:152,0.0,0.0,0.0
0.0665908083319664,0.05536661297082901,9.768291473388672,0.003425927876980761,-0.005207351700242991,0.0006867306119436022,2.389108657836914,2019-06-21 14:29:13:156,0.0,0.0,0.0
0.07377505302429199,0.024234866723418236,9.765896797180176,0.0011616881624351898,-0.0061396859068796016,-0.0014443186038259382,2.394134998321533,2019-06-21 14:29:13:161,0.0,0.0,0.0
0.07377505302429199,0.0362086147069931,9.818581581115723,0.001294878726229802,-0.004940970572653767,-0.0021102714227989997,2.399994373321533,2019-06-21 14:29:13:167,0.0,0.0,0.0
0.04503805935382843,0.05776136368513107,9.806608200073242,0.003026356185596924,-0.0036090649347076437,0.00015396830800121713,2.405001163482666,2019-06-21 14:29:13:172,0.0,0.0,0.0
0.05222230777144432,0.017050618305802345,9.797028541564941,-0.0019016949348780556,-0.0061396859068796016,-0.001977080859004387,2.4091153144836426,2019-06-21 14:29:13:176,0.0,0.0,0.0
0.033064309507608414,0.03381386399269104,9.741949081420898,0.003425927876980761,-0.003342683807118419,-0.0015775091676205506,2.41499662399292,2019-06-21 14:29:13:182,0.0,0.0,0.0
0.07138030230998993,0.024234866723418236,9.785055160522461,0.001827640981408251,-0.0025435404243507455,-0.00024560341589191043,2.4199929237365723,2019-06-21 14:29:13:187,0.0,0.0,0.0
0.07377505302429199,-0.006896879058331251,9.828160285949707,-0.0013689326796996063,-0.000146110064737335,-0.005706416645253532,2.4241127967834473,2019-06-21 14:29:13:191,0.0,0.0,0.0
0.03785380721092224,0.024234866723418236,9.780265808105469,-0.000702979860726545,-0.00400863662609148,-0.002643033677977449,2.4291090965270996,2019-06-21 14:29:13:196,0.0,0.0,0.0
0.05940655618906021,0.0266296174377203,9.787449836730957,0.0002293541671089677,-0.0006788723361704295,-0.001843890295209775,2.434993267059326,2019-06-21 14:29:13:202,0.0,0.0,0.0
0.054617054760456085,0.043392863124608994,9.81379222869873,-0.0009693609883157694,0.0014521767495619484,0.0008199211757382146,2.4391231536865234,2019-06-21 14:29:13:206,0.0,0.0,0.0
0.040248557925224304,0.002682119607925415,9.794633865356445,-3.702698079856355e-05,-0.0022771592967615207,-0.0013111280400313259,2.4441232681274414,2019-06-21 14:29:13:211,0.0,0.0,0.0
0.07138030230998993,0.06015611067414284,9.80421257019043,-0.0009693609883157694,-0.0030763026795291946,-0.0021102714227989997,2.44999361038208,2019-06-21 14:29:13:217,0.0,0.0,0.0
0.08335405588150024,0.014655868522822857,9.746739387512207,-0.001635313807288831,-0.004674589445064542,0.00028715888805047477,2.454129219055176,2019-06-21 14:29:13:221,0.0,0.0,0.0
0.0665908083319664,0.029024366289377213,9.7515287399292,0.001294878726229802,-0.005207351700242991,-0.000378793995941168,2.459995746612549,2019-06-21 14:29:13:227,0.0,0.0,0.0
0.03785380721092224,0.0362086147069931,9.753923416137695,0.00036254474715822533,-0.004275017753680705,-0.0011779374762367137,2.4649977684020996,2019-06-21 14:29:13:232,0.0,0.0,0.0
0.028274809941649437,0.012261118739843369,9.856897354125977,0.0020940221089974756,-0.0045413991413442555,-0.0033089864969505106,2.469109058380127,2019-06-21 14:29:13:236,0.0,0.0,0.0
0.08335405588150024,0.024234866723418236,9.830554962158203,0.0020940221089974756,-0.0005456817723758172,-0.005573226341533244,2.4749951362609863,2019-06-21 14:29:13:242,0.0,0.0,0.0
0.04503805935382843,0.08649835735559464,9.876055717468262,0.00036254474715822533,-0.004940970572653767,-0.0011779374762367137,2.479112148284912,2019-06-21 14:29:13:246,0.0,0.0,0.0
0.08095930516719818,0.0362086147069931,9.801817893981934,-3.702698079856355e-05,0.000786223930588887,-0.0025098431141828367,2.4849987030029297,2019-06-21 14:29:13:252,0.0,0.0,0.0
0.08095930516719818,0.03381386399269104,9.801817893981934,0.004091880695953822,-0.004141827189886093,-0.0014443186038259382,2.4891152381896973,2019-06-21 14:29:13:256,0.0,0.0,0.0
0.06419605761766434,0.029024366289377213,9.811397552490234,-0.0012357421159049941,-0.003342683807118419,-0.002376652550388224,2.495023250579834,2019-06-21 14:29:13:262,0.0,0.0,0.0
0.03785380721092224,0.007471619173884392,9.885634422302246,0.0019608315452028634,-0.0017443969115459091,0.001752255187319082,2.4991230964660645,2019-06-21 14:29:13:266,0.0,0.0,0.0
0.061801306903362274,0.043392863124608994,9.866476058959961,-0.001102551552110382,0.0006530333667942747,-0.005173654390075082,2.505021095275879,2019-06-21 14:29:13:272,0.0,0.0,0.0
0.054617054760456085,0.024234866723418236,9.794633865356445,-0.000702979860726545,-0.0017443969115459091,-0.0034421770607451223,2.5099940299987793,2019-06-21 14:29:13:277,0.0,0.0,0.0
0.040248557925224304,0.05057711526751518,9.811397552490234,-0.002567647753851117,-0.006406067034468827,-0.00024560341589191043,2.5149946212768555,2019-06-21 14:29:13:282,0.0,0.0,0.0
0.033064309507608414,0.04099811613559723,9.756318092346191,-0.001102551552110382,-0.0002793006447865926,-0.0014443186038259382,2.519113063812256,2019-06-21 14:29:13:286,0.0,0.0,0.0
0.061801306903362274,0.04818236455321312,9.852108001708984,0.0015612598538190267,-0.003209493243323807,-0.005440035517664307,2.5249977111816406,2019-06-21 14:29:13:292,0.0,0.0,0.0
0.04982755705714226,-0.004502129275351763,9.799423217773438,0.0008953070348459651,-0.00480778026893348,0.000420349451845087,2.529113292694092,2019-06-21 14:29:13:296,0.0,0.0,0.0
0.028274809941649437,0.04099811613559723,9.844923973083496,0.0031595467493915367,-0.003209493243323807,0.004149685335622103,2.534130573272705,2019-06-21 14:29:13:301,0.0,0.0,0.0
0.047432806342840195,0.06015611067414284,9.811397552490234,0.003026356185596924,-0.0026767309881453576,0.0028177796976759806,2.540006160736084,2019-06-21 14:29:13:307,0.0,0.0,0.0
0.04264330863952637,0.045787613838911057,9.789844512939453,0.0014280692900244143,-0.004674589445064542,-0.0015775091676205506,2.544126033782959,2019-06-21 14:29:13:311,0.0,0.0,0.0
0.047432806342840195,0.017050618305802345,9.79223918914795,0.0006289259072567405,-0.0028099215519399702,-0.004374511007307408,2.549994945526123,2019-06-21 14:29:13:317,0.0,0.0,0.0
0.04503805935382843,0.04099811613559723,9.809002876281738,-0.0005697892969319327,-0.004141827189886093,-0.0029094148055666736,2.554997444152832,2019-06-21 14:29:13:322,0.0,0.0,0.0
0.07856455445289612,0.03381386399269104,9.818581581115723,0.0007621164710513528,-0.004674589445064542,-0.003708558188334347,2.5599942207336426,2019-06-21 14:29:13:327,0.0,0.0,0.0
0.08814354985952377,0.045787613838911057,9.785055160522461,-0.00216807606246728,-0.004940970572653767,-0.0030426053693612854,2.5649914741516113,2019-06-21 14:29:13:332,0.0,0.0,0.0
0.054617054760456085,0.03381386399269104,9.775476455688477,0.0004957353109528376,-0.004674589445064542,0.006014353488821,2.56998348236084,2019-06-21 14:29:13:337,0.0,0.0,0.0
0.04982755705714226,-0.006896879058331251,9.840134620666504,0.001294878726229802,-0.005074161396522704,-0.0007783657198342955,2.574110507965088,2019-06-21 14:29:13:341,0.0,0.0,0.0
0.04264330863952637,0.021840117871761322,9.818581581115723,0.0020940221089974756,-0.004275017753680705,-0.0025098431141828367,2.580005168914795,2019-06-21 14:29:13:347,0.0,0.0,0.0
0.03785380721092224,0.038603365421295166,9.797028541564941,0.0035591184407753737,-0.008403925751462336,-0.00530684521394402,2.5841174125671387,2019-06-21 14:29:13:351,0.0,0.0,0.0
0.040248557925224304,0.017050618305802345,9.785055160522461,-0.0004365987006280297,-0.003742255498502256,-0.003974939315923572,2.5899930000305176,2019-06-21 14:29:13:357,0.0,0.0,0.0
0.05701180547475815,0.00986636895686388,9.840134620666504,-0.004032744215666177,-0.0034758743709130315,-0.007837466186115978,2.5941290855407715,2019-06-21 14:29:13:361,0.0,0.0,0.0
0.061801306903362274,0.04099811613559723,9.729975700378418,0.0004957353109528376,0.0002534616591557925,-0.0021102714227989997,2.6000008583068848,2019-06-21 14:29:13:367,0.0,0.0,0.0
0.05701180547475815,0.024234866723418236,9.80421257019043,-0.00030340813683341745,-0.002943112115734582,-0.004108129879718184,2.604121208190918,2019-06-21 14:29:13:371,0.0,0.0,0.0
0.05222230777144432,-0.009291628375649452,9.837739944458008,-0.0008361704245211573,-0.003342683807118419,-0.002243461986593612,2.6099982261657715,2019-06-21 14:29:13:377,0.0,0.0,0.0
0.05940655618906021,0.03381386399269104,9.80421257019043,0.002493593930418475,-0.0022771592967615207,-0.00011241284396997543,2.6149983406066895,2019-06-21 14:29:13:382,0.0,0.0,0.0
0.06898555159568787,0.03381386399269104,9.73476505279541,-0.001102551552110382,-0.0038754460622968685,-0.0029094148055666736,2.6199936866760254,2019-06-21 14:29:13:387,0.0,0.0,0.0
0.06898555159568787,0.014655868522822857,9.859292030334473,-0.004831887598433851,-0.0014780157839566846,-0.002776224241772061,2.625002384185791,2019-06-21 14:29:13:392,0.0,0.0,0.0
0.05701180547475815,-0.02126537635922432,9.809002876281738,-0.002034885498672668,-0.0013448252201620722,-0.0061059885967116945,2.6291141510009766,2019-06-21 14:29:13:396,0.0,0.0,0.0
0.09053830057382584,0.043392863124608994,9.794633865356445,0.0008953070348459651,-0.0014780157839566846,-0.002243461986593612,2.6349964141845703,2019-06-21 14:29:13:402,0.0,0.0,0.0
0.10730154812335968,0.043392863124608994,9.80421257019043,0.0015612598538190267,0.0009194144943834993,-0.007304703930937529,2.6399941444396973,2019-06-21 14:29:13:407,0.0,0.0,0.0
0.05701180547475815,0.0266296174377203,9.765896797180176,-0.002567647753851117,-0.0013448252201620722,-0.006372369724300918,2.644993305206299,2019-06-21 14:29:13:412,0.0,0.0,0.0
0.05701180547475815,-0.006896879058331251,9.768291473388672,0.004491452387337659,-0.0053405425241119285,-0.002776224241772061,2.6491079330444336,2019-06-21 14:29:13:416,0.0,0.0,0.0
0.03785380721092224,0.024234866723418236,9.797028541564941,-0.0013689326796996063,0.0010526050581781115,-0.004507701831176346,2.6541314125061035,2019-06-21 14:29:13:421,0.0,0.0,0.0
0.02348531037569046,0.04099811613559723,9.80421257019043,-0.0015021232434942187,-0.0018775874753405213,-0.0029094148055666736,2.6599950790405273,2019-06-21 14:29:13:427,0.0,0.0,0.0
0.06419605761766434,0.0362086147069931,9.828160285949707,0.0010284975986405774,-0.004940970572653767,-0.000378793995941168,2.6641135215759277,2019-06-21 14:29:13:431,0.0,0.0,0.0
0.07138030230998993,0.021840117871761322,9.80421257019043,0.0008953070348459651,-0.0057401139554214406,0.0013526834959352448,2.6700005531311035,2019-06-21 14:29:13:437,0.0,0.0,0.0
0.061801306903362274,0.0625508651137352,9.85450267791748,-0.0013689326796996063,-0.0028099215519399702,-0.000378793995941168,2.6750168800354004,2019-06-21 14:29:13:442,0.0,0.0,0.0
0.04264330863952637,0.07691936194896698,9.816186904907227,0.0016944504176136389,-0.0030763026795291946,0.0038833042080328784,2.679995059967041,2019-06-21 14:29:13:447,0.0,0.0,0.0
0.04503805935382843,0.012261118739843369,9.823370933532715,-0.0013689326796996063,-0.002410349860556133,-0.002643033677977449,2.684113025665283,2019-06-21 14:29:13:451,0.0,0.0,0.0
0.021090559661388397,-0.01168637815862894,9.81379222869873,0.0002293541671089677,-0.006006495083010664,-0.0007783657198342955,2.6899967193603516,2019-06-21 14:29:13:457,0.0,0.0,0.0
0.040248557925224304,0.08170885592699051,9.739554405212402,0.0031595467493915367,-0.0036090649347076437,-0.003708558188334347,2.694113254547119,2019-06-21 14:29:13:461,0.0,0.0,0.0
0.061801306903362274,0.017050618305802345,9.837739944458008,0.0011616881624351898,-0.0006788723361704295,-0.0013111280400313259,2.7000060081481934,2019-06-21 14:29:13:467,0.0,0.0,0.0
0.03785380721092224,0.012261118739843369,9.753923416137695,0.0010284975986405774,-0.004674589445064542,-0.0029094148055666736,2.7041382789611816,2019-06-21 14:29:13:471,0.0,0.0,0.0
0.040248557925224304,0.06973510980606079,9.809002876281738,0.0014280692900244143,-0.0038754460622968685,-0.0025098431141828367,2.7099947929382324,2019-06-21 14:29:13:477,0.0,0.0,0.0
0.03785380721092224,0.01944536715745926,9.797028541564941,0.003425927876980761,-0.0005456817723758172,0.00028715888805047477,2.71412992477417,2019-06-21 14:29:13:481,0.0,0.0,0.0
0.07138030230998993,0.017050618305802345,9.758712768554688,-0.002567647753851117,-0.003209493243323807,0.00028715888805047477,2.719120979309082,2019-06-21 14:29:13:486,0.0,0.0,0.0
0.04264330863952637,0.03381386399269104,9.80421257019043,-0.000702979860726545,-0.006006495083010664,-0.002376652550388224,2.7249903678894043,2019-06-21 14:29:13:492,0.0,0.0,0.0
0.040248557925224304,0.024234866723418236,9.852108001708984,-0.002434457190056505,-0.0006788723361704295,0.000420349451845087,2.7291030883789062,2019-06-21 14:29:13:496,0.0,0.0,0.0
0.04982755705714226,0.007471619173884392,9.849713325500488,0.005556976897694558,-0.006006495083010664,-0.0062391789004319805,2.734994888305664,2019-06-21 14:29:13:502,0.0,0.0,0.0
0.07856455445289612,0.029024366289377213,9.840134620666504,0.0022272128028292507,-0.005207351700242991,-0.0013111280400313259,2.7391085624694824,2019-06-21 14:29:13:506,0.0,0.0,0.0
0.040248557925224304,0.017050618305802345,9.811397552490234,0.0031595467493915367,-0.0034758743709130315,-0.0029094148055666736,2.7449965476989746,2019-06-21 14:29:13:512,0.0,0.0,0.0
0.03066955879330635,0.00986636895686388,9.873661041259766,-0.001635313807288831,-0.0073384007209567875,-0.00024560341589191043,2.7499938011169434,2019-06-21 14:29:13:517,0.0,0.0,0.0
0.040248557925224304,0.0266296174377203,9.777871131896973,-0.001635313807288831,-0.0053405425241119285,-0.002376652550388224,2.7549967765808105,2019-06-21 14:29:13:522,0.0,0.0,0.0
0.03785380721092224,0.014655868522822857,9.837739944458008,-0.002434457190056505,-0.004141827189886093,-0.003974939315923572,2.7600040435791016,2019-06-21 14:29:13:527,0.0,0.0,0.0
0.0665908083319664,0.01944536715745926,9.849713325500488,-0.00216807606246728,-0.0018775874753405213,-0.003708558188334347,2.764118194580078,2019-06-21 14:29:13:531,0.0,0.0,0.0
0.03545906022191048,0.06015611067414284,9.782660484313965,-0.0027008383176457293,-0.005207351700242991,-0.0014443186038259382,2.7699923515319824,2019-06-21 14:29:13:537,0.0,0.0,0.0
0.04264330863952637,0.01944536715745926,9.8329496383667,-0.002434457190056505,-0.005606923651701153,-0.003575367624539735,2.7749972343444824,2019-06-21 14:29:13:542,0.0,0.0,0.0
0.06898555159568787,0.002682119607925415,9.844923973083496,0.0008953070348459651,-0.004141827189886093,2.0777729983790183e-05,2.779109477996826,2019-06-21 14:29:13:546,0.0,0.0,0.0
0.08095930516719818,0.043392863124608994,9.794633865356445,-0.001102551552110382,-0.0028099215519399702,-0.002643033677977449,2.7849955558776855,2019-06-21 14:29:13:552,0.0,0.0,0.0
0.02348531037569046,-0.009291628375649452,9.773080825805664,-0.004831887598433851,-0.0026767309881453576,0.000420349451845087,2.790010929107666,2019-06-21 14:29:13:557,0.0,0.0,0.0
0.021090559661388397,0.0266296174377203,9.789844512939453,0.0027599750580077,-0.0005456817723758172,-0.0025098431141828367,2.794996738433838,2019-06-21 14:29:13:562,0.0,0.0,0.0
0.06419605761766434,-0.01168637815862894,9.811397552490234,0.0027599750580077,-0.007205210417236501,0.0014858740597298572,2.7999930381774902,2019-06-21 14:29:13:567,0.0,0.0,0.0
0.047432806342840195,0.04818236455321312,9.780265808105469,0.0002293541671089677,0.00012027108723385756,-0.0014443186038259382,2.8050293922424316,2019-06-21 14:29:13:572,0.0,0.0,0.0
0.08814354985952377,0.031419117003679276,9.794633865356445,-0.00030340813683341745,-0.008137544103724461,-0.0006451751560396832,2.8091225624084473,2019-06-21 14:29:13:576,0.0,0.0,0.0
0.08095930516719818,0.005076869390904903,9.799423217773438,-0.001102551552110382,-0.005074161396522704,-0.0030426053693612854,2.814993381500244,2019-06-21 14:29:13:582,0.0,0.0,0.0
0.08814354985952377,0.021840117871761322,9.840134620666504,0.001294878726229802,-0.004408208317475317,-0.00477408295876557,2.8199872970581055,2019-06-21 14:29:13:587,0.0,0.0,0.0
0.04982755705714226,0.014655868522822857,9.768291473388672,-0.001102551552110382,-0.004141827189886093,-0.005573226341533244,2.8241095542907715,2019-06-21 14:29:13:591,0.0,0.0,0.0
0.06419605761766434,0.024234866723418236,9.780265808105469,0.0008953070348459651,-0.006672448162058052,0.001752255187319082,2.8299946784973145,2019-06-21 14:29:13:597,0.0,0.0,0.0
0.07377505302429199,0.043392863124608994,9.801817893981934,0.0015612598538190267,-0.000945253463759654,-0.005972797772842756,2.8350110054016113,2019-06-21 14:29:13:602,0.0,0.0,0.0
0.061801306903362274,0.029024366289377213,9.789844512939453,-3.702698079856355e-05,0.00198493913477756,-0.006771941675759081,2.8391213417053223,2019-06-21 14:29:13:606,0.0,0.0,0.0
0.08095930516719818,0.0266296174377203,9.782660484313965,-0.00017021755678415983,0.00012027108723385756,-0.005972797772842756,2.8449926376342773,2019-06-21 14:29:13:612,0.0,0.0,0.0
0.04982755705714226,0.05536661297082901,9.830554962158203,0.0016944504176136389,-0.007604781848546013,-0.0038417487521289597,2.849109172821045,2019-06-21 14:29:13:616,0.0,0.0,0.0
0.09532780200242996,0.007471619173884392,9.775476455688477,0.0006289259072567405,-0.0030763026795291946,-0.002376652550388224,2.8541369438171387,2019-06-21 14:29:13:621,0.0,0.0,0.0
0.0665908083319664,-0.002107379725202918,9.756318092346191,-3.702698079856355e-05,-0.005207351700242991,-0.005839607469122469,2.859992504119873,2019-06-21 14:29:13:627,0.0,0.0,0.0
0.09772255271673203,0.024234866723418236,9.80421257019043,-0.00416593477946079,0.0037164165941446824,-0.002643033677977449,2.8641157150268555,2019-06-21 14:29:13:631,0.0,0.0,0.0
0.04982755705714226,0.005076869390904903,9.835344314575195,-0.0036331725242823402,-0.0018775874753405213,-0.0014443186038259382,2.869992733001709,2019-06-21 14:29:13:637,0.0,0.0,0.0
0.07138030230998993,0.017050618305802345,9.897607803344727,-0.000702979860726545,-0.005873304779290378,-0.005972797772842756,2.874113082885742,2019-06-21 14:29:13:641,0.0,0.0,0.0
0.07138030230998993,0.017050618305802345,9.81379222869873,-0.000702979860726545,-0.003742255498502256,-0.002243461986593612,2.8799962997436523,2019-06-21 14:29:13:647,0.0,0.0,0.0
0.08095930516719818,0.005076869390904903,9.876055717468262,0.0027599750580077,-0.008403925751462336,0.0009531117395328268,2.8841147422790527,2019-06-21 14:29:13:651,0.0,0.0,0.0
0.04503805935382843,0.0266296174377203,9.76350212097168,-0.0005697892969319327,-0.0034758743709130315,-0.0017106997314151628,2.8899927139282227,2019-06-21 14:29:13:657,0.0,0.0,0.0
0.04982755705714226,0.05297186225652695,9.79223918914795,-0.00017021755678415983,-0.008137544103724461,-0.00530684521394402,2.8941311836242676,2019-06-21 14:29:13:661,0.0,0.0,0.0
0.07377505302429199,-0.014081127941608429,9.775476455688477,-0.002034885498672668,-0.004674589445064542,-0.004108129879718184,2.9000062942504883,2019-06-21 14:29:13:667,0.0,0.0,0.0
0.10251204669475555,-0.002107379725202918,9.888029098510742,0.0022272128028292507,-0.0026767309881453576,-0.0021102714227989997,2.9049973487854004,2019-06-21 14:29:13:672,0.0,0.0,0.0
0.04982755705714226,0.014655868522822857,9.773080825805664,-0.0042991253432554015,-0.004275017753680705,-0.0007783657198342955,2.909994602203369,2019-06-21 14:29:13:677,0.0,0.0,0.0
0.08095930516719818,0.021840117871761322,9.844923973083496,-0.0008361704245211573,-0.0028099215519399702,0.0032173513890598167,2.9141135215759277,2019-06-21 14:29:13:681,0.0,0.0,0.0
0.0665908083319664,0.0266296174377203,9.801817893981934,0.002626784494213087,-0.005207351700242991,-0.002243461986593612,2.9199914932250977,2019-06-21 14:29:13:687,0.0,0.0,0.0
0.07377505302429199,0.021840117871761322,9.777871131896973,0.0007621164710513528,-0.006805638465778339,-0.001977080859004387,2.924992084503174,2019-06-21 14:29:13:692,0.0,0.0,0.0
0.07138030230998993,0.0362086147069931,9.801817893981934,0.0019608315452028634,-0.005207351700242991,-0.002776224241772061,2.929111957550049,2019-06-21 14:29:13:696,0.0,0.0,0.0
0.061801306903362274,0.04818236455321312,9.777871131896973,-0.0012357421159049941,-0.003742255498502256,-0.0034421770607451223,2.9349961280822754,2019-06-21 14:29:13:702,0.0,0.0,0.0
0.047432806342840195,0.021840117871761322,9.828160285949707,0.004491452387337659,-0.007072019593367563,-0.002776224241772061,2.939122200012207,2019-06-21 14:29:13:706,0.0,0.0,0.0
0.08335405588150024,0.01944536715745926,9.787449836730957,0.0007621164710513528,0.00012027108723385756,-0.002376652550388224,2.9450106620788574,2019-06-21 14:29:13:712,0.0,0.0,0.0
0.04503805935382843,0.0266296174377203,9.746739387512207,-0.001102551552110382,0.0030504637751716207,-0.002643033677977449,2.9491095542907715,2019-06-21 14:29:13:716,0.0,0.0,0.0
0.07856455445289612,0.05776136368513107,9.844923973083496,-0.0036331725242823402,-0.0030763026795291946,0.00028715888805047477,2.9549946784973145,2019-06-21 14:29:13:722,0.0,0.0,0.0
0.08095930516719818,0.0625508651137352,9.756318092346191,0.0006289259072567405,-0.009469449741670584,0.002684589133881368,2.9591126441955566,2019-06-21 14:29:13:726,0.0,0.0,0.0
0.04503805935382843,0.005076869390904903,9.761107444763184,-0.002434457190056505,-0.0036090649347076437,-0.008769799872603939,2.964992046356201,2019-06-21 14:29:13:732,0.0,0.0,0.0
0.07616980373859406,0.024234866723418236,9.785055160522461,0.002626784494213087,-0.0025435404243507455,-0.002776224241772061,2.9691243171691895,2019-06-21 14:29:13:736,0.0,0.0,0.0
0.07138030230998993,0.01944536715745926,9.828160285949707,-3.702698079856355e-05,-0.004275017753680705,-0.0006451751560396832,2.974998950958252,2019-06-21 14:29:13:742,0.0,0.0,0.0
0.028274809941649437,0.00986636895686388,9.880845069885254,-0.006696555491558422,-0.0026767309881453576,-0.0017106997314151628,2.979109287261963,2019-06-21 14:29:13:746,0.0,0.0,0.0
0.0929330512881279,-0.006896879058331251,9.789844512939453,-0.005098268726023076,-0.003342683807118419,-0.002376652550388224,2.984992504119873,2019-06-21 14:29:13:752,0.0,0.0,0.0
0.07377505302429199,0.024234866723418236,9.816186904907227,-0.0023012666262618923,-0.00480778026893348,0.0021518268787029185,2.9900074005126953,2019-06-21 14:29:13:757,0.0,0.0,0.0
0.05222230777144432,0.031419117003679276,9.787449836730957,-0.0009693609883157694,-0.004940970572653767,0.00015396830800121713,2.994995594024658,2019-06-21 14:29:13:762,0.0,0.0,0.0
0.06898555159568787,0.014655868522822857,9.842529296875,0.001827640981408251,-0.0014780157839566846,0.0005535400481489899,2.9991116523742676,2019-06-21 14:29:13:766,0.0,0.0,0.0
0.05701180547475815,0.024234866723418236,9.847318649291992,0.0010284975986405774,-0.00773797267241495,-0.004108129879718184,3.005016803741455,2019-06-21 14:29:13:772,0.0,0.0,0.0
0.07138030230998993,0.024234866723418236,9.820976257324219,-0.0015021232434942187,-0.004408208317475317,-0.000378793995941168,3.0100159645080566,2019-06-21 14:29:13:777,0.0,0.0,0.0
0.05940655618906021,0.0266296174377203,9.811397552490234,0.0022272128028292507,-0.003209493243323807,0.0036169230804436537,3.0141258239746094,2019-06-21 14:29:13:781,0.0,0.0,0.0
0.03545906022191048,0.01944536715745926,9.770686149597168,0.004491452387337659,-0.0005456817723758172,-0.0013111280400313259,3.019989490509033,2019-06-21 14:29:13:787,0.0,0.0,0.0
0.047432806342840195,0.012261118739843369,9.88323974609375,-0.001102551552110382,-0.0030763026795291946,-0.002376652550388224,3.0249972343444824,2019-06-21 14:29:13:792,0.0,0.0,0.0
0.03545906022191048,0.0266296174377203,9.816186904907227,0.0007621164710513528,-0.0034758743709130315,-0.00104474684742352,3.029109001159668,2019-06-21 14:29:13:796,0.0,0.0,0.0
0.06898555159568787,0.007471619173884392,9.775476455688477,0.0006289259072567405,-0.008137544103724461,-0.0029094148055666736,3.0349936485290527,2019-06-21 14:29:13:802,0.0,0.0,0.0
0.025880059227347374,0.017050618305802345,9.756318092346191,-0.0029672194452349536,-0.002010778039135134,0.00028715888805047477,3.039109230041504,2019-06-21 14:29:13:806,0.0,0.0,0.0
0.05701180547475815,0.002682119607925415,9.801817893981934,0.0019608315452028634,-0.0022771592967615207,-0.002376652550388224,3.044996738433838,2019-06-21 14:29:13:812,0.0,0.0,0.0
0.054617054760456085,0.0625508651137352,9.799423217773438,0.0031595467493915367,-0.0065392573381891144,-0.005573226341533244,3.049128532409668,2019-06-21 14:29:13:816,0.0,0.0,0.0
0.06419605761766434,0.05297186225652695,9.780265808105469,-0.0017685043710834434,-0.002943112115734582,-0.0050404640863547946,3.0550084114074707,2019-06-21 14:29:13:822,0.0,0.0,0.0
0.04264330863952637,0.05776136368513107,9.830554962158203,0.0015612598538190267,-0.005606923651701153,0.001752255187319082,3.059119701385498,2019-06-21 14:29:13:826,0.0,0.0,0.0
0.040248557925224304,0.031419117003679276,9.768291473388672,0.0011616881624351898,-0.005207351700242991,0.0009531117395328268,3.0649924278259277,2019-06-21 14:29:13:832,0.0,0.0,0.0
0.05940655618906021,0.045787613838911057,9.782660484313965,0.0010284975986405774,-0.00121163465636746,-0.001843890295209775,3.0691065788269043,2019-06-21 14:29:13:836,0.0,0.0,0.0
0.06419605761766434,0.05776136368513107,9.785055160522461,-0.0015021232434942187,-0.004674589445064542,-0.0034421770607451223,3.0749945640563965,2019-06-21 14:29:13:842,0.0,0.0,0.0
0.06419605761766434,0.014655868522822857,9.789844512939453,0.0027599750580077,-0.0026767309881453576,-0.003974939315923572,3.0799922943115234,2019-06-21 14:29:13:847,0.0,0.0,0.0
0.08095930516719818,0.021840117871761322,9.830554962158203,-0.003100410009029566,-0.0057401139554214406,-0.004907273262485858,3.0841126441955566,2019-06-21 14:29:13:851,0.0,0.0,0.0
0.047432806342840195,0.06973510980606079,9.777871131896973,0.0036923090045699854,-0.004674589445064542,0.0024182080062921433,3.090005397796631,2019-06-21 14:29:13:857,0.0,0.0,0.0
0.04982755705714226,0.0266296174377203,9.770686149597168,0.0010284975986405774,-0.006006495083010664,-0.0017106997314151628,3.094127655029297,2019-06-21 14:29:13:861,0.0,0.0,0.0
0.05701180547475815,0.045787613838911057,9.820976257324219,-0.00030340813683341745,-0.005873304779290378,0.0008199211757382146,3.099997043609619,2019-06-21 14:29:13:867,0.0,0.0,0.0
0.03066955879330635,0.00028736997046507895,9.789844512939453,0.004624643211206597,-0.0030763026795291946,-0.003575367624539735,3.1041407585144043,2019-06-21 14:29:13:871,0.0,0.0,0.0
0.061801306903362274,0.005076869390904903,9.79223918914795,-0.00030340813683341745,0.0018517485709829478,-0.0007783657198342955,3.1099934577941895,2019-06-21 14:29:13:877,0.0,0.0,0.0
0.07616980373859406,0.017050618305802345,9.777871131896973,0.0010284975986405774,-0.007205210417236501,-0.0014443186038259382,3.1141133308410645,2019-06-21 14:29:13:881,0.0,0.0,0.0
0.07138030230998993,0.031419117003679276,9.81379222869873,0.001294878726229802,-0.0008120628999650418,0.000420349451845087,3.1199917793273926,2019-06-21 14:29:13:887,0.0,0.0,0.0
0.06419605761766434,0.014655868522822857,9.847318649291992,-3.702698079856355e-05,-0.005207351700242991,-0.0038417487521289597,3.1249938011169434,2019-06-21 14:29:13:892,0.0,0.0,0.0
0.07377505302429199,0.024234866723418236,9.828160285949707,9.616359518703274e-05,-0.002410349860556133,-0.0014443186038259382,3.129112720489502,2019-06-21 14:29:13:896,0.0,0.0,0.0
0.09053830057382584,0.00986636895686388,9.859292030334473,0.001294878726229802,-0.0030763026795291946,-0.002776224241772061,3.1350107192993164,2019-06-21 14:29:13:902,0.0,0.0,0.0
0.07616980373859406,0.0266296174377203,9.777871131896973,-0.0015021232434942187,-0.003742255498502256,-0.0025098431141828367,3.1391196250915527,2019-06-21 14:29:13:906,0.0,0.0,0.0
0.033064309507608414,0.05536661297082901,9.828160285949707,0.0014280692900244143,-0.007871162976135238,-0.0030426053693612854,3.1450109481811523,2019-06-21 14:29:13:912,0.0,0.0,0.0
0.05940655618906021,0.00028736997046507895,9.770686149597168,0.001294878726229802,-0.0016112063477512967,-0.001977080859004387,3.1491122245788574,2019-06-21 14:29:13:916,0.0,0.0,0.0
0.03545906022191048,-0.016475878655910492,9.785055160522461,-0.0029672194452349536,-0.006672448162058052,0.0014858740597298572,3.154991626739502,2019-06-21 14:29:13:922,0.0,0.0,0.0
0.05940655618906021,0.021840117871761322,9.856897354125977,0.0019608315452028634,0.0002534616591557925,-0.002643033677977449,3.159994602203369,2019-06-21 14:29:13:927,0.0,0.0,0.0
0.05222230777144432,0.029024366289377213,9.818581581115723,-3.702698079856355e-05,-0.005074161396522704,-0.0025098431141828367,3.1641087532043457,2019-06-21 14:29:13:931,0.0,0.0,0.0
0.09532780200242996,0.038603365421295166,9.809002876281738,-0.006430174363969199,-0.0036090649347076437,-0.0017106997314151628,3.169991970062256,2019-06-21 14:29:13:937,0.0,0.0,0.0
0.06898555159568787,0.024234866723418236,9.830554962158203,0.0019608315452028634,-0.003742255498502256,-0.0030426053693612854,3.1741127967834473,2019-06-21 14:29:13:941,0.0,0.0,0.0
0.05940655618906021,0.04099811613559723,9.81379222869873,-0.000702979860726545,-0.0005456817723758172,-0.0011779374762367137,3.17999267578125,2019-06-21 14:29:13:947,0.0,0.0,0.0
0.07616980373859406,0.024234866723418236,9.85450267791748,0.0020940221089974756,-0.0014780157839566846,0.0009531117395328268,3.1850037574768066,2019-06-21 14:29:13:952,0.0,0.0,0.0
0.04503805935382843,0.031419117003679276,9.806608200073242,-0.003100410009029566,-0.00121163465636746,-0.0014443186038259382,3.1891298294067383,2019-06-21 14:29:13:956,0.0,0.0,0.0
0.04982755705714226,0.029024366289377213,9.785055160522461,0.001827640981408251,-0.0026767309881453576,-0.004241320443512797,3.1949992179870605,2019-06-21 14:29:13:962,0.0,0.0,0.0
0.07616980373859406,0.05536661297082901,9.789844512939453,-0.00030340813683341745,-0.005473732827832216,-0.00530684521394402,3.199110507965088,2019-06-21 14:29:13:966,0.0,0.0,0.0
0.05940655618906021,0.017050618305802345,9.768291473388672,0.0019608315452028634,-0.003742255498502256,-0.003974939315923572,3.204996109008789,2019-06-21 14:29:13:972,0.0,0.0,0.0
0.03785380721092224,0.029024366289377213,9.780265808105469,0.0035591184407753737,-0.0053405425241119285,0.0012194929321406327,3.209108352661133,2019-06-21 14:29:13:976,0.0,0.0,0.0
0.04503805935382843,0.01944536715745926,9.8329496383667,0.0031595467493915367,-0.0025435404243507455,-0.003708558188334347,3.214996814727783,2019-06-21 14:29:13:982,0.0,0.0,0.0
0.054617054760456085,0.017050618305802345,9.780265808105469,0.0015612598538190267,-0.0013448252201620722,-0.007171513107068592,3.2191128730773926,2019-06-21 14:29:13:986,0.0,0.0,0.0
0.033064309507608414,0.00986636895686388,9.780265808105469,-0.00017021755678415983,-0.0036090649347076437,-0.001977080859004387,3.224994659423828,2019-06-21 14:29:13:992,0.0,0.0,0.0
0.03785380721092224,0.0266296174377203,9.749134063720703,-0.002834028881440342,-0.004141827189886093,-0.001977080859004387,3.230032444000244,2019-06-21 14:29:13:997,0.0,0.0,0.0
0.03066955879330635,0.005076869390904903,9.758712768554688,9.616359518703274e-05,-0.005606923651701153,-0.0015775091676205506,3.2341246604919434,2019-06-21 14:29:14:001,0.0,0.0,0.0
0.006722062360495329,-0.002107379725202918,9.890423774719238,0.001294878726229802,-0.0028099215519399702,-0.0021102714227989997,3.239993095397949,2019-06-21 14:29:14:007,0.0,0.0,0.0
0.06419605761766434,0.06494560837745667,9.811397552490234,9.616359518703274e-05,-0.006272876210599889,-0.0011779374762367137,3.244114398956299,2019-06-21 14:29:14:011,0.0,0.0,0.0
0.05701180547475815,0.007471619173884392,9.820976257324219,-0.0009693609883157694,-0.0038754460622968685,-0.0021102714227989997,3.249992847442627,2019-06-21 14:29:14:017,0.0,0.0,0.0
0.047432806342840195,0.06494560837745667,9.768291473388672,-0.003366791396693116,-0.0057401139554214406,-0.0011779374762367137,3.2541160583496094,2019-06-21 14:29:14:021,0.0,0.0,0.0
0.04982755705714226,0.00028736997046507895,9.820976257324219,-0.0005697892969319327,-0.0045413991413442555,-0.001977080859004387,3.259993076324463,2019-06-21 14:29:14:027,0.0,0.0,0.0
0.07616980373859406,0.04099811613559723,9.770686149597168,-0.0012357421159049941,-0.004940970572653767,-0.004241320443512797,3.264112949371338,2019-06-21 14:29:14:031,0.0,0.0,0.0
0.061801306903362274,0.014655868522822857,9.852108001708984,0.0006289259072567405,-0.0026767309881453576,0.0008199211757382146,3.269993782043457,2019-06-21 14:29:14:037,0.0,0.0,0.0
0.054617054760456085,0.0266296174377203,9.811397552490234,0.0011616881624351898,-0.003742255498502256,-0.0009115562836289078,3.275007724761963,2019-06-21 14:29:14:042,0.0,0.0,0.0
0.07377505302429199,0.007471619173884392,9.79223918914795,-0.00017021755678415983,-0.005606923651701153,-0.004907273262485858,3.280003070831299,2019-06-21 14:29:14:047,0.0,0.0,0.0
0.05222230777144432,0.029024366289377213,9.825765609741211,-0.002034885498672668,0.0009194144943834993,-0.001977080859004387,3.285001277923584,2019-06-21 14:29:14:052,0.0,0.0,0.0
0.08095930516719818,0.0266296174377203,9.761107444763184,0.002360403366623863,-0.004408208317475317,-0.003175795933155898,3.2899928092956543,2019-06-21 14:29:14:057,0.0,0.0,0.0
0.07138030230998993,0.0266296174377203,9.840134620666504,0.0008953070348459651,-0.006805638465778339,-0.002243461986593612,3.2941131591796875,2019-06-21 14:29:14:061,0.0,0.0,0.0
0.047432806342840195,0.04099811613559723,9.806608200073242,-0.001635313807288831,-0.0026767309881453576,-0.006905131979479367,3.299992084503174,2019-06-21 14:29:14:067,0.0,0.0,0.0
