ACCELEROMETER X (m/s²),ACCELEROMETER Y (m/s²),ACCELEROMETER Z (m/s²),GYROSCOPE X (rad/s),GYROSCOPE Y (rad/s),GYROSCOPE Z (rad/s),Time since start in ms ,YYYY-MO-DD HH-MI-SS_SSS,MagX,MagY,MagZ
0.09872355312108994,-0.15907125174999237,9.781682968139648,-0.0044392419464044965,-0.003676059820805624,-0.005439369727391787,0.0,2019-06-21 12:39:34:876,0.0,0.0,0.0
0.11309205740690231,-0.19499249756336212,9.81520938873291,-0.00031033404615073726,-0.004475203463647623,-0.003041939579088766,0.004986763000488281,2019-06-21 12:39:34:881,0.0,0.0,0.0
0.09872355312108994,-0.15188699960708618,9.784077644348145,0.0034190020977006037,-0.002077772925233114,-0.005838941678849949,0.009096622467041016,2019-06-21 12:39:34:885,0.0,0.0,0.0
0.11548680067062378,-0.1566765010356903,9.769709587097168,-0.002308192665616375,-0.004741584591236848,-0.004773416648344401,0.01499032974243164,2019-06-21 12:39:34:891,0.0,0.0,0.0
0.101118303835392,-0.190202996134758,9.808025360107422,0.0014211433807070943,-0.00460839376736791,-0.006238513110159461,0.019101619720458984,2019-06-21 12:39:34:895,0.0,0.0,0.0
0.09632880985736847,-0.14470274746418,9.74576187133789,-0.00031033404615073726,-0.008737302025223867,-0.0010440808620952565,0.02498149871826172,2019-06-21 12:39:34:901,0.0,0.0,0.0
0.09153930842876434,-0.14470274746418,9.77449893951416,-0.0007099057700438648,-0.00514115602254636,-0.005838941678849949,0.029097557067871094,2019-06-21 12:39:34:905,0.0,0.0,0.0
0.11788155138492584,-0.16865025460720062,9.702656745910645,0.0011547622531178697,-0.007272205043260157,-0.004640226344624114,0.03499126434326172,2019-06-21 12:39:34:911,0.0,0.0,0.0
0.10590780526399612,-0.13272900879383087,9.728999137878418,-0.0005767152062492525,-0.001944582361438502,-0.0066380850616176235,0.03910207748413086,2019-06-21 12:39:34:915,0.0,0.0,0.0
0.1394343078136444,-0.17343974113464355,9.79126262664795,0.0028862395824478296,-0.003143297565627175,-0.005439369727391787,0.04508495330810547,2019-06-21 12:39:34:921,0.0,0.0,0.0
0.07956556230783463,-0.14709749817848206,9.728999137878418,-0.0007099057700438648,-0.002477344746654114,-0.0033083207066779904,0.04910469055175781,2019-06-21 12:39:34:925,0.0,0.0,0.0
0.08196030557155609,-0.15428175032138824,9.769709587097168,-0.004572432250124783,-0.007671776994718318,-0.006904466189206847,0.05498027801513672,2019-06-21 12:39:34:931,0.0,0.0,0.0
0.08674980700016022,-0.14230799674987793,9.755340576171875,0.0031526207100370544,-0.005274346846415297,-0.0025091770638359916,0.05998802185058594,2019-06-21 12:39:34:936,0.0,0.0,0.0
0.09872355312108994,-0.1303342580795288,9.805630683898926,0.0004888094016355178,-0.008870492328944154,-0.004373845217034889,0.0641026496887207,2019-06-21 12:39:34:940,0.0,0.0,0.0
0.050828561186790466,-0.15907125174999237,9.85352611541748,-0.0021750019717846,-0.006206680532903257,-0.006371703934028398,0.06998920440673828,2019-06-21 12:39:34:946,0.0,0.0,0.0
0.07238131016492844,-0.1638607531785965,9.817604064941406,-0.0024413832294109873,-0.005940299405314034,-0.008902324386051706,0.0740957260131836,2019-06-21 12:39:34:950,0.0,0.0,0.0
0.06998655945062637,-0.1638607531785965,9.810420036315918,0.001287952816912482,-0.0056739182777248084,-0.005572560551260725,0.079986572265625,2019-06-21 12:39:34:956,0.0,0.0,0.0
0.06519705802202225,-0.1566765010356903,9.738577842712402,0.0003556188378409054,-0.00514115602254636,-0.007703609571974521,0.08412551879882812,2019-06-21 12:39:34:960,0.0,0.0,0.0
0.036460064351558685,-0.13512374460697174,9.70505142211914,0.002619858454858605,-0.003942440948394849,-0.005572560551260725,0.09014129638671875,2019-06-21 12:39:34:966,0.0,0.0,0.0
0.05322331190109253,-0.18780824542045593,9.767314910888672,-0.0007099057700438648,-0.005940299405314034,-0.003974273525651052,0.09499454498291016,2019-06-21 12:39:34:971,0.0,0.0,0.0
0.08674980700016022,-0.14470274746418,9.755340576171875,-0.0011094774614277016,-0.004342012639778686,-0.009568277985247745,0.09911680221557617,2019-06-21 12:39:34:975,0.0,0.0,0.0
0.09153930842876434,-0.15907125174999237,9.769709587097168,0.0024866678910639927,-0.003676059820805624,-0.004640226344624114,0.10498952865600586,2019-06-21 12:39:34:981,0.0,0.0,0.0
0.06759180873632431,-0.12793950736522675,9.819998741149902,-0.0019086208441953755,-0.004475203463647623,-0.0051729885998025625,0.10909652709960938,2019-06-21 12:39:34:985,0.0,0.0,0.0
0.05801280960440636,-0.1710449904203415,9.81520938873291,0.0014211433807070943,-0.00074586722226841,-0.0025091770638359916,0.11498069763183594,2019-06-21 12:39:34:991,0.0,0.0,0.0
0.0029335683211684227,-0.16865025460720062,9.767314910888672,-0.0021750019717846,0.0004528479494109724,-0.007836799875694809,0.11909675598144531,2019-06-21 12:39:34:995,0.0,0.0,0.0
0.05561806261539459,-0.15907125174999237,9.719419479370117,0.003285811533905992,-0.005007965718826072,-0.007570418748105583,0.12501811981201172,2019-06-21 12:39:35:001,0.0,0.0,0.0
0.050828561186790466,-0.15907125174999237,9.79126262664795,-4.395289011588339e-05,-0.002477344746654114,-0.0051729885998025625,0.12911701202392578,2019-06-21 12:39:35:005,0.0,0.0,0.0
0.022091565653681755,-0.18062399327754974,9.81520938873291,-0.0020418114079899874,-0.004475203463647623,-0.004773416648344401,0.13498449325561523,2019-06-21 12:39:35:011,0.0,0.0,0.0
0.026881065219640732,-0.1830187439918518,9.752945899963379,0.004750907735646727,-0.0012786295424654405,-0.009168706033789581,0.13910150527954102,2019-06-21 12:39:35:015,0.0,0.0,0.0
0.026881065219640732,-0.14230799674987793,9.848735809326172,-0.00044352460994534954,-0.003676059820805624,-0.005838941678849949,0.14498329162597656,2019-06-21 12:39:35:021,0.0,0.0,0.0
0.06280230730772018,-0.17343974113464355,9.740972518920898,0.0004888094016355178,-0.0027437258742433386,-0.0009108902983006441,0.14909648895263672,2019-06-21 12:39:35:025,0.0,0.0,0.0
0.036460064351558685,-0.18541349470615387,9.793657302856445,-0.000843096333838477,-0.004475203463647623,-0.005972131982570236,0.15498733520507812,2019-06-21 12:39:35:031,0.0,0.0,0.0
0.03406531363725662,-0.19738724827766418,9.757735252380371,-0.0035069077397678855,0.0008524196733041,-0.004107464089445664,0.15999221801757812,2019-06-21 12:39:35:036,0.0,0.0,0.0
0.0077230678871273994,-0.17583449184894562,9.752945899963379,-0.001242668025222314,-0.004208822075984073,-0.006371703934028398,0.16409635543823242,2019-06-21 12:39:35:040,0.0,0.0,0.0
0.022091565653681755,-0.18062399327754974,9.767314910888672,0.000755190561734033,-0.00660625248436142,-0.006371703934028398,0.17000341415405273,2019-06-21 12:39:35:046,0.0,0.0,0.0
0.03167056292295456,-0.19259774684906006,9.74576187133789,0.0024866678910639927,-0.005007965718826072,0.0006873965322532847,0.17499685287475586,2019-06-21 12:39:35:051,0.0,0.0,0.0
0.036460064351558685,-0.18062399327754974,9.810420036315918,0.0027530490186532175,-0.005940299405314034,2.1443682802763245e-05,0.17998647689819336,2019-06-21 12:39:35:056,0.0,0.0,0.0
0.036460064351558685,-0.17343974113464355,9.78647232055664,-0.0035069077397678855,-0.006473061660492482,-0.0053061794236715,0.18412113189697266,2019-06-21 12:39:35:060,0.0,0.0,0.0
0.043644312769174576,-0.14949224889278412,9.798446655273438,-0.004705623073993721,-0.000213104918326025,-0.006238513110159461,0.18999195098876953,2019-06-21 12:39:35:066,0.0,0.0,0.0
0.005328318104147911,-0.15428175032138824,9.81520938873291,0.0003556188378409054,-0.0034096786932164,-0.0006445091707114195,0.19409656524658203,2019-06-21 12:39:35:070,0.0,0.0,0.0
-0.0066454303450882435,-0.16625550389289856,9.793657302856445,-0.0005767152062492525,-0.005940299405314034,-0.00011174689115100237,0.20015716552734375,2019-06-21 12:39:35:076,0.0,0.0,0.0
0.01730206608772278,-0.1638607531785965,9.776893615722656,-0.00044352460994534954,-0.0040756315121894615,-0.004773416648344401,0.2042522430419922,2019-06-21 12:39:35:080,0.0,0.0,0.0
0.0077230678871273994,-0.15907125174999237,9.784077644348145,-0.00523838532917217,-0.002610535310448726,0.002019302235217989,0.20926856994628906,2019-06-21 12:39:35:085,0.0,0.0,0.0
0.014907317236065865,-0.1830187439918518,9.769709587097168,0.0011547622531178697,-0.003542869257011012,-0.0027755584514995413,0.21428298950195312,2019-06-21 12:39:35:090,0.0,0.0,0.0
0.01969681680202484,-0.190202996134758,9.772104263305664,-0.004172860558740947,-0.0032764881294217877,-0.004507035520755176,0.21928119659423828,2019-06-21 12:39:35:095,0.0,0.0,0.0
0.01730206608772278,-0.1710449904203415,9.779288291931152,-0.0035069077397678855,-0.004741584591236848,-0.00011174689115100237,0.22426128387451172,2019-06-21 12:39:35:100,0.0,0.0,0.0
-0.04496142640709877,-0.190202996134758,9.781682968139648,0.0027530490186532175,-0.003676059820805624,-0.002109605502489317,0.22928905487060547,2019-06-21 12:39:35:105,0.0,0.0,0.0
0.0077230678871273994,-0.1638607531785965,9.796051979064941,-0.0009762868976330894,-7.991434640409003e-05,2.1443682802763245e-05,0.23427581787109375,2019-06-21 12:39:35:110,0.0,0.0,0.0
0.005328318104147911,-0.16625550389289856,9.78647232055664,-0.0031073360483840485,-0.003676059820805624,0.002152492799012601,0.2392578125,2019-06-21 12:39:35:115,0.0,0.0,0.0
-0.004250680562108755,-0.17343974113464355,9.760130882263184,-0.002308192665616375,-0.003143297565627175,0.0001546342608201902,0.2442765235900879,2019-06-21 12:39:35:120,0.0,0.0,0.0
0.026881065219640732,-0.15428175032138824,9.812814712524414,0.0038185737890844406,-0.007272205043260157,0.002019302235217989,0.2492694854736328,2019-06-21 12:39:35:125,0.0,0.0,0.0
0.01730206608772278,-0.14230799674987793,9.721814155578613,-0.001642239716606151,-0.0003462954983752826,-0.006238513110159461,0.25426435470581055,2019-06-21 12:39:35:130,0.0,0.0,0.0
-0.0018559310119599104,-0.16625550389289856,9.822394371032715,-0.0035069077397678855,-0.002077772925233114,0.0001546342608201902,0.25931549072265625,2019-06-21 12:39:35:135,0.0,0.0,0.0
0.0077230678871273994,-0.15428175032138824,9.769709587097168,0.00022242825779164786,-0.0075385861708493805,0.0010869682236371214,0.2642660140991211,2019-06-21 12:39:35:140,0.0,0.0,0.0
0.0029335683211684227,-0.11596575379371643,9.812814712524414,-0.0024413832294109873,-0.004342012639778686,-0.003974273525651052,0.2692604064941406,2019-06-21 12:39:35:145,0.0,0.0,0.0
-0.0018559310119599104,-0.1830187439918518,9.817604064941406,-0.0021750019717846,-0.0016782012338492774,0.0006873965322532847,0.274289608001709,2019-06-21 12:39:35:150,0.0,0.0,0.0
0.029275815933942795,-0.17822924256324768,9.800841331481934,0.0010215716893232575,-0.002077772925233114,-0.0018432243749000928,0.2792778015136719,2019-06-21 12:39:35:155,0.0,0.0,0.0
0.012512567453086376,-0.17583449184894562,9.798446655273438,-0.002974145484589436,-0.006872633611950644,2.1443682802763245e-05,0.28426551818847656,2019-06-21 12:39:35:160,0.0,0.0,0.0
-0.004250680562108755,-0.18062399327754974,9.810420036315918,-0.001775430280400763,-0.005274346846415297,-0.0018432243749000928,0.2892580032348633,2019-06-21 12:39:35:165,0.0,0.0,0.0
0.0077230678871273994,-0.1566765010356903,9.78647232055664,0.000755190561734033,-0.0075385861708493805,0.0018861116714233767,0.2942790985107422,2019-06-21 12:39:35:170,0.0,0.0,0.0
-0.011434929445385933,-0.18062399327754974,9.812814712524414,0.00022242825779164786,-0.006206680532903257,-0.003175130142883378,0.29929065704345703,2019-06-21 12:39:35:175,0.0,0.0,0.0
0.0029335683211684227,-0.17822924256324768,9.793657302856445,0.003951764352879053,-0.005007965718826072,0.0037507796945851113,0.3042631149291992,2019-06-21 12:39:35:180,0.0,0.0,0.0
0.014907317236065865,-0.18780824542045593,9.836762428283691,0.0027530490186532175,-0.004208822075984073,0.0028184457480228253,0.3091278076171875,2019-06-21 12:39:35:185,0.0,0.0,0.0
0.014907317236065865,-0.18062399327754974,9.846341133117676,-0.004172860558740947,-0.005274346846415297,0.005748638151504296,0.31498241424560547,2019-06-21 12:39:35:191,0.0,0.0,0.0
-0.0066454303450882435,-0.16865025460720062,9.824789047241211,-0.001642239716606151,-0.0018113917976438896,0.006414591230551682,0.31999635696411133,2019-06-21 12:39:35:196,0.0,0.0,0.0
0.014907317236065865,-0.18541349470615387,9.800841331481934,0.0004888094016355178,-0.005407537150135584,0.0036175891307904987,0.32410526275634766,2019-06-21 12:39:35:200,0.0,0.0,0.0
0.022091565653681755,-0.15907125174999237,9.776893615722656,0.00022242825779164786,-0.005007965718826072,0.0014865399800395396,0.3299860954284668,2019-06-21 12:39:35:206,0.0,0.0,0.0
-0.004250680562108755,-0.1830187439918518,9.812814712524414,0.0019539056358855436,-0.008737302025223867,0.002019302235217989,0.3341083526611328,2019-06-21 12:39:35:210,0.0,0.0,0.0
0.026881065219640732,-0.17343974113464355,9.848735809326172,8.92376858697129e-05,-0.004874774894957135,0.005215875896325846,0.33999061584472656,2019-06-21 12:39:35:216,0.0,0.0,0.0
0.03885481506586075,-0.16865025460720062,9.81520938873291,0.0003556188378409054,-0.00807134842602783,0.004949494768736622,0.3440990447998047,2019-06-21 12:39:35:220,0.0,0.0,0.0
0.036460064351558685,-0.19978199899196625,9.810420036315918,0.0027530490186532175,-0.0030101070018325625,0.007080543789450418,0.3499889373779297,2019-06-21 12:39:35:226,0.0,0.0,0.0
0.010117817670106888,-0.17343974113464355,9.805630683898926,0.0003556188378409054,-0.004342012639778686,0.004949494768736622,0.3541078567504883,2019-06-21 12:39:35:230,0.0,0.0,0.0
0.014907317236065865,-0.20696623623371124,9.78647232055664,0.0014211433807070943,-0.005807109101593746,0.005881828975373233,0.3615579605102539,2019-06-21 12:39:35:237,0.0,0.0,0.0
0.029275815933942795,-0.16865025460720062,9.784077644348145,-0.001642239716606151,-0.006739442788081707,0.006680972358140907,0.36998462677001953,2019-06-21 12:39:35:246,0.0,0.0,0.0
0.06040756031870842,-0.14949224889278412,9.769709587097168,-0.0009762868976330894,-0.0038092503846002368,0.005748638151504296,0.37410736083984375,2019-06-21 12:39:35:250,0.0,0.0,0.0
0.050828561186790466,-0.15428175032138824,9.822394371032715,-0.001242668025222314,-0.005007965718826072,0.009744355585491315,0.3799896240234375,2019-06-21 12:39:35:256,0.0,0.0,0.0
0.04603906348347664,-0.190202996134758,9.76252555847168,-0.0037732888673571103,-0.003542869257011012,0.00454992333742711,0.38410425186157227,2019-06-21 12:39:35:260,0.0,0.0,0.0
0.03406531363725662,-0.15907125174999237,9.78647232055664,0.000755190561734033,-0.006073490229182971,0.012674548509121435,0.38998985290527344,2019-06-21 12:39:35:266,0.0,0.0,0.0
0.04603906348347664,-0.15188699960708618,9.858315467834473,-0.00031033404615073726,-0.0032764881294217877,0.004683113641147397,0.3949871063232422,2019-06-21 12:39:35:271,0.0,0.0,0.0
0.029275815933942795,-0.1710449904203415,9.800841331481934,-0.0005767152062492525,-0.0038092503846002368,0.005082685592605559,0.39909887313842773,2019-06-21 12:39:35:275,0.0,0.0,0.0
0.06998655945062637,-0.1375184953212738,9.755340576171875,0.0034190020977006037,-0.004874774894957135,0.0028184457480228253,0.4050321578979492,2019-06-21 12:39:35:281,0.0,0.0,0.0
0.06519705802202225,-0.14470274746418,9.784077644348145,-0.002308192665616375,-0.0056739182777248084,0.007746496868497805,0.4091215133666992,2019-06-21 12:39:35:285,0.0,0.0,0.0
0.0484338141977787,-0.1375184953212738,9.810420036315918,0.0006219999979394207,-0.004741584591236848,0.006148210102962458,0.41498899459838867,2019-06-21 12:39:35:291,0.0,0.0,0.0
0.0747760608792305,-0.18541349470615387,9.77449893951416,0.0018207150720909312,-0.004475203463647623,0.005748638151504296,0.41999340057373047,2019-06-21 12:39:35:296,0.0,0.0,0.0
0.07717081159353256,-0.15907125174999237,9.79126262664795,0.0003556188378409054,-0.006073490229182971,0.0024188740566389883,0.4241065979003906,2019-06-21 12:39:35:300,0.0,0.0,0.0
0.06040756031870842,-0.16865025460720062,9.80323600769043,-0.0019086208441953755,-0.006872633611950644,0.010010736192931888,0.4299917221069336,2019-06-21 12:39:35:306,0.0,0.0,0.0
0.07956556230783463,-0.16146600246429443,9.752945899963379,0.0028862395824478296,-0.003542869257011012,0.005615447847784009,0.4341011047363281,2019-06-21 12:39:35:310,0.0,0.0,0.0
0.05801280960440636,-0.12554475665092468,9.81520938873291,-0.0027077643570002116,-0.005407537150135584,0.007346924917039643,0.43999195098876953,2019-06-21 12:39:35:316,0.0,0.0,0.0
0.12506580352783203,-0.16865025460720062,9.743367195129395,-0.0015090491528115383,-0.007139014739539869,0.0036175891307904987,0.4441080093383789,2019-06-21 12:39:35:320,0.0,0.0,0.0
0.06280230730772018,-0.1638607531785965,9.781682968139648,-0.001775430280400763,-0.009802826535580764,0.0033512080032012744,0.4500093460083008,2019-06-21 12:39:35:326,0.0,0.0,0.0
0.08435505628585815,-0.17583449184894562,9.781682968139648,8.92376858697129e-05,-0.007005823915670932,0.0037507796945851113,0.4541153907775879,2019-06-21 12:39:35:330,0.0,0.0,0.0
0.07717081159353256,-0.16625550389289856,9.755340576171875,-0.0036400983035624977,-0.009802826535580764,-0.0011772714258898686,0.4599933624267578,2019-06-21 12:39:35:336,0.0,0.0,0.0
0.07956556230783463,-0.1375184953212738,9.78647232055664,-0.001242668025222314,-0.0004794860621698949,0.0032180174394066618,0.46410560607910156,2019-06-21 12:39:35:340,0.0,0.0,0.0
0.101118303835392,-0.18780824542045593,9.772104263305664,-0.0013758585890169264,-0.003143297565627175,0.0012201588524503152,0.4699888229370117,2019-06-21 12:39:35:346,0.0,0.0,0.0
0.12985530495643616,-0.14470274746418,9.822394371032715,0.0023534773272693805,-0.007005823915670932,0.00428354194976356,0.4741044044494629,2019-06-21 12:39:35:350,0.0,0.0,0.0
0.0747760608792305,-0.14949224889278412,9.767314910888672,-0.0009762868976330894,-0.004342012639778686,0.005881828975373233,0.4800271987915039,2019-06-21 12:39:35:356,0.0,0.0,0.0
0.09872355312108994,-0.14230799674987793,9.824789047241211,-0.0032405266121786607,-0.0063398713567721955,0.002685255184228213,0.48410606384277344,2019-06-21 12:39:35:360,0.0,0.0,0.0
0.10590780526399612,-0.14230799674987793,9.810420036315918,-0.0011094774614277016,-0.008737302025223867,0.0053490667201947836,0.4899907112121582,2019-06-21 12:39:35:366,0.0,0.0,0.0
0.09153930842876434,-0.16865025460720062,9.769709587097168,-0.0025745737932055994,-0.004342012639778686,0.0034843985669958865,0.49410438537597656,2019-06-21 12:39:35:370,0.0,0.0,0.0
0.09632880985736847,-0.1638607531785965,9.810420036315918,0.00022242825779164786,-0.003942440948394849,0.005215875896325846,0.5000157356262207,2019-06-21 12:39:35:376,0.0,0.0,0.0
0.07956556230783463,-0.1830187439918518,9.798446655273438,0.0027530490186532175,-0.003676059820805624,0.0025520646204336005,0.504127025604248,2019-06-21 12:39:35:380,0.0,0.0,0.0
0.08674980700016022,-0.11357100307941437,9.784077644348145,-0.0011094774614277016,-0.006739442788081707,0.0008205870960478969,0.5100078582763672,2019-06-21 12:39:35:386,0.0,0.0,0.0
0.12267105281352997,-0.14230799674987793,9.819998741149902,0.0036853832252898284,-0.0010122483498576347,0.002019302235217989,0.5149927139282227,2019-06-21 12:39:35:391,0.0,0.0,0.0
0.07717081159353256,-0.15907125174999237,9.769709587097168,-0.0035069077397678855,-0.005540727974004522,-0.003175130142883378,0.5191001892089844,2019-06-21 12:39:35:395,0.0,0.0,0.0
0.08914455771446228,-0.14949224889278412,9.78647232055664,-0.0033737171759732733,-0.007272205043260157,2.1443682802763245e-05,0.5249929428100586,2019-06-21 12:39:35:401,0.0,0.0,0.0
0.10830255597829819,-0.14230799674987793,9.834367752075195,-4.395289011588339e-05,-0.0038092503846002368,0.0022856834928443757,0.529109001159668,2019-06-21 12:39:35:405,0.0,0.0,0.0
0.05561806261539459,-0.18541349470615387,9.800841331481934,0.0020870961996801557,-0.002077772925233114,0.004017160822174336,0.5349817276000977,2019-06-21 12:39:35:411,0.0,0.0,0.0
0.07717081159353256,-0.1638607531785965,9.819998741149902,0.001687524508296319,-0.002610535310448726,0.0036175891307904987,0.5391006469726562,2019-06-21 12:39:35:415,0.0,0.0,0.0
0.07717081159353256,-0.17583449184894562,9.769709587097168,-4.395289011588339e-05,-0.007139014739539869,0.0034843985669958865,0.5450382232666016,2019-06-21 12:39:35:421,0.0,0.0,0.0
0.07717081159353256,-0.16865025460720062,9.798446655273438,-0.0036400983035624977,-0.0056739182777248084,-0.001310461989684481,0.5491256713867188,2019-06-21 12:39:35:425,0.0,0.0,0.0
0.06759180873632431,-0.16625550389289856,9.80323600769043,0.00022242825779164786,-0.0034096786932164,0.0028184457480228253,0.5549907684326172,2019-06-21 12:39:35:431,0.0,0.0,0.0
0.08435505628585815,-0.15188699960708618,9.793657302856445,-0.0005767152062492525,-0.007405395867129095,-0.001976414938694705,0.5591092109680176,2019-06-21 12:39:35:435,0.0,0.0,0.0
0.03885481506586075,-0.13512374460697174,9.812814712524414,8.92376858697129e-05,-0.0038092503846002368,0.002685255184228213,0.5649814605712891,2019-06-21 12:39:35:441,0.0,0.0,0.0
0.07956556230783463,-0.15428175032138824,9.834367752075195,-0.0019086208441953755,-0.008870492328944154,-0.002642367627630604,0.5699915885925293,2019-06-21 12:39:35:446,0.0,0.0,0.0
0.10351305454969406,-0.13512374460697174,9.8319730758667,-0.002308192665616375,-0.008337729553617055,0.0013533494162449274,0.5741081237792969,2019-06-21 12:39:35:450,0.0,0.0,0.0
0.07956556230783463,-0.12554475665092468,9.776893615722656,-0.005371575632892458,-0.007804967298438606,-0.002642367627630604,0.5799946784973145,2019-06-21 12:39:35:456,0.0,0.0,0.0
0.09153930842876434,-0.16865025460720062,9.781682968139648,0.0038185737890844406,-0.005540727974004522,-0.0029087490152941535,0.5841026306152344,2019-06-21 12:39:35:460,0.0,0.0,0.0
0.06040756031870842,-0.17343974113464355,9.769709587097168,0.0020870961996801557,-0.006872633611950644,0.0008205870960478969,0.5899925231933594,2019-06-21 12:39:35:466,0.0,0.0,0.0
0.06280230730772018,-0.1638607531785965,9.760130882263184,0.000755190561734033,-0.007139014739539869,-0.005705750854981011,0.5941243171691895,2019-06-21 12:39:35:470,0.0,0.0,0.0
0.07717081159353256,-0.11596575379371643,9.793657302856445,-0.002308192665616375,-0.007671776994718318,0.0001546342608201902,0.6000204086303711,2019-06-21 12:39:35:476,0.0,0.0,0.0
0.10830255597829819,-0.17583449184894562,9.827183723449707,0.003285811533905992,-0.0028769164380379507,-0.0015768431172737056,0.6049871444702148,2019-06-21 12:39:35:481,0.0,0.0,0.0
0.09872355312108994,-0.1710449904203415,9.767314910888672,8.92376858697129e-05,-0.00660625248436142,-0.004640226344624114,0.6099910736083984,2019-06-21 12:39:35:486,0.0,0.0,0.0
0.06759180873632431,-0.15428175032138824,9.750551223754883,-0.000843096333838477,-0.005940299405314034,-0.00024493746307293734,0.6141057014465332,2019-06-21 12:39:35:490,0.0,0.0,0.0
0.13225005567073822,-0.11596575379371643,9.817604064941406,0.001287952816912482,-0.00460839376736791,-0.002242795936246767,0.6200132369995117,2019-06-21 12:39:35:496,0.0,0.0,0.0
0.11069730669260025,-0.15907125174999237,9.719419479370117,8.92376858697129e-05,-0.004475203463647623,0.0014865399800395396,0.6241040229797363,2019-06-21 12:39:35:500,0.0,0.0,0.0
0.08196030557155609,-0.1375184953212738,9.743367195129395,-0.0005767152062492525,-0.002077772925233114,-0.004640226344624114,0.6299877166748047,2019-06-21 12:39:35:506,0.0,0.0,0.0
0.10590780526399612,-0.14709749817848206,9.793657302856445,0.0022202867634747683,-0.0063398713567721955,-0.004906607472213338,0.6341085433959961,2019-06-21 12:39:35:510,0.0,0.0,0.0
0.101118303835392,-0.15188699960708618,9.772104263305664,-0.0027077643570002116,-0.005540727974004522,-0.007037656492927135,0.6400165557861328,2019-06-21 12:39:35:516,0.0,0.0,0.0
0.1394343078136444,-0.16146600246429443,9.77449893951416,0.0019539056358855436,-0.0056739182777248084,0.0013533494162449274,0.6441049575805664,2019-06-21 12:39:35:520,0.0,0.0,0.0
0.08435505628585815,-0.15428175032138824,9.84394645690918,0.0010215716893232575,-0.005274346846415297,-0.0033083207066779904,0.6499848365783691,2019-06-21 12:39:35:526,0.0,0.0,0.0
0.12267105281352997,-0.12315000593662262,9.793657302856445,-0.0024413832294109873,-0.0038092503846002368,-0.0038410829618564396,0.6541075706481934,2019-06-21 12:39:35:530,0.0,0.0,0.0
0.08674980700016022,-0.18062399327754974,9.728999137878418,-0.0036400983035624977,-0.0075385861708493805,-0.006105322806439174,0.6599912643432617,2019-06-21 12:39:35:536,0.0,0.0,0.0
0.07717081159353256,-0.1375184953212738,9.752945899963379,-0.0024413832294109873,-0.0014118201062600529,-0.007037656492927135,0.665015697479248,2019-06-21 12:39:35:541,0.0,0.0,0.0
0.043644312769174576,-0.16625550389289856,9.784077644348145,0.00022242825779164786,-0.004208822075984073,-0.005439369727391787,0.6691060066223145,2019-06-21 12:39:35:545,0.0,0.0,0.0
0.09872355312108994,-0.13272900879383087,9.781682968139648,0.002619858454858605,-0.0075385861708493805,-0.004640226344624114,0.6749844551086426,2019-06-21 12:39:35:551,0.0,0.0,0.0
0.12506580352783203,-0.16865025460720062,9.76252555847168,-0.0005767152062492525,-0.004475203463647623,-0.007437228444385297,0.6790981292724609,2019-06-21 12:39:35:555,0.0,0.0,0.0
0.09632880985736847,-0.16865025460720062,9.757735252380371,0.0015543339445017069,-0.009270064280402316,-0.01023423054414648,0.6852331161499023,2019-06-21 12:39:35:561,0.0,0.0,0.0
0.08196030557155609,-0.13512374460697174,9.800841331481934,-4.395289011588339e-05,-0.007272205043260157,-0.0038410829618564396,0.6891207695007324,2019-06-21 12:39:35:565,0.0,0.0,0.0
0.1394343078136444,-0.19259774684906006,9.829578399658203,-0.00017714346610147965,-0.005940299405314034,-0.007570418748105583,0.6949806213378906,2019-06-21 12:39:35:571,0.0,0.0,0.0
0.10590780526399612,-0.16625550389289856,9.776893615722656,-0.000843096333838477,0.0011188008659119059,-0.00677127536533791,0.6990976333618164,2019-06-21 12:39:35:575,0.0,0.0,0.0
0.10351305454969406,-0.16146600246429443,9.839157104492188,-4.395289011588339e-05,-0.007405395867129095,-0.009435086641230155,0.7049894332885742,2019-06-21 12:39:35:581,0.0,0.0,0.0
0.1202763020992279,-0.16146600246429443,9.750551223754883,0.0018207150720909312,-0.005540727974004522,-0.00930189633750987,0.7091059684753418,2019-06-21 12:39:35:585,0.0,0.0,0.0
0.10830255597829819,-0.1638607531785965,9.817604064941406,-0.001642239716606151,-0.0063398713567721955,-0.0066380850616176235,0.7149782180786133,2019-06-21 12:39:35:591,0.0,0.0,0.0
0.08435505628585815,-0.16146600246429443,9.767314910888672,-0.0027077643570002116,-0.0032764881294217877,-0.00823637182715297,0.7191066741943359,2019-06-21 12:39:35:595,0.0,0.0,0.0
0.06998655945062637,-0.1638607531785965,9.769709587097168,0.0006219999979394207,-0.0023441541828595016,-0.004773416648344401,0.7249832153320312,2019-06-21 12:39:35:601,0.0,0.0,0.0
0.12506580352783203,-0.16625550389289856,9.748156547546387,-0.0033737171759732733,-0.0008790577860630224,-0.003974273525651052,0.729097843170166,2019-06-21 12:39:35:605,0.0,0.0,0.0
0.06759180873632431,-0.14470274746418,9.79126262664795,-0.001242668025222314,-0.007005823915670932,-0.009967848896408605,0.7349910736083984,2019-06-21 12:39:35:611,0.0,0.0,0.0
0.050828561186790466,-0.17583449184894562,9.728999137878418,0.0004888094016355178,-7.991434640409003e-05,-0.00677127536533791,0.7391109466552734,2019-06-21 12:39:35:615,0.0,0.0,0.0
0.043644312769174576,-0.14470274746418,9.748156547546387,0.001287952816912482,-0.004342012639778686,-0.006238513110159461,0.7449836730957031,2019-06-21 12:39:35:621,0.0,0.0,0.0
0.03167056292295456,-0.16146600246429443,9.726603507995605,-4.395289011588339e-05,-0.0030101070018325625,-0.008635943258462482,0.7490987777709961,2019-06-21 12:39:35:625,0.0,0.0,0.0
0.06280230730772018,-0.19259774684906006,9.793657302856445,-0.00017714346610147965,-0.006073490229182971,-0.0066380850616176235,0.7549905776977539,2019-06-21 12:39:35:631,0.0,0.0,0.0
0.01969681680202484,-0.16146600246429443,9.788866996765137,0.0027530490186532175,-0.0040756315121894615,-0.005039798296082276,0.7591047286987305,2019-06-21 12:39:35:635,0.0,0.0,0.0
0.024486316367983818,-0.1638607531785965,9.726603507995605,-0.005105194505303233,-0.005007965718826072,-0.00876913408233142,0.7650136947631836,2019-06-21 12:39:35:641,0.0,0.0,0.0
0.03167056292295456,-0.14949224889278412,9.819998741149902,0.0004888094016355178,-0.0010122483498576347,-0.006904466189206847,0.7691059112548828,2019-06-21 12:39:35:645,0.0,0.0,0.0
0.036460064351558685,-0.14949224889278412,9.700262069702148,0.0011547622531178697,-0.002610535310448726,-0.00730403762051636,0.7749824523925781,2019-06-21 12:39:35:651,0.0,0.0,0.0
0.050828561186790466,-0.14709749817848206,9.73378849029541,0.0022202867634747683,-0.003676059820805624,-0.008369562130873257,0.7800168991088867,2019-06-21 12:39:35:656,0.0,0.0,0.0
0.026881065219640732,-0.15907125174999237,9.812814712524414,-0.0005767152062492525,-0.002610535310448726,-0.0051729885998025625,0.7841010093688965,2019-06-21 12:39:35:660,0.0,0.0,0.0
0.06040756031870842,-0.17343974113464355,9.748156547546387,0.0003556188378409054,-0.007804967298438606,-0.004507035520755176,0.7899875640869141,2019-06-21 12:39:35:666,0.0,0.0,0.0
0.022091565653681755,-0.17343974113464355,9.81520938873291,-0.0020418114079899874,-0.0004794860621698949,-0.007170847316796072,0.7941055297851562,2019-06-21 12:39:35:670,0.0,0.0,0.0
0.06040756031870842,-0.15188699960708618,9.726603507995605,-0.001775430280400763,-0.0027437258742433386,-0.002109605502489317,0.7999906539916992,2019-06-21 12:39:35:676,0.0,0.0,0.0
0.022091565653681755,-0.1638607531785965,9.776893615722656,-0.002840954920794824,-0.005940299405314034,-0.005705750854981011,0.8050289154052734,2019-06-21 12:39:35:681,0.0,0.0,0.0
0.06519705802202225,-0.17822924256324768,9.757735252380371,0.0035521926614952163,-0.004342012639778686,-0.008502752954742196,0.8091225624084473,2019-06-21 12:39:35:685,0.0,0.0,0.0
0.026881065219640732,-0.1638607531785965,9.772104263305664,-0.001642239716606151,-0.006473061660492482,-0.006904466189206847,0.8149828910827637,2019-06-21 12:39:35:691,0.0,0.0,0.0
0.010117817670106888,-0.1566765010356903,9.808025360107422,-0.002840954920794824,-0.0032764881294217877,-0.0053061794236715,0.8190960884094238,2019-06-21 12:39:35:695,0.0,0.0,0.0
-0.011434929445385933,-0.21175573766231537,9.870288848876953,0.0028862395824478296,-0.0038092503846002368,-0.005705750854981011,0.8250093460083008,2019-06-21 12:39:35:701,0.0,0.0,0.0
0.03885481506586075,-0.15428175032138824,9.800841331481934,-0.00017714346610147965,-0.0032764881294217877,-0.005705750854981011,0.8291091918945312,2019-06-21 12:39:35:705,0.0,0.0,0.0
0.014907317236065865,-0.16865025460720062,9.798446655273438,-0.004172860558740947,-0.00074586722226841,-0.006504894237748685,0.8349804878234863,2019-06-21 12:39:35:711,0.0,0.0,0.0
0.010117817670106888,-0.13512374460697174,9.80323600769043,0.000755190561734033,-0.0032764881294217877,-0.005838941678849949,0.8390960693359375,2019-06-21 12:39:35:715,0.0,0.0,0.0
0.029275815933942795,-0.16865025460720062,9.834367752075195,-0.002308192665616375,-0.0028769164380379507,-0.001310461989684481,0.8449902534484863,2019-06-21 12:39:35:721,0.0,0.0,0.0
0.04124956205487251,-0.2021767497062683,9.793657302856445,-0.002308192665616375,-0.004874774894957135,-0.004906607472213338,0.8491067886352539,2019-06-21 12:39:35:725,0.0,0.0,0.0
0.012512567453086376,-0.1566765010356903,9.779288291931152,0.0003556188378409054,-0.0004794860621698949,-0.004507035520755176,0.8550052642822266,2019-06-21 12:39:35:731,0.0,0.0,0.0
0.014907317236065865,-0.14709749817848206,9.827183723449707,0.00022242825779164786,-0.0014118201062600529,-0.0053061794236715,0.8599977493286133,2019-06-21 12:39:35:736,0.0,0.0,0.0
0.0005388186546042562,-0.15188699960708618,9.712235450744629,-0.0021750019717846,-0.0010122483498576347,-0.004773416648344401,0.8640975952148438,2019-06-21 12:39:35:740,0.0,0.0,0.0
-0.025803428143262863,-0.19499249756336212,9.769709587097168,-0.000843096333838477,-0.0023441541828595016,-0.0009108902983006441,0.8700904846191406,2019-06-21 12:39:35:746,0.0,0.0,0.0
-0.0066454303450882435,-0.15428175032138824,9.748156547546387,0.0010215716893232575,-0.008870492328944154,-0.007037656492927135,0.8741054534912109,2019-06-21 12:39:35:750,0.0,0.0,0.0
0.01969681680202484,-0.190202996134758,9.798446655273438,-0.0005767152062492525,-0.0034096786932164,-0.003041939579088766,0.8799858093261719,2019-06-21 12:39:35:756,0.0,0.0,0.0
0.026881065219640732,-0.17822924256324768,9.79126262664795,-0.0024413832294109873,-0.007671776994718318,-0.002642367627630604,0.8841061592102051,2019-06-21 12:39:35:760,0.0,0.0,0.0
-0.021013928577303886,-0.1566765010356903,9.796051979064941,0.0008883811255286454,-0.004741584591236848,-0.005439369727391787,0.8899917602539062,2019-06-21 12:39:35:766,0.0,0.0,0.0
-0.021013928577303886,-0.17822924256324768,9.810420036315918,0.0018207150720909312,-0.004741584591236848,-0.0009108902983006441,0.894101619720459,2019-06-21 12:39:35:770,0.0,0.0,0.0
-0.011434929445385933,-0.21415048837661743,9.769709587097168,0.003285811533905992,-0.006206680532903257,-0.002242795936246767,0.9000115394592285,2019-06-21 12:39:35:776,0.0,0.0,0.0
-0.013829679228365421,-0.19259774684906006,9.743367195129395,-4.395289011588339e-05,-0.0063398713567721955,-0.0027755584514995413,0.9041004180908203,2019-06-21 12:39:35:780,0.0,0.0,0.0
-0.013829679228365421,-0.14230799674987793,9.750551223754883,0.0011547622531178697,-0.007005823915670932,-0.002109605502489317,0.9099855422973633,2019-06-21 12:39:35:786,0.0,0.0,0.0
-0.009040179662406445,-0.18780824542045593,9.78647232055664,-0.0019086208441953755,-0.0030101070018325625,-0.0034415112704726026,0.914207935333252,2019-06-21 12:39:35:790,0.0,0.0,0.0
-0.01622442901134491,-0.1710449904203415,9.81520938873291,0.000755190561734033,-0.0015450106700546653,0.0010869682236371214,0.9199972152709961,2019-06-21 12:39:35:796,0.0,0.0,0.0
-0.04496142640709877,-0.16146600246429443,9.793657302856445,-0.0015090491528115383,-0.005007965718826072,-0.0010440808620952565,0.924098014831543,2019-06-21 12:39:35:800,0.0,0.0,0.0
-0.040171924978494644,-0.18541349470615387,9.678709030151367,-0.0035069077397678855,-0.004208822075984073,-0.005039798296082276,0.9299845695495605,2019-06-21 12:39:35:806,0.0,0.0,0.0
-0.004250680562108755,-0.1566765010356903,9.796051979064941,-0.00017714346610147965,-0.007139014739539869,0.0012201588524503152,0.9341082572937012,2019-06-21 12:39:35:810,0.0,0.0,0.0
-0.01622442901134491,-0.17343974113464355,9.827183723449707,-0.0032405266121786607,-0.0038092503846002368,-0.002242795936246767,0.9399929046630859,2019-06-21 12:39:35:816,0.0,0.0,0.0
-0.032987676560878754,-0.17343974113464355,9.8319730758667,-0.0005767152062492525,-0.007671776994718318,-0.0007776997345060318,0.9441766738891602,2019-06-21 12:39:35:820,0.0,0.0,0.0
0.03167056292295456,-0.19259774684906006,9.769709587097168,0.0010215716893232575,-0.004208822075984073,2.1443682802763245e-05,0.949122428894043,2019-06-21 12:39:35:825,0.0,0.0,0.0
-0.04496142640709877,-0.16146600246429443,9.810420036315918,0.001687524508296319,-0.003942440948394849,-0.002642367627630604,0.9549798965454102,2019-06-21 12:39:35:831,0.0,0.0,0.0
-0.011434929445385933,-0.15907125174999237,9.750551223754883,0.00022242825779164786,-0.0008790577860630224,-0.0017100338111054802,0.9590997695922852,2019-06-21 12:39:35:835,0.0,0.0,0.0
-0.028198176994919777,-0.13991324603557587,9.707446098327637,-4.395289011588339e-05,-0.0015450106700546653,-0.00024493746307293734,0.9650039672851562,2019-06-21 12:39:35:841,0.0,0.0,0.0
-0.0018559310119599104,-0.14230799674987793,9.77449893951416,-4.395289011588339e-05,-0.003942440948394849,0.0025520646204336005,0.9691066741943359,2019-06-21 12:39:35:845,0.0,0.0,0.0
-0.009040179662406445,-0.20457148551940918,9.748156547546387,-0.0024413832294109873,-0.0034096786932164,-0.0014436525534790934,0.974977970123291,2019-06-21 12:39:35:851,0.0,0.0,0.0
-0.03059292770922184,-0.1566765010356903,9.78647232055664,0.0028862395824478296,-0.006206680532903257,0.00548225702391507,0.9790983200073242,2019-06-21 12:39:35:855,0.0,0.0,0.0
-0.028198176994919777,-0.2021767497062683,9.776893615722656,-0.0037732888673571103,-0.005407537150135584,0.0004210154046640601,0.984990119934082,2019-06-21 12:39:35:861,0.0,0.0,0.0
-0.018619179725646973,-0.24767698347568512,9.819998741149902,0.0008883811255286454,-0.003542869257011012,0.0010869682236371214,0.9891042709350586,2019-06-21 12:39:35:865,0.0,0.0,0.0
-0.032987676560878754,-0.1830187439918518,9.848735809326172,0.0008883811255286454,-0.004874774894957135,0.002685255184228213,0.9949893951416016,2019-06-21 12:39:35:871,0.0,0.0,0.0
-0.025803428143262863,-0.14709749817848206,9.812814712524414,-0.002974145484589436,-0.006206680532903257,0.006281400406682744,0.999107837677002,2019-06-21 12:39:35:875,0.0,0.0,0.0
-0.018619179725646973,-0.14949224889278412,9.719419479370117,-0.001642239716606151,-0.0038092503846002368,0.006015019279093521,1.0050368309020996,2019-06-21 12:39:35:881,0.0,0.0,0.0
0.0029335683211684227,-0.17583449184894562,9.788866996765137,-0.001775430280400763,0.0008524196733041,0.00548225702391507,1.009124755859375,2019-06-21 12:39:35:885,0.0,0.0,0.0
-0.021013928577303886,-0.2021767497062683,9.793657302856445,0.003285811533905992,-0.0034096786932164,0.006148210102962458,1.0149812698364258,2019-06-21 12:39:35:891,0.0,0.0,0.0
-0.009040179662406445,-0.15907125174999237,9.793657302856445,0.0006219999979394207,0.0015183725572957428,0.007613306044628867,1.0190978050231934,2019-06-21 12:39:35:895,0.0,0.0,0.0
0.026881065219640732,-0.17343974113464355,9.750551223754883,0.004484526608057502,-0.006206680532903257,0.006015019279093521,1.0249886512756348,2019-06-21 12:39:35:901,0.0,0.0,0.0
0.01730206608772278,-0.18541349470615387,9.755340576171875,0.0003556188378409054,-0.0032764881294217877,0.0065477815342719695,1.0291047096252441,2019-06-21 12:39:35:905,0.0,0.0,0.0
0.010117817670106888,-0.14230799674987793,9.78647232055664,0.0028862395824478296,-0.00514115602254636,0.007346924917039643,1.0349807739257812,2019-06-21 12:39:35:911,0.0,0.0,0.0
-0.01622442901134491,-0.19978199899196625,9.805630683898926,-0.0021750019717846,-0.007938158122307543,0.0025520646204336005,1.0390992164611816,2019-06-21 12:39:35:915,0.0,0.0,0.0
0.01730206608772278,-0.190202996134758,9.79126262664795,-0.002974145484589436,-0.007938158122307543,0.009078403026592578,1.0450048446655273,2019-06-21 12:39:35:921,0.0,0.0,0.0
-0.032987676560878754,-0.20457148551940918,9.793657302856445,0.0027530490186532175,-0.0034096786932164,0.007346924917039643,1.0491070747375488,2019-06-21 12:39:35:925,0.0,0.0,0.0
0.03885481506586075,-0.14949224889278412,9.839157104492188,-0.0025745737932055994,-0.00514115602254636,0.007480115740908581,1.055037498474121,2019-06-21 12:39:35:931,0.0,0.0,0.0
-0.011434929445385933,-0.18780824542045593,9.788866996765137,-0.0032405266121786607,-0.004874774894957135,0.012141785213645687,1.0591177940368652,2019-06-21 12:39:35:935,0.0,0.0,0.0
0.014907317236065865,-0.17822924256324768,9.817604064941406,-0.0011094774614277016,-0.00460839376736791,0.010010736192931888,1.0649890899658203,2019-06-21 12:39:35:941,0.0,0.0,0.0
0.01969681680202484,-0.12554475665092468,9.8319730758667,-0.0009762868976330894,-0.003143297565627175,0.012408166861383562,1.0691008567810059,2019-06-21 12:39:35:945,0.0,0.0,0.0
-0.025803428143262863,-0.19738724827766418,9.76252555847168,-0.0015090491528115383,-0.0010122483498576347,0.004683113641147397,1.074991226196289,2019-06-21 12:39:35:951,0.0,0.0,0.0
0.014907317236065865,-0.16146600246429443,9.80323600769043,-0.004039669994946335,-0.006739442788081707,0.007879687172218092,1.0791068077087402,2019-06-21 12:39:35:955,0.0,0.0,0.0
0.010117817670106888,-0.18541349470615387,9.793657302856445,0.0038185737890844406,-0.005807109101593746,0.009211593330312866,1.0849833488464355,2019-06-21 12:39:35:961,0.0,0.0,0.0
0.036460064351558685,-0.14949224889278412,9.78647232055664,0.0014211433807070943,-0.00514115602254636,0.01134264235102666,1.089996337890625,2019-06-21 12:39:35:966,0.0,0.0,0.0
0.05801280960440636,-0.1566765010356903,9.748156547546387,-0.0024413832294109873,-0.0038092503846002368,0.012408166861383562,1.094104290008545,2019-06-21 12:39:35:970,0.0,0.0,0.0
0.026881065219640732,-0.18062399327754974,9.796051979064941,-0.000843096333838477,-0.002610535310448726,0.012408166861383562,1.1000242233276367,2019-06-21 12:39:35:976,0.0,0.0,0.0
0.06998655945062637,-0.1566765010356903,9.779288291931152,0.00022242825779164786,-0.009403254584122604,0.006414591230551682,1.1041159629821777,2019-06-21 12:39:35:980,0.0,0.0,0.0
0.036460064351558685,-0.15428175032138824,9.80323600769043,-0.0013758585890169264,-0.00953644488784289,0.013207310764299884,1.1099939346313477,2019-06-21 12:39:35:986,0.0,0.0,0.0
0.022091565653681755,-0.12554475665092468,9.769709587097168,0.0042181454804682775,-0.0023441541828595016,0.009211593330312866,1.1140975952148438,2019-06-21 12:39:35:990,0.0,0.0,0.0
-0.0066454303450882435,-0.13272900879383087,9.805630683898926,0.0018207150720909312,-0.011401113301116114,0.011076260703288788,1.119985580444336,2019-06-21 12:39:35:996,0.0,0.0,0.0
0.05801280960440636,-0.1638607531785965,9.717024803161621,0.0010215716893232575,-0.00460839376736791,0.009344783634033153,1.1241035461425781,2019-06-21 12:39:36:000,0.0,0.0,0.0
0.06040756031870842,-0.18780824542045593,9.84394645690918,0.0003556188378409054,-0.004475203463647623,0.012274976557663273,1.1299958229064941,2019-06-21 12:39:36:006,0.0,0.0,0.0
0.04603906348347664,-0.16625550389289856,9.796051979064941,0.0014211433807070943,-0.007139014739539869,0.011875404606205111,1.1341056823730469,2019-06-21 12:39:36:010,0.0,0.0,0.0
0.08914455771446228,-0.16146600246429443,9.671525001525879,0.0003556188378409054,-0.005274346846415297,0.012541357165103849,1.1399955749511719,2019-06-21 12:39:36:016,0.0,0.0,0.0
0.024486316367983818,-0.14709749817848206,9.767314910888672,0.0003556188378409054,-0.006872633611950644,0.012274976557663273,1.144117832183838,2019-06-21 12:39:36:020,0.0,0.0,0.0
0.0029335683211684227,-0.09920250624418259,9.767314910888672,-0.001242668025222314,-0.005807109101593746,0.011076260703288788,1.1491174697875977,2019-06-21 12:39:36:025,0.0,0.0,0.0
0.06519705802202225,-0.2093609869480133,9.808025360107422,-0.0025745737932055994,-0.004874774894957135,0.012807738812841724,1.1549797058105469,2019-06-21 12:39:36:031,0.0,0.0,0.0
0.06759180873632431,-0.1830187439918518,9.824789047241211,8.92376858697129e-05,-0.007139014739539869,0.010543498448110339,1.159097671508789,2019-06-21 12:39:36:035,0.0,0.0,0.0
0.10590780526399612,-0.1303342580795288,9.760130882263184,-0.0011094774614277016,-0.006206680532903257,0.006414591230551682,1.1649847030639648,2019-06-21 12:39:36:041,0.0,0.0,0.0
0.0747760608792305,-0.1830187439918518,9.822394371032715,0.0024866678910639927,-0.004342012639778686,0.005082685592605559,1.1691007614135742,2019-06-21 12:39:36:045,0.0,0.0,0.0
0.08435505628585815,-0.1710449904203415,9.80323600769043,-0.00031033404615073726,-0.007938158122307543,0.009744355585491315,1.1749820709228516,2019-06-21 12:39:36:051,0.0,0.0,0.0
0.05561806261539459,-0.15907125174999237,9.80323600769043,-4.395289011588339e-05,-0.0032764881294217877,0.007879687172218092,1.1800165176391602,2019-06-21 12:39:36:056,0.0,0.0,0.0
0.0939340591430664,-0.14949224889278412,9.846341133117676,-0.00017714346610147965,-0.008337729553617055,0.008279259123676254,1.184098243713379,2019-06-21 12:39:36:060,0.0,0.0,0.0
0.06998655945062637,-0.07286025583744049,9.800841331481934,-0.0025745737932055994,-0.009669635191563178,0.004683113641147397,1.1900248527526855,2019-06-21 12:39:36:066,0.0,0.0,0.0
0.06280230730772018,-0.1566765010356903,9.77449893951416,-0.00670348127083858,-0.005940299405314034,0.01134264235102666,1.1941232681274414,2019-06-21 12:39:36:070,0.0,0.0,0.0
0.06040756031870842,-0.1830187439918518,9.79126262664795,0.0068819567563605235,-0.006073490229182971,0.007613306044628867,1.1999902725219727,2019-06-21 12:39:36:076,0.0,0.0,0.0
0.08914455771446228,-0.1566765010356903,9.781682968139648,-0.0005767152062492525,-0.005274346846415297,0.00947797393775344,1.2041187286376953,2019-06-21 12:39:36:080,0.0,0.0,0.0
0.10590780526399612,-0.1375184953212738,9.800841331481934,-0.0013758585890169264,-0.00807134842602783,0.006414591230551682,1.2099895477294922,2019-06-21 12:39:36:086,0.0,0.0,0.0
0.08435505628585815,-0.17822924256324768,9.810420036315918,0.0011547622531178697,-0.005407537150135584,0.007746496868497805,1.2141046524047852,2019-06-21 12:39:36:090,0.0,0.0,0.0
0.09872355312108994,-0.1303342580795288,9.8319730758667,0.00022242825779164786,-0.00913687293638473,0.01147583265474695,1.22003173828125,2019-06-21 12:39:36:096,0.0,0.0,0.0
0.10590780526399612,-0.16865025460720062,9.824789047241211,0.004884098039367014,-0.0027437258742433386,0.0036175891307904987,1.224123477935791,2019-06-21 12:39:36:100,0.0,0.0,0.0
0.08435505628585815,-0.17583449184894562,9.750551223754883,0.0023534773272693805,-0.007938158122307543,0.00428354194976356,1.229987621307373,2019-06-21 12:39:36:106,0.0,0.0,0.0
0.08914455771446228,-0.1638607531785965,9.72420883178711,-0.0031073360483840485,-0.006073490229182971,0.0012201588524503152,1.2340974807739258,2019-06-21 12:39:36:110,0.0,0.0,0.0
0.08674980700016022,-0.12793950736522675,9.73378849029541,0.0004888094016355178,-0.006739442788081707,0.0033512080032012744,1.2399911880493164,2019-06-21 12:39:36:116,0.0,0.0,0.0
0.10590780526399612,-0.16865025460720062,9.760130882263184,0.003019430146242442,-0.0056739182777248084,0.00428354194976356,1.2450189590454102,2019-06-21 12:39:36:121,0.0,0.0,0.0
0.10590780526399612,-0.16625550389289856,9.81520938873291,0.00022242825779164786,-0.005807109101593746,0.0053490667201947836,1.2491064071655273,2019-06-21 12:39:36:125,0.0,0.0,0.0
0.10830255597829819,-0.1566765010356903,9.772104263305664,-0.0015090491528115383,-0.006473061660492482,0.0012201588524503152,1.254983901977539,2019-06-21 12:39:36:131,0.0,0.0,0.0
0.1394343078136444,-0.14230799674987793,9.805630683898926,0.00022242825779164786,-0.003942440948394849,0.0025520646204336005,1.259099006652832,2019-06-21 12:39:36:135,0.0,0.0,0.0
0.14422379434108734,-0.19738724827766418,9.70505142211914,0.0019539056358855436,-0.005807109101593746,0.0013533494162449274,1.264986515045166,2019-06-21 12:39:36:141,0.0,0.0,0.0
0.11548680067062378,-0.20696623623371124,9.81520938873291,0.0014211433807070943,-0.006872633611950644,0.0005542059684586724,1.269186019897461,2019-06-21 12:39:36:145,0.0,0.0,0.0
0.11309205740690231,-0.14949224889278412,9.764920234680176,-0.0011094774614277016,-0.006739442788081707,0.0006873965322532847,1.2749876976013184,2019-06-21 12:39:36:151,0.0,0.0,0.0
0.09153930842876434,-0.14949224889278412,9.707446098327637,-0.0021750019717846,-0.00807134842602783,-0.000378128043122195,1.279099464416504,2019-06-21 12:39:36:155,0.0,0.0,0.0
0.14422379434108734,-0.12075525522232056,9.728999137878418,0.0010215716893232575,-0.00807134842602783,0.0004210154046640601,1.2849903106689453,2019-06-21 12:39:36:161,0.0,0.0,0.0
0.12985530495643616,-0.15428175032138824,9.764920234680176,-4.395289011588339e-05,-0.0063398713567721955,0.0013533494162449274,1.289299488067627,2019-06-21 12:39:36:165,0.0,0.0,0.0
0.13703955709934235,-0.15428175032138824,9.755340576171875,8.92376858697129e-05,-0.005407537150135584,-0.002109605502489317,1.2949867248535156,2019-06-21 12:39:36:171,0.0,0.0,0.0
0.08435505628585815,-0.11596575379371643,9.788866996765137,0.0015543339445017069,-0.0063398713567721955,-0.00011174689115100237,1.299095630645752,2019-06-21 12:39:36:175,0.0,0.0,0.0
0.13225005567073822,-0.17822924256324768,9.781682968139648,-0.0025745737932055994,-0.004874774894957135,-0.0015768431172737056,1.3050117492675781,2019-06-21 12:39:36:181,0.0,0.0,0.0
0.07717081159353256,-0.14230799674987793,9.752945899963379,-0.003906479431151722,-0.0032764881294217877,-0.000378128043122195,1.3091063499450684,2019-06-21 12:39:36:185,0.0,0.0,0.0
0.10830255597829819,-0.18062399327754974,9.827183723449707,-4.395289011588339e-05,-0.006872633611950644,-0.004373845217034889,1.3149805068969727,2019-06-21 12:39:36:191,0.0,0.0,0.0
0.14901329576969147,-0.14949224889278412,9.79126262664795,-0.0031073360483840485,-0.005807109101593746,-0.004240654653240277,1.3200197219848633,2019-06-21 12:39:36:196,0.0,0.0,0.0
0.14182904362678528,-0.16625550389289856,9.772104263305664,-0.0024413832294109873,-0.007005823915670932,0.0018861116714233767,1.3241009712219238,2019-06-21 12:39:36:200,0.0,0.0,0.0
0.14422379434108734,-0.10638675838708878,9.776893615722656,-0.0007099057700438648,-0.00514115602254636,-0.0033083207066779904,1.3299903869628906,2019-06-21 12:39:36:206,0.0,0.0,0.0
0.16098704934120178,-0.14949224889278412,9.76252555847168,-0.001775430280400763,-0.0023441541828595016,-0.0051729885998025625,1.3350601196289062,2019-06-21 12:39:36:211,0.0,0.0,0.0
0.11309205740690231,-0.13512374460697174,9.748156547546387,0.0004888094016355178,-0.004342012639778686,-0.0029087490152941535,1.3391056060791016,2019-06-21 12:39:36:215,0.0,0.0,0.0
0.11309205740690231,-0.12315000593662262,9.819998741149902,0.000755190561734033,-0.005407537150135584,-0.005838941678849949,1.3449831008911133,2019-06-21 12:39:36:221,0.0,0.0,0.0
0.13464480638504028,-0.13272900879383087,9.80323600769043,-0.004172860558740947,-0.005007965718826072,-0.0029087490152941535,1.3490991592407227,2019-06-21 12:39:36:225,0.0,0.0,0.0
0.1394343078136444,-0.14230799674987793,9.776893615722656,0.0018207150720909312,-0.00460839376736791,-0.005972131982570236,1.3549866676330566,2019-06-21 12:39:36:231,0.0,0.0,0.0
0.10830255597829819,-0.15907125174999237,9.743367195129395,-0.0009762868976330894,-0.00660625248436142,-0.007703609571974521,1.3591041564941406,2019-06-21 12:39:36:235,0.0,0.0,0.0
0.13703955709934235,-0.14949224889278412,9.748156547546387,-0.006170719015660131,-0.0015450106700546653,-0.001310461989684481,1.3650054931640625,2019-06-21 12:39:36:241,0.0,0.0,0.0
0.10351305454969406,-0.1566765010356903,9.79126262664795,-0.0005767152062492525,-0.008204539249896767,-0.004773416648344401,1.3691062927246094,2019-06-21 12:39:36:245,0.0,0.0,0.0
0.14182904362678528,-0.17822924256324768,9.731393814086914,-0.00523838532917217,-0.0040756315121894615,-0.007170847316796072,1.3749804496765137,2019-06-21 12:39:36:251,0.0,0.0,0.0
0.1538027971982956,-0.15907125174999237,9.776893615722656,0.000755190561734033,-0.00460839376736791,-0.004773416648344401,1.3800153732299805,2019-06-21 12:39:36:256,0.0,0.0,0.0
0.10830255597829819,-0.2021767497062683,9.80323600769043,-4.395289011588339e-05,-0.005274346846415297,-0.006371703934028398,1.3840980529785156,2019-06-21 12:39:36:260,0.0,0.0,0.0
0.13225005567073822,-0.15907125174999237,9.788866996765137,-0.0024413832294109873,-0.007804967298438606,-0.00823637182715297,1.3899879455566406,2019-06-21 12:39:36:266,0.0,0.0,0.0
0.1202763020992279,-0.14230799674987793,9.767314910888672,0.0022202867634747683,-0.006206680532903257,-0.007170847316796072,1.394106388092041,2019-06-21 12:39:36:270,0.0,0.0,0.0
0.09632880985736847,-0.14470274746418,9.748156547546387,-0.0019086208441953755,-0.007272205043260157,-0.007703609571974521,1.3999900817871094,2019-06-21 12:39:36:276,0.0,0.0,0.0
0.09872355312108994,-0.16865025460720062,9.748156547546387,0.000755190561734033,-0.005407537150135584,-0.009168706033789581,1.4041194915771484,2019-06-21 12:39:36:280,0.0,0.0,0.0
0.11309205740690231,-0.1566765010356903,9.77449893951416,-0.00031033404615073726,-0.004741584591236848,-0.009168706033789581,1.4091949462890625,2019-06-21 12:39:36:285,0.0,0.0,0.0
0.10590780526399612,-0.13272900879383087,9.788866996765137,0.003285811533905992,-0.0011454389786708283,-0.006105322806439174,1.4149837493896484,2019-06-21 12:39:36:291,0.0,0.0,0.0
0.09153930842876434,-0.17583449184894562,9.757735252380371,-0.001642239716606151,-0.003942440948394849,-0.007570418748105583,1.4190969467163086,2019-06-21 12:39:36:295,0.0,0.0,0.0
0.07956556230783463,-0.14470274746418,9.79126262664795,-0.003906479431151722,-0.0032764881294217877,-0.009568277985247745,1.4249906539916992,2019-06-21 12:39:36:301,0.0,0.0,0.0
0.07238131016492844,-0.1303342580795288,9.788866996765137,0.0008883811255286454,-0.003143297565627175,-0.005039798296082276,1.4291081428527832,2019-06-21 12:39:36:305,0.0,0.0,0.0
0.0939340591430664,-0.17822924256324768,9.752945899963379,-0.0009762868976330894,-0.0032764881294217877,-0.006371703934028398,1.435011863708496,2019-06-21 12:39:36:311,0.0,0.0,0.0
0.09872355312108994,-0.16625550389289856,9.764920234680176,0.0028862395824478296,-0.005407537150135584,-0.005039798296082276,1.439107894897461,2019-06-21 12:39:36:315,0.0,0.0,0.0
0.11069730669260025,-0.13991324603557587,9.793657302856445,-0.0048388133777140085,-0.005407537150135584,-0.008103181003284032,1.4449825286865234,2019-06-21 12:39:36:321,0.0,0.0,0.0
0.09153930842876434,-0.15907125174999237,9.810420036315918,-0.0044392419464044965,-0.004741584591236848,-0.009035514689771994,1.449094295501709,2019-06-21 12:39:36:325,0.0,0.0,0.0
0.06998655945062637,-0.11596575379371643,9.829578399658203,-0.0033737171759732733,-0.0028769164380379507,-0.008103181003284032,1.4550013542175293,2019-06-21 12:39:36:331,0.0,0.0,0.0
0.10830255597829819,-0.12793950736522675,9.829578399658203,-0.0033737171759732733,-0.003942440948394849,-0.003707892398061828,1.459127426147461,2019-06-21 12:39:36:335,0.0,0.0,0.0
0.09153930842876434,-0.16146600246429443,9.796051979064941,-0.004172860558740947,-0.007272205043260157,-0.009168706033789581,1.4649829864501953,2019-06-21 12:39:36:341,0.0,0.0,0.0
0.101118303835392,-0.19259774684906006,9.738577842712402,-0.0021750019717846,-0.005274346846415297,-0.006238513110159461,1.4690980911254883,2019-06-21 12:39:36:345,0.0,0.0,0.0
0.09632880985736847,-0.1710449904203415,9.805630683898926,-0.0009762868976330894,-0.0004794860621698949,-0.004107464089445664,1.4752702713012695,2019-06-21 12:39:36:351,0.0,0.0,0.0
0.09153930842876434,-0.1375184953212738,9.769709587097168,0.0010215716893232575,-0.003542869257011012,-0.0053061794236715,1.4791288375854492,2019-06-21 12:39:36:355,0.0,0.0,0.0
0.04603906348347664,-0.18780824542045593,9.74576187133789,0.00022242825779164786,-0.002077772925233114,-0.003041939579088766,1.4849815368652344,2019-06-21 12:39:36:361,0.0,0.0,0.0
0.05801280960440636,-0.12793950736522675,9.796051979064941,-0.0044392419464044965,-0.0018113917976438896,-0.01223208926113999,1.4890975952148438,2019-06-21 12:39:36:365,0.0,0.0,0.0
0.11069730669260025,-0.18780824542045593,9.80323600769043,0.0003556188378409054,-0.00660625248436142,-0.008502752954742196,1.4949908256530762,2019-06-21 12:39:36:371,0.0,0.0,0.0
0.07717081159353256,-0.1710449904203415,9.736183166503906,0.004484526608057502,-0.005007965718826072,-0.01076699279932493,1.4991044998168945,2019-06-21 12:39:36:375,0.0,0.0,0.0
0.03167056292295456,-0.10878150165081024,9.77449893951416,0.003285811533905992,-0.004208822075984073,-0.00677127536533791,1.5051441192626953,2019-06-21 12:39:36:381,0.0,0.0,0.0
0.0484338141977787,-0.17583449184894562,9.796051979064941,-4.395289011588339e-05,-0.003676059820805624,-0.01076699279932493,1.5091114044189453,2019-06-21 12:39:36:385,0.0,0.0,0.0
0.043644312769174576,-0.14949224889278412,9.788866996765137,-0.001775430280400763,-0.0032764881294217877,-0.007437228444385297,1.5149807929992676,2019-06-21 12:39:36:391,0.0,0.0,0.0
0.026881065219640732,-0.15907125174999237,9.800841331481934,-0.004972004201582946,-0.003542869257011012,-0.002642367627630604,1.5192241668701172,2019-06-21 12:39:36:395,0.0,0.0,0.0
0.04124956205487251,-0.1638607531785965,9.841551780700684,0.0014211433807070943,-0.001944582361438502,-0.006105322806439174,1.5249967575073242,2019-06-21 12:39:36:401,0.0,0.0,0.0
0.029275815933942795,-0.190202996134758,9.84394645690918,8.92376858697129e-05,-0.001944582361438502,-0.00930189633750987,1.529097557067871,2019-06-21 12:39:36:405,0.0,0.0,0.0
0.01969681680202484,-0.16625550389289856,9.769709587097168,-0.0036400983035624977,-0.007272205043260157,-0.007037656492927135,1.5349879264831543,2019-06-21 12:39:36:411,0.0,0.0,0.0
0.024486316367983818,-0.18062399327754974,9.822394371032715,0.001287952816912482,-0.0018113917976438896,-0.004906607472213338,1.5391111373901367,2019-06-21 12:39:36:415,0.0,0.0,0.0
0.04603906348347664,-0.13272900879383087,9.776893615722656,0.001687524508296319,-0.003542869257011012,-0.0014436525534790934,1.5449843406677246,2019-06-21 12:39:36:421,0.0,0.0,0.0
0.03406531363725662,-0.15907125174999237,9.793657302856445,-0.005105194505303233,-0.005007965718826072,-0.009435086641230155,1.5491647720336914,2019-06-21 12:39:36:425,0.0,0.0,0.0
0.0029335683211684227,-0.1710449904203415,9.781682968139648,-0.0033737171759732733,-0.0015450106700546653,-0.009168706033789581,1.554983139038086,2019-06-21 12:39:36:431,0.0,0.0,0.0
0.03167056292295456,-0.17343974113464355,9.760130882263184,-0.0037732888673571103,-0.005007965718826072,-0.0015768431172737056,1.5590996742248535,2019-06-21 12:39:36:435,0.0,0.0,0.0
0.01969681680202484,-0.190202996134758,9.819998741149902,-0.002308192665616375,-0.004208822075984073,-0.0066380850616176235,1.5649909973144531,2019-06-21 12:39:36:441,0.0,0.0,0.0
0.026881065219640732,-0.13272900879383087,9.798446655273438,0.0020870961996801557,-0.005540727974004522,-0.0027755584514995413,1.569279670715332,2019-06-21 12:39:36:445,0.0,0.0,0.0
0.014907317236065865,-0.16865025460720062,9.841551780700684,8.92376858697129e-05,0.0001864668055671025,-0.003974273525651052,1.5749902725219727,2019-06-21 12:39:36:451,0.0,0.0,0.0
0.0029335683211684227,-0.14949224889278412,9.740972518920898,0.0028862395824478296,-0.001944582361438502,-0.007170847316796072,1.5790987014770508,2019-06-21 12:39:36:455,0.0,0.0,0.0
-0.01622442901134491,-0.1566765010356903,9.781682968139648,0.000755190561734033,-0.001944582361438502,-0.007570418748105583,1.5849900245666504,2019-06-21 12:39:36:461,0.0,0.0,0.0
0.014907317236065865,-0.18062399327754974,9.693077087402344,-0.0044392419464044965,-0.004475203463647623,-0.003041939579088766,1.5891103744506836,2019-06-21 12:39:36:465,0.0,0.0,0.0
0.0077230678871273994,-0.17343974113464355,9.77449893951416,0.004884098039367014,-0.005007965718826072,0.0010869682236371214,1.5949907302856445,2019-06-21 12:39:36:471,0.0,0.0,0.0
-0.0234086774289608,-0.17343974113464355,9.757735252380371,0.004884098039367014,-0.008737302025223867,-0.0051729885998025625,1.5991096496582031,2019-06-21 12:39:36:475,0.0,0.0,0.0
0.005328318104147911,-0.1566765010356903,9.819998741149902,8.92376858697129e-05,-0.003143297565627175,-0.006105322806439174,1.6050024032592773,2019-06-21 12:39:36:481,0.0,0.0,0.0
0.0029335683211684227,-0.15428175032138824,9.769709587097168,0.001287952816912482,-0.0011454389786708283,-0.0023759865000413795,1.6091032028198242,2019-06-21 12:39:36:485,0.0,0.0,0.0
0.01730206608772278,-0.15428175032138824,9.726603507995605,0.0003556188378409054,-0.004874774894957135,-0.003041939579088766,1.6149873733520508,2019-06-21 12:39:36:491,0.0,0.0,0.0
-0.04496142640709877,-0.16146600246429443,9.877472877502441,-0.0005767152062492525,-0.005540727974004522,-0.005039798296082276,1.6200180053710938,2019-06-21 12:39:36:496,0.0,0.0,0.0
-0.011434929445385933,-0.18541349470615387,9.769709587097168,-0.0033737171759732733,-0.0032764881294217877,-0.00677127536533791,1.6241016387939453,2019-06-21 12:39:36:500,0.0,0.0,0.0
-0.013829679228365421,-0.16625550389289856,9.750551223754883,-0.0011094774614277016,-0.0028769164380379507,-0.0009108902983006441,1.6299896240234375,2019-06-21 12:39:36:506,0.0,0.0,0.0
0.036460064351558685,-0.18062399327754974,9.760130882263184,-0.0019086208441953755,-0.006073490229182971,-0.004107464089445664,1.6341066360473633,2019-06-21 12:39:36:510,0.0,0.0,0.0
-0.01622442901134491,-0.17822924256324768,9.736183166503906,-0.0011094774614277016,-0.006073490229182971,-0.0029087490152941535,1.6400146484375,2019-06-21 12:39:36:516,0.0,0.0,0.0
-0.01622442901134491,-0.1710449904203415,9.776893615722656,-0.0021750019717846,-0.003143297565627175,-0.003707892398061828,1.6449966430664062,2019-06-21 12:39:36:521,0.0,0.0,0.0
0.010117817670106888,-0.14230799674987793,9.760130882263184,-0.000843096333838477,-0.005940299405314034,0.0010869682236371214,1.6490955352783203,2019-06-21 12:39:36:525,0.0,0.0,0.0
0.029275815933942795,-0.1830187439918518,9.79126262664795,0.0019539056358855436,-0.004475203463647623,-0.0015768431172737056,1.6549901962280273,2019-06-21 12:39:36:531,0.0,0.0,0.0
-0.0018559310119599104,-0.1710449904203415,9.781682968139648,-0.0013758585890169264,-0.00460839376736791,-0.0015768431172737056,1.6591014862060547,2019-06-21 12:39:36:535,0.0,0.0,0.0
-0.004250680562108755,-0.1830187439918518,9.752945899963379,0.0003556188378409054,-0.0004794860621698949,0.0002878248408694478,1.6649818420410156,2019-06-21 12:39:36:541,0.0,0.0,0.0
-0.004250680562108755,-0.20696623623371124,9.836762428283691,0.0023534773272693805,-0.0032764881294217877,0.0012201588524503152,1.6690993309020996,2019-06-21 12:39:36:545,0.0,0.0,0.0
-0.009040179662406445,-0.15188699960708618,9.827183723449707,0.0004888094016355178,-0.002477344746654114,-0.0029087490152941535,1.6750025749206543,2019-06-21 12:39:36:551,0.0,0.0,0.0
0.022091565653681755,-0.17343974113464355,9.728999137878418,-0.0013758585890169264,-0.005407537150135584,0.0018861116714233767,1.6791086196899414,2019-06-21 12:39:36:555,0.0,0.0,0.0
0.03885481506586075,-0.21175573766231537,9.78647232055664,0.0008883811255286454,-0.007405395867129095,2.1443682802763245e-05,1.684981346130371,2019-06-21 12:39:36:561,0.0,0.0,0.0
0.010117817670106888,-0.1710449904203415,9.889447212219238,-0.000843096333838477,-0.0063398713567721955,-0.004640226344624114,1.6891050338745117,2019-06-21 12:39:36:565,0.0,0.0,0.0
-0.01622442901134491,-0.16625550389289856,9.846341133117676,-0.0037732888673571103,-0.006872633611950644,-0.0015768431172737056,1.694983959197998,2019-06-21 12:39:36:571,0.0,0.0,0.0
0.01969681680202484,-0.18780824542045593,9.76252555847168,8.92376858697129e-05,-0.003676059820805624,0.0029516363118174374,1.6990976333618164,2019-06-21 12:39:36:575,0.0,0.0,0.0
0.0005388186546042562,-0.15907125174999237,9.755340576171875,0.0023534773272693805,-0.007405395867129095,0.0005542059684586724,1.7050132751464844,2019-06-21 12:39:36:581,0.0,0.0,0.0
0.005328318104147911,-0.15428175032138824,9.769709587097168,-0.0021750019717846,-0.005007965718826072,0.0004210154046640601,1.7091069221496582,2019-06-21 12:39:36:585,0.0,0.0,0.0
0.010117817670106888,-0.19259774684906006,9.808025360107422,-0.004572432250124783,-0.00460839376736791,0.002019302235217989,1.7150163650512695,2019-06-21 12:39:36:591,0.0,0.0,0.0
-0.0066454303450882435,-0.12554475665092468,9.85352611541748,0.0003556188378409054,-0.005007965718826072,0.00428354194976356,1.7191224098205566,2019-06-21 12:39:36:595,0.0,0.0,0.0
0.010117817670106888,-0.15188699960708618,9.77449893951416,0.0008883811255286454,-0.006073490229182971,-0.002242795936246767,1.7249832153320312,2019-06-21 12:39:36:601,0.0,0.0,0.0
-0.021013928577303886,-0.1638607531785965,9.829578399658203,-0.00523838532917217,-0.0023441541828595016,0.0028184457480228253,1.7290964126586914,2019-06-21 12:39:36:605,0.0,0.0,0.0
0.01969681680202484,-0.1183605045080185,9.767314910888672,0.0010215716893232575,-0.005007965718826072,0.006814162661861195,1.7350349426269531,2019-06-21 12:39:36:611,0.0,0.0,0.0
-0.025803428143262863,-0.1638607531785965,9.728999137878418,-0.00017714346610147965,-0.00460839376736791,0.00801287799608703,1.7391223907470703,2019-06-21 12:39:36:615,0.0,0.0,0.0
-0.01622442901134491,-0.17583449184894562,9.805630683898926,0.00022242825779164786,-0.005540727974004522,0.00894521168257499,1.7449827194213867,2019-06-21 12:39:36:621,0.0,0.0,0.0
-0.021013928577303886,-0.18062399327754974,9.805630683898926,-0.001775430280400763,-0.001944582361438502,0.0036175891307904987,1.7490997314453125,2019-06-21 12:39:36:625,0.0,0.0,0.0
0.022091565653681755,-0.12554475665092468,9.824789047241211,0.0014211433807070943,-0.0011454389786708283,0.0029516363118174374,1.754990577697754,2019-06-21 12:39:36:631,0.0,0.0,0.0
0.029275815933942795,-0.18780824542045593,9.709840774536133,-0.00044352460994534954,-0.007405395867129095,0.006148210102962458,1.7592477798461914,2019-06-21 12:39:36:635,0.0,0.0,0.0
0.01730206608772278,-0.20696623623371124,9.755340576171875,-0.0013758585890169264,-0.004342012639778686,0.006680972358140907,1.7641148567199707,2019-06-21 12:39:36:640,0.0,0.0,0.0
0.0484338141977787,-0.17343974113464355,9.827183723449707,-0.00031033404615073726,-0.003143297565627175,0.002019302235217989,1.7699856758117676,2019-06-21 12:39:36:646,0.0,0.0,0.0
0.06759180873632431,-0.16865025460720062,9.764920234680176,-0.0019086208441953755,-0.004874774894957135,0.005881828975373233,1.774104118347168,2019-06-21 12:39:36:650,0.0,0.0,0.0
0.036460064351558685,-0.17822924256324768,9.748156547546387,-0.0007099057700438648,-0.00660625248436142,0.007480115740908581,1.780014991760254,2019-06-21 12:39:36:656,0.0,0.0,0.0
0.04124956205487251,-0.09441300481557846,9.743367195129395,0.001287952816912482,-0.00913687293638473,0.009078403026592578,1.784113883972168,2019-06-21 12:39:36:660,0.0,0.0,0.0
0.043644312769174576,-0.2093609869480133,9.800841331481934,-0.00044352460994534954,-0.006872633611950644,0.004416732513558173,1.7899847030639648,2019-06-21 12:39:36:666,0.0,0.0,0.0
0.029275815933942795,-0.18541349470615387,9.793657302856445,0.0015543339445017069,-0.007405395867129095,0.006015019279093521,1.7949910163879395,2019-06-21 12:39:36:671,0.0,0.0,0.0
0.05801280960440636,-0.1375184953212738,9.726603507995605,-0.0019086208441953755,-0.003676059820805624,0.006015019279093521,1.7991037368774414,2019-06-21 12:39:36:675,0.0,0.0,0.0
0.05322331190109253,-0.16625550389289856,9.750551223754883,-0.0037732888673571103,-0.0040756315121894615,0.0018861116714233767,1.804987907409668,2019-06-21 12:39:36:681,0.0,0.0,0.0
0.07238131016492844,-0.17822924256324768,9.822394371032715,0.0008883811255286454,-0.005540727974004522,0.0036175891307904987,1.8091096878051758,2019-06-21 12:39:36:685,0.0,0.0,0.0
0.04603906348347664,-0.12793950736522675,9.788866996765137,0.0015543339445017069,-0.00660625248436142,0.006015019279093521,1.8149776458740234,2019-06-21 12:39:36:691,0.0,0.0,0.0
0.08674980700016022,-0.19499249756336212,9.76252555847168,-0.00017714346610147965,-0.005007965718826072,2.1443682802763245e-05,1.819096565246582,2019-06-21 12:39:36:695,0.0,0.0,0.0
0.08914455771446228,-0.190202996134758,9.793657302856445,-0.0009762868976330894,-0.008870492328944154,0.005215875896325846,1.825119972229004,2019-06-21 12:39:36:701,0.0,0.0,0.0
0.08674980700016022,-0.14709749817848206,9.858315467834473,-0.00044352460994534954,-0.0056739182777248084,0.005215875896325846,1.829111099243164,2019-06-21 12:39:36:705,0.0,0.0,0.0
0.09872355312108994,-0.17343974113464355,9.76252555847168,0.0004888094016355178,-0.006872633611950644,0.008279259123676254,1.8349809646606445,2019-06-21 12:39:36:711,0.0,0.0,0.0
0.09632880985736847,-0.15907125174999237,9.784077644348145,-0.005371575632892458,-0.004741584591236848,0.004150351385968948,1.8391003608703613,2019-06-21 12:39:36:715,0.0,0.0,0.0
0.05801280960440636,-0.1638607531785965,9.755340576171875,0.0020870961996801557,-0.007005823915670932,0.007213734613319356,1.8449888229370117,2019-06-21 12:39:36:721,0.0,0.0,0.0
0.08435505628585815,-0.19738724827766418,9.798446655273438,0.001287952816912482,-0.009270064280402316,0.005615447847784009,1.8491077423095703,2019-06-21 12:39:36:725,0.0,0.0,0.0
0.11069730669260025,-0.16146600246429443,9.812814712524414,-0.001242668025222314,-0.007272205043260157,0.0033512080032012744,1.8549857139587402,2019-06-21 12:39:36:731,0.0,0.0,0.0
0.07956556230783463,-0.17822924256324768,9.750551223754883,-0.0015090491528115383,-0.007804967298438606,0.006281400406682744,1.860102653503418,2019-06-21 12:39:36:736,0.0,0.0,0.0
0.07956556230783463,-0.16146600246429443,9.738577842712402,-0.002308192665616375,-0.008204539249896767,0.007613306044628867,1.8633627891540527,2019-06-21 12:39:36:739,0.0,0.0,0.0
0.12985530495643616,-0.14949224889278412,9.839157104492188,-0.00523838532917217,-0.009936016839301053,0.00454992333742711,1.8690948486328125,2019-06-21 12:39:36:745,0.0,0.0,0.0
0.10830255597829819,-0.14470274746418,9.781682968139648,-0.001642239716606151,-0.00900368263266444,0.006015019279093521,1.8749809265136719,2019-06-21 12:39:36:751,0.0,0.0,0.0
0.10590780526399612,-0.17822924256324768,9.779288291931152,-0.0009762868976330894,-0.0034096786932164,0.010010736192931888,1.8790912628173828,2019-06-21 12:39:36:755,0.0,0.0,0.0
0.08914455771446228,-0.14470274746418,9.755340576171875,0.0022202867634747683,-0.006073490229182971,0.006015019279093521,1.884986400604248,2019-06-21 12:39:36:761,0.0,0.0,0.0
0.09632880985736847,-0.14230799674987793,9.769709587097168,-0.004705623073993721,-0.0010122483498576347,0.009078403026592578,1.8899974822998047,2019-06-21 12:39:36:766,0.0,0.0,0.0
0.08674980700016022,-0.17822924256324768,9.796051979064941,-0.0035069077397678855,-0.0012786295424654405,0.0022856834928443757,1.8950080871582031,2019-06-21 12:39:36:771,0.0,0.0,0.0
0.09632880985736847,-0.12793950736522675,9.736183166503906,0.002619858454858605,-0.005274346846415297,0.0038839702583797235,1.8991026878356934,2019-06-21 12:39:36:775,0.0,0.0,0.0
0.08196030557155609,-0.11357100307941437,9.800841331481934,0.0006219999979394207,-0.005407537150135584,-0.0006445091707114195,1.9049863815307617,2019-06-21 12:39:36:781,0.0,0.0,0.0
0.07717081159353256,-0.14949224889278412,9.805630683898926,-0.0019086208441953755,-0.003942440948394849,0.005748638151504296,1.90910005569458,2019-06-21 12:39:36:785,0.0,0.0,0.0
0.09153930842876434,-0.12554475665092468,9.750551223754883,0.0004888094016355178,-0.004208822075984073,0.007480115740908581,1.9150152206420898,2019-06-21 12:39:36:791,0.0,0.0,0.0
0.0939340591430664,-0.16625550389289856,9.798446655273438,0.0014211433807070943,-0.0032764881294217877,0.0053490667201947836,1.9191064834594727,2019-06-21 12:39:36:795,0.0,0.0,0.0
0.0747760608792305,-0.11596575379371643,9.793657302856445,0.0003556188378409054,-0.004741584591236848,0.0017529211076287644,1.9249820709228516,2019-06-21 12:39:36:801,0.0,0.0,0.0
0.07238131016492844,-0.1638607531785965,9.829578399658203,-0.0021750019717846,-0.0030101070018325625,0.001619730543834152,1.9291000366210938,2019-06-21 12:39:36:805,0.0,0.0,0.0
0.09632880985736847,-0.16146600246429443,9.78647232055664,-0.0024413832294109873,-0.002610535310448726,0.006015019279093521,1.9349913597106934,2019-06-21 12:39:36:811,0.0,0.0,0.0
0.0747760608792305,-0.1303342580795288,9.812814712524414,-0.00017714346610147965,-0.006206680532903257,-0.0005113186069168071,1.9391241073608398,2019-06-21 12:39:36:815,0.0,0.0,0.0
0.029275815933942795,-0.16865025460720062,9.793657302856445,-0.0005767152062492525,-0.0015450106700546653,0.0018861116714233767,1.944112777709961,2019-06-21 12:39:36:820,0.0,0.0,0.0
0.09872355312108994,-0.13512374460697174,9.77449893951416,0.0018207150720909312,-0.007671776994718318,0.0001546342608201902,1.9499874114990234,2019-06-21 12:39:36:826,0.0,0.0,0.0
0.10830255597829819,-0.11357100307941437,9.8319730758667,-0.0033737171759732733,-0.002210963619064889,-0.00024493746307293734,1.9541082382202148,2019-06-21 12:39:36:830,0.0,0.0,0.0
0.08435505628585815,-0.14949224889278412,9.755340576171875,-0.00031033404615073726,-0.00807134842602783,-0.001310461989684481,1.9600114822387695,2019-06-21 12:39:36:836,0.0,0.0,0.0
0.101118303835392,-0.15428175032138824,9.79126262664795,-0.0019086208441953755,-0.00900368263266444,-0.0010440808620952565,1.9641108512878418,2019-06-21 12:39:36:840,0.0,0.0,0.0
0.11069730669260025,-0.15428175032138824,9.767314910888672,-0.0025745737932055994,-0.00460839376736791,-0.000378128043122195,1.969986915588379,2019-06-21 12:39:36:846,0.0,0.0,0.0
0.09872355312108994,-0.1710449904203415,9.764920234680176,-0.0005767152062492525,-0.008337729553617055,0.0002878248408694478,1.974107265472412,2019-06-21 12:39:36:850,0.0,0.0,0.0
0.05801280960440636,-0.13512374460697174,9.772104263305664,-0.0015090491528115383,-0.0038092503846002368,-0.000378128043122195,1.979990005493164,2019-06-21 12:39:36:856,0.0,0.0,0.0
0.08196030557155609,-0.15907125174999237,9.740972518920898,0.0006219999979394207,-0.008870492328944154,-0.0018432243749000928,1.9840989112854004,2019-06-21 12:39:36:860,0.0,0.0,0.0
0.12267105281352997,-0.13991324603557587,9.805630683898926,-0.0015090491528115383,-0.007671776994718318,-0.0017100338111054802,1.990084171295166,2019-06-21 12:39:36:866,0.0,0.0,0.0
0.1394343078136444,-0.16625550389289856,9.808025360107422,-0.004572432250124783,-0.0075385861708493805,-0.0033083207066779904,1.9941034317016602,2019-06-21 12:39:36:870,0.0,0.0,0.0
0.12506580352783203,-0.12793950736522675,9.79126262664795,-0.002974145484589436,-0.0040756315121894615,-0.003974273525651052,1.99910306930542,2019-06-21 12:39:36:875,0.0,0.0,0.0
0.08914455771446228,-0.12793950736522675,9.757735252380371,0.0008883811255286454,-0.003942440948394849,-0.002642367627630604,2.0051069259643555,2019-06-21 12:39:36:881,0.0,0.0,0.0
0.0747760608792305,-0.14230799674987793,9.721814155578613,-0.0020418114079899874,-0.00460839376736791,-0.002109605502489317,2.0091209411621094,2019-06-21 12:39:36:885,0.0,0.0,0.0
0.12506580352783203,-0.15428175032138824,9.834367752075195,-0.0015090491528115383,-0.00514115602254636,-0.004640226344624114,2.014983654022217,2019-06-21 12:39:36:891,0.0,0.0,0.0
0.10830255597829819,-0.13991324603557587,9.731393814086914,0.00022242825779164786,-0.006739442788081707,-0.0017100338111054802,2.0190978050231934,2019-06-21 12:39:36:895,0.0,0.0,0.0
0.10351305454969406,-0.14230799674987793,9.721814155578613,0.0008883811255286454,-0.007139014739539869,-0.005838941678849949,2.024991035461426,2019-06-21 12:39:36:901,0.0,0.0,0.0
0.11309205740690231,-0.16625550389289856,9.78647232055664,-0.0035069077397678855,-0.004741584591236848,-0.004373845217034889,2.0291056632995605,2019-06-21 12:39:36:905,0.0,0.0,0.0
0.05322331190109253,-0.1303342580795288,9.79126262664795,0.0004888094016355178,-0.003676059820805624,-0.008103181003284032,2.034982681274414,2019-06-21 12:39:36:911,0.0,0.0,0.0
0.1274605542421341,-0.1638607531785965,9.796051979064941,-0.001775430280400763,-0.006473061660492482,-0.009168706033789581,2.039997100830078,2019-06-21 12:39:36:916,0.0,0.0,0.0
0.036460064351558685,-0.18062399327754974,9.796051979064941,0.0008883811255286454,-0.005940299405314034,-0.005572560551260725,2.044102668762207,2019-06-21 12:39:36:920,0.0,0.0,0.0
0.11788155138492584,-0.1375184953212738,9.757735252380371,-0.0013758585890169264,-0.0030101070018325625,-0.009834658592688318,2.0499868392944336,2019-06-21 12:39:36:926,0.0,0.0,0.0
0.07238131016492844,-0.15188699960708618,9.755340576171875,0.0008883811255286454,-0.006206680532903257,-0.005705750854981011,2.054128646850586,2019-06-21 12:39:36:930,0.0,0.0,0.0
0.043644312769174576,-0.16625550389289856,9.757735252380371,-0.005371575632892458,-0.003676059820805624,-0.004240654653240277,2.059995651245117,2019-06-21 12:39:36:936,0.0,0.0,0.0
0.08914455771446228,-0.1566765010356903,9.817604064941406,0.0006219999979394207,-0.0014118201062600529,-0.008902324386051706,2.064098834991455,2019-06-21 12:39:36:940,0.0,0.0,0.0
0.09632880985736847,-0.18541349470615387,9.76252555847168,-0.000843096333838477,-0.0014118201062600529,-0.01076699279932493,2.06998872756958,2019-06-21 12:39:36:946,0.0,0.0,0.0
0.09632880985736847,-0.12075525522232056,9.80323600769043,-0.00031033404615073726,-0.002610535310448726,-0.003041939579088766,2.0741052627563477,2019-06-21 12:39:36:950,0.0,0.0,0.0
0.08196030557155609,-0.13272900879383087,9.74576187133789,-0.0036400983035624977,-0.006073490229182971,-0.005572560551260725,2.0799922943115234,2019-06-21 12:39:36:956,0.0,0.0,0.0
0.09872355312108994,-0.20457148551940918,9.779288291931152,0.00022242825779164786,-0.00460839376736791,-0.008502752954742196,2.084115982055664,2019-06-21 12:39:36:960,0.0,0.0,0.0
0.09153930842876434,-0.14470274746418,9.808025360107422,-0.005371575632892458,-0.005540727974004522,-0.010633802495604642,2.0899972915649414,2019-06-21 12:39:36:966,0.0,0.0,0.0
0.0484338141977787,-0.1830187439918518,9.77449893951416,-0.000843096333838477,-0.0038092503846002368,-0.00930189633750987,2.0940980911254883,2019-06-21 12:39:36:970,0.0,0.0,0.0
0.06998655945062637,-0.12793950736522675,9.810420036315918,-0.0011094774614277016,-0.007671776994718318,-0.007836799875694809,2.0991287231445312,2019-06-21 12:39:36:975,0.0,0.0,0.0
0.06998655945062637,-0.1375184953212738,9.748156547546387,0.0014211433807070943,-0.003143297565627175,-0.011832517309681828,2.104983329772949,2019-06-21 12:39:36:981,0.0,0.0,0.0
0.05801280960440636,-0.16625550389289856,9.73378849029541,-0.001242668025222314,-0.003942440948394849,-0.008103181003284032,2.1091203689575195,2019-06-21 12:39:36:985,0.0,0.0,0.0
0.06519705802202225,-0.14230799674987793,9.743367195129395,-0.000843096333838477,-0.005540727974004522,-0.00930189633750987,2.1149911880493164,2019-06-21 12:39:36:991,0.0,0.0,0.0
0.06998655945062637,-0.16146600246429443,9.74576187133789,0.000755190561734033,-0.0014118201062600529,-0.010500611151587054,2.1191043853759766,2019-06-21 12:39:36:995,0.0,0.0,0.0
0.07956556230783463,-0.14230799674987793,9.764920234680176,0.0004888094016355178,-0.004208822075984073,-0.012098897917122403,2.1249828338623047,2019-06-21 12:39:37:001,0.0,0.0,0.0
0.05561806261539459,-0.17343974113464355,9.72420883178711,-0.0007099057700438648,5.327622958150625e-05,-0.01223208926113999,2.129098415374756,2019-06-21 12:39:37:005,0.0,0.0,0.0
0.036460064351558685,-0.1566765010356903,9.776893615722656,-0.0021750019717846,-0.0016782012338492774,-0.007170847316796072,2.1350154876708984,2019-06-21 12:39:37:011,0.0,0.0,0.0
0.05561806261539459,-0.16625550389289856,9.726603507995605,0.000755190561734033,-0.007938158122307543,-0.013830376026675337,2.1391048431396484,2019-06-21 12:39:37:015,0.0,0.0,0.0
0.06519705802202225,-0.12793950736522675,9.800841331481934,-0.0019086208441953755,-0.005407537150135584,-0.014895900537032235,2.145120620727539,2019-06-21 12:39:37:021,0.0,0.0,0.0
0.029275815933942795,-0.17822924256324768,9.769709587097168,0.0011547622531178697,-0.005274346846415297,-0.011033373406765504,2.149998664855957,2019-06-21 12:39:37:026,0.0,0.0,0.0
0.07956556230783463,-0.1710449904203415,9.79126262664795,-0.00044352460994534954,-0.005007965718826072,-0.01462951888929436,2.1540985107421875,2019-06-21 12:39:37:030,0.0,0.0,0.0
0.050828561186790466,-0.1638607531785965,9.829578399658203,-0.0021750019717846,0.0005860385457148754,-0.014762710233311948,2.1599855422973633,2019-06-21 12:39:37:036,0.0,0.0,0.0
0.03885481506586075,-0.17583449184894562,9.772104263305664,0.0003556188378409054,-0.0040756315121894615,-0.014895900537032235,2.1641054153442383,2019-06-21 12:39:37:040,0.0,0.0,0.0
0.0484338141977787,-0.17343974113464355,9.772104263305664,-0.005637956760481682,-0.007804967298438606,-0.012498469868580563,2.1699929237365723,2019-06-21 12:39:37:046,0.0,0.0,0.0
0.050828561186790466,-0.19499249756336212,9.760130882263184,-0.0019086208441953755,-0.0018113917976438896,-0.011965707613402115,2.1743602752685547,2019-06-21 12:39:37:050,0.0,0.0,0.0
0.05561806261539459,-0.1830187439918518,9.824789047241211,0.0036853832252898284,-0.00514115602254636,-0.013963566330395622,2.1791224479675293,2019-06-21 12:39:37:055,0.0,0.0,0.0
0.050828561186790466,-0.14230799674987793,9.808025360107422,-0.0020418114079899874,-0.00514115602254636,-0.013297613771496887,2.1849803924560547,2019-06-21 12:39:37:061,0.0,0.0,0.0
0.05561806261539459,-0.16865025460720062,9.738577842712402,-0.0009762868976330894,-0.0015450106700546653,-0.010367420847866767,2.1890974044799805,2019-06-21 12:39:37:065,0.0,0.0,0.0
0.03885481506586075,-0.1638607531785965,9.812814712524414,0.004084954916673665,-0.0075385861708493805,-0.011432945358223666,2.195002555847168,2019-06-21 12:39:37:071,0.0,0.0,0.0
0.03167056292295456,-0.1830187439918518,9.800841331481934,-0.0007099057700438648,-0.0038092503846002368,-0.013430804075217176,2.1991119384765625,2019-06-21 12:39:37:075,0.0,0.0,0.0
0.0484338141977787,-0.14230799674987793,9.757735252380371,0.001687524508296319,-0.0018113917976438896,-0.011566135661943953,2.20497989654541,2019-06-21 12:39:37:081,0.0,0.0,0.0
0.05801280960440636,-0.14949224889278412,9.788866996765137,-0.002974145484589436,-0.0075385861708493805,-0.00876913408233142,2.2091197967529297,2019-06-21 12:39:37:085,0.0,0.0,0.0
0.05801280960440636,-0.12793950736522675,9.752945899963379,-0.0013758585890169264,-0.002077772925233114,-0.01263166017230085,2.214992046356201,2019-06-21 12:39:37:091,0.0,0.0,0.0
0.06280230730772018,-0.1566765010356903,9.750551223754883,-0.0024413832294109873,-0.0014118201062600529,-0.01116656475078309,2.219205379486084,2019-06-21 12:39:37:095,0.0,0.0,0.0
0.04603906348347664,-0.14949224889278412,9.78647232055664,-0.0011094774614277016,-0.005940299405314034,-0.013963566330395622,2.224987506866455,2019-06-21 12:39:37:101,0.0,0.0,0.0
0.036460064351558685,-0.14230799674987793,9.79126262664795,0.0020870961996801557,-0.005540727974004522,-0.011299755054503377,2.2290992736816406,2019-06-21 12:39:37:105,0.0,0.0,0.0
0.06519705802202225,-0.15188699960708618,9.78647232055664,-0.0036400983035624977,-0.005274346846415297,-0.01116656475078309,2.234990119934082,2019-06-21 12:39:37:111,0.0,0.0,0.0
0.0939340591430664,-0.14230799674987793,9.855920791625977,0.0014211433807070943,-0.005407537150135584,-0.006371703934028398,2.239124298095703,2019-06-21 12:39:37:115,0.0,0.0,0.0
0.024486316367983818,-0.16865025460720062,9.769709587097168,-0.0027077643570002116,-0.008337729553617055,-0.009168706033789581,2.244126796722412,2019-06-21 12:39:37:120,0.0,0.0,0.0
0.050828561186790466,-0.1830187439918518,9.779288291931152,-4.395289011588339e-05,-0.0012786295424654405,-0.010101040240426193,2.2499895095825195,2019-06-21 12:39:37:126,0.0,0.0,0.0
0.05561806261539459,-0.13272900879383087,9.772104263305664,-0.000843096333838477,-0.005007965718826072,-0.005705750854981011,2.2541065216064453,2019-06-21 12:39:37:130,0.0,0.0,0.0
0.05561806261539459,-0.190202996134758,9.76252555847168,-0.002840954920794824,-0.004208822075984073,-0.002242795936246767,2.259990692138672,2019-06-21 12:39:37:136,0.0,0.0,0.0
0.03167056292295456,-0.15907125174999237,9.798446655273438,-0.0037732888673571103,-0.0063398713567721955,-0.006238513110159461,2.2641143798828125,2019-06-21 12:39:37:140,0.0,0.0,0.0
0.029275815933942795,-0.14709749817848206,9.738577842712402,-0.00017714346610147965,-0.0063398713567721955,-0.0066380850616176235,2.2691164016723633,2019-06-21 12:39:37:145,0.0,0.0,0.0
0.06040756031870842,-0.14230799674987793,9.726603507995605,-0.00017714346610147965,-0.004208822075984073,-0.003707892398061828,2.274982452392578,2019-06-21 12:39:37:151,0.0,0.0,0.0
0.04603906348347664,-0.18541349470615387,9.728999137878418,0.00022242825779164786,-0.0056739182777248084,-0.005838941678849949,2.279099464416504,2019-06-21 12:39:37:155,0.0,0.0,0.0
0.05322331190109253,-0.13512374460697174,9.752945899963379,8.92376858697129e-05,0.0007192291095094877,-0.005838941678849949,2.2850089073181152,2019-06-21 12:39:37:161,0.0,0.0,0.0
0.024486316367983818,-0.14230799674987793,9.76252555847168,-0.0015090491528115383,-0.006872633611950644,0.0005542059684586724,2.289116859436035,2019-06-21 12:39:37:165,0.0,0.0,0.0
0.06759180873632431,-0.1710449904203415,9.748156547546387,0.0014211433807070943,-0.002477344746654114,-0.004107464089445664,2.2949814796447754,2019-06-21 12:39:37:171,0.0,0.0,0.0
0.0484338141977787,-0.1638607531785965,9.798446655273438,0.0019539056358855436,-0.005940299405314034,-0.004640226344624114,2.299100399017334,2019-06-21 12:39:37:175,0.0,0.0,0.0
0.029275815933942795,-0.14230799674987793,9.74576187133789,0.0020870961996801557,-0.007139014739539869,-0.0015768431172737056,2.304989814758301,2019-06-21 12:39:37:181,0.0,0.0,0.0
0.06759180873632431,-0.19978199899196625,9.755340576171875,-0.0019086208441953755,-0.003942440948394849,0.0006873965322532847,2.3100128173828125,2019-06-21 12:39:37:186,0.0,0.0,0.0
0.05322331190109253,-0.1375184953212738,9.793657302856445,-0.002840954920794824,-0.0012786295424654405,-0.003574701834267215,2.315007209777832,2019-06-21 12:39:37:191,0.0,0.0,0.0
0.04124956205487251,-0.13991324603557587,9.808025360107422,0.0008883811255286454,-0.0034096786932164,-0.000378128043122195,2.3199968338012695,2019-06-21 12:39:37:196,0.0,0.0,0.0
0.0005388186546042562,-0.14709749817848206,9.812814712524414,-0.0020418114079899874,-0.0028769164380379507,0.0010869682236371214,2.324100971221924,2019-06-21 12:39:37:200,0.0,0.0,0.0
0.022091565653681755,-0.17822924256324768,9.743367195129395,0.000755190561734033,-0.008204539249896767,0.002019302235217989,2.3299856185913086,2019-06-21 12:39:37:206,0.0,0.0,0.0
0.012512567453086376,-0.18062399327754974,9.84394645690918,-0.0020418114079899874,-0.0063398713567721955,-0.0007776997345060318,2.3341264724731445,2019-06-21 12:39:37:210,0.0,0.0,0.0
0.04603906348347664,-0.1830187439918518,9.793657302856445,-0.00031033404615073726,-0.0028769164380379507,0.0002878248408694478,2.339114189147949,2019-06-21 12:39:37:215,0.0,0.0,0.0
0.04124956205487251,-0.2285189926624298,9.784077644348145,-0.00044352460994534954,-0.006739442788081707,0.0036175891307904987,2.344982147216797,2019-06-21 12:39:37:221,0.0,0.0,0.0
0.036460064351558685,-0.16625550389289856,9.796051979064941,-0.0021750019717846,-0.0056739182777248084,0.0010869682236371214,2.349095344543457,2019-06-21 12:39:37:225,0.0,0.0,0.0
0.03167056292295456,-0.1566765010356903,9.77449893951416,-0.00031033404615073726,-0.00514115602254636,0.0037507796945851113,2.3549890518188477,2019-06-21 12:39:37:231,0.0,0.0,0.0
0.01969681680202484,-0.15428175032138824,9.76252555847168,-0.001242668025222314,0.0003196573856163601,0.0022856834928443757,2.359217643737793,2019-06-21 12:39:37:235,0.0,0.0,0.0
-0.028198176994919777,-0.18541349470615387,9.760130882263184,0.001287952816912482,-0.003942440948394849,0.004150351385968948,2.364988327026367,2019-06-21 12:39:37:241,0.0,0.0,0.0
-0.025803428143262863,-0.2093609869480133,9.776893615722656,-0.004039669994946335,-0.005407537150135584,0.0004210154046640601,2.36909818649292,2019-06-21 12:39:37:245,0.0,0.0,0.0
-0.018619179725646973,-0.19978199899196625,9.79126262664795,0.001287952816912482,-0.007272205043260157,0.002152492799012601,2.374993324279785,2019-06-21 12:39:37:251,0.0,0.0,0.0
0.022091565653681755,-0.1638607531785965,9.80323600769043,0.001687524508296319,-0.0027437258742433386,0.004416732513558173,2.3792738914489746,2019-06-21 12:39:37:255,0.0,0.0,0.0
0.014907317236065865,-0.18541349470615387,9.755340576171875,-0.000843096333838477,-0.0008790577860630224,-0.0011772714258898686,2.3849921226501465,2019-06-21 12:39:37:261,0.0,0.0,0.0
-0.028198176994919777,-0.18780824542045593,9.750551223754883,0.0028862395824478296,-0.005807109101593746,-0.0023759865000413795,2.3891000747680664,2019-06-21 12:39:37:265,0.0,0.0,0.0
0.03406531363725662,-0.15188699960708618,9.788866996765137,-0.0020418114079899874,-0.0023441541828595016,-0.0029087490152941535,2.3949904441833496,2019-06-21 12:39:37:271,0.0,0.0,0.0
-0.011434929445385933,-0.18541349470615387,9.834367752075195,0.0010215716893232575,-0.004208822075984073,2.1443682802763245e-05,2.3999900817871094,2019-06-21 12:39:37:276,0.0,0.0,0.0
-0.01622442901134491,-0.18062399327754974,9.805630683898926,-0.00044352460994534954,-0.0014118201062600529,0.00454992333742711,2.4041004180908203,2019-06-21 12:39:37:280,0.0,0.0,0.0
0.03406531363725662,-0.18062399327754974,9.717024803161621,-0.0021750019717846,-0.006206680532903257,-0.000378128043122195,2.41001033782959,2019-06-21 12:39:37:286,0.0,0.0,0.0
-0.011434929445385933,-0.18541349470615387,9.772104263305664,-0.001642239716606151,-0.0040756315121894615,0.0014865399800395396,2.4150142669677734,2019-06-21 12:39:37:291,0.0,0.0,0.0
-0.04256667569279671,-0.19259774684906006,9.712235450744629,0.0038185737890844406,-0.004342012639778686,0.008146068299807315,2.4191055297851562,2019-06-21 12:39:37:295,0.0,0.0,0.0
0.014907317236065865,-0.17822924256324768,9.779288291931152,-0.004172860558740947,-0.0063398713567721955,-0.0015768431172737056,2.4249935150146484,2019-06-21 12:39:37:301,0.0,0.0,0.0
0.014907317236065865,-0.16146600246429443,9.819998741149902,0.003285811533905992,-0.008604110681206279,0.004416732513558173,2.4291114807128906,2019-06-21 12:39:37:305,0.0,0.0,0.0
0.0029335683211684227,-0.1638607531785965,9.84394645690918,0.0011547622531178697,-0.004475203463647623,0.0008205870960478969,2.4349822998046875,2019-06-21 12:39:37:311,0.0,0.0,0.0
0.010117817670106888,-0.19978199899196625,9.721814155578613,0.0024866678910639927,-0.008337729553617055,0.0032180174394066618,2.4390974044799805,2019-06-21 12:39:37:315,0.0,0.0,0.0
0.012512567453086376,-0.16146600246429443,9.784077644348145,-0.000843096333838477,-0.00807134842602783,0.002685255184228213,2.4449892044067383,2019-06-21 12:39:37:321,0.0,0.0,0.0
-0.025803428143262863,-0.16865025460720062,9.836762428283691,0.0024866678910639927,-0.006872633611950644,0.004017160822174336,2.4491043090820312,2019-06-21 12:39:37:325,0.0,0.0,0.0
-0.0018559310119599104,-0.16625550389289856,9.822394371032715,-0.0031073360483840485,-0.006872633611950644,0.0017529211076287644,2.4550209045410156,2019-06-21 12:39:37:331,0.0,0.0,0.0
-0.004250680562108755,-0.16865025460720062,9.822394371032715,-0.000843096333838477,-0.002077772925233114,0.002019302235217989,2.45912504196167,2019-06-21 12:39:37:335,0.0,0.0,0.0
-0.021013928577303886,-0.1566765010356903,9.80323600769043,0.0010215716893232575,-0.005540727974004522,0.0009537776598425092,2.4649815559387207,2019-06-21 12:39:37:341,0.0,0.0,0.0
-0.040171924978494644,-0.1710449904203415,9.760130882263184,-0.0035069077397678855,-0.005807109101593746,-0.003707892398061828,2.4690961837768555,2019-06-21 12:39:37:345,0.0,0.0,0.0
-0.004250680562108755,-0.16865025460720062,9.796051979064941,-0.002974145484589436,-0.005807109101593746,-0.0005113186069168071,2.475006103515625,2019-06-21 12:39:37:351,0.0,0.0,0.0
0.026881065219640732,-0.15907125174999237,9.776893615722656,-0.001242668025222314,-0.00514115602254636,0.00454992333742711,2.47910737991333,2019-06-21 12:39:37:355,0.0,0.0,0.0
-0.009040179662406445,-0.17343974113464355,9.824789047241211,-0.006570290967118294,-0.005540727974004522,-0.003175130142883378,2.4849815368652344,2019-06-21 12:39:37:361,0.0,0.0,0.0
-0.0018559310119599104,-0.1303342580795288,9.793657302856445,-0.0025745737932055994,-0.003676059820805624,0.0004210154046640601,2.4890995025634766,2019-06-21 12:39:37:365,0.0,0.0,0.0
0.024486316367983818,-0.14949224889278412,9.77449893951416,-0.0013758585890169264,-0.0034096786932164,-0.002109605502489317,2.494992256164551,2019-06-21 12:39:37:371,0.0,0.0,0.0
-0.013829679228365421,-0.2021767497062683,9.796051979064941,0.0015543339445017069,-0.006073490229182971,-0.0010440808620952565,2.499117851257324,2019-06-21 12:39:37:375,0.0,0.0,0.0
0.014907317236065865,-0.16146600246429443,9.743367195129395,-0.002974145484589436,-0.004208822075984073,-0.003707892398061828,2.5049867630004883,2019-06-21 12:39:37:381,0.0,0.0,0.0
0.0029335683211684227,-0.1638607531785965,9.77449893951416,0.0028862395824478296,-0.003676059820805624,-0.0018432243749000928,2.5091209411621094,2019-06-21 12:39:37:385,0.0,0.0,0.0
0.04603906348347664,-0.15907125174999237,9.779288291931152,-0.00044352460994534954,-0.007005823915670932,0.0001546342608201902,2.5151381492614746,2019-06-21 12:39:37:391,0.0,0.0,0.0
0.03885481506586075,-0.17343974113464355,9.750551223754883,-0.004572432250124783,-0.008737302025223867,-0.001310461989684481,2.519124984741211,2019-06-21 12:39:37:395,0.0,0.0,0.0
0.026881065219640732,-0.17343974113464355,9.77449893951416,-0.0031073360483840485,-0.0038092503846002368,0.005881828975373233,2.524979591369629,2019-06-21 12:39:37:401,0.0,0.0,0.0
0.06519705802202225,-0.17583449184894562,9.760130882263184,-0.005105194505303233,-0.005407537150135584,-0.0017100338111054802,2.5290956497192383,2019-06-21 12:39:37:405,0.0,0.0,0.0
0.029275815933942795,-0.1638607531785965,9.74576187133789,-0.000843096333838477,-0.0075385861708493805,0.0014865399800395396,2.5349912643432617,2019-06-21 12:39:37:411,0.0,0.0,0.0
0.0484338141977787,-0.13512374460697174,9.772104263305664,0.0010215716893232575,-0.0040756315121894615,-0.00024493746307293734,2.5399932861328125,2019-06-21 12:39:37:416,0.0,0.0,0.0
0.0484338141977787,-0.15907125174999237,9.757735252380371,-0.0036400983035624977,-0.004208822075984073,0.0013533494162449274,2.544106960296631,2019-06-21 12:39:37:420,0.0,0.0,0.0
0.022091565653681755,-0.18062399327754974,9.824789047241211,0.0018207150720909312,-0.007405395867129095,0.0018861116714233767,2.5499954223632812,2019-06-21 12:39:37:426,0.0,0.0,0.0
0.024486316367983818,-0.16865025460720062,9.817604064941406,0.000755190561734033,-0.005807109101593746,-0.0025091770638359916,2.5541000366210938,2019-06-21 12:39:37:430,0.0,0.0,0.0
0.04124956205487251,-0.12793950736522675,9.77449893951416,0.0015543339445017069,-0.0063398713567721955,0.002152492799012601,2.5599942207336426,2019-06-21 12:39:37:436,0.0,0.0,0.0
0.0747760608792305,-0.15907125174999237,9.841551780700684,-0.0020418114079899874,-0.007139014739539869,2.1443682802763245e-05,2.564103126525879,2019-06-21 12:39:37:440,0.0,0.0,0.0
0.06998655945062637,-0.18062399327754974,9.841551780700684,-0.000843096333838477,-0.0027437258742433386,-0.0023759865000413795,2.569988250732422,2019-06-21 12:39:37:446,0.0,0.0,0.0
0.06998655945062637,-0.15188699960708618,9.781682968139648,0.000755190561734033,-0.005007965718826072,-0.003175130142883378,2.574108123779297,2019-06-21 12:39:37:450,0.0,0.0,0.0
0.0747760608792305,-0.13991324603557587,9.793657302856445,0.0003556188378409054,-0.007272205043260157,-0.002109605502489317,2.5799922943115234,2019-06-21 12:39:37:456,0.0,0.0,0.0
0.09153930842876434,-0.15428175032138824,9.798446655273438,0.0006219999979394207,-0.00660625248436142,0.0037507796945851113,2.5840983390808105,2019-06-21 12:39:37:460,0.0,0.0,0.0
0.03885481506586075,-0.18062399327754974,9.717024803161621,-0.001775430280400763,-0.0063398713567721955,-0.002109605502489317,2.590029716491699,2019-06-21 12:39:37:466,0.0,0.0,0.0
0.11309205740690231,-0.1638607531785965,9.800841331481934,-0.002974145484589436,-0.005540727974004522,0.00308482687561205,2.5941267013549805,2019-06-21 12:39:37:470,0.0,0.0,0.0
0.0939340591430664,-0.15907125174999237,9.764920234680176,-0.00017714346610147965,-0.0016782012338492774,-0.00024493746307293734,2.5999951362609863,2019-06-21 12:39:37:476,0.0,0.0,0.0
0.043644312769174576,-0.1375184953212738,9.793657302856445,0.0011547622531178697,-0.007139014739539869,0.0004210154046640601,2.6041088104248047,2019-06-21 12:39:37:480,0.0,0.0,0.0
0.07238131016492844,-0.17822924256324768,9.750551223754883,-0.00031033404615073726,-0.0030101070018325625,-0.0017100338111054802,2.610016345977783,2019-06-21 12:39:37:486,0.0,0.0,0.0
0.09153930842876434,-0.18062399327754974,9.798446655273438,-0.0021750019717846,-0.005540727974004522,-0.003707892398061828,2.614100456237793,2019-06-21 12:39:37:490,0.0,0.0,0.0
0.0939340591430664,-0.1566765010356903,9.752945899963379,0.0006219999979394207,-0.0011454389786708283,0.0028184457480228253,2.6199893951416016,2019-06-21 12:39:37:496,0.0,0.0,0.0
0.0939340591430664,-0.11357100307941437,9.740972518920898,-0.005105194505303233,-0.0034096786932164,0.0001546342608201902,2.624107837677002,2019-06-21 12:39:37:500,0.0,0.0,0.0
0.08914455771446228,-0.16625550389289856,9.750551223754883,0.0004888094016355178,-0.009669635191563178,0.0012201588524503152,2.6299896240234375,2019-06-21 12:39:37:506,0.0,0.0,0.0
0.11309205740690231,-0.15188699960708618,9.769709587097168,-0.0013758585890169264,-0.0075385861708493805,-0.002109605502489317,2.63411808013916,2019-06-21 12:39:37:510,0.0,0.0,0.0
0.08674980700016022,-0.15428175032138824,9.85352611541748,-0.002974145484589436,-0.005407537150135584,0.0025520646204336005,2.639118194580078,2019-06-21 12:39:37:515,0.0,0.0,0.0
0.05322331190109253,-0.14230799674987793,9.767314910888672,-0.001642239716606151,-0.000213104918326025,0.0017529211076287644,2.64498233795166,2019-06-21 12:39:37:521,0.0,0.0,0.0
0.05801280960440636,-0.12554475665092468,9.812814712524414,0.0003556188378409054,-0.005407537150135584,0.005881828975373233,2.650017738342285,2019-06-21 12:39:37:526,0.0,0.0,0.0
0.09632880985736847,-0.16146600246429443,9.808025360107422,0.001287952816912482,-0.004874774894957135,0.00308482687561205,2.6540989875793457,2019-06-21 12:39:37:530,0.0,0.0,0.0
0.10351305454969406,-0.1830187439918518,9.784077644348145,-0.0024413832294109873,-0.004475203463647623,0.007080543789450418,2.6590986251831055,2019-06-21 12:39:37:535,0.0,0.0,0.0
0.0939340591430664,-0.16146600246429443,9.726603507995605,0.001287952816912482,-0.00660625248436142,0.0018861116714233767,2.6649885177612305,2019-06-21 12:39:37:541,0.0,0.0,0.0
0.05801280960440636,-0.1710449904203415,9.810420036315918,-0.004039669994946335,-0.0023441541828595016,0.0037507796945851113,2.66910457611084,2019-06-21 12:39:37:545,0.0,0.0,0.0
0.06040756031870842,-0.15428175032138824,9.697867393493652,0.001287952816912482,-0.002210963619064889,0.005615447847784009,2.674981117248535,2019-06-21 12:39:37:551,0.0,0.0,0.0
0.0484338141977787,-0.15188699960708618,9.743367195129395,0.004084954916673665,-0.003542869257011012,0.0024188740566389883,2.6800107955932617,2019-06-21 12:39:37:556,0.0,0.0,0.0
0.05561806261539459,-0.13272900879383087,9.805630683898926,0.0036853832252898284,0.001251991429706518,0.004150351385968948,2.6841158866882324,2019-06-21 12:39:37:560,0.0,0.0,0.0
0.10830255597829819,-0.13512374460697174,9.78647232055664,-0.002308192665616375,-0.005007965718826072,0.00308482687561205,2.6900205612182617,2019-06-21 12:39:37:566,0.0,0.0,0.0
0.08674980700016022,-0.14949224889278412,9.76252555847168,-0.0021750019717846,-0.005540727974004522,0.007213734613319356,2.694122314453125,2019-06-21 12:39:37:570,0.0,0.0,0.0
0.12506580352783203,-0.17583449184894562,9.764920234680176,-0.0013758585890169264,-0.007139014739539869,0.0005542059684586724,2.6999926567077637,2019-06-21 12:39:37:576,0.0,0.0,0.0
0.09153930842876434,-0.12315000593662262,9.767314910888672,-0.000843096333838477,-0.0075385861708493805,0.0065477815342719695,2.7041015625,2019-06-21 12:39:37:580,0.0,0.0,0.0
0.10351305454969406,-0.1638607531785965,9.810420036315918,-0.0007099057700438648,-0.007139014739539869,0.0029516363118174374,2.7100119590759277,2019-06-21 12:39:37:586,0.0,0.0,0.0
0.09153930842876434,-0.1638607531785965,9.740972518920898,0.0015543339445017069,0.0007192291095094877,0.0053490667201947836,2.714106559753418,2019-06-21 12:39:37:590,0.0,0.0,0.0
0.05801280960440636,-0.17822924256324768,9.788866996765137,-0.0024413832294109873,-0.0028769164380379507,0.005748638151504296,2.7199907302856445,2019-06-21 12:39:37:596,0.0,0.0,0.0
0.07956556230783463,-0.13991324603557587,9.748156547546387,0.00022242825779164786,-0.008337729553617055,0.005881828975373233,2.7241053581237793,2019-06-21 12:39:37:600,0.0,0.0,0.0
0.05322331190109253,-0.14230799674987793,9.865499496459961,-0.0011094774614277016,-0.006473061660492482,0.009611165281771028,2.7299938201904297,2019-06-21 12:39:37:606,0.0,0.0,0.0
0.11548680067062378,-0.13272900879383087,9.769709587097168,-0.0013758585890169264,-0.002610535310448726,0.007480115740908581,2.7341203689575195,2019-06-21 12:39:37:610,0.0,0.0,0.0
0.0939340591430664,-0.15428175032138824,9.8319730758667,0.0010215716893232575,-0.00660625248436142,0.0010869682236371214,2.7400026321411133,2019-06-21 12:39:37:616,0.0,0.0,0.0
0.08435505628585815,-0.14709749817848206,9.73378849029541,0.005150479166956239,-0.002077772925233114,0.0038839702583797235,2.744098663330078,2019-06-21 12:39:37:620,0.0,0.0,0.0
0.043644312769174576,-0.12554475665092468,9.760130882263184,-0.0031073360483840485,-0.0056739182777248084,0.010010736192931888,2.749985694885254,2019-06-21 12:39:37:626,0.0,0.0,0.0
0.06040756031870842,-0.1830187439918518,9.779288291931152,0.000755190561734033,-0.007139014739539869,0.008146068299807315,2.754108428955078,2019-06-21 12:39:37:630,0.0,0.0,0.0
0.04124956205487251,-0.14230799674987793,9.78647232055664,0.0006219999979394207,-0.00460839376736791,0.00801287799608703,2.7599897384643555,2019-06-21 12:39:37:636,0.0,0.0,0.0
0.03885481506586075,-0.16146600246429443,9.798446655273438,-0.0019086208441953755,-0.004741584591236848,0.005748638151504296,2.7641005516052246,2019-06-21 12:39:37:640,0.0,0.0,0.0
-0.009040179662406445,-0.14709749817848206,9.796051979064941,0.0027530490186532175,-0.004208822075984073,0.0033512080032012744,2.770021438598633,2019-06-21 12:39:37:646,0.0,0.0,0.0
0.01969681680202484,-0.18541349470615387,9.836762428283691,0.00022242825779164786,-0.005007965718826072,0.005881828975373233,2.7741031646728516,2019-06-21 12:39:37:650,0.0,0.0,0.0
0.0029335683211684227,-0.18541349470615387,9.764920234680176,-0.00031033404615073726,-0.003676059820805624,0.005215875896325846,2.779996395111084,2019-06-21 12:39:37:656,0.0,0.0,0.0
-0.03059292770922184,-0.19978199899196625,9.779288291931152,-0.0015090491528115383,-0.002210963619064889,0.0065477815342719695,2.7841033935546875,2019-06-21 12:39:37:660,0.0,0.0,0.0
-0.01622442901134491,-0.190202996134758,9.827183723449707,-0.00031033404615073726,-0.0008790577860630224,0.0034843985669958865,2.789989471435547,2019-06-21 12:39:37:666,0.0,0.0,0.0
-0.011434929445385933,-0.20457148551940918,9.788866996765137,0.0019539056358855436,-0.003143297565627175,0.0032180174394066618,2.7941083908081055,2019-06-21 12:39:37:670,0.0,0.0,0.0
-0.04496142640709877,-0.17822924256324768,9.822394371032715,-0.0019086208441953755,0.0005860385457148754,0.0014865399800395396,2.799992561340332,2019-06-21 12:39:37:676,0.0,0.0,0.0
-0.004250680562108755,-0.16625550389289856,9.80323600769043,0.0019539056358855436,-0.0032764881294217877,0.00308482687561205,2.8040966987609863,2019-06-21 12:39:37:680,0.0,0.0,0.0
-0.011434929445385933,-0.15428175032138824,9.755340576171875,-0.00031033404615073726,-0.0023441541828595016,0.0022856834928443757,2.8100147247314453,2019-06-21 12:39:37:686,0.0,0.0,0.0
0.022091565653681755,-0.190202996134758,9.824789047241211,0.0011547622531178697,-0.004475203463647623,-0.0015768431172737056,2.8141326904296875,2019-06-21 12:39:37:690,0.0,0.0,0.0
-0.03538242727518082,-0.16146600246429443,9.78647232055664,-0.0005767152062492525,-0.007272205043260157,0.006148210102962458,2.8191184997558594,2019-06-21 12:39:37:695,0.0,0.0,0.0
-0.032987676560878754,-0.2021767497062683,9.784077644348145,0.004484526608057502,-0.002610535310448726,-0.0007776997345060318,2.8250021934509277,2019-06-21 12:39:37:701,0.0,0.0,0.0
0.0077230678871273994,-0.190202996134758,9.810420036315918,-0.002308192665616375,-0.007005823915670932,-0.0007776997345060318,2.829106330871582,2019-06-21 12:39:37:705,0.0,0.0,0.0
-0.028198176994919777,-0.2021767497062683,9.784077644348145,-0.001242668025222314,-0.002610535310448726,0.0001546342608201902,2.8349833488464355,2019-06-21 12:39:37:711,0.0,0.0,0.0
-0.0234086774289608,-0.17822924256324768,9.755340576171875,0.0018207150720909312,-0.003942440948394849,-0.0025091770638359916,2.839099407196045,2019-06-21 12:39:37:715,0.0,0.0,0.0
-0.04496142640709877,-0.19499249756336212,9.839157104492188,-0.0035069077397678855,-0.007139014739539869,-0.005838941678849949,2.844989776611328,2019-06-21 12:39:37:721,0.0,0.0,0.0
-0.011434929445385933,-0.17583449184894562,9.77449893951416,-0.00031033404615073726,-0.0038092503846002368,-0.002642367627630604,2.849104881286621,2019-06-21 12:39:37:725,0.0,0.0,0.0
-0.025803428143262863,-0.18062399327754974,9.824789047241211,-0.002974145484589436,-0.0006126766584737978,-0.007437228444385297,2.8549842834472656,2019-06-21 12:39:37:731,0.0,0.0,0.0
-0.01622442901134491,-0.18062399327754974,9.743367195129395,-0.0009762868976330894,-0.005274346846415297,-0.0051729885998025625,2.8601579666137695,2019-06-21 12:39:37:736,0.0,0.0,0.0
-0.018619179725646973,-0.19499249756336212,9.767314910888672,0.0011547622531178697,5.327622958150625e-05,-0.004107464089445664,2.8641042709350586,2019-06-21 12:39:37:740,0.0,0.0,0.0
-0.0066454303450882435,-0.17822924256324768,9.726603507995605,-0.0007099057700438648,-0.007671776994718318,-0.006904466189206847,2.8700175285339355,2019-06-21 12:39:37:746,0.0,0.0,0.0
0.01730206608772278,-0.19259774684906006,9.750551223754883,0.0003556188378409054,-0.003542869257011012,-0.006238513110159461,2.8740968704223633,2019-06-21 12:39:37:750,0.0,0.0,0.0
0.05322331190109253,-0.16625550389289856,9.805630683898926,-0.0033737171759732733,-0.004874774894957135,-0.008635943258462482,2.8799848556518555,2019-06-21 12:39:37:756,0.0,0.0,0.0
0.010117817670106888,-0.14470274746418,9.769709587097168,-0.0009762868976330894,-0.005807109101593746,-0.00930189633750987,2.884108543395996,2019-06-21 12:39:37:760,0.0,0.0,0.0
0.029275815933942795,-0.17583449184894562,9.836762428283691,-0.0019086208441953755,-0.006206680532903257,-0.012764851516318438,2.889988899230957,2019-06-21 12:39:37:766,0.0,0.0,0.0
0.07238131016492844,-0.15188699960708618,9.793657302856445,0.004884098039367014,-0.004342012639778686,-0.00930189633750987,2.8940958976745605,2019-06-21 12:39:37:770,0.0,0.0,0.0
0.043644312769174576,-0.16625550389289856,9.767314910888672,-4.395289011588339e-05,-0.005540727974004522,-0.003175130142883378,2.899991989135742,2019-06-21 12:39:37:776,0.0,0.0,0.0
0.0484338141977787,-0.17822924256324768,9.808025360107422,-0.002308192665616375,-0.0040756315121894615,-0.006504894237748685,2.904109477996826,2019-06-21 12:39:37:780,0.0,0.0,0.0
0.06280230730772018,-0.1638607531785965,9.764920234680176,-0.002974145484589436,-0.009669635191563178,-0.005838941678849949,2.9091272354125977,2019-06-21 12:39:37:785,0.0,0.0,0.0
0.07956556230783463,-0.15428175032138824,9.812814712524414,-4.395289011588339e-05,-0.007139014739539869,-0.006504894237748685,2.9150094985961914,2019-06-21 12:39:37:791,0.0,0.0,0.0
0.08435505628585815,-0.1375184953212738,9.841551780700684,0.0004888094016355178,-0.002477344746654114,-0.004640226344624114,2.9191083908081055,2019-06-21 12:39:37:795,0.0,0.0,0.0
0.07238131016492844,-0.12075525522232056,9.709840774536133,8.92376858697129e-05,-0.005274346846415297,-0.008369562130873257,2.9249839782714844,2019-06-21 12:39:37:801,0.0,0.0,0.0
0.04603906348347664,-0.1183605045080185,9.748156547546387,0.0018207150720909312,-0.0023441541828595016,-0.001976414938694705,2.929098606109619,2019-06-21 12:39:37:805,0.0,0.0,0.0
0.06759180873632431,-0.11357100307941437,9.8319730758667,-0.002308192665616375,-0.0063398713567721955,-0.006238513110159461,2.934990882873535,2019-06-21 12:39:37:811,0.0,0.0,0.0
0.09153930842876434,-0.15907125174999237,9.784077644348145,8.92376858697129e-05,-0.0040756315121894615,0.0014865399800395396,2.939101219177246,2019-06-21 12:39:37:815,0.0,0.0,0.0
0.08674980700016022,-0.09920250624418259,9.834367752075195,-0.0019086208441953755,-0.0040756315121894615,-0.004107464089445664,2.9449844360351562,2019-06-21 12:39:37:821,0.0,0.0,0.0
0.11069730669260025,-0.10638675838708878,9.805630683898926,-0.0020418114079899874,-0.005940299405314034,-0.005439369727391787,2.9490976333618164,2019-06-21 12:39:37:825,0.0,0.0,0.0
0.12985530495643616,-0.13991324603557587,9.757735252380371,-0.001242668025222314,-0.003942440948394849,-0.004240654653240277,2.9550094604492188,2019-06-21 12:39:37:831,0.0,0.0,0.0
0.08435505628585815,-0.13272900879383087,9.776893615722656,-0.002974145484589436,-0.005407537150135584,-0.0038410829618564396,2.960177421569824,2019-06-21 12:39:37:836,0.0,0.0,0.0
0.0747760608792305,-0.10878150165081024,9.767314910888672,-0.003906479431151722,-0.006473061660492482,-0.003041939579088766,2.964099884033203,2019-06-21 12:39:37:840,0.0,0.0,0.0
0.11548680067062378,-0.10878150165081024,9.805630683898926,0.003951764352879053,-0.004475203463647623,0.005215875896325846,2.9699859619140625,2019-06-21 12:39:37:846,0.0,0.0,0.0
0.1466185450553894,-0.14949224889278412,9.812814712524414,8.92376858697129e-05,-0.0028769164380379507,0.0002878248408694478,2.9741086959838867,2019-06-21 12:39:37:850,0.0,0.0,0.0
0.09872355312108994,-0.09920250624418259,9.784077644348145,-0.0015090491528115383,-0.0056739182777248084,-0.002642367627630604,2.9799909591674805,2019-06-21 12:39:37:856,0.0,0.0,0.0
0.10830255597829819,-0.12075525522232056,9.776893615722656,0.003951764352879053,-0.00660625248436142,-0.0006445091707114195,2.984098434448242,2019-06-21 12:39:37:860,0.0,0.0,0.0
0.10351305454969406,-0.09441300481557846,9.776893615722656,-0.0020418114079899874,-0.0030101070018325625,-0.0027755584514995413,2.9899911880493164,2019-06-21 12:39:37:866,0.0,0.0,0.0
0.101118303835392,-0.0848340094089508,9.752945899963379,0.00435133604426289,-0.007139014739539869,0.0002878248408694478,2.994112968444824,2019-06-21 12:39:37:870,0.0,0.0,0.0
0.12267105281352997,-0.12075525522232056,9.760130882263184,0.0046177169117777896,-0.00807134842602783,-0.0006445091707114195,3.0000391006469727,2019-06-21 12:39:37:876,0.0,0.0,0.0
0.1202763020992279,-0.09441300481557846,9.714630126953125,0.004884098039367014,-0.0063398713567721955,-0.00011174689115100237,3.004105567932129,2019-06-21 12:39:37:880,0.0,0.0,0.0
0.1202763020992279,-0.1183605045080185,9.808025360107422,0.0038185737890844406,-0.0027437258742433386,0.001619730543834152,3.010049343109131,2019-06-21 12:39:37:886,0.0,0.0,0.0
0.11548680067062378,-0.1303342580795288,9.750551223754883,0.0034190020977006037,-0.004741584591236848,-0.0018432243749000928,3.014115333557129,2019-06-21 12:39:37:890,0.0,0.0,0.0
0.10351305454969406,-0.14230799674987793,9.678709030151367,0.0020870961996801557,-0.00460839376736791,0.002685255184228213,3.0199851989746094,2019-06-21 12:39:37:896,0.0,0.0,0.0
0.06280230730772018,-0.11596575379371643,9.738577842712402,-0.00044352460994534954,-0.0063398713567721955,0.0001546342608201902,3.024991035461426,2019-06-21 12:39:37:901,0.0,0.0,0.0
0.09153930842876434,-0.1111762523651123,9.76252555847168,-0.0024413832294109873,-0.0063398713567721955,0.002152492799012601,3.029104709625244,2019-06-21 12:39:37:905,0.0,0.0,0.0
0.12267105281352997,-0.15907125174999237,9.74576187133789,0.0042181454804682775,-0.003942440948394849,2.1443682802763245e-05,3.0349836349487305,2019-06-21 12:39:37:911,0.0,0.0,0.0
0.07238131016492844,-0.17343974113464355,9.776893615722656,0.0038185737890844406,-0.0023441541828595016,-0.0005113186069168071,3.0390987396240234,2019-06-21 12:39:37:915,0.0,0.0,0.0
0.08196030557155609,-0.14230799674987793,9.769709587097168,0.0004888094016355178,-0.003143297565627175,0.0028184457480228253,3.0449905395507812,2019-06-21 12:39:37:921,0.0,0.0,0.0
0.1274605542421341,-0.18541349470615387,9.767314910888672,0.000755190561734033,-0.00460839376736791,0.006281400406682744,3.049999237060547,2019-06-21 12:39:37:926,0.0,0.0,0.0
0.08674980700016022,-0.14709749817848206,9.72420883178711,0.003285811533905992,-0.0012786295424654405,0.0029516363118174374,3.0541000366210938,2019-06-21 12:39:37:930,0.0,0.0,0.0
0.11069730669260025,-0.15428175032138824,9.76252555847168,0.0046177169117777896,-0.007804967298438606,-0.0009108902983006441,3.060026168823242,2019-06-21 12:39:37:936,0.0,0.0,0.0
0.05322331190109253,-0.14470274746418,9.819998741149902,-0.00044352460994534954,-0.003143297565627175,-0.005972131982570236,3.064103603363037,2019-06-21 12:39:37:940,0.0,0.0,0.0
0.11548680067062378,-0.16865025460720062,9.822394371032715,0.0058164322460036244,0.0011188008659119059,-0.0010440808620952565,3.0699920654296875,2019-06-21 12:39:37:946,0.0,0.0,0.0
0.08196030557155609,-0.14949224889278412,9.808025360107422,0.001687524508296319,-0.0010122483498576347,-0.003041939579088766,3.0741076469421387,2019-06-21 12:39:37:950,0.0,0.0,0.0
0.06040756031870842,-0.16146600246429443,9.764920234680176,8.92376858697129e-05,-0.005807109101593746,-0.006904466189206847,3.07999324798584,2019-06-21 12:39:37:956,0.0,0.0,0.0
0.06998655945062637,-0.16625550389289856,9.800841331481934,0.003285811533905992,-0.003676059820805624,-0.003974273525651052,3.084095001220703,2019-06-21 12:39:37:960,0.0,0.0,0.0
0.050828561186790466,-0.16865025460720062,9.779288291931152,-0.0011094774614277016,-0.0023441541828595016,-0.0023759865000413795,3.090010166168213,2019-06-21 12:39:37:966,0.0,0.0,0.0
0.0747760608792305,-0.17583449184894562,9.776893615722656,0.0004888094016355178,-0.003143297565627175,-0.0053061794236715,3.0941004753112793,2019-06-21 12:39:37:970,0.0,0.0,0.0
0.05801280960440636,-0.19978199899196625,9.779288291931152,0.0004888094016355178,-0.007804967298438606,-0.0007776997345060318,3.09909725189209,2019-06-21 12:39:37:975,0.0,0.0,0.0
0.07238131016492844,-0.19259774684906006,9.796051979064941,0.00435133604426289,-0.0023441541828595016,-0.007703609571974521,3.1050100326538086,2019-06-21 12:39:37:981,0.0,0.0,0.0
0.101118303835392,-0.19738724827766418,9.757735252380371,0.0019539056358855436,-0.003676059820805624,-0.007969990699563747,3.109994888305664,2019-06-21 12:39:37:986,0.0,0.0,0.0
0.06280230730772018,-0.19738724827766418,9.772104263305664,0.000755190561734033,0.0003196573856163601,-0.0038410829618564396,3.114992141723633,2019-06-21 12:39:37:991,0.0,0.0,0.0
0.101118303835392,-0.19738724827766418,9.824789047241211,0.0031526207100370544,-0.003676059820805624,-0.010500611151587054,3.11909818649292,2019-06-21 12:39:37:995,0.0,0.0,0.0
0.06759180873632431,-0.15188699960708618,9.757735252380371,0.0014211433807070943,-0.006872633611950644,-0.003041939579088766,3.1249895095825195,2019-06-21 12:39:38:001,0.0,0.0,0.0
0.043644312769174576,-0.2093609869480133,9.798446655273438,-0.0013758585890169264,-0.005274346846415297,-0.008502752954742196,3.1291046142578125,2019-06-21 12:39:38:005,0.0,0.0,0.0
0.06280230730772018,-0.18780824542045593,9.819998741149902,0.0003556188378409054,-0.005540727974004522,-0.007570418748105583,3.1349902153015137,2019-06-21 12:39:38:011,0.0,0.0,0.0
0.08914455771446228,-0.17822924256324768,9.79126262664795,-0.0005767152062492525,-0.009270064280402316,-0.006238513110159461,3.139113426208496,2019-06-21 12:39:38:015,0.0,0.0,0.0
0.07717081159353256,-0.15188699960708618,9.769709587097168,-0.00044352460994534954,-0.0030101070018325625,-0.0053061794236715,3.1451759338378906,2019-06-21 12:39:38:021,0.0,0.0,0.0
0.06040756031870842,-0.19978199899196625,9.822394371032715,0.000755190561734033,-0.005407537150135584,-0.005572560551260725,3.149125099182129,2019-06-21 12:39:38:025,0.0,0.0,0.0
0.07238131016492844,-0.1566765010356903,9.851130485534668,-0.001775430280400763,-0.005274346846415297,-0.007170847316796072,3.1541013717651367,2019-06-21 12:39:38:030,0.0,0.0,0.0
0.06759180873632431,-0.19978199899196625,9.767314910888672,0.00022242825779164786,-0.0038092503846002368,-0.007836799875694809,3.159989833831787,2019-06-21 12:39:38:036,0.0,0.0,0.0
0.04124956205487251,-0.1638607531785965,9.800841331481934,-0.001242668025222314,-0.0016782012338492774,-0.008103181003284032,3.164107322692871,2019-06-21 12:39:38:040,0.0,0.0,0.0
0.050828561186790466,-0.1566765010356903,9.81520938873291,0.0003556188378409054,-0.0032764881294217877,-0.0005113186069168071,3.1699914932250977,2019-06-21 12:39:38:046,0.0,0.0,0.0
0.05322331190109253,-0.18062399327754974,9.764920234680176,-0.0031073360483840485,-0.00660625248436142,-0.008902324386051706,3.1740951538085938,2019-06-21 12:39:38:050,0.0,0.0,0.0
0.05801280960440636,-0.17343974113464355,9.798446655273438,-0.000843096333838477,-0.007671776994718318,-0.012098897917122403,3.1799936294555664,2019-06-21 12:39:38:056,0.0,0.0,0.0
0.06998655945062637,-0.18541349470615387,9.819998741149902,-0.0036400983035624977,-0.003942440948394849,-0.005039798296082276,3.18410587310791,2019-06-21 12:39:38:060,0.0,0.0,0.0
0.06998655945062637,-0.21415048837661743,9.860710144042969,-0.0024413832294109873,-0.005007965718826072,-0.00730403762051636,3.1900110244750977,2019-06-21 12:39:38:066,0.0,0.0,0.0
0.07238131016492844,-0.16146600246429443,9.800841331481934,-0.0024413832294109873,-0.001944582361438502,-0.004906607472213338,3.1941118240356445,2019-06-21 12:39:38:070,0.0,0.0,0.0
0.04603906348347664,-0.13991324603557587,9.800841331481934,-0.004705623073993721,-0.003542869257011012,-0.001976414938694705,3.1999974250793457,2019-06-21 12:39:38:076,0.0,0.0,0.0
0.0484338141977787,-0.1830187439918518,9.78647232055664,0.0014211433807070943,-0.007671776994718318,-0.004773416648344401,3.2041125297546387,2019-06-21 12:39:38:080,0.0,0.0,0.0
0.07717081159353256,-0.17583449184894562,9.78647232055664,0.0018207150720909312,-0.00514115602254636,-0.0014436525534790934,3.209993362426758,2019-06-21 12:39:38:086,0.0,0.0,0.0
0.07717081159353256,-0.1830187439918518,9.812814712524414,-0.0019086208441953755,-0.0011454389786708283,-0.002109605502489317,3.2149925231933594,2019-06-21 12:39:38:091,0.0,0.0,0.0
0.06040756031870842,-0.190202996134758,9.810420036315918,-0.0019086208441953755,-0.007272205043260157,-0.0038410829618564396,3.2190961837768555,2019-06-21 12:39:38:095,0.0,0.0,0.0
0.07238131016492844,-0.13272900879383087,9.808025360107422,0.000755190561734033,-0.008737302025223867,0.0002878248408694478,3.2250146865844727,2019-06-21 12:39:38:101,0.0,0.0,0.0
0.09632880985736847,-0.15907125174999237,9.767314910888672,-0.0031073360483840485,-0.0038092503846002368,-0.001310461989684481,3.229996681213379,2019-06-21 12:39:38:106,0.0,0.0,0.0
0.07717081159353256,-0.1303342580795288,9.779288291931152,0.0006219999979394207,-0.003143297565627175,0.0002878248408694478,3.2341156005859375,2019-06-21 12:39:38:110,0.0,0.0,0.0
0.08196030557155609,-0.190202996134758,9.78647232055664,-0.0031073360483840485,-0.0063398713567721955,0.0002878248408694478,3.239995002746582,2019-06-21 12:39:38:116,0.0,0.0,0.0
0.09153930842876434,-0.17822924256324768,9.819998741149902,-0.00523838532917217,-0.009669635191563178,0.0014865399800395396,3.2440996170043945,2019-06-21 12:39:38:120,0.0,0.0,0.0
0.07717081159353256,-0.19259774684906006,9.798446655273438,0.0019539056358855436,-0.007671776994718318,-0.002642367627630604,3.249098777770996,2019-06-21 12:39:38:125,0.0,0.0,0.0
0.08435505628585815,-0.12554475665092468,9.81520938873291,0.0010215716893232575,-0.0032764881294217877,0.0001546342608201902,3.2549896240234375,2019-06-21 12:39:38:131,0.0,0.0,0.0
0.0747760608792305,-0.13272900879383087,9.800841331481934,-0.00523838532917217,-0.005407537150135584,-0.00677127536533791,3.259105682373047,2019-06-21 12:39:38:135,0.0,0.0,0.0
0.06519705802202225,-0.14949224889278412,9.767314910888672,-4.395289011588339e-05,-0.005807109101593746,-0.0006445091707114195,3.2651915550231934,2019-06-21 12:39:38:141,0.0,0.0,0.0
0.05561806261539459,-0.14709749817848206,9.819998741149902,0.001287952816912482,-0.004475203463647623,-0.00730403762051636,3.2691221237182617,2019-06-21 12:39:38:145,0.0,0.0,0.0
0.08435505628585815,-0.16625550389289856,9.767314910888672,0.0022202867634747683,-0.002610535310448726,-0.0014436525534790934,3.274982452392578,2019-06-21 12:39:38:151,0.0,0.0,0.0
0.03885481506586075,-0.14949224889278412,9.714630126953125,-0.00017714346610147965,-0.005007965718826072,0.0008205870960478969,3.279160499572754,2019-06-21 12:39:38:155,0.0,0.0,0.0
0.03406531363725662,-0.18541349470615387,9.769709587097168,0.001687524508296319,-0.003942440948394849,-0.0007776997345060318,3.2849817276000977,2019-06-21 12:39:38:161,0.0,0.0,0.0
0.06040756031870842,-0.14230799674987793,9.772104263305664,-0.0011094774614277016,-0.003676059820805624,-0.0029087490152941535,3.2890987396240234,2019-06-21 12:39:38:165,0.0,0.0,0.0
0.05801280960440636,-0.17343974113464355,9.776893615722656,-0.001775430280400763,-0.01100154134965795,-0.004240654653240277,3.294989585876465,2019-06-21 12:39:38:171,0.0,0.0,0.0
0.0484338141977787,-0.16625550389289856,9.784077644348145,-0.000843096333838477,-0.006473061660492482,-0.008502752954742196,3.299104690551758,2019-06-21 12:39:38:175,0.0,0.0,0.0
0.0077230678871273994,-0.18780824542045593,9.793657302856445,0.001287952816912482,-0.007005823915670932,-0.004773416648344401,3.3049840927124023,2019-06-21 12:39:38:181,0.0,0.0,0.0
0.01730206608772278,-0.1638607531785965,9.824789047241211,0.00022242825779164786,0.0011188008659119059,-0.000378128043122195,3.310009002685547,2019-06-21 12:39:38:186,0.0,0.0,0.0
