ACCELEROMETER X (m/s²),ACCELEROMETER Y (m/s²),ACCELEROMETER Z (m/s²),GYROSCOPE X (rad/s),GYROSCOPE Y (rad/s),GYROSCOPE Z (rad/s),Time since start in ms ,YYYY-MO-DD HH-MI-SS_SSS,MagX,MagY,MagZ
0.17435453832149506,0.012261118739843369,9.749134063720703,-0.0004365987006280297,0.002917273211377009,-0.0017106997314151628,0.0,2019-06-21 14:50:00:974,0.0,0.0,0.0
0.13603854179382324,0.00986636895686388,9.708422660827637,-0.0004365987006280297,0.0051815127958854176,0.0006867306119436022,0.005031108856201172,2019-06-21 14:50:00:979,0.0,0.0,0.0
0.19351254403591156,-0.05239712446928024,9.727581024169922,-0.0004365987006280297,0.006113847002522029,-0.002643033677977449,0.010013103485107422,2019-06-21 14:50:00:984,0.0,0.0,0.0
0.20309153199195862,-0.03802862390875816,9.768291473388672,0.003958690132159211,-0.0013448252201620722,-0.001843890295209775,0.01587390899658203,2019-06-21 14:50:00:990,0.0,0.0,0.0
0.20309153199195862,-0.05239712446928024,9.780265808105469,-0.000702979860726545,0.004249178849323132,-0.006638750851890143,0.019994258880615234,2019-06-21 14:50:00:994,0.0,0.0,0.0
0.18872304260730743,0.0266296174377203,9.720396995544434,0.002626784494213087,-0.004408208317475317,0.0034837325166490415,0.025875568389892578,2019-06-21 14:50:01:000,0.0,0.0,0.0
0.21506528556346893,-0.02844962663948536,9.794633865356445,-0.002034885498672668,0.0027840826475823964,-0.005440035517664307,0.029993534088134766,2019-06-21 14:50:01:004,0.0,0.0,0.0
0.1839335411787033,-0.030844375491142273,9.782660484313965,-0.0027008383176457293,0.00198493913477756,0.0014858740597298572,0.0358738899230957,2019-06-21 14:50:01:010,0.0,0.0,0.0
0.20069678127765656,-0.06437087059020996,9.739554405212402,-0.0032336005728241784,0.0002534616591557925,-0.005972797772842756,0.03999471664428711,2019-06-21 14:50:01:014,0.0,0.0,0.0
0.20309153199195862,-0.004502129275351763,9.73476505279541,-0.0005697892969319327,0.003450035466555458,-0.0050404640863547946,0.045000553131103516,2019-06-21 14:50:01:019,0.0,0.0,0.0
0.23901277780532837,-0.01168637815862894,9.765896797180176,0.0014280692900244143,0.003982797721733907,-0.002243461986593612,0.05001497268676758,2019-06-21 14:50:01:024,0.0,0.0,0.0
0.16717028617858887,-0.023660127073526382,9.73476505279541,-0.0005697892969319327,0.0017185580071883357,-0.0021102714227989997,0.05587625503540039,2019-06-21 14:50:01:030,0.0,0.0,0.0
0.18632829189300537,-0.006896879058331251,9.770686149597168,0.0004957353109528376,0.000786223930588887,-0.005972797772842756,0.059996604919433594,2019-06-21 14:50:01:034,0.0,0.0,0.0
0.20309153199195862,-0.01168637815862894,9.725186347961426,0.001294878726229802,0.00198493913477756,-0.00011241284396997543,0.06499671936035156,2019-06-21 14:50:01:039,0.0,0.0,0.0
0.18872304260730743,-0.014081127941608429,9.80421257019043,-0.0013689326796996063,0.0033168449027608455,-0.004907273262485858,0.07087469100952148,2019-06-21 14:50:01:045,0.0,0.0,0.0
0.16717028617858887,-0.009291628375649452,9.787449836730957,0.0014280692900244143,-0.0013448252201620722,-0.004374511007307408,0.0749959945678711,2019-06-21 14:50:01:049,0.0,0.0,0.0
0.1983020305633545,-0.026054875925183296,9.7515287399292,0.0007621164710513528,0.0033168449027608455,-0.0011779374762367137,0.08088064193725586,2019-06-21 14:50:01:055,0.0,0.0,0.0
0.18632829189300537,-0.02126537635922432,9.746739387512207,0.0011616881624351898,0.0021181296985721726,-0.0030426053693612854,0.08499622344970703,2019-06-21 14:50:01:059,0.0,0.0,0.0
0.20788103342056274,-0.05000237375497818,9.749134063720703,0.0022272128028292507,0.0002534616591557925,-0.000378793995941168,0.09087514877319336,2019-06-21 14:50:01:065,0.0,0.0,0.0
0.17914403975009918,-0.02844962663948536,9.73476505279541,-0.003366791396693116,0.0021181296985721726,-0.004640892134896633,0.09503746032714844,2019-06-21 14:50:01:069,0.0,0.0,0.0
0.2366180270910263,-0.02844962663948536,9.775476455688477,-0.0004365987006280297,0.0009194144943834993,-0.00104474684742352,0.09999513626098633,2019-06-21 14:50:01:074,0.0,0.0,0.0
0.18153879046440125,-0.05958137288689613,9.806608200073242,0.0008953070348459651,0.0011857956219727239,-0.0009115562836289078,0.10587453842163086,2019-06-21 14:50:01:080,0.0,0.0,0.0
0.16956503689289093,-0.02844962663948536,9.799423217773438,0.0016944504176136389,-0.002010778039135134,0.0012194929321406327,0.10999488830566406,2019-06-21 14:50:01:084,0.0,0.0,0.0
0.18632829189300537,-0.002107379725202918,9.828160285949707,-0.0019016949348780556,0.0030504637751716207,-0.002643033677977449,0.11587905883789062,2019-06-21 14:50:01:090,0.0,0.0,0.0
0.21267053484916687,-0.016475878655910492,9.761107444763184,-0.0004365987006280297,0.0013189861857673363,-0.002643033677977449,0.11999654769897461,2019-06-21 14:50:01:094,0.0,0.0,0.0
0.16956503689289093,-0.04281812533736229,9.744344711303711,9.616359518703274e-05,-0.0010784440275542662,0.0018854457511136942,0.12499475479125977,2019-06-21 14:50:01:099,0.0,0.0,0.0
0.2102757841348648,-0.01168637815862894,9.753923416137695,0.0008953070348459651,0.003450035466555458,-0.002776224241772061,0.13087987899780273,2019-06-21 14:50:01:105,0.0,0.0,0.0
0.171959787607193,-0.03802862390875816,9.768291473388672,0.0016944504176136389,0.0033168449027608455,-0.0007783657198342955,0.1349940299987793,2019-06-21 14:50:01:109,0.0,0.0,0.0
0.19590729475021362,-0.04760762304067612,9.698843955993652,0.0016944504176136389,0.0037164165941446824,-0.0029094148055666736,0.1400303840637207,2019-06-21 14:50:01:114,0.0,0.0,0.0
0.20069678127765656,-0.03802862390875816,9.756318092346191,0.0035591184407753737,0.0035832260303500707,-0.002376652550388224,0.14588212966918945,2019-06-21 14:50:01:120,0.0,0.0,0.0
0.17674928903579712,-0.05718662217259407,9.746739387512207,0.0006289259072567405,0.004249178849323132,0.0014858740597298572,0.14999723434448242,2019-06-21 14:50:01:124,0.0,0.0,0.0
0.22464428842067719,-0.03802862390875816,9.718002319335938,-0.006430174363969199,0.0026508918237134593,-0.002776224241772061,0.15587472915649414,2019-06-21 14:50:01:130,0.0,0.0,0.0
0.21267053484916687,-0.02126537635922432,9.799423217773438,-0.0012357421159049941,0.004249178849323132,-0.005173654390075082,0.15999412536621094,2019-06-21 14:50:01:134,0.0,0.0,0.0
0.16956503689289093,-0.023660127073526382,9.789844512939453,0.002626784494213087,0.0018517485709829478,0.002684589133881368,0.1658778190612793,2019-06-21 14:50:01:140,0.0,0.0,0.0
0.20069678127765656,-0.018870627507567406,9.708422660827637,-0.002834028881440342,0.0010526050581781115,-0.003708558188334347,0.16999387741088867,2019-06-21 14:50:01:144,0.0,0.0,0.0
0.217460036277771,-0.016475878655910492,9.746739387512207,-0.00017021755678415983,0.0006530333667942747,0.002551398570086756,0.17587614059448242,2019-06-21 14:50:01:150,0.0,0.0,0.0
0.20309153199195862,-0.004502129275351763,9.797028541564941,-0.0017685043710834434,0.0023845106961242345,-0.0033089864969505106,0.17999505996704102,2019-06-21 14:50:01:154,0.0,0.0,0.0
0.18632829189300537,-0.03802862390875816,9.73476505279541,-0.0004365987006280297,0.0017185580071883357,-0.008103847313705203,0.1858959197998047,2019-06-21 14:50:01:160,0.0,0.0,0.0
0.171959787607193,0.005076869390904903,9.768291473388672,0.0032927373131861493,0.0005198428029996624,-0.003175795933155898,0.19000864028930664,2019-06-21 14:50:01:164,0.0,0.0,0.0
0.18632829189300537,-0.023660127073526382,9.756318092346191,-0.0015021232434942187,0.004382369413117744,-0.004108129879718184,0.1958775520324707,2019-06-21 14:50:01:170,0.0,0.0,0.0
0.18872304260730743,-0.030844375491142273,9.768291473388672,0.002360403366623863,-0.000945253463759654,-0.0015775091676205506,0.1999974250793457,2019-06-21 14:50:01:174,0.0,0.0,0.0
0.17435453832149506,-0.0356338769197464,9.770686149597168,0.0008953070348459651,0.0018517485709829478,-0.0050404640863547946,0.20499801635742188,2019-06-21 14:50:01:179,0.0,0.0,0.0
0.17914403975009918,-0.016475878655910492,9.79223918914795,0.002626784494213087,0.0018517485709829478,0.004016494771827491,0.2108759880065918,2019-06-21 14:50:01:185,0.0,0.0,0.0
0.1839335411787033,-0.02126537635922432,9.777871131896973,0.006888882535640681,0.0017185580071883357,0.0012194929321406327,0.21499347686767578,2019-06-21 14:50:01:189,0.0,0.0,0.0
0.1983020305633545,-0.018870627507567406,9.753923416137695,-0.0004365987006280297,0.0015853673133565606,0.0021518268787029185,0.22088003158569336,2019-06-21 14:50:01:195,0.0,0.0,0.0
0.17435453832149506,-0.04281812533736229,9.739554405212402,0.0036923090045699854,-0.00041249120858120484,-0.00024560341589191043,0.22499418258666992,2019-06-21 14:50:01:199,0.0,0.0,0.0
0.21267053484916687,-0.018870627507567406,9.765896797180176,-0.0012357421159049941,0.0035832260303500707,-0.002776224241772061,0.23001813888549805,2019-06-21 14:50:01:204,0.0,0.0,0.0
0.18153879046440125,-0.02126537635922432,9.820976257324219,0.006089739152873007,-1.2919485703992724e-05,-0.00530684521394402,0.23501253128051758,2019-06-21 14:50:01:209,0.0,0.0,0.0
0.19590729475021362,-0.033239126205444336,9.801817893981934,0.0022272128028292507,0.0014521767495619484,0.000420349451845087,0.23999500274658203,2019-06-21 14:50:01:214,0.0,0.0,0.0
0.17914403975009918,-0.023660127073526382,9.81379222869873,0.0016944504176136389,0.00198493913477756,0.0009531117395328268,0.24587583541870117,2019-06-21 14:50:01:220,0.0,0.0,0.0
0.17674928903579712,-0.02126537635922432,9.765896797180176,-0.003100410009029566,-0.002010778039135134,-0.0038417487521289597,0.25087785720825195,2019-06-21 14:50:01:225,0.0,0.0,0.0
0.14082804322242737,-0.0356338769197464,9.789844512939453,0.0019608315452028634,-1.2919485703992724e-05,0.0005535400481489899,0.2549934387207031,2019-06-21 14:50:01:229,0.0,0.0,0.0
0.1911177933216095,-0.05718662217259407,9.773080825805664,0.0007621164710513528,-0.0008120628999650418,-0.0030426053693612854,0.2608819007873535,2019-06-21 14:50:01:235,0.0,0.0,0.0
0.20788103342056274,-0.01168637815862894,9.823370933532715,0.001827640981408251,0.003450035466555458,-0.0006451751560396832,0.26499462127685547,2019-06-21 14:50:01:239,0.0,0.0,0.0
0.17914403975009918,-0.02844962663948536,9.758712768554688,0.0007621164710513528,0.0011857956219727239,0.0008199211757382146,0.27087831497192383,2019-06-21 14:50:01:245,0.0,0.0,0.0
0.19590729475021362,0.007471619173884392,9.744344711303711,-0.00017021755678415983,-0.00041249120858120484,0.0005535400481489899,0.2749934196472168,2019-06-21 14:50:01:249,0.0,0.0,0.0
0.1983020305633545,-0.002107379725202918,9.746739387512207,0.0019608315452028634,-0.0014780157839566846,0.0006867306119436022,0.28000974655151367,2019-06-21 14:50:01:254,0.0,0.0,0.0
0.15998604893684387,-0.018870627507567406,9.732370376586914,0.00036254474715822533,0.0015853673133565606,0.0024182080062921433,0.28588247299194336,2019-06-21 14:50:01:260,0.0,0.0,0.0
0.171959787607193,-0.014081127941608429,9.7515287399292,-0.00017021755678415983,0.0013189861857673363,0.0013526834959352448,0.28999805450439453,2019-06-21 14:50:01:264,0.0,0.0,0.0
0.16717028617858887,-0.04760762304067612,9.715607643127441,-0.0004365987006280297,0.0015853673133565606,-0.0011779374762367137,0.29587364196777344,2019-06-21 14:50:01:270,0.0,0.0,0.0
0.18872304260730743,-0.01168637815862894,9.727581024169922,-0.00216807606246728,0.00558108474734358,-0.0013111280400313259,0.3008747100830078,2019-06-21 14:50:01:275,0.0,0.0,0.0
0.17674928903579712,-0.023660127073526382,9.741949081420898,-0.00216807606246728,0.003982797721733907,-0.005440035517664307,0.3049941062927246,2019-06-21 14:50:01:279,0.0,0.0,0.0
0.16238079965114594,-0.018870627507567406,9.725186347961426,0.0022272128028292507,0.0009194144943834993,2.0777729983790183e-05,0.310880184173584,2019-06-21 14:50:01:285,0.0,0.0,0.0
0.1839335411787033,-0.05000237375497818,9.76350212097168,0.0032927373131861493,0.0006530333667942747,0.0014858740597298572,0.31587839126586914,2019-06-21 14:50:01:290,0.0,0.0,0.0
0.1839335411787033,-0.01168637815862894,9.768291473388672,-0.00017021755678415983,0.0013189861857673363,-0.005706416645253532,0.3199944496154785,2019-06-21 14:50:01:294,0.0,0.0,0.0
0.1647755354642868,0.00028736997046507895,9.768291473388672,-0.00030340813683341745,0.0011857956219727239,-0.004507701831176346,0.32588624954223633,2019-06-21 14:50:01:300,0.0,0.0,0.0
0.16956503689289093,-0.02844962663948536,9.842529296875,0.0006289259072567405,0.0026508918237134593,-0.001843890295209775,0.33000946044921875,2019-06-21 14:50:01:304,0.0,0.0,0.0
0.171959787607193,-0.06676562130451202,9.758712768554688,-0.0004365987006280297,0.0031836543389662333,-0.004108129879718184,0.33499622344970703,2019-06-21 14:50:01:309,0.0,0.0,0.0
0.21506528556346893,0.002682119607925415,9.732370376586914,0.0006289259072567405,0.005447893923474643,-0.003974939315923572,0.340878963470459,2019-06-21 14:50:01:315,0.0,0.0,0.0
0.1839335411787033,-0.01168637815862894,9.758712768554688,-0.003100410009029566,0.0018517485709829478,-0.009036181520341814,0.3449869155883789,2019-06-21 14:50:01:319,0.0,0.0,0.0
0.20788103342056274,-0.026054875925183296,9.749134063720703,0.0015612598538190267,0.0011857956219727239,-0.004241320443512797,0.34999561309814453,2019-06-21 14:50:01:324,0.0,0.0,0.0
0.171959787607193,-0.05000237375497818,9.8329496383667,-0.001102551552110382,-0.00400863662609148,-0.0011779374762367137,0.3558778762817383,2019-06-21 14:50:01:330,0.0,0.0,0.0
0.18872304260730743,-0.030844375491142273,9.7515287399292,-0.002434457190056505,0.0023845106961242345,-0.0021102714227989997,0.3599972724914551,2019-06-21 14:50:01:334,0.0,0.0,0.0
0.1575912982225418,-0.02126537635922432,9.765896797180176,0.0022272128028292507,-0.000945253463759654,-0.005573226341533244,0.3658781051635742,2019-06-21 14:50:01:340,0.0,0.0,0.0
0.22224953770637512,-0.03802862390875816,9.765896797180176,-3.702698079856355e-05,0.0027840826475823964,-0.00477408295876557,0.3700132369995117,2019-06-21 14:50:01:344,0.0,0.0,0.0
0.20309153199195862,-0.040423374623060226,9.777871131896973,0.001827640981408251,0.004781940844427256,-0.004108129879718184,0.3758969306945801,2019-06-21 14:50:01:350,0.0,0.0,0.0
0.19351254403591156,-0.033239126205444336,9.782660484313965,0.0011616881624351898,-0.0002793006447865926,-0.0021102714227989997,0.37999868392944336,2019-06-21 14:50:01:354,0.0,0.0,0.0
0.18153879046440125,-0.018870627507567406,9.732370376586914,0.0036923090045699854,-0.000945253463759654,-0.0033089864969505106,0.38587427139282227,2019-06-21 14:50:01:360,0.0,0.0,0.0
0.17674928903579712,0.00028736997046507895,9.801817893981934,0.002493593930418475,0.005847465874932804,-0.006771941675759081,0.3899960517883301,2019-06-21 14:50:01:364,0.0,0.0,0.0
0.22224953770637512,-0.02126537635922432,9.749134063720703,0.001294878726229802,-0.003342683807118419,-0.003175795933155898,0.39587831497192383,2019-06-21 14:50:01:370,0.0,0.0,0.0
0.1983020305633545,-0.030844375491142273,9.806608200073242,0.0016944504176136389,-0.003209493243323807,-0.0030426053693612854,0.40088748931884766,2019-06-21 14:50:01:375,0.0,0.0,0.0
0.1647755354642868,-0.002107379725202918,9.737159729003906,0.0014280692900244143,-0.0014780157839566846,-0.004640892134896633,0.40499353408813477,2019-06-21 14:50:01:379,0.0,0.0,0.0
0.20309153199195862,-0.05239712446928024,9.758712768554688,0.004757833514926884,-1.2919485703992724e-05,-0.004241320443512797,0.41087818145751953,2019-06-21 14:50:01:385,0.0,0.0,0.0
0.171959787607193,-0.03802862390875816,9.741949081420898,0.0008953070348459651,0.002917273211377009,-0.006372369724300918,0.41501379013061523,2019-06-21 14:50:01:389,0.0,0.0,0.0
0.20309153199195862,0.00986636895686388,9.737159729003906,0.0011616881624351898,0.0014521767495619484,0.00015396830800121713,0.4208998680114746,2019-06-21 14:50:01:395,0.0,0.0,0.0
0.21985478699207306,-0.009291628375649452,9.79223918914795,0.0031595467493915367,0.006912990385289703,-0.0033089864969505106,0.42499494552612305,2019-06-21 14:50:01:399,0.0,0.0,0.0
0.17914403975009918,-0.03802862390875816,9.691659927368164,-0.0034999819604877285,0.006380228130111254,0.0008199211757382146,0.4308791160583496,2019-06-21 14:50:01:405,0.0,0.0,0.0
0.19351254403591156,-0.023660127073526382,9.737159729003906,0.005823358025283782,0.0030504637751716207,-0.002376652550388224,0.43499755859375,2019-06-21 14:50:01:409,0.0,0.0,0.0
0.19351254403591156,-0.004502129275351763,9.746739387512207,0.0008953070348459651,0.004915131668296193,-0.004241320443512797,0.4408760070800781,2019-06-21 14:50:01:415,0.0,0.0,0.0
0.171959787607193,0.00028736997046507895,9.773080825805664,0.003425927876980761,0.0003866522392050501,-0.004907273262485858,0.4449930191040039,2019-06-21 14:50:01:419,0.0,0.0,0.0
0.18632829189300537,-0.009291628375649452,9.746739387512207,0.0006289259072567405,-0.00121163465636746,-0.005573226341533244,0.45087766647338867,2019-06-21 14:50:01:425,0.0,0.0,0.0
0.17435453832149506,-0.0356338769197464,9.799423217773438,0.0019608315452028634,0.007046180689009989,-0.003974939315923572,0.45499610900878906,2019-06-21 14:50:01:429,0.0,0.0,0.0
0.20548628270626068,-0.03802862390875816,9.741949081420898,-0.000702979860726545,0.004781940844427256,-0.000378793995941168,0.4601283073425293,2019-06-21 14:50:01:434,0.0,0.0,0.0
0.2294337898492813,-0.040423374623060226,9.746739387512207,-0.0012357421159049941,0.0005198428029996624,-0.000378793995941168,0.46588754653930664,2019-06-21 14:50:01:440,0.0,0.0,0.0
0.1575912982225418,0.00028736997046507895,9.749134063720703,0.002626784494213087,0.0014521767495619484,-0.0021102714227989997,0.46999692916870117,2019-06-21 14:50:01:444,0.0,0.0,0.0
0.1983020305633545,0.005076869390904903,9.765896797180176,0.0004957353109528376,-0.000146110064737335,-0.002776224241772061,0.47499513626098633,2019-06-21 14:50:01:449,0.0,0.0,0.0
0.23901277780532837,-0.05000237375497818,9.765896797180176,0.002493593930418475,0.0014521767495619484,-0.004640892134896633,0.4808793067932129,2019-06-21 14:50:01:455,0.0,0.0,0.0
0.17674928903579712,-0.02126537635922432,9.770686149597168,0.0004957353109528376,-0.0002793006447865926,2.0777729983790183e-05,0.4849967956542969,2019-06-21 14:50:01:459,0.0,0.0,0.0
0.16238079965114594,0.002682119607925415,9.761107444763184,0.001827640981408251,0.0035832260303500707,0.0009531117395328268,0.48999834060668945,2019-06-21 14:50:01:464,0.0,0.0,0.0
0.19351254403591156,-0.026054875925183296,9.787449836730957,0.0007621164710513528,0.005048322492165131,-0.0030426053693612854,0.49587583541870117,2019-06-21 14:50:01:470,0.0,0.0,0.0
0.19351254403591156,-0.030844375491142273,9.794633865356445,0.004091880695953822,0.004915131668296193,0.0013526834959352448,0.5008783340454102,2019-06-21 14:50:01:475,0.0,0.0,0.0
0.19590729475021362,-0.023660127073526382,9.787449836730957,0.0006289259072567405,0.0013189861857673363,-0.003974939315923572,0.5050015449523926,2019-06-21 14:50:01:479,0.0,0.0,0.0
0.19351254403591156,-0.030844375491142273,9.729975700378418,0.0019608315452028634,0.0011857956219727239,-0.003708558188334347,0.5099992752075195,2019-06-21 14:50:01:484,0.0,0.0,0.0
0.19351254403591156,0.012261118739843369,9.768291473388672,0.0008953070348459651,0.00198493913477756,0.002285017442497531,0.515876293182373,2019-06-21 14:50:01:490,0.0,0.0,0.0
0.21506528556346893,0.017050618305802345,9.765896797180176,0.0007621164710513528,-0.0036090649347076437,0.00015396830800121713,0.5208768844604492,2019-06-21 14:50:01:495,0.0,0.0,0.0
0.20548628270626068,-0.02126537635922432,9.780265808105469,-0.0027008383176457293,0.0035832260303500707,-0.0011779374762367137,0.524993896484375,2019-06-21 14:50:01:499,0.0,0.0,0.0
0.16238079965114594,0.021840117871761322,9.713212966918945,-0.001635313807288831,-0.0010784440275542662,2.0777729983790183e-05,0.5308837890625,2019-06-21 14:50:01:505,0.0,0.0,0.0
0.19590729475021362,-0.023660127073526382,9.741949081420898,0.001827640981408251,0.004249178849323132,-0.002243461986593612,0.5349936485290527,2019-06-21 14:50:01:509,0.0,0.0,0.0
0.14322279393672943,-0.02844962663948536,9.73476505279541,-0.00017021755678415983,0.0015853673133565606,-0.0030426053693612854,0.5408797264099121,2019-06-21 14:50:01:515,0.0,0.0,0.0
0.17914403975009918,-0.018870627507567406,9.809002876281738,0.0015612598538190267,0.0015853673133565606,0.001752255187319082,0.5449938774108887,2019-06-21 14:50:01:519,0.0,0.0,0.0
0.1839335411787033,-0.0356338769197464,9.70602798461914,0.004491452387337659,0.000786223930588887,0.001752255187319082,0.5500226020812988,2019-06-21 14:50:01:524,0.0,0.0,0.0
0.20309153199195862,-0.004502129275351763,9.744344711303711,-0.00416593477946079,0.0003866522392050501,-0.0015775091676205506,0.5558757781982422,2019-06-21 14:50:01:530,0.0,0.0,0.0
0.20548628270626068,-0.01168637815862894,9.775476455688477,0.004225071259748435,0.0018517485709829478,-0.003708558188334347,0.5599961280822754,2019-06-21 14:50:01:534,0.0,0.0,0.0
0.23422327637672424,-0.009291628375649452,9.720396995544434,0.0031595467493915367,-0.0010784440275542662,-0.004108129879718184,0.5649948120117188,2019-06-21 14:50:01:539,0.0,0.0,0.0
0.18632829189300537,-0.02844962663948536,9.703633308410645,-0.001635313807288831,0.0021181296985721726,0.0012194929321406327,0.5708765983581543,2019-06-21 14:50:01:545,0.0,0.0,0.0
0.19351254403591156,-0.033239126205444336,9.727581024169922,0.0020940221089974756,0.006380228130111254,0.0009531117395328268,0.5749936103820801,2019-06-21 14:50:01:549,0.0,0.0,0.0
0.19590729475021362,-0.026054875925183296,9.73476505279541,-0.0008361704245211573,0.0051815127958854176,-0.003708558188334347,0.5808792114257812,2019-06-21 14:50:01:555,0.0,0.0,0.0
0.20788103342056274,-0.026054875925183296,9.797028541564941,-0.0004365987006280297,-0.0025435404243507455,2.0777729983790183e-05,0.5849976539611816,2019-06-21 14:50:01:559,0.0,0.0,0.0
0.17914403975009918,-0.023660127073526382,9.72279167175293,0.0014280692900244143,-0.000146110064737335,-0.0017106997314151628,0.590878963470459,2019-06-21 14:50:01:565,0.0,0.0,0.0
0.18872304260730743,-0.02126537635922432,9.758712768554688,-0.00216807606246728,0.0013189861857673363,-0.00024560341589191043,0.5950160026550293,2019-06-21 14:50:01:569,0.0,0.0,0.0
0.18632829189300537,-0.02126537635922432,9.756318092346191,-0.001102551552110382,0.004249178849323132,-0.0038417487521289597,0.6000161170959473,2019-06-21 14:50:01:574,0.0,0.0,0.0
0.1983020305633545,-0.026054875925183296,9.765896797180176,0.0016944504176136389,0.0010526050581781115,-0.0011779374762367137,0.6058745384216309,2019-06-21 14:50:01:580,0.0,0.0,0.0
0.18632829189300537,-0.009291628375649452,9.782660484313965,-0.001102551552110382,-0.00041249120858120484,-0.005573226341533244,0.6099958419799805,2019-06-21 14:50:01:584,0.0,0.0,0.0
0.22703903913497925,-0.04281812533736229,9.727581024169922,-0.001102551552110382,0.0035832260303500707,0.0018854457511136942,0.614997386932373,2019-06-21 14:50:01:589,0.0,0.0,0.0
0.18632829189300537,-0.018870627507567406,9.753923416137695,0.0036923090045699854,-0.000146110064737335,0.00015396830800121713,0.6208763122558594,2019-06-21 14:50:01:595,0.0,0.0,0.0
0.17435453832149506,-0.040423374623060226,9.823370933532715,-0.00030340813683341745,-1.2919485703992724e-05,-0.0029094148055666736,0.6259341239929199,2019-06-21 14:50:01:600,0.0,0.0,0.0
0.18632829189300537,-0.033239126205444336,9.773080825805664,0.0015612598538190267,-0.0008120628999650418,-0.0007783657198342955,0.6299996376037598,2019-06-21 14:50:01:604,0.0,0.0,0.0
0.17674928903579712,-0.006896879058331251,9.775476455688477,0.006222929976741945,0.0009194144943834993,-0.0017106997314151628,0.6358799934387207,2019-06-21 14:50:01:610,0.0,0.0,0.0
0.18872304260730743,-0.04760762304067612,9.789844512939453,-0.0042991253432554015,0.0035832260303500707,-0.0030426053693612854,0.6399970054626465,2019-06-21 14:50:01:614,0.0,0.0,0.0
0.19351254403591156,-0.033239126205444336,9.732370376586914,0.006489311104331168,0.00198493913477756,-0.0025098431141828367,0.6450076103210449,2019-06-21 14:50:01:619,0.0,0.0,0.0
0.16238079965114594,-0.018870627507567406,9.737159729003906,0.001827640981408251,0.0014521767495619484,-0.00011241284396997543,0.6508803367614746,2019-06-21 14:50:01:625,0.0,0.0,0.0
0.20069678127765656,-0.026054875925183296,9.720396995544434,0.002360403366623863,0.003982797721733907,-0.002243461986593612,0.6549935340881348,2019-06-21 14:50:01:629,0.0,0.0,0.0
0.1983020305633545,-0.016475878655910492,9.758712768554688,0.0008953070348459651,-0.003209493243323807,-0.0030426053693612854,0.6599974632263184,2019-06-21 14:50:01:634,0.0,0.0,0.0
0.16238079965114594,-0.009291628375649452,9.727581024169922,0.0007621164710513528,0.0003866522392050501,0.00015396830800121713,0.6658792495727539,2019-06-21 14:50:01:640,0.0,0.0,0.0
0.21985478699207306,-0.016475878655910492,9.797028541564941,-0.001102551552110382,0.002917273211377009,-0.004907273262485858,0.6699957847595215,2019-06-21 14:50:01:644,0.0,0.0,0.0
0.20309153199195862,-0.014081127941608429,9.773080825805664,-0.0004365987006280297,0.0045155597168380305,-0.002776224241772061,0.6758761405944824,2019-06-21 14:50:01:650,0.0,0.0,0.0
0.16238079965114594,-0.04521287605166435,9.787449836730957,0.0008953070348459651,0.0010526050581781115,-0.0009115562836289078,0.6808791160583496,2019-06-21 14:50:01:655,0.0,0.0,0.0
0.19590729475021362,0.007471619173884392,9.777871131896973,0.0019608315452028634,0.0022513201323296223,0.0018854457511136942,0.6849942207336426,2019-06-21 14:50:01:659,0.0,0.0,0.0
0.20069678127765656,-0.004502129275351763,9.737159729003906,0.0019608315452028634,0.003450035466555458,-0.0009115562836289078,0.6900210380554199,2019-06-21 14:50:01:664,0.0,0.0,0.0
0.20788103342056274,-0.014081127941608429,9.761107444763184,-0.0004365987006280297,0.002917273211377009,-0.0013111280400313259,0.6958775520324707,2019-06-21 14:50:01:670,0.0,0.0,0.0
0.20309153199195862,-0.023660127073526382,9.777871131896973,0.005956548849152719,0.004249178849323132,-0.0007783657198342955,0.6999955177307129,2019-06-21 14:50:01:674,0.0,0.0,0.0
0.20788103342056274,-0.04281812533736229,9.775476455688477,0.0020940221089974756,0.0027840826475823964,-0.0007783657198342955,0.7049984931945801,2019-06-21 14:50:01:679,0.0,0.0,0.0
0.19351254403591156,0.00028736997046507895,9.727581024169922,-0.0012357421159049941,0.005447893923474643,0.004016494771827491,0.710878849029541,2019-06-21 14:50:01:685,0.0,0.0,0.0
0.17914403975009918,-0.033239126205444336,9.780265808105469,-0.002434457190056505,0.0037164165941446824,-0.002776224241772061,0.7149949073791504,2019-06-21 14:50:01:689,0.0,0.0,0.0
0.1647755354642868,-0.009291628375649452,9.756318092346191,-0.0015021232434942187,-0.0005456817723758172,0.0009531117395328268,0.7208795547485352,2019-06-21 14:50:01:695,0.0,0.0,0.0
0.18632829189300537,-0.03802862390875816,9.797028541564941,0.004358261823543047,0.0015853673133565606,-0.0015775091676205506,0.7249965667724609,2019-06-21 14:50:01:699,0.0,0.0,0.0
0.18872304260730743,-0.04281812533736229,9.818581581115723,-0.002567647753851117,0.0002534616591557925,-0.004374511007307408,0.7309260368347168,2019-06-21 14:50:01:705,0.0,0.0,0.0
0.19590729475021362,0.012261118739843369,9.777871131896973,0.0010284975986405774,0.0009194144943834993,-0.004907273262485858,0.7350101470947266,2019-06-21 14:50:01:709,0.0,0.0,0.0
0.17914403975009918,-0.026054875925183296,9.823370933532715,-0.000702979860726545,-0.00041249120858120484,-0.0033089864969505106,0.7408795356750488,2019-06-21 14:50:01:715,0.0,0.0,0.0
0.20548628270626068,-0.03802862390875816,9.777871131896973,0.004225071259748435,0.005048322492165131,-0.003708558188334347,0.7458748817443848,2019-06-21 14:50:01:720,0.0,0.0,0.0
0.1983020305633545,0.005076869390904903,9.801817893981934,9.616359518703274e-05,0.0030504637751716207,-0.0013111280400313259,0.7499938011169434,2019-06-21 14:50:01:724,0.0,0.0,0.0
0.17435453832149506,0.017050618305802345,9.830554962158203,0.0016944504176136389,-0.0014780157839566846,-0.0021102714227989997,0.7558789253234863,2019-06-21 14:50:01:730,0.0,0.0,0.0
0.21267053484916687,-0.016475878655910492,9.785055160522461,0.005423786593974271,0.0031836543389662333,-0.0007783657198342955,0.7599940299987793,2019-06-21 14:50:01:734,0.0,0.0,0.0
0.16238079965114594,0.007471619173884392,9.816186904907227,0.00036254474715822533,0.005447893923474643,2.0777729983790183e-05,0.7658791542053223,2019-06-21 14:50:01:740,0.0,0.0,0.0
0.17435453832149506,-0.014081127941608429,9.765896797180176,0.004757833514926884,0.004115988285528519,-0.00104474684742352,0.7699966430664062,2019-06-21 14:50:01:744,0.0,0.0,0.0
0.18153879046440125,-0.014081127941608429,9.744344711303711,0.006489311104331168,0.0037164165941446824,-0.000378793995941168,0.7759881019592285,2019-06-21 14:50:01:750,0.0,0.0,0.0
0.1911177933216095,-0.002107379725202918,9.73476505279541,-0.000702979860726545,0.0017185580071883357,-0.00024560341589191043,0.7800102233886719,2019-06-21 14:50:01:754,0.0,0.0,0.0
0.21506528556346893,0.012261118739843369,9.770686149597168,-0.0005697892969319327,0.0003866522392050501,-0.002243461986593612,0.7858772277832031,2019-06-21 14:50:01:760,0.0,0.0,0.0
0.1983020305633545,-0.02844962663948536,9.741949081420898,-0.0005697892969319327,-1.2919485703992724e-05,0.00028715888805047477,0.7899951934814453,2019-06-21 14:50:01:764,0.0,0.0,0.0
0.16717028617858887,-0.006896879058331251,9.818581581115723,-0.0012357421159049941,0.003849607157939295,-0.0011779374762367137,0.7958841323852539,2019-06-21 14:50:01:770,0.0,0.0,0.0
0.19351254403591156,-0.01168637815862894,9.718002319335938,-3.702698079856355e-05,0.005847465874932804,-0.007437894234657816,0.8000140190124512,2019-06-21 14:50:01:774,0.0,0.0,0.0
0.1647755354642868,0.012261118739843369,9.768291473388672,-0.000702979860726545,0.003849607157939295,-0.0017106997314151628,0.8058762550354004,2019-06-21 14:50:01:780,0.0,0.0,0.0
0.17914403975009918,-0.014081127941608429,9.785055160522461,0.002360403366623863,0.003849607157939295,-0.00104474684742352,0.8099932670593262,2019-06-21 14:50:01:784,0.0,0.0,0.0
0.20548628270626068,-0.006896879058331251,9.739554405212402,0.0015612598538190267,0.0005198428029996624,-0.0009115562836289078,0.8158793449401855,2019-06-21 14:50:01:790,0.0,0.0,0.0
0.18153879046440125,-0.02126537635922432,9.785055160522461,0.002626784494213087,-0.0018775874753405213,-0.0021102714227989997,0.8199987411499023,2019-06-21 14:50:01:794,0.0,0.0,0.0
0.17914403975009918,-0.018870627507567406,9.756318092346191,0.002360403366623863,-0.0010784440275542662,-0.0021102714227989997,0.8250107765197754,2019-06-21 14:50:01:799,0.0,0.0,0.0
0.17674928903579712,-0.014081127941608429,9.780265808105469,0.005556976897694558,0.0035832260303500707,0.00015396830800121713,0.8308806419372559,2019-06-21 14:50:01:805,0.0,0.0,0.0
0.1983020305633545,-0.04281812533736229,9.782660484313965,0.00036254474715822533,-0.00041249120858120484,-0.001843890295209775,0.8349943161010742,2019-06-21 14:50:01:809,0.0,0.0,0.0
0.16238079965114594,0.00028736997046507895,9.782660484313965,-0.00030340813683341745,0.003450035466555458,-0.0050404640863547946,0.8408722877502441,2019-06-21 14:50:01:815,0.0,0.0,0.0
0.17674928903579712,-0.004502129275351763,9.718002319335938,0.0010284975986405774,0.0017185580071883357,-0.002776224241772061,0.8449864387512207,2019-06-21 14:50:01:819,0.0,0.0,0.0
0.16956503689289093,-0.033239126205444336,9.70602798461914,9.616359518703274e-05,-0.0006788723361704295,-0.0011779374762367137,0.8508777618408203,2019-06-21 14:50:01:825,0.0,0.0,0.0
0.18153879046440125,-0.026054875925183296,9.756318092346191,0.001294878726229802,0.0035832260303500707,-0.002643033677977449,0.8549933433532715,2019-06-21 14:50:01:829,0.0,0.0,0.0
0.21267053484916687,-0.016475878655910492,9.746739387512207,0.003026356185596924,0.0027840826475823964,-0.005173654390075082,0.860877513885498,2019-06-21 14:50:01:835,0.0,0.0,0.0
0.17674928903579712,-0.004502129275351763,9.823370933532715,-0.0009693609883157694,0.004915131668296193,-0.00104474684742352,0.8649935722351074,2019-06-21 14:50:01:839,0.0,0.0,0.0
0.1647755354642868,-0.030844375491142273,9.775476455688477,0.0022272128028292507,-0.00121163465636746,-0.004241320443512797,0.8709006309509277,2019-06-21 14:50:01:845,0.0,0.0,0.0
0.1575912982225418,-0.040423374623060226,9.840134620666504,-0.0012357421159049941,0.005447893923474643,-0.0025098431141828367,0.8750090599060059,2019-06-21 14:50:01:849,0.0,0.0,0.0
0.18632829189300537,0.0266296174377203,9.756318092346191,-0.002034885498672668,0.0026508918237134593,-0.0006451751560396832,0.8799939155578613,2019-06-21 14:50:01:854,0.0,0.0,0.0
0.17914403975009918,-0.03802862390875816,9.746739387512207,0.0035591184407753737,0.0009194144943834993,-0.0029094148055666736,0.8858771324157715,2019-06-21 14:50:01:860,0.0,0.0,0.0
0.18872304260730743,0.00028736997046507895,9.739554405212402,-0.00030340813683341745,-0.0014780157839566846,-0.00477408295876557,0.8899941444396973,2019-06-21 14:50:01:864,0.0,0.0,0.0
0.16956503689289093,0.002682119607925415,9.7515287399292,0.0035591184407753737,-0.002410349860556133,0.00015396830800121713,0.8949947357177734,2019-06-21 14:50:01:869,0.0,0.0,0.0
0.17435453832149506,-0.03802862390875816,9.753923416137695,-0.001102551552110382,0.002917273211377009,-0.00104474684742352,0.9008984565734863,2019-06-21 14:50:01:875,0.0,0.0,0.0
0.17674928903579712,-0.014081127941608429,9.825765609741211,-0.002834028881440342,0.004382369413117744,-0.0017106997314151628,0.9058761596679688,2019-06-21 14:50:01:880,0.0,0.0,0.0
0.217460036277771,-0.030844375491142273,9.773080825805664,0.0016944504176136389,0.0023845106961242345,-0.0014443186038259382,0.9108786582946777,2019-06-21 14:50:01:885,0.0,0.0,0.0
0.14082804322242737,-0.014081127941608429,9.773080825805664,0.001827640981408251,0.00558108474734358,-0.0034421770607451223,0.9150137901306152,2019-06-21 14:50:01:889,0.0,0.0,0.0
0.18153879046440125,-0.016475878655910492,9.720396995544434,0.00742164479081913,0.0003866522392050501,-0.0011779374762367137,0.9200015068054199,2019-06-21 14:50:01:894,0.0,0.0,0.0
0.17435453832149506,-0.03802862390875816,9.729975700378418,0.004225071259748435,-0.0016112063477512967,0.002684589133881368,0.9258761405944824,2019-06-21 14:50:01:900,0.0,0.0,0.0
0.171959787607193,-0.006896879058331251,9.80421257019043,0.0015612598538190267,0.0022513201323296223,0.0006867306119436022,0.929995059967041,2019-06-21 14:50:01:904,0.0,0.0,0.0
0.20069678127765656,-0.016475878655910492,9.761107444763184,0.003026356185596924,0.000786223930588887,0.0014858740597298572,0.935882568359375,2019-06-21 14:50:01:910,0.0,0.0,0.0
0.15040704607963562,-0.004502129275351763,9.765896797180176,-0.0019016949348780556,0.0015853673133565606,-0.003974939315923572,0.939995288848877,2019-06-21 14:50:01:914,0.0,0.0,0.0
0.16238079965114594,-0.02844962663948536,9.76350212097168,-0.0015021232434942187,0.0025177012599188467,0.000420349451845087,0.9449944496154785,2019-06-21 14:50:01:919,0.0,0.0,0.0
0.20069678127765656,-0.026054875925183296,9.768291473388672,-0.0004365987006280297,0.0023845106961242345,-0.00104474684742352,0.9499959945678711,2019-06-21 14:50:01:924,0.0,0.0,0.0
0.18153879046440125,-0.0356338769197464,9.785055160522461,-0.003100410009029566,0.004249178849323132,0.0010863023033274393,0.9558782577514648,2019-06-21 14:50:01:930,0.0,0.0,0.0
0.1120910495519638,-0.023660127073526382,9.720396995544434,0.0006289259072567405,0.0045155597168380305,-0.0033089864969505106,0.9599990844726562,2019-06-21 14:50:01:934,0.0,0.0,0.0
0.1839335411787033,-0.01168637815862894,9.801817893981934,-0.000702979860726545,0.004382369413117744,-0.004374511007307408,0.9650254249572754,2019-06-21 14:50:01:939,0.0,0.0,0.0
0.15519654750823975,-0.009291628375649452,9.756318092346191,-0.0004365987006280297,-0.0013448252201620722,-0.004507701831176346,0.9708762168884277,2019-06-21 14:50:01:945,0.0,0.0,0.0
0.1575912982225418,-0.016475878655910492,9.777871131896973,-0.000702979860726545,0.0023845106961242345,-0.0033089864969505106,0.9749941825866699,2019-06-21 14:50:01:949,0.0,0.0,0.0
0.1911177933216095,-0.014081127941608429,9.811397552490234,0.004358261823543047,0.003982797721733907,-0.0006451751560396832,0.9799985885620117,2019-06-21 14:50:01:954,0.0,0.0,0.0
0.1575912982225418,0.002682119607925415,9.73476505279541,0.0020940221089974756,0.0021181296985721726,-0.002376652550388224,0.985877513885498,2019-06-21 14:50:01:960,0.0,0.0,0.0
0.18153879046440125,-0.006896879058331251,9.816186904907227,0.0032927373131861493,0.004648750540706968,0.0008199211757382146,0.9899954795837402,2019-06-21 14:50:01:964,0.0,0.0,0.0
0.15998604893684387,0.024234866723418236,9.835344314575195,-0.001102551552110382,0.0031836543389662333,0.00015396830800121713,0.9950766563415527,2019-06-21 14:50:01:969,0.0,0.0,0.0
0.18153879046440125,-0.05718662217259407,9.737159729003906,0.003425927876980761,-0.0002793006447865926,-0.0061059885967116945,1.0000252723693848,2019-06-21 14:50:01:974,0.0,0.0,0.0
0.16956503689289093,-0.023660127073526382,9.756318092346191,0.0006289259072567405,0.0045155597168380305,-0.00477408295876557,1.0049920082092285,2019-06-21 14:50:01:979,0.0,0.0,0.0
0.1384332925081253,-0.05000237375497818,9.794633865356445,-0.00017021755678415983,0.0030504637751716207,-0.0029094148055666736,1.0108904838562012,2019-06-21 14:50:01:985,0.0,0.0,0.0
0.171959787607193,-0.040423374623060226,9.725186347961426,0.0022272128028292507,0.0021181296985721726,-0.003974939315923572,1.0149950981140137,2019-06-21 14:50:01:989,0.0,0.0,0.0
0.1575912982225418,-0.023660127073526382,9.756318092346191,0.00036254474715822533,0.005714275051063867,-0.00104474684742352,1.0208735466003418,2019-06-21 14:50:01:995,0.0,0.0,0.0
0.16717028617858887,-0.023660127073526382,9.703633308410645,0.001294878726229802,0.0011857956219727239,-0.002243461986593612,1.024991512298584,2019-06-21 14:50:01:999,0.0,0.0,0.0
0.15998604893684387,-0.02844962663948536,9.746739387512207,0.004225071259748435,0.004382369413117744,-0.0011779374762367137,1.0299944877624512,2019-06-21 14:50:02:004,0.0,0.0,0.0
0.2102757841348648,-0.006896879058331251,9.782660484313965,-3.702698079856355e-05,0.005447893923474643,-0.00011241284396997543,1.0349926948547363,2019-06-21 14:50:02:009,0.0,0.0,0.0
0.19590729475021362,-0.01168637815862894,9.76350212097168,0.0004957353109528376,-0.0025435404243507455,-0.004907273262485858,1.0408763885498047,2019-06-21 14:50:02:015,0.0,0.0,0.0
0.17674928903579712,-0.026054875925183296,9.773080825805664,0.0036923090045699854,0.0023845106961242345,-0.007437894234657816,1.0449929237365723,2019-06-21 14:50:02:019,0.0,0.0,0.0
0.17435453832149506,-0.02126537635922432,9.691659927368164,0.0004957353109528376,-1.2919485703992724e-05,-0.005839607469122469,1.050879955291748,2019-06-21 14:50:02:025,0.0,0.0,0.0
0.17435453832149506,-0.040423374623060226,9.710817337036133,-0.0013689326796996063,0.0027840826475823964,-0.0013111280400313259,1.054997444152832,2019-06-21 14:50:02:029,0.0,0.0,0.0
0.21506528556346893,-0.0356338769197464,9.739554405212402,-0.0023012666262618923,0.0018517485709829478,0.000420349451845087,1.0600199699401855,2019-06-21 14:50:02:034,0.0,0.0,0.0
0.15040704607963562,-0.030844375491142273,9.761107444763184,0.003425927876980761,0.004382369413117744,-0.0021102714227989997,1.0658745765686035,2019-06-21 14:50:02:040,0.0,0.0,0.0
0.1839335411787033,-0.05958137288689613,9.708422660827637,0.0007621164710513528,0.003849607157939295,-0.002243461986593612,1.0708765983581543,2019-06-21 14:50:02:045,0.0,0.0,0.0
0.19351254403591156,-0.04760762304067612,9.789844512939453,-0.000702979860726545,0.003450035466555458,-0.003708558188334347,1.0749974250793457,2019-06-21 14:50:02:049,0.0,0.0,0.0
0.21985478699207306,-0.02844962663948536,9.835344314575195,0.001294878726229802,0.0002534616591557925,-0.004507701831176346,1.079996109008789,2019-06-21 14:50:02:054,0.0,0.0,0.0
0.17435453832149506,-0.009291628375649452,9.744344711303711,0.0016944504176136389,0.004115988285528519,-0.002776224241772061,1.0858769416809082,2019-06-21 14:50:02:060,0.0,0.0,0.0
0.18872304260730743,-0.014081127941608429,9.777871131896973,0.004491452387337659,0.0017185580071883357,-0.0014443186038259382,1.0899925231933594,2019-06-21 14:50:02:064,0.0,0.0,0.0
0.21267053484916687,-0.04521287605166435,9.720396995544434,0.002360403366623863,0.0037164165941446824,-0.006505560028021206,1.095874309539795,2019-06-21 14:50:02:070,0.0,0.0,0.0
0.17435453832149506,-0.016475878655910492,9.720396995544434,0.001827640981408251,0.0031836543389662333,-0.000378793995941168,1.0999932289123535,2019-06-21 14:50:02:074,0.0,0.0,0.0
0.18632829189300537,-0.009291628375649452,9.732370376586914,0.003825499568364598,0.0014521767495619484,-0.003575367624539735,1.1050209999084473,2019-06-21 14:50:02:079,0.0,0.0,0.0
0.20069678127765656,-0.009291628375649452,9.773080825805664,0.001294878726229802,0.0035832260303500707,-0.003708558188334347,1.1108832359313965,2019-06-21 14:50:02:085,0.0,0.0,0.0
0.2102757841348648,-0.026054875925183296,9.820976257324219,-0.003366791396693116,0.002917273211377009,-0.007970656489836267,1.114992618560791,2019-06-21 14:50:02:089,0.0,0.0,0.0
0.171959787607193,-0.023660127073526382,9.753923416137695,0.0014280692900244143,0.0005198428029996624,-0.00477408295876557,1.1208782196044922,2019-06-21 14:50:02:095,0.0,0.0,0.0
0.17435453832149506,-0.01168637815862894,9.780265808105469,0.0016944504176136389,0.00558108474734358,-0.0033089864969505106,1.1249942779541016,2019-06-21 14:50:02:099,0.0,0.0,0.0
0.18153879046440125,0.014655868522822857,9.725186347961426,0.00036254474715822533,0.0014521767495619484,-0.0033089864969505106,1.1308836936950684,2019-06-21 14:50:02:105,0.0,0.0,0.0
0.22703903913497925,-0.018870627507567406,9.765896797180176,0.0010284975986405774,0.000786223930588887,-0.005706416645253532,1.134995937347412,2019-06-21 14:50:02:109,0.0,0.0,0.0
0.15040704607963562,-0.040423374623060226,9.768291473388672,0.0016944504176136389,0.0033168449027608455,-0.004640892134896633,1.1408791542053223,2019-06-21 14:50:02:115,0.0,0.0,0.0
0.20309153199195862,-0.023660127073526382,9.811397552490234,-0.0032336005728241784,0.0022513201323296223,-0.005839607469122469,1.1449971199035645,2019-06-21 14:50:02:119,0.0,0.0,0.0
0.1983020305633545,-0.02844962663948536,9.780265808105469,0.004624643211206597,0.0022513201323296223,-0.0006451751560396832,1.1510272026062012,2019-06-21 14:50:02:125,0.0,0.0,0.0
0.1983020305633545,-0.014081127941608429,9.787449836730957,0.003026356185596924,0.0021181296985721726,0.0006867306119436022,1.1550002098083496,2019-06-21 14:50:02:129,0.0,0.0,0.0
0.21267053484916687,-0.04521287605166435,9.782660484313965,-0.002434457190056505,0.0015853673133565606,-0.002776224241772061,1.160876750946045,2019-06-21 14:50:02:135,0.0,0.0,0.0
0.18872304260730743,-0.040423374623060226,9.753923416137695,-0.0005697892969319327,0.00198493913477756,-0.003175795933155898,1.1649928092956543,2019-06-21 14:50:02:139,0.0,0.0,0.0
0.16717028617858887,-0.018870627507567406,9.765896797180176,0.0027599750580077,-0.000945253463759654,-0.002243461986593612,1.1708807945251465,2019-06-21 14:50:02:145,0.0,0.0,0.0
0.17674928903579712,-0.061976123601198196,9.720396995544434,-0.000702979860726545,-0.0030763026795291946,-0.0034421770607451223,1.1749939918518066,2019-06-21 14:50:02:149,0.0,0.0,0.0
0.19590729475021362,-0.018870627507567406,9.718002319335938,0.005956548849152719,0.0022513201323296223,0.0008199211757382146,1.1808772087097168,2019-06-21 14:50:02:155,0.0,0.0,0.0
0.17435453832149506,-0.07634461671113968,9.753923416137695,0.0002293541671089677,0.0022513201323296223,-0.0017106997314151628,1.1858763694763184,2019-06-21 14:50:02:160,0.0,0.0,0.0
0.18872304260730743,-0.006896879058331251,9.770686149597168,0.0006289259072567405,-0.0022771592967615207,0.0036169230804436537,1.1899943351745605,2019-06-21 14:50:02:164,0.0,0.0,0.0
0.18872304260730743,0.002682119607925415,9.739554405212402,0.0014280692900244143,0.004249178849323132,-0.0015775091676205506,1.1958999633789062,2019-06-21 14:50:02:170,0.0,0.0,0.0
0.18153879046440125,-0.02844962663948536,9.797028541564941,-0.002034885498672668,0.0005198428029996624,-0.0050404640863547946,1.1999964714050293,2019-06-21 14:50:02:174,0.0,0.0,0.0
0.18632829189300537,0.005076869390904903,9.7515287399292,0.0006289259072567405,0.0027840826475823964,0.00015396830800121713,1.205878734588623,2019-06-21 14:50:02:180,0.0,0.0,0.0
0.2102757841348648,-0.0356338769197464,9.749134063720703,0.0031595467493915367,0.0037164165941446824,0.00028715888805047477,1.2108769416809082,2019-06-21 14:50:02:185,0.0,0.0,0.0
0.1983020305633545,-0.033239126205444336,9.729975700378418,-0.002034885498672668,0.0003866522392050501,0.0034837325166490415,1.2149944305419922,2019-06-21 14:50:02:189,0.0,0.0,0.0
0.1647755354642868,-0.01168637815862894,9.73476505279541,-3.702698079856355e-05,0.0022513201323296223,-0.001977080859004387,1.2208781242370605,2019-06-21 14:50:02:195,0.0,0.0,0.0
0.18872304260730743,-0.026054875925183296,9.753923416137695,0.003026356185596924,0.0035832260303500707,0.002684589133881368,1.225874423980713,2019-06-21 14:50:02:200,0.0,0.0,0.0
0.17435453832149506,0.005076869390904903,9.797028541564941,-0.00017021755678415983,0.006113847002522029,-0.0017106997314151628,1.2299962043762207,2019-06-21 14:50:02:204,0.0,0.0,0.0
0.18872304260730743,-0.05000237375497818,9.775476455688477,-0.002567647753851117,0.0027840826475823964,0.0024182080062921433,1.2358813285827637,2019-06-21 14:50:02:210,0.0,0.0,0.0
0.15519654750823975,-0.002107379725202918,9.76350212097168,-0.0004365987006280297,0.0026508918237134593,-0.0007783657198342955,1.2400221824645996,2019-06-21 14:50:02:214,0.0,0.0,0.0
0.217460036277771,-0.040423374623060226,9.794633865356445,0.0014280692900244143,0.00012027108723385756,-0.0006451751560396832,1.2458853721618652,2019-06-21 14:50:02:220,0.0,0.0,0.0
0.18153879046440125,-0.016475878655910492,9.785055160522461,0.002626784494213087,-0.0017443969115459091,-0.004108129879718184,1.2499961853027344,2019-06-21 14:50:02:224,0.0,0.0,0.0
0.17435453832149506,-0.04281812533736229,9.81379222869873,-0.000702979860726545,0.003450035466555458,-0.0006451751560396832,1.2558741569519043,2019-06-21 14:50:02:230,0.0,0.0,0.0
0.17435453832149506,-0.02126537635922432,9.789844512939453,-0.0004365987006280297,-0.000945253463759654,0.0008199211757382146,1.2599940299987793,2019-06-21 14:50:02:234,0.0,0.0,0.0
0.21267053484916687,0.014655868522822857,9.741949081420898,0.002626784494213087,0.002917273211377009,0.000420349451845087,1.265876293182373,2019-06-21 14:50:02:240,0.0,0.0,0.0
0.18153879046440125,-0.06437087059020996,9.765896797180176,0.0010284975986405774,-0.0005456817723758172,-0.0015775091676205506,1.2699966430664062,2019-06-21 14:50:02:244,0.0,0.0,0.0
0.19351254403591156,-0.018870627507567406,9.732370376586914,0.0010284975986405774,-0.000146110064737335,-0.00104474684742352,1.275881290435791,2019-06-21 14:50:02:250,0.0,0.0,0.0
0.13364379107952118,-0.04760762304067612,9.725186347961426,0.002626784494213087,0.00012027108723385756,0.0037501136442382663,1.2799973487854004,2019-06-21 14:50:02:254,0.0,0.0,0.0
0.18153879046440125,-0.023660127073526382,9.744344711303711,0.0008953070348459651,0.005314703619754355,-0.0013111280400313259,1.2850298881530762,2019-06-21 14:50:02:259,0.0,0.0,0.0
0.1839335411787033,-0.04281812533736229,9.777871131896973,0.0008953070348459651,-0.0017443969115459091,0.0038833042080328784,1.2900090217590332,2019-06-21 14:50:02:264,0.0,0.0,0.0
0.16238079965114594,-0.023660127073526382,9.785055160522461,-0.0023012666262618923,0.0010526050581781115,0.0009531117395328268,1.2958741188049316,2019-06-21 14:50:02:270,0.0,0.0,0.0
0.22703903913497925,-0.01168637815862894,9.780265808105469,9.616359518703274e-05,0.004249178849323132,-0.003708558188334347,1.2999939918518066,2019-06-21 14:50:02:274,0.0,0.0,0.0
0.1575912982225418,-0.0356338769197464,9.741949081420898,0.004624643211206597,0.0005198428029996624,0.0010863023033274393,1.3049979209899902,2019-06-21 14:50:02:279,0.0,0.0,0.0
0.1839335411787033,-0.016475878655910492,9.753923416137695,0.0035591184407753737,0.0003866522392050501,0.0013526834959352448,1.3108835220336914,2019-06-21 14:50:02:285,0.0,0.0,0.0
0.20788103342056274,-0.033239126205444336,9.758712768554688,0.002493593930418475,0.0005198428029996624,-0.0029094148055666736,1.31587553024292,2019-06-21 14:50:02:290,0.0,0.0,0.0
0.1839335411787033,-0.014081127941608429,9.727581024169922,0.0019608315452028634,-0.000146110064737335,0.00028715888805047477,1.3199944496154785,2019-06-21 14:50:02:294,0.0,0.0,0.0
0.20309153199195862,0.007471619173884392,9.73476505279541,-0.0008361704245211573,-0.0028099215519399702,-0.00104474684742352,1.3258910179138184,2019-06-21 14:50:02:300,0.0,0.0,0.0
0.16956503689289093,0.014655868522822857,9.729975700378418,-0.0027008383176457293,-0.0016112063477512967,-0.0017106997314151628,1.3300061225891113,2019-06-21 14:50:02:304,0.0,0.0,0.0
0.20548628270626068,-0.03802862390875816,9.799423217773438,-0.00216807606246728,0.0015853673133565606,-0.000378793995941168,1.335881233215332,2019-06-21 14:50:02:310,0.0,0.0,0.0
0.217460036277771,-0.016475878655910492,9.73476505279541,0.00036254474715822533,0.0022513201323296223,-0.000378793995941168,1.3399920463562012,2019-06-21 14:50:02:314,0.0,0.0,0.0
0.15280179679393768,-0.026054875925183296,9.799423217773438,-0.001635313807288831,0.007179371512878927,-0.001977080859004387,1.3458714485168457,2019-06-21 14:50:02:320,0.0,0.0,0.0
0.1911177933216095,-0.023660127073526382,9.727581024169922,0.0011616881624351898,0.0003866522392050501,-0.004374511007307408,1.3499951362609863,2019-06-21 14:50:02:324,0.0,0.0,0.0
0.171959787607193,-0.033239126205444336,9.789844512939453,0.0020940221089974756,0.004915131668296193,-0.0015775091676205506,1.3558812141418457,2019-06-21 14:50:02:330,0.0,0.0,0.0
0.20309153199195862,-0.02126537635922432,9.844923973083496,0.003958690132159211,0.0018517485709829478,-0.00104474684742352,1.3599963188171387,2019-06-21 14:50:02:334,0.0,0.0,0.0
0.17674928903579712,0.002682119607925415,9.725186347961426,-0.0004365987006280297,-0.00121163465636746,-0.005440035517664307,1.3658738136291504,2019-06-21 14:50:02:340,0.0,0.0,0.0
0.19351254403591156,-0.016475878655910492,9.746739387512207,0.0010284975986405774,-0.000146110064737335,-0.002376652550388224,1.3709020614624023,2019-06-21 14:50:02:345,0.0,0.0,0.0
0.1647755354642868,-0.02844962663948536,9.785055160522461,-0.0013689326796996063,-0.003209493243323807,-0.00011241284396997543,1.375004768371582,2019-06-21 14:50:02:349,0.0,0.0,0.0
0.21985478699207306,-0.023660127073526382,9.794633865356445,0.003425927876980761,0.0013189861857673363,-0.003175795933155898,1.3808937072753906,2019-06-21 14:50:02:355,0.0,0.0,0.0
0.22224953770637512,0.005076869390904903,9.7515287399292,0.001294878726229802,-0.002410349860556133,-0.0011779374762367137,1.3849873542785645,2019-06-21 14:50:02:359,0.0,0.0,0.0
0.1839335411787033,-0.05958137288689613,9.773080825805664,-0.003100410009029566,0.004115988285528519,0.00015396830800121713,1.390881061553955,2019-06-21 14:50:02:365,0.0,0.0,0.0
0.217460036277771,-0.01168637815862894,9.70602798461914,0.003026356185596924,0.002917273211377009,0.00015396830800121713,1.3958783149719238,2019-06-21 14:50:02:370,0.0,0.0,0.0
0.20309153199195862,-0.05958137288689613,9.749134063720703,-0.001102551552110382,-1.2919485703992724e-05,-0.002643033677977449,1.3999972343444824,2019-06-21 14:50:02:374,0.0,0.0,0.0
0.2557760179042816,0.00986636895686388,9.73476505279541,0.0014280692900244143,0.0017185580071883357,-0.002243461986593612,1.4049973487854004,2019-06-21 14:50:02:379,0.0,0.0,0.0
0.21267053484916687,-0.033239126205444336,9.744344711303711,0.0019608315452028634,0.0018517485709829478,-0.001977080859004387,1.4108819961547852,2019-06-21 14:50:02:385,0.0,0.0,0.0
0.17435453832149506,-0.018870627507567406,9.720396995544434,-0.0015021232434942187,0.0009194144943834993,-0.004640892134896633,1.414994716644287,2019-06-21 14:50:02:389,0.0,0.0,0.0
0.1839335411787033,-0.03802862390875816,9.765896797180176,0.0002293541671089677,-0.0036090649347076437,-0.003974939315923572,1.4208941459655762,2019-06-21 14:50:02:395,0.0,0.0,0.0
0.23182854056358337,0.005076869390904903,9.710817337036133,0.002360403366623863,0.006912990385289703,-0.005573226341533244,1.4250149726867676,2019-06-21 14:50:02:399,0.0,0.0,0.0
0.20548628270626068,0.017050618305802345,9.787449836730957,0.0008953070348459651,0.005447893923474643,-0.0029094148055666736,1.4308772087097168,2019-06-21 14:50:02:405,0.0,0.0,0.0
0.17914403975009918,-0.030844375491142273,9.727581024169922,-0.0005697892969319327,0.0017185580071883357,-0.0025098431141828367,1.4349961280822754,2019-06-21 14:50:02:409,0.0,0.0,0.0
0.19351254403591156,-0.05479187145829201,9.785055160522461,0.005157405466385046,0.0025177012599188467,-0.0017106997314151628,1.4408783912658691,2019-06-21 14:50:02:415,0.0,0.0,0.0
0.19590729475021362,0.00986636895686388,9.809002876281738,0.001294878726229802,-1.2919485703992724e-05,-0.0050404640863547946,1.444993495941162,2019-06-21 14:50:02:419,0.0,0.0,0.0
0.1911177933216095,-0.023660127073526382,9.744344711303711,0.0002293541671089677,0.0026508918237134593,-0.008503418745014715,1.4499974250793457,2019-06-21 14:50:02:424,0.0,0.0,0.0
0.18872304260730743,-0.02126537635922432,9.76350212097168,0.0006289259072567405,0.0033168449027608455,-0.009568943775520262,1.4558777809143066,2019-06-21 14:50:02:430,0.0,0.0,0.0
0.19351254403591156,-0.014081127941608429,9.737159729003906,-0.0004365987006280297,0.0023845106961242345,-0.003175795933155898,1.4599947929382324,2019-06-21 14:50:02:434,0.0,0.0,0.0
0.15280179679393768,-0.033239126205444336,9.789844512939453,0.0011616881624351898,-0.0034758743709130315,-0.0034421770607451223,1.465890884399414,2019-06-21 14:50:02:440,0.0,0.0,0.0
0.20788103342056274,-0.06437087059020996,9.801817893981934,0.004091880695953822,0.004781940844427256,-0.004374511007307408,1.4700255393981934,2019-06-21 14:50:02:444,0.0,0.0,0.0
0.18632829189300537,-0.02126537635922432,9.761107444763184,-0.001635313807288831,0.0014521767495619484,-0.0005119845597357803,1.4758858680725098,2019-06-21 14:50:02:450,0.0,0.0,0.0
0.17914403975009918,-0.006896879058331251,9.739554405212402,-0.003100410009029566,-0.0005456817723758172,0.0024182080062921433,1.4799933433532715,2019-06-21 14:50:02:454,0.0,0.0,0.0
0.21506528556346893,-0.03802862390875816,9.809002876281738,0.002626784494213087,0.003849607157939295,-0.003974939315923572,1.4849934577941895,2019-06-21 14:50:02:459,0.0,0.0,0.0
0.17914403975009918,-0.014081127941608429,9.758712768554688,0.0036923090045699854,0.005048322492165131,-0.003575367624539735,1.4908814430236816,2019-06-21 14:50:02:465,0.0,0.0,0.0
0.217460036277771,0.005076869390904903,9.756318092346191,0.0007621164710513528,0.0031836543389662333,0.0005535400481489899,1.4949941635131836,2019-06-21 14:50:02:469,0.0,0.0,0.0
0.2366180270910263,-0.04760762304067612,9.768291473388672,0.0007621164710513528,0.00012027108723385756,-0.001977080859004387,1.5008840560913086,2019-06-21 14:50:02:475,0.0,0.0,0.0
0.1647755354642868,-0.016475878655910492,9.741949081420898,0.002626784494213087,0.003982797721733907,0.0016190646235244696,1.5058817863464355,2019-06-21 14:50:02:480,0.0,0.0,0.0
0.21506528556346893,-0.033239126205444336,9.749134063720703,0.0014280692900244143,0.0014521767495619484,-0.0006451751560396832,1.5100054740905762,2019-06-21 14:50:02:484,0.0,0.0,0.0
0.21267053484916687,-0.05958137288689613,9.761107444763184,-0.002434457190056505,0.0015853673133565606,0.0010863023033274393,1.514997959136963,2019-06-21 14:50:02:489,0.0,0.0,0.0
0.15998604893684387,-0.02844962663948536,9.76350212097168,0.0020940221089974756,0.0027840826475823964,-0.0029094148055666736,1.5201048851013184,2019-06-21 14:50:02:494,0.0,0.0,0.0
0.16956503689289093,-0.030844375491142273,9.761107444763184,-0.0005697892969319327,-1.2919485703992724e-05,-0.0005119845597357803,1.5258851051330566,2019-06-21 14:50:02:500,0.0,0.0,0.0
0.1456175446510315,-0.02126537635922432,9.797028541564941,0.0006289259072567405,0.004115988285528519,-0.004640892134896633,1.5299973487854004,2019-06-21 14:50:02:504,0.0,0.0,0.0
0.1911177933216095,-0.023660127073526382,9.73476505279541,-0.0004365987006280297,-0.000945253463759654,-0.0014443186038259382,1.5358729362487793,2019-06-21 14:50:02:510,0.0,0.0,0.0
0.19351254403591156,-0.023660127073526382,9.809002876281738,-0.000702979860726545,0.0021181296985721726,-0.0021102714227989997,1.539994239807129,2019-06-21 14:50:02:514,0.0,0.0,0.0
0.17435453832149506,0.024234866723418236,9.715607643127441,0.0007621164710513528,0.003450035466555458,-0.0006451751560396832,1.545881748199463,2019-06-21 14:50:02:520,0.0,0.0,0.0
0.15998604893684387,-0.04760762304067612,9.744344711303711,0.002626784494213087,0.0026508918237134593,0.002285017442497531,1.549997329711914,2019-06-21 14:50:02:524,0.0,0.0,0.0
0.16956503689289093,-0.023660127073526382,9.775476455688477,0.0011616881624351898,-0.0008120628999650418,0.0012194929321406327,1.5558810234069824,2019-06-21 14:50:02:530,0.0,0.0,0.0
0.17435453832149506,-0.033239126205444336,9.727581024169922,-0.0013689326796996063,-0.0010784440275542662,-0.00011241284396997543,1.5599961280822754,2019-06-21 14:50:02:534,0.0,0.0,0.0
0.18153879046440125,-0.033239126205444336,9.713212966918945,-0.002834028881440342,0.0023845106961242345,0.0013526834959352448,1.5658917427062988,2019-06-21 14:50:02:540,0.0,0.0,0.0
0.15519654750823975,-0.018870627507567406,9.773080825805664,0.0002293541671089677,-0.003342683807118419,0.0009531117395328268,1.5700068473815918,2019-06-21 14:50:02:544,0.0,0.0,0.0
0.20309153199195862,-0.014081127941608429,9.7515287399292,0.001827640981408251,0.00198493913477756,-0.000378793995941168,1.5758757591247559,2019-06-21 14:50:02:550,0.0,0.0,0.0
0.21267053484916687,-0.018870627507567406,9.756318092346191,0.0006289259072567405,-1.2919485703992724e-05,-0.00104474684742352,1.5808777809143066,2019-06-21 14:50:02:555,0.0,0.0,0.0
0.20069678127765656,-0.01168637815862894,9.758712768554688,0.0002293541671089677,0.0027840826475823964,-0.001977080859004387,1.584993839263916,2019-06-21 14:50:02:559,0.0,0.0,0.0
0.18153879046440125,0.007471619173884392,9.777871131896973,0.0015612598538190267,0.0025177012599188467,-0.001977080859004387,1.5908708572387695,2019-06-21 14:50:02:565,0.0,0.0,0.0
0.20309153199195862,-0.018870627507567406,9.756318092346191,0.0011616881624351898,0.0013189861857673363,0.00015396830800121713,1.5949840545654297,2019-06-21 14:50:02:569,0.0,0.0,0.0
0.16238079965114594,-0.023660127073526382,9.737159729003906,-0.002567647753851117,0.0002534616591557925,0.0016190646235244696,1.600015640258789,2019-06-21 14:50:02:574,0.0,0.0,0.0
0.17435453832149506,-0.014081127941608429,9.753923416137695,0.001827640981408251,-0.0006788723361704295,-0.0011779374762367137,1.6058754920959473,2019-06-21 14:50:02:580,0.0,0.0,0.0
0.20548628270626068,0.005076869390904903,9.785055160522461,0.002493593930418475,0.004648750540706968,0.00028715888805047477,1.6110305786132812,2019-06-21 14:50:02:585,0.0,0.0,0.0
0.1911177933216095,0.021840117871761322,9.777871131896973,0.005024214642516109,0.006646609257700478,-0.001977080859004387,1.6149969100952148,2019-06-21 14:50:02:589,0.0,0.0,0.0
0.18153879046440125,-0.004502129275351763,9.777871131896973,-0.0005697892969319327,0.0035832260303500707,0.0024182080062921433,1.620877742767334,2019-06-21 14:50:02:595,0.0,0.0,0.0
0.171959787607193,-0.004502129275351763,9.818581581115723,-0.0009693609883157694,0.0005198428029996624,-0.0005119845597357803,1.6249942779541016,2019-06-21 14:50:02:599,0.0,0.0,0.0
0.1647755354642868,-0.0356338769197464,9.756318092346191,-0.00030340813683341745,-0.0038754460622968685,0.0008199211757382146,1.6308798789978027,2019-06-21 14:50:02:605,0.0,0.0,0.0
0.1575912982225418,-0.004502129275351763,9.765896797180176,0.0007621164710513528,0.0015853673133565606,-0.0006451751560396832,1.6349940299987793,2019-06-21 14:50:02:609,0.0,0.0,0.0
0.16717028617858887,-0.04281812533736229,9.7515287399292,0.0019608315452028634,0.0022513201323296223,-0.00011241284396997543,1.6408782005310059,2019-06-21 14:50:02:615,0.0,0.0,0.0
0.18153879046440125,0.00986636895686388,9.775476455688477,0.0006289259072567405,0.0031836543389662333,0.002551398570086756,1.645005702972412,2019-06-21 14:50:02:619,0.0,0.0,0.0
0.1575912982225418,-0.026054875925183296,9.70602798461914,-0.002434457190056505,0.00198493913477756,-0.0030426053693612854,1.6500048637390137,2019-06-21 14:50:02:624,0.0,0.0,0.0
0.18872304260730743,-0.004502129275351763,9.775476455688477,-0.000702979860726545,0.0017185580071883357,0.0018854457511136942,1.6550135612487793,2019-06-21 14:50:02:629,0.0,0.0,0.0
0.17435453832149506,-0.01168637815862894,9.76350212097168,-0.000702979860726545,-0.00041249120858120484,0.0018854457511136942,1.660883903503418,2019-06-21 14:50:02:635,0.0,0.0,0.0
0.15280179679393768,-0.014081127941608429,9.749134063720703,-0.00017021755678415983,0.00651341843383154,-0.00104474684742352,1.664994716644287,2019-06-21 14:50:02:639,0.0,0.0,0.0
0.18632829189300537,-0.01168637815862894,9.765896797180176,0.0014280692900244143,-0.000146110064737335,-0.0006451751560396832,1.6699976921081543,2019-06-21 14:50:02:644,0.0,0.0,0.0
0.16238079965114594,-0.018870627507567406,9.677290916442871,-0.0027008383176457293,0.00012027108723385756,-0.001843890295209775,1.6758780479431152,2019-06-21 14:50:02:650,0.0,0.0,0.0
0.17435453832149506,0.005076869390904903,9.80421257019043,0.002893165621802312,0.0003866522392050501,0.0008199211757382146,1.6799969673156738,2019-06-21 14:50:02:654,0.0,0.0,0.0
0.1575912982225418,-0.009291628375649452,9.76350212097168,9.616359518703274e-05,-0.0030763026795291946,-0.0006451751560396832,1.685875415802002,2019-06-21 14:50:02:660,0.0,0.0,0.0
0.17914403975009918,-0.0356338769197464,9.775476455688477,0.0014280692900244143,0.0011857956219727239,0.00028715888805047477,1.6899962425231934,2019-06-21 14:50:02:664,0.0,0.0,0.0
0.1911177933216095,-0.016475878655910492,9.744344711303711,-0.001102551552110382,-0.0006788723361704295,-0.0021102714227989997,1.6950335502624512,2019-06-21 14:50:02:669,0.0,0.0,0.0
0.18872304260730743,-0.004502129275351763,9.773080825805664,0.0015612598538190267,0.0015853673133565606,0.0028177796976759806,1.7008790969848633,2019-06-21 14:50:02:675,0.0,0.0,0.0
0.16238079965114594,-0.016475878655910492,9.770686149597168,0.003825499568364598,0.002917273211377009,0.0016190646235244696,1.7049975395202637,2019-06-21 14:50:02:679,0.0,0.0,0.0
0.18632829189300537,-0.01168637815862894,9.818581581115723,-0.0017685043710834434,0.0013189861857673363,0.001752255187319082,1.7108769416809082,2019-06-21 14:50:02:685,0.0,0.0,0.0
0.14801229536533356,0.00028736997046507895,9.753923416137695,9.616359518703274e-05,0.003982797721733907,0.00015396830800121713,1.7158823013305664,2019-06-21 14:50:02:690,0.0,0.0,0.0
0.15998604893684387,0.012261118739843369,9.770686149597168,-0.002834028881440342,0.0002534616591557925,-0.005173654390075082,1.719994068145752,2019-06-21 14:50:02:694,0.0,0.0,0.0
0.16717028617858887,-0.02844962663948536,9.81379222869873,0.0006289259072567405,-0.000146110064737335,-0.0033089864969505106,1.7258796691894531,2019-06-21 14:50:02:700,0.0,0.0,0.0
0.19351254403591156,-0.009291628375649452,9.828160285949707,0.003958690132159211,0.003450035466555458,-0.0005119845597357803,1.729994773864746,2019-06-21 14:50:02:704,0.0,0.0,0.0
0.20548628270626068,-0.04521287605166435,9.787449836730957,0.0010284975986405774,0.0037164165941446824,-0.0017106997314151628,1.7358770370483398,2019-06-21 14:50:02:710,0.0,0.0,0.0
0.1839335411787033,0.007471619173884392,9.852108001708984,-3.702698079856355e-05,0.0023845106961242345,-0.0029094148055666736,1.7400150299072266,2019-06-21 14:50:02:714,0.0,0.0,0.0
0.217460036277771,-0.04760762304067612,9.852108001708984,-0.0023012666262618923,0.0005198428029996624,-0.001843890295209775,1.7459015846252441,2019-06-21 14:50:02:720,0.0,0.0,0.0
0.17914403975009918,-0.014081127941608429,9.775476455688477,-0.000702979860726545,0.006113847002522029,-0.0011779374762367137,1.7500081062316895,2019-06-21 14:50:02:724,0.0,0.0,0.0
0.17674928903579712,-0.03802862390875816,9.787449836730957,-0.00216807606246728,0.0014521767495619484,-0.002243461986593612,1.7549948692321777,2019-06-21 14:50:02:729,0.0,0.0,0.0
0.1911177933216095,-0.05239712446928024,9.718002319335938,0.0031595467493915367,0.005447893923474643,-0.002643033677977449,1.7608790397644043,2019-06-21 14:50:02:735,0.0,0.0,0.0
0.217460036277771,-0.061976123601198196,9.729975700378418,0.0006289259072567405,0.000786223930588887,-0.0015775091676205506,1.7658782005310059,2019-06-21 14:50:02:740,0.0,0.0,0.0
0.2102757841348648,-0.0356338769197464,9.749134063720703,-0.0012357421159049941,0.0011857956219727239,-0.0021102714227989997,1.769996166229248,2019-06-21 14:50:02:744,0.0,0.0,0.0
0.18153879046440125,-0.033239126205444336,9.773080825805664,-0.0019016949348780556,0.005714275051063867,-0.00024560341589191043,1.7758755683898926,2019-06-21 14:50:02:750,0.0,0.0,0.0
0.19590729475021362,-0.018870627507567406,9.746739387512207,-0.0012357421159049941,-0.00041249120858120484,-0.0015775091676205506,1.7799954414367676,2019-06-21 14:50:02:754,0.0,0.0,0.0
0.1575912982225418,-0.023660127073526382,9.794633865356445,0.0002293541671089677,0.0010526050581781115,-0.004907273262485858,1.7858967781066895,2019-06-21 14:50:02:760,0.0,0.0,0.0
0.17914403975009918,-0.0356338769197464,9.820976257324219,0.0002293541671089677,-0.0002793006447865926,-0.002376652550388224,1.7900433540344238,2019-06-21 14:50:02:764,0.0,0.0,0.0
0.16956503689289093,-0.061976123601198196,9.758712768554688,0.0010284975986405774,-0.0010784440275542662,-0.000378793995941168,1.7958884239196777,2019-06-21 14:50:02:770,0.0,0.0,0.0
0.16717028617858887,-0.04760762304067612,9.777871131896973,0.001827640981408251,-0.0014780157839566846,0.0021518268787029185,1.7999968528747559,2019-06-21 14:50:02:774,0.0,0.0,0.0
0.16238079965114594,-0.023660127073526382,9.732370376586914,0.0015612598538190267,0.0002534616591557925,-0.001977080859004387,1.805891513824463,2019-06-21 14:50:02:780,0.0,0.0,0.0
0.2102757841348648,-0.05239712446928024,9.741949081420898,0.0020940221089974756,0.0021181296985721726,-0.007304703930937529,1.8099961280822754,2019-06-21 14:50:02:784,0.0,0.0,0.0
0.20309153199195862,-0.014081127941608429,9.770686149597168,0.002360403366623863,0.002917273211377009,-0.00024560341589191043,1.8158817291259766,2019-06-21 14:50:02:790,0.0,0.0,0.0
0.18632829189300537,-0.05239712446928024,9.727581024169922,0.0010284975986405774,0.0035832260303500707,-0.005440035517664307,1.8199963569641113,2019-06-21 14:50:02:794,0.0,0.0,0.0
0.19351254403591156,-0.009291628375649452,9.789844512939453,0.0010284975986405774,0.00012027108723385756,-0.0034421770607451223,1.8258767127990723,2019-06-21 14:50:02:800,0.0,0.0,0.0
0.18632829189300537,-0.02844962663948536,9.76350212097168,0.0007621164710513528,0.00198493913477756,-0.007038322803348304,1.8300061225891113,2019-06-21 14:50:02:804,0.0,0.0,0.0
0.1575912982225418,-0.040423374623060226,9.708422660827637,-0.004565506470844626,0.0014521767495619484,-0.00477408295876557,1.8358922004699707,2019-06-21 14:50:02:810,0.0,0.0,0.0
0.19590729475021362,-0.0356338769197464,9.713212966918945,0.0006289259072567405,0.004249178849323132,-0.00011241284396997543,1.8408832550048828,2019-06-21 14:50:02:815,0.0,0.0,0.0
0.171959787607193,0.00986636895686388,9.775476455688477,-0.0005697892969319327,0.0037164165941446824,-0.0007783657198342955,1.8449788093566895,2019-06-21 14:50:02:819,0.0,0.0,0.0
0.15519654750823975,-0.02126537635922432,9.756318092346191,0.0020940221089974756,0.0033168449027608455,-0.001843890295209775,1.8508782386779785,2019-06-21 14:50:02:825,0.0,0.0,0.0
0.15280179679393768,-0.016475878655910492,9.758712768554688,-0.001635313807288831,0.006779799561420765,-0.0033089864969505106,1.8549938201904297,2019-06-21 14:50:02:829,0.0,0.0,0.0
0.18153879046440125,-0.03802862390875816,9.806608200073242,0.004358261823543047,0.0022513201323296223,-0.001843890295209775,1.8608760833740234,2019-06-21 14:50:02:835,0.0,0.0,0.0
0.1983020305633545,-0.05000237375497818,9.773080825805664,-3.702698079856355e-05,0.0011857956219727239,0.000420349451845087,1.8658761978149414,2019-06-21 14:50:02:840,0.0,0.0,0.0
0.12885428965091705,-0.02126537635922432,9.797028541564941,0.0022272128028292507,0.0033168449027608455,0.0006867306119436022,1.8699955940246582,2019-06-21 14:50:02:844,0.0,0.0,0.0
0.17674928903579712,-0.0356338769197464,9.794633865356445,-0.002567647753851117,0.0006530333667942747,0.00028715888805047477,1.8758788108825684,2019-06-21 14:50:02:850,0.0,0.0,0.0
0.1911177933216095,-0.030844375491142273,9.794633865356445,0.0007621164710513528,-0.0006788723361704295,0.004682447850874878,1.8800249099731445,2019-06-21 14:50:02:854,0.0,0.0,0.0
0.16956503689289093,0.024234866723418236,9.811397552490234,-0.0015021232434942187,0.00198493913477756,0.0016190646235244696,1.8850064277648926,2019-06-21 14:50:02:859,0.0,0.0,0.0
0.17435453832149506,-0.023660127073526382,9.789844512939453,0.0008953070348459651,0.0026508918237134593,-0.0025098431141828367,1.890876293182373,2019-06-21 14:50:02:865,0.0,0.0,0.0
0.1575912982225418,-0.04281812533736229,9.727581024169922,0.0015612598538190267,-0.00041249120858120484,0.00028715888805047477,1.894993782043457,2019-06-21 14:50:02:869,0.0,0.0,0.0
0.1647755354642868,-0.04760762304067612,9.825765609741211,0.002493593930418475,-0.0005456817723758172,0.004016494771827491,1.900876522064209,2019-06-21 14:50:02:875,0.0,0.0,0.0
0.21267053484916687,-0.02126537635922432,9.780265808105469,-3.702698079856355e-05,0.0030504637751716207,-0.0007783657198342955,1.9049944877624512,2019-06-21 14:50:02:879,0.0,0.0,0.0
0.171959787607193,-0.02126537635922432,9.76350212097168,0.001827640981408251,0.006247037306242317,-0.003708558188334347,1.9099936485290527,2019-06-21 14:50:02:884,0.0,0.0,0.0
0.1983020305633545,-0.018870627507567406,9.773080825805664,-0.0004365987006280297,-0.002410349860556133,-0.0007783657198342955,1.9158740043640137,2019-06-21 14:50:02:890,0.0,0.0,0.0
0.18153879046440125,0.014655868522822857,9.756318092346191,0.002626784494213087,0.0018517485709829478,-0.0033089864969505106,1.920011043548584,2019-06-21 14:50:02:894,0.0,0.0,0.0
0.19351254403591156,-0.04281812533736229,9.782660484313965,0.002360403366623863,-0.0016112063477512967,0.0014858740597298572,1.9258952140808105,2019-06-21 14:50:02:900,0.0,0.0,0.0
0.22464428842067719,-0.009291628375649452,9.780265808105469,-0.00030340813683341745,0.0026508918237134593,-0.0030426053693612854,1.9300007820129395,2019-06-21 14:50:02:904,0.0,0.0,0.0
0.1911177933216095,-0.0356338769197464,9.780265808105469,0.0011616881624351898,-0.0036090649347076437,0.0009531117395328268,1.9358820915222168,2019-06-21 14:50:02:910,0.0,0.0,0.0
0.16956503689289093,-0.023660127073526382,9.713212966918945,0.00036254474715822533,0.0021181296985721726,0.0018854457511136942,1.9399971961975098,2019-06-21 14:50:02:914,0.0,0.0,0.0
0.1911177933216095,-0.02844962663948536,9.797028541564941,0.001827640981408251,0.0037164165941446824,-0.004640892134896633,1.9458794593811035,2019-06-21 14:50:02:920,0.0,0.0,0.0
0.18632829189300537,0.00986636895686388,9.696449279785156,-0.00017021755678415983,0.0014521767495619484,-0.0015775091676205506,1.9499945640563965,2019-06-21 14:50:02:924,0.0,0.0,0.0
0.18872304260730743,-0.0356338769197464,9.770686149597168,-0.00216807606246728,0.0010526050581781115,0.000420349451845087,1.9558806419372559,2019-06-21 14:50:02:930,0.0,0.0,0.0
0.18632829189300537,0.00028736997046507895,9.729975700378418,0.0008953070348459651,0.004915131668296193,-0.0013111280400313259,1.9599967002868652,2019-06-21 14:50:02:934,0.0,0.0,0.0
0.17674928903579712,-0.009291628375649452,9.739554405212402,0.0002293541671089677,-0.0022771592967615207,-0.002643033677977449,1.9658761024475098,2019-06-21 14:50:02:940,0.0,0.0,0.0
0.17914403975009918,-0.006896879058331251,9.741949081420898,0.0016944504176136389,-0.0008120628999650418,0.0021518268787029185,1.9699974060058594,2019-06-21 14:50:02:944,0.0,0.0,0.0
0.19351254403591156,-0.006896879058331251,9.840134620666504,-0.0004365987006280297,-1.2919485703992724e-05,-0.002376652550388224,1.9759182929992676,2019-06-21 14:50:02:950,0.0,0.0,0.0
0.22224953770637512,0.007471619173884392,9.741949081420898,0.005556976897694558,0.0006530333667942747,-0.001843890295209775,1.9800095558166504,2019-06-21 14:50:02:954,0.0,0.0,0.0
0.1911177933216095,-0.02844962663948536,9.809002876281738,0.004091880695953822,0.0009194144943834993,0.0008199211757382146,1.985875129699707,2019-06-21 14:50:02:960,0.0,0.0,0.0
0.1839335411787033,-0.002107379725202918,9.797028541564941,-0.0036331725242823402,0.0051815127958854176,-0.0062391789004319805,1.9899945259094238,2019-06-21 14:50:02:964,0.0,0.0,0.0
0.16238079965114594,-0.10029211640357971,9.787449836730957,0.002626784494213087,0.005048322492165131,-0.003175795933155898,1.9958806037902832,2019-06-21 14:50:02:970,0.0,0.0,0.0
0.16238079965114594,-0.02844962663948536,9.770686149597168,0.0007621164710513528,0.0026508918237134593,-0.004241320443512797,1.999997615814209,2019-06-21 14:50:02:974,0.0,0.0,0.0
0.16717028617858887,-0.06676562130451202,9.753923416137695,0.0027599750580077,0.00198493913477756,-0.0029094148055666736,2.0058937072753906,2019-06-21 14:50:02:980,0.0,0.0,0.0
0.11927530169487,-0.06676562130451202,9.780265808105469,-0.0005697892969319327,0.0037164165941446824,-0.003575367624539735,2.0099949836730957,2019-06-21 14:50:02:984,0.0,0.0,0.0
0.16956503689289093,-0.04521287605166435,9.785055160522461,0.0007621164710513528,0.002917273211377009,-0.002243461986593612,2.0150132179260254,2019-06-21 14:50:02:989,0.0,0.0,0.0
0.16238079965114594,-0.01168637815862894,9.753923416137695,0.005556976897694558,0.0018517485709829478,-0.005440035517664307,2.0208940505981445,2019-06-21 14:50:02:995,0.0,0.0,0.0
0.1911177933216095,-0.02126537635922432,9.768291473388672,0.0004957353109528376,0.0015853673133565606,-0.004374511007307408,2.0250043869018555,2019-06-21 14:50:02:999,0.0,0.0,0.0
0.18153879046440125,-0.040423374623060226,9.749134063720703,0.004091880695953822,-0.0010784440275542662,-0.0015775091676205506,2.029996871948242,2019-06-21 14:50:03:004,0.0,0.0,0.0
0.16717028617858887,0.002682119607925415,9.794633865356445,0.00036254474715822533,0.0025177012599188467,-0.0038417487521289597,2.035874843597412,2019-06-21 14:50:03:010,0.0,0.0,0.0
0.17435453832149506,-0.03802862390875816,9.768291473388672,0.004757833514926884,0.0027840826475823964,-0.004640892134896633,2.039994716644287,2019-06-21 14:50:03:014,0.0,0.0,0.0
0.19351254403591156,-0.02126537635922432,9.7515287399292,-0.0009693609883157694,0.003450035466555458,-0.0030426053693612854,2.045879364013672,2019-06-21 14:50:03:020,0.0,0.0,0.0
0.18872304260730743,-0.016475878655910492,9.741949081420898,0.0007621164710513528,0.0035832260303500707,-0.005706416645253532,2.0499958992004395,2019-06-21 14:50:03:024,0.0,0.0,0.0
0.19590729475021362,-0.04281812533736229,9.739554405212402,0.0011616881624351898,0.00558108474734358,-0.004640892134896633,2.055875778198242,2019-06-21 14:50:03:030,0.0,0.0,0.0
0.1839335411787033,0.017050618305802345,9.758712768554688,-0.00030340813683341745,-0.0005456817723758172,-0.003974939315923572,2.060878276824951,2019-06-21 14:50:03:035,0.0,0.0,0.0
0.16238079965114594,-0.004502129275351763,9.708422660827637,-0.0004365987006280297,0.0033168449027608455,-0.005706416645253532,2.06502103805542,2019-06-21 14:50:03:039,0.0,0.0,0.0
0.171959787607193,-0.03802862390875816,9.744344711303711,0.0016944504176136389,0.0003866522392050501,-0.0009115562836289078,2.070009708404541,2019-06-21 14:50:03:044,0.0,0.0,0.0
0.23422327637672424,-0.05718662217259407,9.744344711303711,0.001827640981408251,0.0005198428029996624,-0.002243461986593612,2.0758767127990723,2019-06-21 14:50:03:050,0.0,0.0,0.0
0.1911177933216095,-0.06916037201881409,9.811397552490234,0.0014280692900244143,0.00012027108723385756,0.0008199211757382146,2.0799994468688965,2019-06-21 14:50:03:054,0.0,0.0,0.0
0.20788103342056274,-0.033239126205444336,9.739554405212402,0.002893165621802312,-0.0013448252201620722,-0.0030426053693612854,2.0849967002868652,2019-06-21 14:50:03:059,0.0,0.0,0.0
0.16956503689289093,-0.04281812533736229,9.674896240234375,0.0008953070348459651,0.0022513201323296223,0.002285017442497531,2.0908737182617188,2019-06-21 14:50:03:065,0.0,0.0,0.0
0.18872304260730743,-0.023660127073526382,9.775476455688477,0.002893165621802312,-0.000146110064737335,-0.0011779374762367137,2.094984531402588,2019-06-21 14:50:03:069,0.0,0.0,0.0
0.19351254403591156,-0.030844375491142273,9.842529296875,-3.702698079856355e-05,-0.0006788723361704295,-0.002776224241772061,2.1008801460266113,2019-06-21 14:50:03:075,0.0,0.0,0.0
0.18872304260730743,-0.04760762304067612,9.8329496383667,-0.0004365987006280297,0.0027840826475823964,0.00028715888805047477,2.1050190925598145,2019-06-21 14:50:03:079,0.0,0.0,0.0
0.19351254403591156,-0.016475878655910492,9.80421257019043,0.002893165621802312,0.0035832260303500707,-0.0021102714227989997,2.110884189605713,2019-06-21 14:50:03:085,0.0,0.0,0.0
0.20788103342056274,-0.009291628375649452,9.73476505279541,-0.001635313807288831,0.0022513201323296223,-0.002243461986593612,2.115013599395752,2019-06-21 14:50:03:089,0.0,0.0,0.0
0.1384332925081253,-0.030844375491142273,9.732370376586914,0.001827640981408251,0.0035832260303500707,0.0014858740597298572,2.120879650115967,2019-06-21 14:50:03:095,0.0,0.0,0.0
0.20788103342056274,-0.0356338769197464,9.758712768554688,-0.000702979860726545,0.0030504637751716207,0.0020186363149083063,2.1250648498535156,2019-06-21 14:50:03:099,0.0,0.0,0.0
0.171959787607193,0.024234866723418236,9.720396995544434,0.0004957353109528376,-0.000945253463759654,2.0777729983790183e-05,2.1308884620666504,2019-06-21 14:50:03:105,0.0,0.0,0.0
0.14322279393672943,-0.030844375491142273,9.770686149597168,-0.0019016949348780556,0.000786223930588887,0.000420349451845087,2.134995937347412,2019-06-21 14:50:03:109,0.0,0.0,0.0
0.1911177933216095,0.017050618305802345,9.76350212097168,0.0019608315452028634,-0.0026767309881453576,0.0037501136442382663,2.139995574951172,2019-06-21 14:50:03:114,0.0,0.0,0.0
0.18153879046440125,-0.02844962663948536,9.72279167175293,-0.003100410009029566,0.000786223930588887,-0.0009115562836289078,2.1458749771118164,2019-06-21 14:50:03:120,0.0,0.0,0.0
0.16238079965114594,-0.002107379725202918,9.749134063720703,0.0031595467493915367,0.005847465874932804,-0.0014443186038259382,2.149996280670166,2019-06-21 14:50:03:124,0.0,0.0,0.0
0.18632829189300537,-0.014081127941608429,9.780265808105469,-0.0004365987006280297,0.0023845106961242345,-0.003175795933155898,2.1559057235717773,2019-06-21 14:50:03:130,0.0,0.0,0.0
0.18632829189300537,-0.018870627507567406,9.787449836730957,-0.001635313807288831,0.004382369413117744,0.00015396830800121713,2.1600074768066406,2019-06-21 14:50:03:134,0.0,0.0,0.0
0.18632829189300537,-0.016475878655910492,9.782660484313965,0.004358261823543047,0.0033168449027608455,-0.000378793995941168,2.1658759117126465,2019-06-21 14:50:03:140,0.0,0.0,0.0
0.15040704607963562,-0.006896879058331251,9.756318092346191,0.0011616881624351898,0.0017185580071883357,-0.0030426053693612854,2.1699976921081543,2019-06-21 14:50:03:144,0.0,0.0,0.0
0.15998604893684387,-0.026054875925183296,9.797028541564941,9.616359518703274e-05,0.004249178849323132,-0.003575367624539735,2.1749978065490723,2019-06-21 14:50:03:149,0.0,0.0,0.0
0.15280179679393768,-0.023660127073526382,9.765896797180176,-0.0008361704245211573,0.0037164165941446824,-0.004108129879718184,2.1808762550354004,2019-06-21 14:50:03:155,0.0,0.0,0.0
0.18872304260730743,-0.02126537635922432,9.727581024169922,0.0036923090045699854,0.0021181296985721726,-0.0015775091676205506,2.1849923133850098,2019-06-21 14:50:03:159,0.0,0.0,0.0
0.17914403975009918,-0.06437087059020996,9.73476505279541,0.0019608315452028634,0.00198493913477756,0.00028715888805047477,2.1908793449401855,2019-06-21 14:50:03:165,0.0,0.0,0.0
0.19590729475021362,-0.023660127073526382,9.725186347961426,0.0027599750580077,0.0010526050581781115,-0.0007783657198342955,2.1949963569641113,2019-06-21 14:50:03:169,0.0,0.0,0.0
0.1575912982225418,-0.04281812533736229,9.780265808105469,-3.702698079856355e-05,0.003982797721733907,-0.0050404640863547946,2.2000317573547363,2019-06-21 14:50:03:174,0.0,0.0,0.0
0.1839335411787033,-0.05479187145829201,9.787449836730957,-0.0034999819604877285,0.0033168449027608455,-0.002376652550388224,2.205024242401123,2019-06-21 14:50:03:179,0.0,0.0,0.0
0.15040704607963562,-0.05479187145829201,9.864081382751465,-0.003100410009029566,-0.00041249120858120484,-0.0017106997314151628,2.2108798027038574,2019-06-21 14:50:03:185,0.0,0.0,0.0
0.217460036277771,-0.009291628375649452,9.777871131896973,-0.00030340813683341745,-0.00121163465636746,-0.007571085058526754,2.2158751487731934,2019-06-21 14:50:03:190,0.0,0.0,0.0
0.20069678127765656,-0.02844962663948536,9.830554962158203,0.004624643211206597,0.0015853673133565606,-0.002643033677977449,2.219996929168701,2019-06-21 14:50:03:194,0.0,0.0,0.0
0.23901277780532837,-0.04521287605166435,9.73476505279541,-0.002434457190056505,-0.0018775874753405213,-0.004108129879718184,2.224997043609619,2019-06-21 14:50:03:199,0.0,0.0,0.0
0.1839335411787033,-0.0356338769197464,9.801817893981934,-0.0013689326796996063,-0.00121163465636746,2.0777729983790183e-05,2.2308764457702637,2019-06-21 14:50:03:205,0.0,0.0,0.0
0.16717028617858887,-0.006896879058331251,9.756318092346191,0.0008953070348459651,0.0018517485709829478,-0.001977080859004387,2.234994888305664,2019-06-21 14:50:03:209,0.0,0.0,0.0
0.17435453832149506,-0.0356338769197464,9.775476455688477,-0.000702979860726545,-0.0005456817723758172,-0.0050404640863547946,2.2408933639526367,2019-06-21 14:50:03:215,0.0,0.0,0.0
0.22703903913497925,-0.002107379725202918,9.782660484313965,-0.003766363088076953,-0.000945253463759654,-0.0061059885967116945,2.2459535598754883,2019-06-21 14:50:03:220,0.0,0.0,0.0
0.19351254403591156,-0.026054875925183296,9.782660484313965,9.616359518703274e-05,0.0027840826475823964,-0.0011779374762367137,2.250002384185791,2019-06-21 14:50:03:224,0.0,0.0,0.0
0.1983020305633545,-0.026054875925183296,9.76350212097168,0.003026356185596924,-0.000945253463759654,-0.0007783657198342955,2.255876064300537,2019-06-21 14:50:03:230,0.0,0.0,0.0
0.21267053484916687,-0.016475878655910492,9.7515287399292,0.004757833514926884,0.0021181296985721726,-0.001843890295209775,2.2608790397644043,2019-06-21 14:50:03:235,0.0,0.0,0.0
0.20548628270626068,0.017050618305802345,9.744344711303711,0.0010284975986405774,0.0006530333667942747,-0.007571085058526754,2.264993190765381,2019-06-21 14:50:03:239,0.0,0.0,0.0
0.16717028617858887,0.038603365421295166,9.737159729003906,0.0004957353109528376,0.005847465874932804,-0.007437894234657816,2.270875930786133,2019-06-21 14:50:03:245,0.0,0.0,0.0
0.16717028617858887,0.014655868522822857,9.753923416137695,-0.0004365987006280297,-0.0016112063477512967,-0.003175795933155898,2.274994373321533,2019-06-21 14:50:03:249,0.0,0.0,0.0
0.21985478699207306,-0.05479187145829201,9.765896797180176,-0.0027008383176457293,0.002917273211377009,-0.003708558188334347,2.280879020690918,2019-06-21 14:50:03:255,0.0,0.0,0.0
0.21267053484916687,0.014655868522822857,9.801817893981934,0.0007621164710513528,0.0013189861857673363,-0.006905131979479367,2.285005569458008,2019-06-21 14:50:03:259,0.0,0.0,0.0
0.20788103342056274,0.00028736997046507895,9.777871131896973,0.0002293541671089677,0.0002534616591557925,-0.00477408295876557,2.2900142669677734,2019-06-21 14:50:03:264,0.0,0.0,0.0
0.21506528556346893,0.045787613838911057,9.76350212097168,0.0014280692900244143,-0.0008120628999650418,-0.004640892134896633,2.2958788871765137,2019-06-21 14:50:03:270,0.0,0.0,0.0
0.1911177933216095,-0.02126537635922432,9.758712768554688,-0.002567647753851117,0.006646609257700478,-0.004907273262485858,2.2999987602233887,2019-06-21 14:50:03:274,0.0,0.0,0.0
0.21506528556346893,-0.014081127941608429,9.710817337036133,0.0019608315452028634,0.0006530333667942747,-0.0025098431141828367,2.3059029579162598,2019-06-21 14:50:03:280,0.0,0.0,0.0
0.20548628270626068,0.007471619173884392,9.715607643127441,-0.0005697892969319327,0.000786223930588887,-0.004907273262485858,2.3099961280822754,2019-06-21 14:50:03:284,0.0,0.0,0.0
0.1983020305633545,-0.014081127941608429,9.758712768554688,0.002493593930418475,0.0035832260303500707,-0.00930256212778239,2.315876007080078,2019-06-21 14:50:03:290,0.0,0.0,0.0
0.17435453832149506,-0.002107379725202918,9.765896797180176,0.0022272128028292507,0.00198493913477756,-0.002243461986593612,2.319995403289795,2019-06-21 14:50:03:294,0.0,0.0,0.0
0.1911177933216095,0.017050618305802345,9.710817337036133,0.0022272128028292507,0.0017185580071883357,-0.00104474684742352,2.325881004333496,2019-06-21 14:50:03:300,0.0,0.0,0.0
0.22703903913497925,-0.04281812533736229,9.7515287399292,0.0020940221089974756,0.0027840826475823964,-0.0034421770607451223,2.3299994468688965,2019-06-21 14:50:03:304,0.0,0.0,0.0
0.16238079965114594,-0.06437087059020996,9.768291473388672,0.002493593930418475,0.0014521767495619484,0.0008199211757382146,2.3350167274475098,2019-06-21 14:50:03:309,0.0,0.0,0.0
0.20309153199195862,-0.07394987344741821,9.713212966918945,-0.0017685043710834434,0.007179371512878927,-0.000378793995941168,2.3399949073791504,2019-06-21 14:50:03:314,0.0,0.0,0.0
0.20069678127765656,-0.04760762304067612,9.773080825805664,-0.0004365987006280297,-0.000146110064737335,-0.00024560341589191043,2.3458728790283203,2019-06-21 14:50:03:320,0.0,0.0,0.0
0.18153879046440125,-0.016475878655910492,9.746739387512207,-0.002034885498672668,0.0011857956219727239,-0.0030426053693612854,2.34999418258667,2019-06-21 14:50:03:324,0.0,0.0,0.0
0.16717028617858887,-0.02844962663948536,9.799423217773438,0.004091880695953822,0.0022513201323296223,-0.000378793995941168,2.355879306793213,2019-06-21 14:50:03:330,0.0,0.0,0.0
0.18632829189300537,-0.06916037201881409,9.782660484313965,0.003425927876980761,0.004115988285528519,2.0777729983790183e-05,2.3599963188171387,2019-06-21 14:50:03:334,0.0,0.0,0.0
0.17914403975009918,-0.05958137288689613,9.744344711303711,0.0022272128028292507,0.004781940844427256,-0.0013111280400313259,2.365878105163574,2019-06-21 14:50:03:340,0.0,0.0,0.0
0.19590729475021362,-0.040423374623060226,9.828160285949707,-0.0004365987006280297,0.004382369413117744,-0.00024560341589191043,2.369994640350342,2019-06-21 14:50:03:344,0.0,0.0,0.0
0.20788103342056274,-0.030844375491142273,9.785055160522461,0.0007621164710513528,0.003849607157939295,0.004416066723285653,2.3750181198120117,2019-06-21 14:50:03:349,0.0,0.0,0.0
0.18872304260730743,-0.016475878655910492,9.72279167175293,0.0010284975986405774,0.0023845106961242345,0.00454925702700594,2.3800101280212402,2019-06-21 14:50:03:354,0.0,0.0,0.0
0.16717028617858887,0.00028736997046507895,9.773080825805664,0.003958690132159211,-0.0016112063477512967,-0.0030426053693612854,2.385876178741455,2019-06-21 14:50:03:360,0.0,0.0,0.0
0.17674928903579712,0.024234866723418236,9.756318092346191,0.0031595467493915367,-0.003209493243323807,0.0018854457511136942,2.3899970054626465,2019-06-21 14:50:03:364,0.0,0.0,0.0
0.15998604893684387,0.012261118739843369,9.777871131896973,0.0020940221089974756,0.004115988285528519,-0.0005119845597357803,2.395878314971924,2019-06-21 14:50:03:370,0.0,0.0,0.0
0.18632829189300537,0.017050618305802345,9.727581024169922,-0.00030340813683341745,0.0013189861857673363,0.0029509702614705924,2.399994373321533,2019-06-21 14:50:03:374,0.0,0.0,0.0
0.1911177933216095,-0.009291628375649452,9.732370376586914,0.0032927373131861493,0.0023845106961242345,0.0021518268787029185,2.4059014320373535,2019-06-21 14:50:03:380,0.0,0.0,0.0
0.16238079965114594,-0.004502129275351763,9.727581024169922,-0.00030340813683341745,0.005314703619754355,-0.0013111280400313259,2.409998893737793,2019-06-21 14:50:03:384,0.0,0.0,0.0
0.10730154812335968,-0.04760762304067612,9.782660484313965,0.0006289259072567405,0.0026508918237134593,0.00015396830800121713,2.415879726409912,2019-06-21 14:50:03:390,0.0,0.0,0.0
0.11688055098056793,-0.030844375491142273,9.729975700378418,-0.001635313807288831,0.0015853673133565606,0.003084160825265205,2.4200148582458496,2019-06-21 14:50:03:394,0.0,0.0,0.0
0.16238079965114594,-0.006896879058331251,9.801817893981934,0.002493593930418475,-0.000146110064737335,0.0036169230804436537,2.4250073432922363,2019-06-21 14:50:03:399,0.0,0.0,0.0
0.17674928903579712,-0.033239126205444336,9.741949081420898,0.006089739152873007,-0.002143968602929746,0.002551398570086756,2.430880069732666,2019-06-21 14:50:03:405,0.0,0.0,0.0
0.13603854179382324,-0.030844375491142273,9.720396995544434,0.0014280692900244143,0.000786223930588887,0.0038833042080328784,2.434993267059326,2019-06-21 14:50:03:409,0.0,0.0,0.0
0.12406479567289352,0.007471619173884392,9.761107444763184,0.0010284975986405774,-0.0002793006447865926,0.0016190646235244696,2.440878391265869,2019-06-21 14:50:03:415,0.0,0.0,0.0
0.15519654750823975,0.00028736997046507895,9.785055160522461,0.0010284975986405774,0.00651341843383154,-0.002243461986593612,2.444995880126953,2019-06-21 14:50:03:419,0.0,0.0,0.0
0.1647755354642868,-0.02126537635922432,9.737159729003906,0.0019608315452028634,0.005447893923474643,0.0014858740597298572,2.4508790969848633,2019-06-21 14:50:03:425,0.0,0.0,0.0
0.16956503689289093,-0.002107379725202918,9.725186347961426,-0.0019016949348780556,-0.0018775874753405213,0.0020186363149083063,2.454993724822998,2019-06-21 14:50:03:429,0.0,0.0,0.0
0.15519654750823975,-0.0356338769197464,9.744344711303711,-0.0005697892969319327,0.0014521767495619484,-0.0014443186038259382,2.460875988006592,2019-06-21 14:50:03:435,0.0,0.0,0.0
0.13603854179382324,-0.016475878655910492,9.842529296875,0.0020940221089974756,0.0009194144943834993,-0.0025098431141828367,2.464994430541992,2019-06-21 14:50:03:439,0.0,0.0,0.0
0.17435453832149506,-0.030844375491142273,9.758712768554688,0.007954407566146229,0.00012027108723385756,-0.001977080859004387,2.4700446128845215,2019-06-21 14:50:03:444,0.0,0.0,0.0
0.13364379107952118,-0.018870627507567406,9.777871131896973,-0.0005697892969319327,0.0031836543389662333,-0.00104474684742352,2.4750094413757324,2019-06-21 14:50:03:449,0.0,0.0,0.0
0.18632829189300537,0.014655868522822857,9.806608200073242,9.616359518703274e-05,0.000786223930588887,0.0008199211757382146,2.4808802604675293,2019-06-21 14:50:03:455,0.0,0.0,0.0
0.16956503689289093,0.00028736997046507895,9.761107444763184,0.0008953070348459651,0.0035832260303500707,0.002551398570086756,2.4858765602111816,2019-06-21 14:50:03:460,0.0,0.0,0.0
0.16238079965114594,0.002682119607925415,9.79223918914795,-0.002434457190056505,0.0015853673133565606,-0.003175795933155898,2.4908785820007324,2019-06-21 14:50:03:465,0.0,0.0,0.0
0.13124904036521912,-0.030844375491142273,9.739554405212402,-0.001635313807288831,0.0011857956219727239,-0.00530684521394402,2.4958786964416504,2019-06-21 14:50:03:470,0.0,0.0,0.0
0.171959787607193,0.007471619173884392,9.720396995544434,0.0027599750580077,0.000786223930588887,-0.0021102714227989997,2.4999938011169434,2019-06-21 14:50:03:474,0.0,0.0,0.0
0.1911177933216095,0.024234866723418236,9.773080825805664,0.0016944504176136389,0.00651341843383154,-0.0038417487521289597,2.5058746337890625,2019-06-21 14:50:03:480,0.0,0.0,0.0
0.1575912982225418,0.00986636895686388,9.80421257019043,0.0006289259072567405,0.004115988285528519,-0.003175795933155898,2.510885715484619,2019-06-21 14:50:03:485,0.0,0.0,0.0
0.2102757841348648,-0.014081127941608429,9.7515287399292,-0.0004365987006280297,0.00198493913477756,-0.0029094148055666736,2.5164566040039062,2019-06-21 14:50:03:490,0.0,0.0,0.0
0.18872304260730743,-0.006896879058331251,9.746739387512207,-0.0013689326796996063,0.0006530333667942747,-0.007571085058526754,2.5215373039245605,2019-06-21 14:50:03:495,0.0,0.0,0.0
0.17435453832149506,0.005076869390904903,9.744344711303711,0.0007621164710513528,-0.00041249120858120484,-0.007304703930937529,2.526461124420166,2019-06-21 14:50:03:500,0.0,0.0,0.0
0.1575912982225418,-0.033239126205444336,9.76350212097168,-0.0008361704245211573,0.003450035466555458,-0.008103847313705203,2.5314440727233887,2019-06-21 14:50:03:505,0.0,0.0,0.0
0.18872304260730743,0.00028736997046507895,9.708422660827637,0.00036254474715822533,0.0017185580071883357,-0.003974939315923572,2.536436080932617,2019-06-21 14:50:03:510,0.0,0.0,0.0
0.19351254403591156,-0.004502129275351763,9.794633865356445,0.0031595467493915367,-0.0034758743709130315,-0.006638750851890143,2.5414562225341797,2019-06-21 14:50:03:515,0.0,0.0,0.0
0.20788103342056274,0.024234866723418236,9.770686149597168,-0.002434457190056505,0.0030504637751716207,-0.009169371824062102,2.5464415550231934,2019-06-21 14:50:03:520,0.0,0.0,0.0
0.19590729475021362,-0.04281812533736229,9.76350212097168,0.004491452387337659,0.0045155597168380305,-0.004507701831176346,2.5514473915100098,2019-06-21 14:50:03:525,0.0,0.0,0.0
0.18153879046440125,-0.004502129275351763,9.73476505279541,0.004624643211206597,0.005314703619754355,-0.007970656489836267,2.55643367767334,2019-06-21 14:50:03:530,0.0,0.0,0.0
0.19351254403591156,-0.0356338769197464,9.729975700378418,-0.00030340813683341745,0.0033168449027608455,-0.007571085058526754,2.5615053176879883,2019-06-21 14:50:03:535,0.0,0.0,0.0
0.16956503689289093,-0.01168637815862894,9.710817337036133,0.0015612598538190267,-0.00041249120858120484,-0.004374511007307408,2.566453456878662,2019-06-21 14:50:03:540,0.0,0.0,0.0
0.1839335411787033,-0.009291628375649452,9.777871131896973,0.001827640981408251,-0.0018775874753405213,-0.002643033677977449,2.571537494659424,2019-06-21 14:50:03:545,0.0,0.0,0.0
0.21985478699207306,-0.014081127941608429,9.749134063720703,-0.00030340813683341745,0.0025177012599188467,-0.00930256212778239,2.5764474868774414,2019-06-21 14:50:03:550,0.0,0.0,0.0
0.21506528556346893,-0.016475878655910492,9.777871131896973,0.0006289259072567405,-0.0017443969115459091,-0.00104474684742352,2.5814599990844727,2019-06-21 14:50:03:555,0.0,0.0,0.0
0.1911177933216095,-0.033239126205444336,9.785055160522461,0.0015612598538190267,0.0059806561786530914,-0.011034040237335323,2.5864386558532715,2019-06-21 14:50:03:560,0.0,0.0,0.0
0.20309153199195862,-0.026054875925183296,9.73476505279541,0.0002293541671089677,0.0017185580071883357,-0.0077042753622470405,2.591439723968506,2019-06-21 14:50:03:565,0.0,0.0,0.0
0.1839335411787033,-0.023660127073526382,9.725186347961426,-0.002434457190056505,0.0011857956219727239,-0.0034421770607451223,2.5964269638061523,2019-06-21 14:50:03:570,0.0,0.0,0.0
0.22703903913497925,0.021840117871761322,9.732370376586914,0.0011616881624351898,0.004648750540706968,-0.0025098431141828367,2.6014647483825684,2019-06-21 14:50:03:575,0.0,0.0,0.0
0.1575912982225418,0.00986636895686388,9.7515287399292,-0.005098268726023076,0.006912990385289703,-0.004241320443512797,2.606444835662842,2019-06-21 14:50:03:580,0.0,0.0,0.0
0.2438022792339325,-0.026054875925183296,9.770686149597168,-0.0012357421159049941,-1.2919485703992724e-05,-0.001843890295209775,2.6115822792053223,2019-06-21 14:50:03:585,0.0,0.0,0.0
0.2294337898492813,-0.023660127073526382,9.770686149597168,0.0007621164710513528,0.002917273211377009,-0.005573226341533244,2.616501808166504,2019-06-21 14:50:03:590,0.0,0.0,0.0
0.20309153199195862,-0.04521287605166435,9.830554962158203,0.0022272128028292507,0.004648750540706968,-0.0038417487521289597,2.621446132659912,2019-06-21 14:50:03:595,0.0,0.0,0.0
0.16956503689289093,-0.023660127073526382,9.753923416137695,-0.0038995536518715646,-0.00121163465636746,-0.0077042753622470405,2.626438617706299,2019-06-21 14:50:03:600,0.0,0.0,0.0
0.1983020305633545,-0.016475878655910492,9.737159729003906,-0.0004365987006280297,0.004115988285528519,-0.0030426053693612854,2.6314549446105957,2019-06-21 14:50:03:605,0.0,0.0,0.0
0.21985478699207306,-0.014081127941608429,9.782660484313965,-0.0023012666262618923,-0.0018775874753405213,-0.00011241284396997543,2.636441707611084,2019-06-21 14:50:03:610,0.0,0.0,0.0
0.20548628270626068,-0.009291628375649452,9.732370376586914,0.002493593930418475,0.002917273211377009,-0.001977080859004387,2.641439914703369,2019-06-21 14:50:03:615,0.0,0.0,0.0
0.20788103342056274,-0.02126537635922432,9.775476455688477,0.0032927373131861493,0.000786223930588887,-0.005440035517664307,2.646437168121338,2019-06-21 14:50:03:620,0.0,0.0,0.0
0.20069678127765656,-0.05239712446928024,9.746739387512207,0.0014280692900244143,0.002917273211377009,-0.00011241284396997543,2.6514906883239746,2019-06-21 14:50:03:625,0.0,0.0,0.0
0.2294337898492813,-0.009291628375649452,9.79223918914795,-0.003100410009029566,0.00012027108723385756,-0.004374511007307408,2.6565499305725098,2019-06-21 14:50:03:630,0.0,0.0,0.0
0.2102757841348648,-0.01168637815862894,9.72279167175293,0.0007621164710513528,0.0033168449027608455,-0.006372369724300918,2.661464214324951,2019-06-21 14:50:03:635,0.0,0.0,0.0
0.18632829189300537,-0.040423374623060226,9.785055160522461,0.006222929976741945,0.0025177012599188467,-0.005440035517664307,2.6664414405822754,2019-06-21 14:50:03:640,0.0,0.0,0.0
0.18872304260730743,-0.05958137288689613,9.797028541564941,0.004091880695953822,0.0031836543389662333,-0.00024560341589191043,2.6714582443237305,2019-06-21 14:50:03:645,0.0,0.0,0.0
0.1911177933216095,-0.03802862390875816,9.758712768554688,0.002626784494213087,0.0005198428029996624,-0.004507701831176346,2.676440715789795,2019-06-21 14:50:03:650,0.0,0.0,0.0
0.16956503689289093,-0.014081127941608429,9.72279167175293,0.0008953070348459651,-0.002410349860556133,0.001752255187319082,2.681447982788086,2019-06-21 14:50:03:655,0.0,0.0,0.0
0.1983020305633545,-0.016475878655910492,9.727581024169922,-0.002034885498672668,-0.00121163465636746,0.00015396830800121713,2.6864395141601562,2019-06-21 14:50:03:660,0.0,0.0,0.0
0.1647755354642868,-0.01168637815862894,9.746739387512207,0.0031595467493915367,0.0037164165941446824,-0.0013111280400313259,2.6914634704589844,2019-06-21 14:50:03:665,0.0,0.0,0.0
0.18153879046440125,-0.0356338769197464,9.765896797180176,0.0031595467493915367,0.0013189861857673363,-0.0009115562836289078,2.6965088844299316,2019-06-21 14:50:03:670,0.0,0.0,0.0
0.1647755354642868,-0.04760762304067612,9.780265808105469,0.0032927373131861493,0.0037164165941446824,0.0034837325166490415,2.7015156745910645,2019-06-21 14:50:03:675,0.0,0.0,0.0
0.17435453832149506,-0.033239126205444336,9.739554405212402,-0.0013689326796996063,-0.00121163465636746,-0.0014443186038259382,2.7064547538757324,2019-06-21 14:50:03:680,0.0,0.0,0.0
0.23182854056358337,-0.05718662217259407,9.761107444763184,0.001294878726229802,0.0030504637751716207,-0.0014443186038259382,2.711474895477295,2019-06-21 14:50:03:685,0.0,0.0,0.0
0.16956503689289093,-0.05000237375497818,9.768291473388672,0.002360403366623863,0.003982797721733907,-0.0017106997314151628,2.7165188789367676,2019-06-21 14:50:03:690,0.0,0.0,0.0
0.18153879046440125,-0.030844375491142273,9.775476455688477,-0.00017021755678415983,0.0015853673133565606,0.00454925702700594,2.721461296081543,2019-06-21 14:50:03:695,0.0,0.0,0.0
0.16956503689289093,-0.02844962663948536,9.801817893981934,0.001294878726229802,-0.0013448252201620722,-0.0025098431141828367,2.726440906524658,2019-06-21 14:50:03:700,0.0,0.0,0.0
0.18153879046440125,-0.030844375491142273,9.746739387512207,0.0031595467493915367,0.0025177012599188467,-0.00104474684742352,2.731447696685791,2019-06-21 14:50:03:705,0.0,0.0,0.0
0.16238079965114594,-0.07873936742544174,9.794633865356445,0.0011616881624351898,0.00558108474734358,2.0777729983790183e-05,2.7364354133605957,2019-06-21 14:50:03:710,0.0,0.0,0.0
0.18153879046440125,-0.05479187145829201,9.785055160522461,0.0020940221089974756,0.002917273211377009,-0.001977080859004387,2.741508960723877,2019-06-21 14:50:03:715,0.0,0.0,0.0
0.1983020305633545,-0.033239126205444336,9.741949081420898,0.0016944504176136389,0.00012027108723385756,-0.002376652550388224,2.7465319633483887,2019-06-21 14:50:03:720,0.0,0.0,0.0
0.17435453832149506,-0.04281812533736229,9.775476455688477,0.0015612598538190267,-0.0002793006447865926,-0.0013111280400313259,2.7514638900756836,2019-06-21 14:50:03:725,0.0,0.0,0.0
0.17914403975009918,-0.040423374623060226,9.739554405212402,-0.0015021232434942187,0.0025177012599188467,-0.000378793995941168,2.754997730255127,2019-06-21 14:50:03:729,0.0,0.0,0.0
0.20548628270626068,-0.03802862390875816,9.840134620666504,0.002360403366623863,0.005447893923474643,0.00028715888805047477,2.7599968910217285,2019-06-21 14:50:03:734,0.0,0.0,0.0
0.16717028617858887,-0.02844962663948536,9.76350212097168,0.0006289259072567405,0.0010526050581781115,0.0034837325166490415,2.765882968902588,2019-06-21 14:50:03:740,0.0,0.0,0.0
0.17674928903579712,-0.02126537635922432,9.775476455688477,0.0006289259072567405,-0.0010784440275542662,-0.0011779374762367137,2.7699971199035645,2019-06-21 14:50:03:744,0.0,0.0,0.0
0.18632829189300537,-0.014081127941608429,9.746739387512207,-0.000702979860726545,-0.0014780157839566846,0.002285017442497531,2.774993896484375,2019-06-21 14:50:03:749,0.0,0.0,0.0
0.18632829189300537,-0.016475878655910492,9.698843955993652,0.003825499568364598,-0.00121163465636746,-0.0030426053693612854,2.7808847427368164,2019-06-21 14:50:03:755,0.0,0.0,0.0
0.2294337898492813,-0.01168637815862894,9.756318092346191,0.004891024338795822,-0.0002793006447865926,-0.0021102714227989997,2.784996509552002,2019-06-21 14:50:03:759,0.0,0.0,0.0
0.23901277780532837,0.007471619173884392,9.729975700378418,0.0035591184407753737,0.0027840826475823964,0.0028177796976759806,2.7900166511535645,2019-06-21 14:50:03:764,0.0,0.0,0.0
0.1839335411787033,-0.004502129275351763,9.773080825805664,0.004225071259748435,-0.002410349860556133,-0.0007783657198342955,2.7958984375,2019-06-21 14:50:03:770,0.0,0.0,0.0
0.1839335411787033,-0.009291628375649452,9.770686149597168,-0.000702979860726545,0.00651341843383154,0.002285017442497531,2.799996852874756,2019-06-21 14:50:03:774,0.0,0.0,0.0
0.21506528556346893,-0.014081127941608429,9.777871131896973,0.005556976897694558,0.002917273211377009,0.002684589133881368,2.8058743476867676,2019-06-21 14:50:03:780,0.0,0.0,0.0
0.18872304260730743,-0.004502129275351763,9.773080825805664,9.616359518703274e-05,0.0031836543389662333,0.002684589133881368,2.810019016265869,2019-06-21 14:50:03:784,0.0,0.0,0.0
0.20548628270626068,-0.02844962663948536,9.729975700378418,0.0027599750580077,-0.000146110064737335,0.002551398570086756,2.8158864974975586,2019-06-21 14:50:03:790,0.0,0.0,0.0
0.21506528556346893,-0.006896879058331251,9.811397552490234,-0.000702979860726545,-0.0002793006447865926,0.0005535400481489899,2.819995403289795,2019-06-21 14:50:03:794,0.0,0.0,0.0
0.2366180270910263,-0.04281812533736229,9.761107444763184,-0.001635313807288831,0.0015853673133565606,0.0034837325166490415,2.8258748054504395,2019-06-21 14:50:03:800,0.0,0.0,0.0
0.22464428842067719,-0.016475878655910492,9.780265808105469,0.006089739152873007,-0.0017443969115459091,0.0034837325166490415,2.8299970626831055,2019-06-21 14:50:03:804,0.0,0.0,0.0
0.2102757841348648,0.00986636895686388,9.727581024169922,0.0011616881624351898,0.0037164165941446824,0.006014353488821,2.835921287536621,2019-06-21 14:50:03:810,0.0,0.0,0.0
0.22464428842067719,-0.02844962663948536,9.715607643127441,0.0002293541671089677,-0.0014780157839566846,0.0037501136442382663,2.8400111198425293,2019-06-21 14:50:03:814,0.0,0.0,0.0
0.22224953770637512,-0.02844962663948536,9.7515287399292,-0.0015021232434942187,0.004781940844427256,-0.00011241284396997543,2.845874309539795,2019-06-21 14:50:03:820,0.0,0.0,0.0
0.26056551933288574,-0.033239126205444336,9.799423217773438,0.002626784494213087,0.0006530333667942747,-0.00024560341589191043,2.849996566772461,2019-06-21 14:50:03:824,0.0,0.0,0.0
0.1839335411787033,0.007471619173884392,9.818581581115723,-0.00017021755678415983,0.0010526050581781115,0.0013526834959352448,2.855884552001953,2019-06-21 14:50:03:830,0.0,0.0,0.0
0.18872304260730743,-0.002107379725202918,9.780265808105469,-0.000702979860726545,0.0003866522392050501,0.005481591233642551,2.8599958419799805,2019-06-21 14:50:03:834,0.0,0.0,0.0
0.20788103342056274,-0.016475878655910492,9.797028541564941,-0.0015021232434942187,0.0026508918237134593,0.006946687695457612,2.865874767303467,2019-06-21 14:50:03:840,0.0,0.0,0.0
0.19590729475021362,0.00028736997046507895,9.770686149597168,0.0015612598538190267,0.0045155597168380305,0.004282875899416715,2.869995594024658,2019-06-21 14:50:03:844,0.0,0.0,0.0
0.20788103342056274,-0.04521287605166435,9.729975700378418,0.004891024338795822,0.0005198428029996624,0.0024182080062921433,2.8759021759033203,2019-06-21 14:50:03:850,0.0,0.0,0.0
0.217460036277771,0.0266296174377203,9.797028541564941,0.0006289259072567405,0.0002534616591557925,0.0038833042080328784,2.8800206184387207,2019-06-21 14:50:03:854,0.0,0.0,0.0
0.20069678127765656,-0.006896879058331251,9.756318092346191,-0.002434457190056505,-0.0006788723361704295,0.006014353488821,2.8858838081359863,2019-06-21 14:50:03:860,0.0,0.0,0.0
0.11688055098056793,-0.002107379725202918,9.744344711303711,0.0011616881624351898,0.004115988285528519,0.0008199211757382146,2.8899970054626465,2019-06-21 14:50:03:864,0.0,0.0,0.0
0.16717028617858887,-0.023660127073526382,9.765896797180176,0.004491452387337659,-0.002410349860556133,0.0033505419528544293,2.8949904441833496,2019-06-21 14:50:03:869,0.0,0.0,0.0
0.17674928903579712,-0.006896879058331251,9.770686149597168,-3.702698079856355e-05,0.0033168449027608455,0.0018854457511136942,2.900879383087158,2019-06-21 14:50:03:875,0.0,0.0,0.0
0.14082804322242737,-0.05000237375497818,9.809002876281738,-0.0012357421159049941,0.0025177012599188467,0.004282875899416715,2.9049973487854004,2019-06-21 14:50:03:879,0.0,0.0,0.0
0.16238079965114594,-0.02844962663948536,9.818581581115723,0.004624643211206597,0.003849607157939295,0.004948828978464102,2.9108986854553223,2019-06-21 14:50:03:885,0.0,0.0,0.0
0.12885428965091705,-0.02126537635922432,9.799423217773438,-0.001102551552110382,0.004115988285528519,0.0008199211757382146,2.914991855621338,2019-06-21 14:50:03:889,0.0,0.0,0.0
0.10969629883766174,-0.02844962663948536,9.713212966918945,-0.002434457190056505,-0.000945253463759654,0.002285017442497531,2.9208807945251465,2019-06-21 14:50:03:895,0.0,0.0,0.0
0.10969629883766174,-0.026054875925183296,9.782660484313965,-0.004831887598433851,-0.0006788723361704295,-0.000378793995941168,2.924999713897705,2019-06-21 14:50:03:899,0.0,0.0,0.0
0.13603854179382324,-0.033239126205444336,9.753923416137695,0.0019608315452028634,0.0013189861857673363,-0.00011241284396997543,2.9308762550354004,2019-06-21 14:50:03:905,0.0,0.0,0.0
0.15040704607963562,-0.002107379725202918,9.799423217773438,-0.0009693609883157694,0.004115988285528519,-0.002376652550388224,2.934990882873535,2019-06-21 14:50:03:909,0.0,0.0,0.0
0.13603854179382324,-0.016475878655910492,9.806608200073242,0.0007621164710513528,0.006247037306242317,0.00015396830800121713,2.940883159637451,2019-06-21 14:50:03:915,0.0,0.0,0.0
0.171959787607193,0.00028736997046507895,9.811397552490234,-0.00030340813683341745,-0.000945253463759654,-0.002376652550388224,2.944995403289795,2019-06-21 14:50:03:919,0.0,0.0,0.0
0.15280179679393768,-0.04281812533736229,9.811397552490234,-3.702698079856355e-05,0.004249178849323132,-0.0034421770607451223,2.950878143310547,2019-06-21 14:50:03:925,0.0,0.0,0.0
0.15519654750823975,-0.01168637815862894,9.715607643127441,-0.0004365987006280297,0.005048322492165131,-0.001977080859004387,2.9549899101257324,2019-06-21 14:50:03:929,0.0,0.0,0.0
0.18153879046440125,-0.04760762304067612,9.718002319335938,0.0020940221089974756,-1.2919485703992724e-05,-0.005573226341533244,2.9608798027038574,2019-06-21 14:50:03:935,0.0,0.0,0.0
0.15280179679393768,-0.03802862390875816,9.746739387512207,-0.002034885498672668,-0.0006788723361704295,-0.006638750851890143,2.96588134765625,2019-06-21 14:50:03:940,0.0,0.0,0.0
0.16717028617858887,-0.018870627507567406,9.773080825805664,-0.00030340813683341745,0.0021181296985721726,-0.00530684521394402,2.9699950218200684,2019-06-21 14:50:03:944,0.0,0.0,0.0
0.1575912982225418,-0.05000237375497818,9.744344711303711,0.0010284975986405774,0.0006530333667942747,-0.004640892134896633,2.97613525390625,2019-06-21 14:50:03:950,0.0,0.0,0.0
0.18872304260730743,-0.02844962663948536,9.830554962158203,-0.004565506470844626,0.0022513201323296223,-0.00823703761742549,2.9800024032592773,2019-06-21 14:50:03:954,0.0,0.0,0.0
0.12885428965091705,-0.01168637815862894,9.868871688842773,-0.00030340813683341745,-0.002410349860556133,-0.0033089864969505106,2.985873222351074,2019-06-21 14:50:03:960,0.0,0.0,0.0
0.1647755354642868,-0.009291628375649452,9.770686149597168,0.003026356185596924,0.000786223930588887,-0.002643033677977449,2.989997386932373,2019-06-21 14:50:03:964,0.0,0.0,0.0
0.16238079965114594,-0.05000237375497818,9.737159729003906,-0.00030340813683341745,0.0015853673133565606,-0.008769799872603939,2.995879650115967,2019-06-21 14:50:03:970,0.0,0.0,0.0
0.15280179679393768,-0.006896879058331251,9.765896797180176,-0.001635313807288831,0.003982797721733907,-0.0030426053693612854,3.0008749961853027,2019-06-21 14:50:03:975,0.0,0.0,0.0
0.17674928903579712,-0.006896879058331251,9.794633865356445,0.001827640981408251,0.0015853673133565606,-0.010900848893317735,3.0049939155578613,2019-06-21 14:50:03:979,0.0,0.0,0.0
0.19351254403591156,-0.033239126205444336,9.746739387512207,-0.002434457190056505,0.0013189861857673363,-0.008370228441294427,3.0109047889709473,2019-06-21 14:50:03:985,0.0,0.0,0.0
0.18872304260730743,-0.04281812533736229,9.720396995544434,0.0002293541671089677,-1.2919485703992724e-05,-0.009435752431502676,3.0149941444396973,2019-06-21 14:50:03:989,0.0,0.0,0.0
0.19590729475021362,-0.006896879058331251,9.806608200073242,0.0032927373131861493,0.004648750540706968,-0.009568943775520262,3.020890712738037,2019-06-21 14:50:03:995,0.0,0.0,0.0
0.1384332925081253,-0.002107379725202918,9.761107444763184,-3.702698079856355e-05,0.003982797721733907,-0.0025098431141828367,3.0249996185302734,2019-06-21 14:50:03:999,0.0,0.0,0.0
0.1647755354642868,-0.004502129275351763,9.753923416137695,0.0004957353109528376,0.009044038885854849,-0.00823703761742549,3.0308785438537598,2019-06-21 14:50:04:005,0.0,0.0,0.0
0.15519654750823975,0.0266296174377203,9.744344711303711,0.0007621164710513528,0.00012027108723385756,-0.005839607469122469,3.0349926948547363,2019-06-21 14:50:04:009,0.0,0.0,0.0
0.17674928903579712,0.007471619173884392,9.811397552490234,0.0016944504176136389,0.003982797721733907,-0.00930256212778239,3.0408825874328613,2019-06-21 14:50:04:015,0.0,0.0,0.0
0.1456175446510315,-0.014081127941608429,9.785055160522461,0.0006289259072567405,0.00198493913477756,-0.007571085058526754,3.0449957847595215,2019-06-21 14:50:04:019,0.0,0.0,0.0
0.1911177933216095,-0.004502129275351763,9.780265808105469,-0.0004365987006280297,-0.000146110064737335,-0.007837466186115978,3.050874710083008,2019-06-21 14:50:04:025,0.0,0.0,0.0
0.1647755354642868,0.012261118739843369,9.830554962158203,-0.0019016949348780556,0.0017185580071883357,-0.009169371824062102,3.054990291595459,2019-06-21 14:50:04:029,0.0,0.0,0.0
0.18153879046440125,0.021840117871761322,9.744344711303711,-0.000702979860726545,0.005048322492165131,-0.006771941675759081,3.060882568359375,2019-06-21 14:50:04:035,0.0,0.0,0.0
0.20069678127765656,-0.0356338769197464,9.761107444763184,0.0022272128028292507,0.006779799561420765,-0.007571085058526754,3.06589937210083,2019-06-21 14:50:04:040,0.0,0.0,0.0
0.17914403975009918,0.00986636895686388,9.73476505279541,-0.0023012666262618923,0.0026508918237134593,-0.009169371824062102,3.0699973106384277,2019-06-21 14:50:04:044,0.0,0.0,0.0
0.1456175446510315,0.00986636895686388,9.720396995544434,-0.0005697892969319327,-0.0010784440275542662,-0.001977080859004387,3.0758743286132812,2019-06-21 14:50:04:050,0.0,0.0,0.0
0.15519654750823975,0.00028736997046507895,9.689265251159668,0.0006289259072567405,0.00198493913477756,-0.008902990176324226,3.079996109008789,2019-06-21 14:50:04:054,0.0,0.0,0.0
0.17914403975009918,0.0266296174377203,9.746739387512207,0.00036254474715822533,0.0015853673133565606,-0.005972797772842756,3.0858840942382812,2019-06-21 14:50:04:060,0.0,0.0,0.0
0.1983020305633545,-0.01168637815862894,9.801817893981934,-0.000702979860726545,0.00558108474734358,-0.002376652550388224,3.090872287750244,2019-06-21 14:50:04:065,0.0,0.0,0.0
0.23901277780532837,-0.018870627507567406,9.770686149597168,0.0020940221089974756,0.0009194144943834993,-0.00530684521394402,3.0958733558654785,2019-06-21 14:50:04:070,0.0,0.0,0.0
0.16717028617858887,-0.04760762304067612,9.789844512939453,0.0015612598538190267,0.0014521767495619484,-0.004241320443512797,3.099996566772461,2019-06-21 14:50:04:074,0.0,0.0,0.0
0.1839335411787033,-0.02844962663948536,9.76350212097168,-0.0017685043710834434,0.0027840826475823964,-0.006638750851890143,3.105879306793213,2019-06-21 14:50:04:080,0.0,0.0,0.0
0.1647755354642868,-0.01168637815862894,9.761107444763184,-0.0005697892969319327,0.0006530333667942747,-0.0025098431141828367,3.1099982261657715,2019-06-21 14:50:04:084,0.0,0.0,0.0
0.1983020305633545,-0.05239712446928024,9.710817337036133,0.0019608315452028634,0.0013189861857673363,-0.0062391789004319805,3.1160025596618652,2019-06-21 14:50:04:090,0.0,0.0,0.0
0.17435453832149506,-0.014081127941608429,9.770686149597168,-3.702698079856355e-05,-0.0017443969115459091,-0.005839607469122469,3.120001792907715,2019-06-21 14:50:04:094,0.0,0.0,0.0
0.171959787607193,-0.018870627507567406,9.794633865356445,0.0015612598538190267,-0.0017443969115459091,-0.006905131979479367,3.1258740425109863,2019-06-21 14:50:04:100,0.0,0.0,0.0
0.2509865164756775,-0.02126537635922432,9.770686149597168,9.616359518703274e-05,0.002917273211377009,-0.006372369724300918,3.1299962997436523,2019-06-21 14:50:04:104,0.0,0.0,0.0
0.22224953770637512,-0.033239126205444336,9.746739387512207,0.003825499568364598,0.0017185580071883357,-0.003708558188334347,3.135880947113037,2019-06-21 14:50:04:110,0.0,0.0,0.0
0.1839335411787033,-0.018870627507567406,9.770686149597168,-3.702698079856355e-05,0.0023845106961242345,-0.0034421770607451223,3.139993190765381,2019-06-21 14:50:04:114,0.0,0.0,0.0
0.1911177933216095,-0.06676562130451202,9.696449279785156,-0.001102551552110382,0.0025177012599188467,-0.002376652550388224,3.145873546600342,2019-06-21 14:50:04:120,0.0,0.0,0.0
0.20788103342056274,-0.02844962663948536,9.70602798461914,0.0070220733595096185,-0.0008120628999650418,-0.000378793995941168,3.1499953269958496,2019-06-21 14:50:04:124,0.0,0.0,0.0
0.2102757841348648,-0.02844962663948536,9.744344711303711,0.0004957353109528376,-0.0017443969115459091,-0.0030426053693612854,3.155972957611084,2019-06-21 14:50:04:130,0.0,0.0,0.0
0.20069678127765656,0.012261118739843369,9.761107444763184,0.004091880695953822,-0.00041249120858120484,0.00028715888805047477,3.160033702850342,2019-06-21 14:50:04:134,0.0,0.0,0.0
0.21985478699207306,-0.01168637815862894,9.770686149597168,-0.003366791396693116,0.0021181296985721726,0.0009531117395328268,3.165884494781494,2019-06-21 14:50:04:140,0.0,0.0,0.0
0.24140752851963043,-0.023660127073526382,9.749134063720703,0.0020940221089974756,0.0026508918237134593,-0.006905131979479367,3.1699929237365723,2019-06-21 14:50:04:144,0.0,0.0,0.0
0.20788103342056274,-0.040423374623060226,9.789844512939453,0.0019608315452028634,0.005048322492165131,-0.005573226341533244,3.1758790016174316,2019-06-21 14:50:04:150,0.0,0.0,0.0
0.19590729475021362,-0.026054875925183296,9.81379222869873,0.0004957353109528376,0.004115988285528519,-0.00024560341589191043,3.1799964904785156,2019-06-21 14:50:04:154,0.0,0.0,0.0
0.18153879046440125,-0.009291628375649452,9.737159729003906,-0.003100410009029566,-0.0022771592967615207,-0.0009115562836289078,3.1849966049194336,2019-06-21 14:50:04:159,0.0,0.0,0.0
0.16238079965114594,-0.01168637815862894,9.785055160522461,-0.001635313807288831,-0.0016112063477512967,2.0777729983790183e-05,3.1908764839172363,2019-06-21 14:50:04:165,0.0,0.0,0.0
0.2294337898492813,-0.004502129275351763,9.780265808105469,0.0036923090045699854,0.0018517485709829478,0.00015396830800121713,3.194990634918213,2019-06-21 14:50:04:169,0.0,0.0,0.0
0.18872304260730743,-0.02844962663948536,9.816186904907227,-0.0036331725242823402,0.003849607157939295,-0.00024560341589191043,3.2008790969848633,2019-06-21 14:50:04:175,0.0,0.0,0.0
0.21985478699207306,-0.040423374623060226,9.73476505279541,0.0004957353109528376,0.0025177012599188467,-0.0014443186038259382,3.205930233001709,2019-06-21 14:50:04:180,0.0,0.0,0.0
0.20309153199195862,-0.026054875925183296,9.741949081420898,0.0014280692900244143,0.0017185580071883357,0.0009531117395328268,3.2099995613098145,2019-06-21 14:50:04:184,0.0,0.0,0.0
0.1983020305633545,-0.05958137288689613,9.713212966918945,0.0027599750580077,0.004915131668296193,-0.0007783657198342955,3.215874195098877,2019-06-21 14:50:04:190,0.0,0.0,0.0
0.1839335411787033,-0.033239126205444336,9.737159729003906,-0.0015021232434942187,0.000786223930588887,0.0034837325166490415,3.2199954986572266,2019-06-21 14:50:04:194,0.0,0.0,0.0
0.18872304260730743,-0.02126537635922432,9.7515287399292,0.0032927373131861493,0.0022513201323296223,0.005348400409773614,3.2258810997009277,2019-06-21 14:50:04:200,0.0,0.0,0.0
0.20309153199195862,0.00028736997046507895,9.799423217773438,-0.0008361704245211573,-0.000146110064737335,0.0024182080062921433,3.229997158050537,2019-06-21 14:50:04:204,0.0,0.0,0.0
0.23182854056358337,-0.023660127073526382,9.753923416137695,-0.002034885498672668,-0.0018775874753405213,0.000420349451845087,3.2349910736083984,2019-06-21 14:50:04:209,0.0,0.0,0.0
0.20309153199195862,-0.040423374623060226,9.739554405212402,0.003958690132159211,0.0005198428029996624,0.0036169230804436537,3.240880012512207,2019-06-21 14:50:04:215,0.0,0.0,0.0
0.16956503689289093,-0.04760762304067612,9.820976257324219,0.0011616881624351898,0.006779799561420765,0.002684589133881368,3.244995594024658,2019-06-21 14:50:04:219,0.0,0.0,0.0
0.16717028617858887,-0.030844375491142273,9.780265808105469,0.006222929976741945,-0.000945253463759654,0.0038833042080328784,3.2509689331054688,2019-06-21 14:50:04:225,0.0,0.0,0.0
0.18872304260730743,0.021840117871761322,9.761107444763184,0.002360403366623863,0.0031836543389662333,0.0032173513890598167,3.255012035369873,2019-06-21 14:50:04:229,0.0,0.0,0.0
0.18632829189300537,-0.030844375491142273,9.753923416137695,0.002360403366623863,0.00198493913477756,0.005881162664952063,3.260878562927246,2019-06-21 14:50:04:235,0.0,0.0,0.0
0.18153879046440125,-0.030844375491142273,9.780265808105469,-0.0008361704245211573,-0.003209493243323807,-0.000378793995941168,3.264991283416748,2019-06-21 14:50:04:239,0.0,0.0,0.0
0.18153879046440125,-0.05479187145829201,9.777871131896973,0.006356120280462232,0.0005198428029996624,0.00854497446099296,3.270881175994873,2019-06-21 14:50:04:245,0.0,0.0,0.0
0.1647755354642868,-0.03802862390875816,9.744344711303711,0.0006289259072567405,-0.00041249120858120484,0.004416066723285653,3.2749953269958496,2019-06-21 14:50:04:249,0.0,0.0,0.0
0.1647755354642868,-0.061976123601198196,9.765896797180176,-3.702698079856355e-05,0.0014521767495619484,0.0037501136442382663,3.2808756828308105,2019-06-21 14:50:04:255,0.0,0.0,0.0
0.16717028617858887,-0.004502129275351763,9.775476455688477,0.0007621164710513528,0.005447893923474643,0.0034837325166490415,3.284992218017578,2019-06-21 14:50:04:259,0.0,0.0,0.0
0.18632829189300537,-0.05718662217259407,9.794633865356445,0.001827640981408251,0.0037164165941446824,0.0070798779991778985,3.2908787727355957,2019-06-21 14:50:04:265,0.0,0.0,0.0
0.20069678127765656,-0.08352886885404587,9.765896797180176,0.002493593930418475,0.0021181296985721726,0.001752255187319082,3.2950167655944824,2019-06-21 14:50:04:269,0.0,0.0,0.0
0.17674928903579712,-0.04760762304067612,9.801817893981934,-0.0005697892969319327,0.000786223930588887,0.0008199211757382146,3.3008909225463867,2019-06-21 14:50:04:275,0.0,0.0,0.0
