ACCELEROMETER X (m/s²),ACCELEROMETER Y (m/s²),ACCELEROMETER Z (m/s²),GYROSCOPE X (rad/s),GYROSCOPE Y (rad/s),GYROSCOPE Z (rad/s),Time since start in ms ,YYYY-MO-DD HH-MI-SS_SSS
7.8169488525390625,-5.5736162109375,1.0881480102539063,0.030778025801775053,0.030773854209598796,-0.017979703760100288,0.0,2019-06-21 12:52:12:208
7.7954013671875,-5.548477478027344,1.0845567626953125,0.03064486774727109,0.031306486427614647,-0.020642864850179524,0.004992008209228516,2019-06-21 12:52:12:213
7.850467163085938,-5.5831928710937495,1.0809655151367188,0.031044341910782983,0.03237175086364634,-0.021175497068195374,0.009984016418457031,2019-06-21 12:52:12:218
7.827722595214843,-5.560448303222656,1.08216259765625,0.031177499965286945,0.03383648946318992,-0.021308655122699336,0.014976024627685547,2019-06-21 12:52:12:223
7.836102172851563,-5.558054138183594,1.0917392578125,0.029446445256735437,0.03570070222624539,-0.021841287340715183,0.019968032836914062,2019-06-21 12:52:12:228
7.870817565917968,-5.550871643066406,1.1384254760742187,0.030778025801775053,0.035168070008229545,-0.023039709831250837,0.024960041046142578,2019-06-21 12:52:12:233
7.834905090332031,-5.571222045898438,1.1671554565429687,0.030911183856279015,0.03583386028074935,-0.02450444843079442,0.029952049255371094,2019-06-21 12:52:12:238
7.874408813476562,-5.542492065429688,1.1899000244140625,0.030245393583759207,0.03570070222624539,-0.0231728678857548,0.03494405746459961,2019-06-21 12:52:12:243
7.873211730957031,-5.5400979003906246,1.2054620971679688,0.031044341910782983,0.035967018335253315,-0.023572342049266684,0.039936065673828125,2019-06-21 12:52:12:248
7.879197143554688,-5.50657958984375,1.2449658203125,0.030112235529255245,0.0353012280627335,-0.024238132321786496,0.04492807388305664,2019-06-21 12:52:12:253
7.929474609375,-5.494608764648437,1.2258125,0.02904697109322355,0.03423596362670181,-0.023705500103770646,0.049920082092285156,2019-06-21 12:52:12:258
7.929474609375,-5.505382507324218,1.2449658203125,0.029979077474751283,0.033969647517693886,-0.022640235667738953,0.05491209030151367,2019-06-21 12:52:12:263
7.968978332519531,-5.491017517089843,1.2222212524414062,0.02891381303871959,0.03343701529967803,-0.02157497123170726,0.05990409851074219,2019-06-21 12:52:12:268
7.979752075195313,-5.517353332519531,1.2329949951171875,0.029979077474751283,0.03263806697265426,-0.01957760041414783,0.06502413749694824,2019-06-21 12:52:12:273
7.985737487792969,-5.4958058471679685,1.2389804077148436,0.02971276136574336,0.03117332837311069,-0.016648123215060668,0.07001614570617676,2019-06-21 12:52:12:278
7.949825012207031,-5.502988342285156,1.1934912719726563,0.028248022766199782,0.029708589773567103,-0.01558285877902897,0.07500815391540527,2019-06-21 12:52:12:283
7.923489196777344,-5.514959167480469,1.2150387573242187,0.03064486774727109,0.027578060901503717,-0.014517594342997276,0.08000016212463379,2019-06-21 12:52:12:288
7.96778125,-5.4958058471679685,1.2258125,0.02984591942024732,0.028110693119519563,-0.012919697688949733,0.0849921703338623,2019-06-21 12:52:12:293
7.983343322753906,-5.500594177246094,1.1851116943359374,0.03051170969276713,0.02784437701051164,-0.011454959089406152,0.08998417854309082,2019-06-21 12:52:12:298
7.959401672363281,-5.531718322753906,1.1420167236328125,0.031044341910782983,0.026379638410968055,-0.01065601076238238,0.09497618675231934,2019-06-21 12:52:12:303
7.93905126953125,-5.519747497558594,1.134834228515625,0.031177499965286945,0.02664595451997598,-0.009058114108334838,0.09996819496154785,2019-06-21 12:52:12:308
7.940248352050781,-5.5353095703125,1.15877587890625,0.0313106580197909,0.02598016424745617,-0.009324430217342762,0.10496020317077637,2019-06-21 12:52:12:313
7.927080444335937,-5.5700249633789065,1.1647612915039063,0.03304171272834241,0.026512796465472017,-0.008126007726807105,0.10995221138000488,2019-06-21 12:52:12:318
7.9330658569335935,-5.5700249633789065,1.1336371459960937,0.032375922455822596,0.02664595451997598,-0.00852548189031899,0.1149439811706543,2019-06-21 12:52:12:323
7.897153381347656,-5.595163696289062,1.1360313110351563,0.03330802883735033,0.025314373974936362,-0.007992849672303142,0.11993598937988281,2019-06-21 12:52:12:328
7.903138793945312,-5.631076171875,1.1503963012695313,0.03290855467383845,0.02438226759340863,-0.00852548189031899,0.12492799758911133,2019-06-21 12:52:12:333
7.911518371582031,-5.5987549438476565,1.0953305053710938,0.0341069771643741,0.024115951484400707,-0.008924956053830875,0.12992000579833984,2019-06-21 12:52:12:338
7.898350463867187,-5.608331604003906,1.1336371459960937,0.03384066105536618,0.023716477320888822,-0.0091912721628388,0.13491201400756836,2019-06-21 12:52:12:343
7.922292114257813,-5.60234619140625,1.1372283935546874,0.034373293273382025,0.023849635375392784,-0.01065601076238238,0.13990402221679688,2019-06-21 12:52:12:348
7.923489196777344,-5.617908264160156,1.1216663208007813,0.03570487589901625,0.023583319266384854,-0.010922326871390305,0.14502406120300293,2019-06-21 12:52:12:353
7.906730041503906,-5.5831928710937495,1.1192721557617187,0.03583803395352021,0.024115951484400707,-0.010789168816886343,0.15001606941223145,2019-06-21 12:52:12:358
7.899547546386718,-5.556857055664063,1.1144838256835938,0.03384066105536618,0.024515425647912592,-0.01065601076238238,0.15500807762145996,2019-06-21 12:52:12:363
7.9043358764648435,-5.562842468261719,1.125257568359375,0.03490592549139788,0.02504805786592844,-0.010922326871390305,0.16000008583068848,2019-06-21 12:52:12:368
7.898350463867187,-5.581995788574218,1.0977246704101562,0.034373293273382025,0.025713848138448247,-0.011854433252918036,0.164992094039917,2019-06-21 12:52:12:373
7.924686279296875,-5.5389008178710935,1.0725859375,0.03250908051032656,0.027444902846999755,-0.011588117143910113,0.1699841022491455,2019-06-21 12:52:12:378
7.911518371582031,-5.556857055664063,1.077374267578125,0.03224276440131864,0.028243851174023525,-0.011454959089406152,0.17497611045837402,2019-06-21 12:52:12:383
7.88159130859375,-5.561645385742187,1.0606151123046874,0.03171013218330279,0.030907012264102765,-0.011188642980398228,0.17996811866760254,2019-06-21 12:52:12:388
7.906730041503906,-5.60234619140625,1.086950927734375,0.031576974128798826,0.03157280253662257,-0.011188642980398228,0.18496012687683105,2019-06-21 12:52:12:393
7.84328466796875,-5.581995788574218,1.0701917724609376,0.031044341910782983,0.03117332837311069,-0.01345232990696558,0.18995213508605957,2019-06-21 12:52:12:398
7.870817565917968,-5.578404541015625,1.0857538452148436,0.030245393583759207,0.032904383081662186,-0.014384436288493315,0.19494414329528809,2019-06-21 12:52:12:403
7.839693420410156,-5.578404541015625,1.0989217529296875,0.0313106580197909,0.033969647517693886,-0.014917068506509161,0.1999361515045166,2019-06-21 12:52:12:408
7.818145935058594,-5.548477478027344,1.1096954956054688,0.030778025801775053,0.03583386028074935,-0.015716016833532933,0.20492815971374512,2019-06-21 12:52:12:413
7.8325109252929686,-5.518550415039062,1.0965275878906249,0.03184329023780675,0.037564914989300854,-0.01611549099704482,0.20992016792297363,2019-06-21 12:52:12:418
7.840890502929687,-5.532915405273437,1.13962255859375,0.03250908051032656,0.03716544082578897,-0.016248649051548783,0.21491217613220215,2019-06-21 12:52:12:423
7.858846740722656,-5.520944580078125,1.1432138061523438,0.031576974128798826,0.03703228277128501,-0.01611549099704482,0.2200319766998291,2019-06-21 12:52:12:428
7.863635070800781,-5.5245358276367185,1.1420167236328125,0.03250908051032656,0.036765966662277084,-0.01598233294254086,0.22502398490905762,2019-06-21 12:52:12:433
7.868423400878906,-5.508973754882812,1.14919921875,0.031976448292310715,0.038630179425332554,-0.01598233294254086,0.23001599311828613,2019-06-21 12:52:12:438
7.878000061035156,-5.507776672363281,1.1863087768554688,0.03210960634681467,0.03836386331632463,-0.016381807106052745,0.23500800132751465,2019-06-21 12:52:12:443
7.928277526855468,-5.504185424804687,1.240177490234375,0.03304171272834241,0.03703228277128501,-0.016248649051548783,0.24000000953674316,2019-06-21 12:52:12:448
7.966584167480469,-5.523338745117187,1.25454248046875,0.031576974128798826,0.03703228277128501,-0.015449700724525008,0.24499201774597168,2019-06-21 12:52:12:453
7.957007507324218,-5.552068725585937,1.2497541503906249,0.031177499965286945,0.035567544171741426,-0.01398496212498143,0.2499840259552002,2019-06-21 12:52:12:458
7.968978332519531,-5.547280395507812,1.268907470703125,0.0313106580197909,0.03450227973570973,-0.013186013797957656,0.2549760341644287,2019-06-21 12:52:12:463
7.96778125,-5.549674560546875,1.2222212524414062,0.03051170969276713,0.034102805572197845,-0.011588117143910113,0.2599680423736572,2019-06-21 12:52:12:468
7.941445434570312,-5.531718322753906,1.2138416748046874,0.031576974128798826,0.03277122502715823,-0.010922326871390305,0.26496005058288574,2019-06-21 12:52:12:473
7.93905126953125,-5.5245358276367185,1.1958854370117187,0.03064486774727109,0.033303857245174075,-0.009457588271846723,0.26995205879211426,2019-06-21 12:52:12:478
7.91989794921875,-5.523338745117187,1.2006737670898437,0.031044341910782983,0.03157280253662257,-0.008392323835815028,0.2749440670013428,2019-06-21 12:52:12:483
7.942642517089843,-5.536506652832031,1.2222212524414062,0.03171013218330279,0.03037438004608691,-0.0077265335632952185,0.2799360752105713,2019-06-21 12:52:12:488
7.957007507324218,-5.522141662597656,1.1934912719726563,0.03051170969276713,0.030108063937078988,-0.007193901345279372,0.2849280834197998,2019-06-21 12:52:12:493
7.930671691894531,-5.556857055664063,1.1755350341796875,0.031976448292310715,0.029175957555551257,-0.006528111072759562,0.2899200916290283,2019-06-21 12:52:12:498
7.88159130859375,-5.591572448730469,1.1755350341796875,0.03184329023780675,0.03024122199158295,-0.0053296885822239045,0.29491209983825684,2019-06-21 12:52:12:503
7.876802978515625,-5.596360778808593,1.2054620971679688,0.0313106580197909,0.029841747828071065,-0.004797056364208057,0.29990410804748535,2019-06-21 12:52:12:508
7.874408813476562,-5.617908264160156,1.2006737670898437,0.03264223856483052,0.028377009228527487,-0.005596004691231829,0.3050241470336914,2019-06-21 12:52:12:513
7.858846740722656,-5.641849914550781,1.1994766845703124,0.03210960634681467,0.028110693119519563,-0.006528111072759562,0.3100161552429199,2019-06-21 12:52:12:518
7.876802978515625,-5.6693828125,1.1731408691406249,0.03250908051032656,0.028243851174023525,-0.0070607432907754085,0.31500816345214844,2019-06-21 12:52:12:523
7.856452575683593,-5.662200317382812,1.2078562622070312,0.03317487078284637,0.026113322301960132,-0.008126007726807105,0.32000017166137695,2019-06-21 12:52:12:528
7.844481750488281,-5.649032409667969,1.1551846313476561,0.03317487078284637,0.026113322301960132,-0.0091912721628388,0.32499217987060547,2019-06-21 12:52:12:533
7.834905090332031,-5.6574119873046875,1.1755350341796875,0.03477276743689391,0.02584700619295221,-0.010256536598870495,0.329984188079834,2019-06-21 12:52:12:538
7.820540100097656,-5.656214904785156,1.1815204467773437,0.03397381910987014,0.026246480356464093,-0.011721275198414075,0.3349761962890625,2019-06-21 12:52:12:543
7.820540100097656,-5.681353637695312,1.1312429809570312,0.03317487078284637,0.024914899811424477,-0.012520223525437848,0.339968204498291,2019-06-21 12:52:12:548
7.8325109252929686,-5.656214904785156,1.1288488159179688,0.034373293273382025,0.02424910953890467,-0.0147839104520052,0.34496021270751953,2019-06-21 12:52:12:553
7.8468759155273435,-5.646638244628906,1.1360313110351563,0.03450645132788599,0.02331700315737693,-0.017047597378572553,0.34995198249816895,2019-06-21 12:52:12:558
7.844481750488281,-5.6262878417968745,1.1336371459960937,0.0351722436810004,0.023716477320888822,-0.017313913487580476,0.35494399070739746,2019-06-21 12:52:12:563
7.842087585449218,-5.614317016601563,1.0725859375,0.03450645132788599,0.024515425647912592,-0.019178126250635943,0.359935998916626,2019-06-21 12:52:12:568
7.852861328125,-5.608331604003906,1.1049071655273437,0.03397381910987014,0.024781741756920515,-0.02024339068666764,0.3649280071258545,2019-06-21 12:52:12:573
7.857649658203125,-5.644244079589844,1.1192721557617187,0.03384066105536618,0.025314373974936362,-0.021841287340715183,0.369920015335083,2019-06-21 12:52:12:578
7.852861328125,-5.625090759277343,1.1049071655273437,0.034240135218878066,0.025314373974936362,-0.023039709831250837,0.3749120235443115,2019-06-21 12:52:12:583
7.883985473632812,-5.610725769042968,1.1001188354492186,0.03290855467383845,0.027578060901503717,-0.024637606485298384,0.37990403175354004,2019-06-21 12:52:12:588
7.863635070800781,-5.616711181640625,1.10131591796875,0.03370750300086222,0.029175957555551257,-0.024903922594306308,0.3850240707397461,2019-06-21 12:52:12:593
7.856452575683593,-5.622696594238281,1.0809655151367188,0.03370750300086222,0.029175957555551257,-0.025969187030338,0.3900160789489746,2019-06-21 12:52:12:598
7.809766357421875,-5.616711181640625,1.1049071655273437,0.033574344946358255,0.029974905882575027,-0.026901293411865732,0.3950080871582031,2019-06-21 12:52:12:603
7.818145935058594,-5.608331604003906,1.0965275878906249,0.033574344946358255,0.03157280253662257,-0.027567083684385544,0.40000009536743164,2019-06-21 12:52:12:608
7.821737182617188,-5.587981201171875,1.13962255859375,0.03304171272834241,0.03183911864563049,-0.02929813839293705,0.40499210357666016,2019-06-21 12:52:12:613
7.821737182617188,-5.591572448730469,1.1216663208007813,0.0341069771643741,0.03143964448211861,-0.029963928665456857,0.40998411178588867,2019-06-21 12:52:12:618
7.8337080078125,-5.578404541015625,1.106104248046875,0.03397381910987014,0.03183911864563049,-0.03129550921049648,0.4149761199951172,2019-06-21 12:52:12:623
7.837299255371094,-5.561645385742187,1.13962255859375,0.03490592549139788,0.032105434754638416,-0.03182814142851233,0.4199681282043457,2019-06-21 12:52:12:628
7.839693420410156,-5.571222045898438,1.1743379516601562,0.033441186891854296,0.03383648946318992,-0.0326270897555361,0.4249601364135742,2019-06-21 12:52:12:633
7.857649658203125,-5.572419128417969,1.1599729614257812,0.034373293273382025,0.033969647517693886,-0.032760247810040055,0.42995214462280273,2019-06-21 12:52:12:638
7.863635070800781,-5.565236633300781,1.163564208984375,0.03490592549139788,0.03370333140868596,-0.03342603808255987,0.43494415283203125,2019-06-21 12:52:12:643
7.882788391113281,-5.574813293457031,1.1839146118164061,0.034240135218878066,0.03343701529967803,-0.03289340586454402,0.43993616104125977,2019-06-21 12:52:12:648
7.905532958984375,-5.5700249633789065,1.2030679321289062,0.034240135218878066,0.03370333140868596,-0.03342603808255987,0.4449281692504883,2019-06-21 12:52:12:653
7.929474609375,-5.571222045898438,1.221024169921875,0.033574344946358255,0.032105434754638416,-0.03342603808255987,0.4499201774597168,2019-06-21 12:52:12:658
7.947430847167968,-5.566433715820312,1.2353891601562499,0.03317487078284637,0.03303754113616615,-0.033159721973551944,0.4549121856689453,2019-06-21 12:52:12:663
7.946233764648437,-5.590375366210937,1.1863087768554688,0.03503908562649644,0.03237175086364634,-0.033159721973551944,0.45990419387817383,2019-06-21 12:52:12:668
7.952219177246094,-5.574813293457031,1.1755350341796875,0.03450645132788599,0.031306486427614647,-0.03369235419156779,0.4650239944458008,2019-06-21 12:52:12:673
7.965387084960938,-5.562842468261719,1.1707467041015625,0.03397381910987014,0.03024122199158295,-0.03382551224607175,0.4700160026550293,2019-06-21 12:52:12:678
7.96778125,-5.534112487792969,1.1384254760742187,0.03503908562649644,0.030507538100590873,-0.03182814142851233,0.4750080108642578,2019-06-21 12:52:12:683
7.971372497558594,-5.517353332519531,1.1563817138671875,0.035438559790008324,0.030108063937078988,-0.030762876992480627,0.48000001907348633,2019-06-21 12:52:12:688
7.965387084960938,-5.512565002441406,1.1946883544921876,0.03450645132788599,0.029708589773567103,-0.028898664229425164,0.48499202728271484,2019-06-21 12:52:12:693
7.9773579101562495,-5.514959167480469,1.1851116943359374,0.03477276743689391,0.030108063937078988,-0.028366032011409317,0.48998403549194336,2019-06-21 12:52:12:698
7.968978332519531,-5.523338745117187,1.153987548828125,0.03370750300086222,0.030640696155094835,-0.027167609520873656,0.4949760437011719,2019-06-21 12:52:12:703
7.973766662597656,-5.543689147949219,1.153987548828125,0.03330802883735033,0.030507538100590873,-0.024903922594306308,0.4999680519104004,2019-06-21 12:52:12:708
7.982146240234375,-5.547280395507812,1.1839146118164061,0.033441186891854296,0.030507538100590873,-0.0231728678857548,0.5049600601196289,2019-06-21 12:52:12:713
8.001299560546874,-5.529324157714844,1.1683525390625,0.03450645132788599,0.029841747828071065,-0.023439183994762722,0.5099520683288574,2019-06-21 12:52:12:718
7.9773579101562495,-5.532915405273437,1.192294189453125,0.034373293273382025,0.030907012264102765,-0.022240761504227068,0.5149440765380859,2019-06-21 12:52:12:723
7.941445434570312,-5.513762084960938,1.1743379516601562,0.034240135218878066,0.029841747828071065,-0.020909180959187448,0.5199360847473145,2019-06-21 12:52:12:728
7.959401672363281,-5.51615625,1.1887029418945312,0.034373293273382025,0.030507538100590873,-0.020909180959187448,0.524928092956543,2019-06-21 12:52:12:733
7.9330658569335935,-5.542492065429688,1.1946883544921876,0.03330802883735033,0.031040170318606727,-0.02024339068666764,0.5299201011657715,2019-06-21 12:52:12:738
7.951022094726563,-5.529324157714844,1.1563817138671875,0.03290855467383845,0.03037438004608691,-0.01957760041414783,0.534912109375,2019-06-21 12:52:12:743
7.928277526855468,-5.5556599731445315,1.19708251953125,0.03317487078284637,0.030507538100590873,-0.019178126250635943,0.5399041175842285,2019-06-21 12:52:12:748
7.9187008666992185,-5.5353095703125,1.1611700439453125,0.03171013218330279,0.03157280253662257,-0.017313913487580476,0.5450241565704346,2019-06-21 12:52:12:753
7.924686279296875,-5.558054138183594,1.134834228515625,0.031576974128798826,0.03237175086364634,-0.017180755433076515,0.5500161647796631,2019-06-21 12:52:12:758
7.9043358764648435,-5.567630798339843,1.1623671264648436,0.032375922455822596,0.03317069919067011,-0.017047597378572553,0.5550081729888916,2019-06-21 12:52:12:763
7.870817565917968,-5.599952026367188,1.144410888671875,0.030911183856279015,0.03277122502715823,-0.01678128126956463,0.5600001811981201,2019-06-21 12:52:12:768
7.873211730957031,-5.623893676757812,1.0737830200195313,0.030778025801775053,0.03370333140868596,-0.017713387651092365,0.5649921894073486,2019-06-21 12:52:12:773
7.858846740722656,-5.622696594238281,1.1049071655273437,0.03184329023780675,0.03343701529967803,-0.01944444235964387,0.5699841976165771,2019-06-21 12:52:12:778
7.89116796875,-5.6131199340820315,1.1408196411132812,0.031576974128798826,0.03343701529967803,-0.020509706795675563,0.5749762058258057,2019-06-21 12:52:12:783
7.8720146484375,-5.628682006835938,1.1073013305664061,0.03304171272834241,0.033303857245174075,-0.021974445395219144,0.5799682140350342,2019-06-21 12:52:12:788
7.870817565917968,-5.625090759277343,1.1168779907226563,0.03264223856483052,0.03223859280914238,-0.022773393722242914,0.5849599838256836,2019-06-21 12:52:12:793
7.88159130859375,-5.599952026367188,1.1432138061523438,0.03384066105536618,0.03277122502715823,-0.024238132321786496,0.5899519920349121,2019-06-21 12:52:12:798
7.879197143554688,-5.590375366210937,1.1527904663085937,0.03490592549139788,0.032904383081662186,-0.024770764539802346,0.5949440002441406,2019-06-21 12:52:12:803
7.866029235839844,-5.6119228515624995,1.1144838256835938,0.03477276743689391,0.03197227670013446,-0.025303396757818192,0.5999360084533691,2019-06-21 12:52:12:808
7.855255493164062,-5.599952026367188,1.1384254760742187,0.03503908562649644,0.032105434754638416,-0.02663497730285781,0.6049280166625977,2019-06-21 12:52:12:813
7.818145935058594,-5.601149108886719,1.1767321166992186,0.03583803395352021,0.03183911864563049,-0.02676813535736177,0.6099200248718262,2019-06-21 12:52:12:818
7.827722595214843,-5.5556599731445315,1.1420167236328125,0.03637066617153606,0.03197227670013446,-0.027833399793393467,0.6149120330810547,2019-06-21 12:52:12:823
7.8313138427734375,-5.566433715820312,1.1515933837890624,0.036903298389551906,0.03223859280914238,-0.02796655784789743,0.6199040412902832,2019-06-21 12:52:12:828
7.801386779785156,-5.5544628906249995,1.1683525390625,0.038101720880087564,0.03277122502715823,-0.02849919006591328,0.6250240802764893,2019-06-21 12:52:12:833
7.790613037109375,-5.530521240234375,1.1695496215820311,0.03743593060756775,0.03223859280914238,-0.02929813839293705,0.6300160884857178,2019-06-21 12:52:12:838
7.798992614746093,-5.56403955078125,1.230600830078125,0.03716961449855983,0.03237175086364634,-0.03089603504698459,0.6350080966949463,2019-06-21 12:52:12:843
7.8025838623046875,-5.562842468261719,1.1731408691406249,0.037302772553063794,0.03263806697265426,-0.03129550921049648,0.6400001049041748,2019-06-21 12:52:12:848
7.820540100097656,-5.5412949829101565,1.1695496215820311,0.03677014033504794,0.03143964448211861,-0.033159721973551944,0.6449921131134033,2019-06-21 12:52:12:853
7.850467163085938,-5.548477478027344,1.2054620971679688,0.03677014033504794,0.029841747828071065,-0.03395867030057571,0.6499841213226318,2019-06-21 12:52:12:858
7.837299255371094,-5.579601623535156,1.2234183349609375,0.03677014033504794,0.02944227366455918,-0.033159721973551944,0.6549761295318604,2019-06-21 12:52:12:863
7.84328466796875,-5.572419128417969,1.2485570678710938,0.037036456444055864,0.028909641446543333,-0.03409182835507967,0.6599681377410889,2019-06-21 12:52:12:868
7.894759216308594,-5.553265808105468,1.201870849609375,0.03570487589901625,0.028243851174023525,-0.03489077668210345,0.6649601459503174,2019-06-21 12:52:12:873
7.915109619140625,-5.548477478027344,1.1934912719726563,0.036104350062528136,0.028377009228527487,-0.036222357227143065,0.6699521541595459,2019-06-21 12:52:12:878
7.921095031738281,-5.532915405273437,1.1575787963867188,0.03570487589901625,0.02851016728303145,-0.035423408900119295,0.6749441623687744,2019-06-21 12:52:12:883
7.917503784179687,-5.547280395507812,1.1527904663085937,0.035305401735504366,0.02664595451997598,-0.03449130251859156,0.6799361705780029,2019-06-21 12:52:12:888
7.949825012207031,-5.514959167480469,1.1899000244140625,0.037036456444055864,0.02584700619295221,-0.03369235419156779,0.6849281787872314,2019-06-21 12:52:12:893
7.970175415039062,-5.513762084960938,1.1767321166992186,0.03637066617153606,0.026246480356464093,-0.03342603808255987,0.68992018699646,2019-06-21 12:52:12:898
7.971372497558594,-5.508973754882812,1.2102504272460937,0.037302772553063794,0.027311744792495794,-0.0326270897555361,0.6949121952056885,2019-06-21 12:52:12:903
7.95820458984375,-5.507776672363281,1.1515933837890624,0.03637066617153606,0.026113322301960132,-0.03182814142851233,0.699904203414917,2019-06-21 12:52:12:908
7.973766662597656,-5.498200012207031,1.14919921875,0.036104350062528136,0.024648583702416554,-0.030762876992480627,0.705024003982544,2019-06-21 12:52:12:913
7.994117065429688,-5.4970029296875,1.1515933837890624,0.036104350062528136,0.025314373974936362,-0.02929813839293705,0.7100160121917725,2019-06-21 12:52:12:918
8.001299560546874,-5.489820434570312,1.1372283935546874,0.03490592549139788,0.025314373974936362,-0.02849919006591328,0.715008020401001,2019-06-21 12:52:12:923
8.016861633300781,-5.464681701660156,1.1384254760742187,0.0351722436810004,0.02598016424745617,-0.026501819248353847,0.7200000286102295,2019-06-21 12:52:12:928
7.982146240234375,-5.485032104492188,1.1503963012695313,0.034240135218878066,0.02584700619295221,-0.024238132321786496,0.724992036819458,2019-06-21 12:52:12:933
7.982146240234375,-5.4814408569335935,1.1743379516601562,0.03210960634681467,0.02677911257447994,-0.023971816212778572,0.7299840450286865,2019-06-21 12:52:12:938
8.038409118652343,-5.455105041503906,1.134834228515625,0.03224276440131864,0.027977535065015602,-0.022240761504227068,0.734976053237915,2019-06-21 12:52:12:943
8.020452880859375,-5.451513793945312,1.1515933837890624,0.031044341910782983,0.02944227366455918,-0.02157497123170726,0.7399680614471436,2019-06-21 12:52:12:948
8.045591613769531,-5.4371488037109375,1.1037100830078124,0.03051170969276713,0.030907012264102765,-0.019178126250635943,0.7449600696563721,2019-06-21 12:52:12:953
8.0252412109375,-5.463484619140625,1.1096954956054688,0.029313287202231475,0.03197227670013446,-0.017313913487580476,0.7499520778656006,2019-06-21 12:52:12:958
8.038409118652343,-5.441937133789063,1.0977246704101562,0.027715390548183935,0.03263806697265426,-0.01558285877902897,0.7549440860748291,2019-06-21 12:52:12:963
8.000102478027344,-5.474258361816406,1.1288488159179688,0.025851177785128465,0.03436912168120577,-0.015316542670021046,0.7599360942840576,2019-06-21 12:52:12:968
8.026438293457032,-5.4814408569335935,1.115680908203125,0.024785913349096772,0.03729859888029293,-0.012786539634445772,0.7649281024932861,2019-06-21 12:52:12:973
7.976160827636718,-5.470667114257813,1.10131591796875,0.022921700586041302,0.038230705261820666,-0.010922326871390305,0.7699201107025146,2019-06-21 12:52:12:978
8.019255798339843,-5.465878784179687,1.1456079711914062,0.02198959420451357,0.03836386331632463,-0.008924956053830875,0.7749121189117432,2019-06-21 12:52:12:983
7.980949157714844,-5.474258361816406,1.1515933837890624,0.01972590727794622,0.040228076079380094,-0.008259165781311067,0.7799041271209717,2019-06-21 12:52:12:988
7.953416259765625,-5.493411682128906,1.1599729614257812,0.018261168678402637,0.042491763005947446,-0.006794427181767485,0.7850241661071777,2019-06-21 12:52:12:993
7.923489196777344,-5.546083312988281,1.1791262817382813,0.01759537840588283,0.04382334355098706,-0.005995478854743714,0.7900161743164062,2019-06-21 12:52:12:998
7.922292114257813,-5.529324157714844,1.1875058593749999,0.015731165642827363,0.04488860798701876,-0.005196530527719943,0.7950081825256348,2019-06-21 12:52:13:003
7.906730041503906,-5.5101708374023435,1.1515933837890624,0.014799059261299628,0.046752820750074225,-0.004797056364208057,0.8000001907348633,2019-06-21 12:52:13:008
7.907927124023438,-5.518550415039062,1.13962255859375,0.014799059261299628,0.046885978804578184,-0.003998108037184285,0.8049921989440918,2019-06-21 12:52:13:013
7.90074462890625,-5.529324157714844,1.1372283935546874,0.013866952879771894,0.04622018853205838,-0.0035986338736723996,0.8099842071533203,2019-06-21 12:52:13:018
7.906730041503906,-5.542492065429688,1.1707467041015625,0.013201162607252084,0.04715229491358612,-0.0031991597101605138,0.8149759769439697,2019-06-21 12:52:13:023
7.885182556152343,-5.561645385742187,1.211447509765625,0.0128016884437402,0.046885978804578184,-0.003465475819168438,0.8199679851531982,2019-06-21 12:52:13:028
7.869620483398437,-5.549674560546875,1.1683525390625,0.012402214280228314,0.047551769077098,-0.0029328436011525905,0.8249599933624268,2019-06-21 12:52:13:033
7.867226318359375,-5.550871643066406,1.1767321166992186,0.013201162607252084,0.047418611022594044,-0.004397582200696171,0.8299520015716553,2019-06-21 12:52:13:038
7.864832153320313,-5.5556599731445315,1.1719437866210938,0.013866952879771894,0.04795124324060989,-0.003998108037184285,0.8349440097808838,2019-06-21 12:52:13:043
7.8468759155273435,-5.546083312988281,1.1551846313476561,0.011869582062212464,0.04808440129511385,-0.0029328436011525905,0.8399360179901123,2019-06-21 12:52:13:048
7.855255493164062,-5.558054138183594,1.1899000244140625,0.012269056225724353,0.04928282378564951,-0.003998108037184285,0.8449280261993408,2019-06-21 12:52:13:053
7.849270080566406,-5.585587036132813,1.1875058593749999,0.012668530389236238,0.04835071740412177,-0.005596004691231829,0.8499200344085693,2019-06-21 12:52:13:058
7.842087585449218,-5.578404541015625,1.1934912719726563,0.01213589817122039,0.046752820750074225,-0.00506337247321598,0.8549120426177979,2019-06-21 12:52:13:063
7.814554687499999,-5.59276953125,1.2066591796875,0.01213589817122039,0.04728545296809008,-0.005196530527719943,0.8599040508270264,2019-06-21 12:52:13:068
7.814554687499999,-5.60234619140625,1.1755350341796875,0.011603265953204541,0.046885978804578184,-0.006528111072759562,0.8650240898132324,2019-06-21 12:52:13:073
7.836102172851563,-5.615514099121094,1.1767321166992186,0.01213589817122039,0.04661966269557026,-0.006927585236271447,0.8700160980224609,2019-06-21 12:52:13:078
7.84328466796875,-5.62149951171875,1.1887029418945312,0.013201162607252084,0.04502176604152272,-0.006794427181767485,0.8750081062316895,2019-06-21 12:52:13:083
7.8612409057617185,-5.622696594238281,1.1839146118164061,0.013866952879771894,0.044489133823506874,-0.008126007726807105,0.880000114440918,2019-06-21 12:52:13:088
7.825328430175781,-5.562842468261719,1.1910971069335938,0.015065375370307551,0.04395650160549103,-0.007992849672303142,0.8849921226501465,2019-06-21 12:52:13:093
7.821737182617188,-5.576010375976562,1.1683525390625,0.015331691479315474,0.04275807911495537,-0.008791797999326913,0.889984130859375,2019-06-21 12:52:13:098
7.808569274902344,-5.595163696289062,1.2030679321289062,0.01639695591534717,0.04182597273342764,-0.009590746326350685,0.8949761390686035,2019-06-21 12:52:13:103
7.8313138427734375,-5.647835327148437,1.1994766845703124,0.016663272024355094,0.03996175997037217,-0.010256536598870495,0.899968147277832,2019-06-21 12:52:13:108
7.842087585449218,-5.638258666992187,1.1910971069335938,0.0183943267329066,0.037564914989300854,-0.01265338157994181,0.9049601554870605,2019-06-21 12:52:13:113
7.845678833007812,-5.6430469970703125,1.1264546508789062,0.019459591168938296,0.037564914989300854,-0.013186013797957656,0.9099521636962891,2019-06-21 12:52:13:118
7.842087585449218,-5.625090759277343,1.1719437866210938,0.02198959420451357,0.03610017638975727,-0.014650752397501238,0.9149441719055176,2019-06-21 12:52:13:123
7.849270080566406,-5.6274849243164065,1.1623671264648436,0.02345433280405715,0.03490175389922162,-0.014917068506509161,0.9199361801147461,2019-06-21 12:52:13:128
7.848072998046875,-5.625090759277343,1.15877587890625,0.024785913349096772,0.032904383081662186,-0.0147839104520052,0.925055980682373,2019-06-21 12:52:13:133
7.852861328125,-5.609528686523437,1.1372283935546874,0.026650126112152235,0.03117332837311069,-0.016514965160556706,0.9299201965332031,2019-06-21 12:52:13:138
7.879197143554688,-5.625090759277343,1.1240604858398437,0.02798170665719186,0.031040170318606727,-0.01691443932406859,0.9349122047424316,2019-06-21 12:52:13:143
7.864832153320313,-5.62149951171875,1.1432138061523438,0.02984591942024732,0.030507538100590873,-0.01811286181460425,0.9399042129516602,2019-06-21 12:52:13:148
7.837299255371094,-5.6262878417968745,1.1456079711914062,0.030378551638263168,0.029974905882575027,-0.01904496819613198,0.9450240135192871,2019-06-21 12:52:13:153
7.849270080566406,-5.6131199340820315,1.17792919921875,0.03224276440131864,0.02771121895600768,-0.01904496819613198,0.9500160217285156,2019-06-21 12:52:13:158
7.822934265136719,-5.603543273925781,1.1503963012695313,0.0341069771643741,0.02584700619295221,-0.01944444235964387,0.9550080299377441,2019-06-21 12:52:13:163
7.837299255371094,-5.6131199340820315,1.1480021362304687,0.035438559790008324,0.025447532029440324,-0.019311284305139904,0.9600000381469727,2019-06-21 12:52:13:168
7.856452575683593,-5.65980615234375,1.1336371459960937,0.03756908866207172,0.025580690083944285,-0.02104233901369141,0.9649920463562012,2019-06-21 12:52:13:173
7.863635070800781,-5.676565307617188,1.1683525390625,0.03943330142512718,0.026246480356464093,-0.022107603449723106,0.9699840545654297,2019-06-21 12:52:13:178
7.850467163085938,-5.681353637695312,1.1324400634765626,0.03996593364314303,0.02504805786592844,-0.02250707761323499,0.9749760627746582,2019-06-21 12:52:13:183
7.854058410644531,-5.6574119873046875,1.13962255859375,0.04196330446070246,0.02438226759340863,-0.023971816212778572,0.9799680709838867,2019-06-21 12:52:13:188
7.873211730957031,-5.6502294921875,1.1408196411132812,0.042362778624214344,0.023583319266384854,-0.024637606485298384,0.9849600791931152,2019-06-21 12:52:13:193
7.901941711425781,-5.666988647460937,1.1503963012695313,0.04356120111475,0.022917528993865045,-0.026368661193849886,0.9899520874023438,2019-06-21 12:52:13:198
7.86243798828125,-5.663397399902344,1.1456079711914062,0.04409383333276585,0.02092015817630562,-0.027034451466369694,0.9949440956115723,2019-06-21 12:52:13:203
7.858846740722656,-5.646638244628906,1.1623671264648436,0.046224362204829235,0.020787000121801655,-0.028099715902401394,0.9999361038208008,2019-06-21 12:52:13:208
7.840890502929687,-5.652623657226562,1.2006737670898437,0.04675699442284509,0.021319632339817506,-0.029830770610952895,1.0049281120300293,2019-06-21 12:52:13:213
7.8468759155273435,-5.651426574707031,1.1695496215820311,0.04835489107689263,0.020520684012793732,-0.031162351155992515,1.0099201202392578,2019-06-21 12:52:13:218
7.839693420410156,-5.625090759277343,1.1683525390625,0.048088574967884705,0.019988051794777886,-0.03129550921049648,1.0149121284484863,2019-06-21 12:52:13:223
7.864832153320313,-5.585587036132813,1.19708251953125,0.04942015551292433,0.01892278735874619,-0.03142866726500044,1.0199041366577148,2019-06-21 12:52:13:228
7.893562133789063,-5.617908264160156,1.1408196411132812,0.04942015551292433,0.017191732650194684,-0.03289340586454402,1.025024175643921,2019-06-21 12:52:13:233
7.8756058959960935,-5.620302429199219,1.17792919921875,0.05008594578544413,0.01692541654118676,-0.035023934736607414,1.0300161838531494,2019-06-21 12:52:13:238
7.869620483398437,-5.622696594238281,1.2078562622070312,0.050751736057963945,0.015860152105155068,-0.036222357227143065,1.035008192062378,2019-06-21 12:52:13:243
7.834905090332031,-5.607134521484375,1.1731408691406249,0.0508848941124679,0.014928045723627333,-0.035423408900119295,1.0400002002716064,2019-06-21 12:52:13:248
7.867226318359375,-5.604740356445312,1.1767321166992186,0.05248279076651544,0.014794887669123371,-0.03582288306363118,1.044992208480835,2019-06-21 12:52:13:253
7.894759216308594,-5.5700249633789065,1.1192721557617187,0.051550684384987715,0.015194361832635256,-0.03755393777218268,1.0499839782714844,2019-06-21 12:52:13:258
7.893562133789063,-5.550871643066406,1.1408196411132812,0.05181700049399564,0.015061203778131294,-0.03768709582668665,1.054975986480713,2019-06-21 12:52:13:263
7.851664245605469,-5.553265808105468,1.1264546508789062,0.052349632712011485,0.015194361832635256,-0.0371544636086708,1.0599679946899414,2019-06-21 12:52:13:268
7.848072998046875,-5.565236633300781,1.1611700439453125,0.052349632712011485,0.01546067794164318,-0.03835288609920646,1.06496000289917,2019-06-21 12:52:13:273
7.86243798828125,-5.561645385742187,1.1731408691406249,0.05288226493002733,0.014794887669123371,-0.038885518317222305,1.0699520111083984,2019-06-21 12:52:13:278
7.8612409057617185,-5.542492065429688,1.1863087768554688,0.05248279076651544,0.014661729614619408,-0.03981762469875004,1.074944019317627,2019-06-21 12:52:13:283
7.88159130859375,-5.51615625,1.1803233642578124,0.052349632712011485,0.014395413505611484,-0.03941815053523815,1.0799360275268555,2019-06-21 12:52:13:288
7.845678833007812,-5.5556599731445315,1.1910971069335938,0.05261594882101941,0.013596465178587713,-0.03861920220821438,1.084928035736084,2019-06-21 12:52:13:293
7.864832153320313,-5.522141662597656,1.1743379516601562,0.05141752633048375,0.014395413505611484,-0.039950782753254,1.0899200439453125,2019-06-21 12:52:13:298
7.8720146484375,-5.5245358276367185,1.182717529296875,0.05141752633048375,0.015327519887139218,-0.04021709886226192,1.094912052154541,2019-06-21 12:52:13:303
7.868423400878906,-5.5269299926757816,1.1994766845703124,0.05208331660300356,0.01546067794164318,-0.04021709886226192,1.0999040603637695,2019-06-21 12:52:13:308
7.84328466796875,-5.5389008178710935,1.1707467041015625,0.0502191038399481,0.014395413505611484,-0.04061657302577381,1.1050240993499756,2019-06-21 12:52:13:313
7.89116796875,-5.531718322753906,1.1575787963867188,0.051151210221475826,0.015194361832635256,-0.04101604718928569,1.110016107559204,2019-06-21 12:52:13:318
7.903138793945312,-5.498200012207031,1.1910971069335938,0.0508848941124679,0.015327519887139218,-0.03981762469875004,1.1150081157684326,2019-06-21 12:52:13:323
7.9103212890625,-5.493411682128906,1.1599729614257812,0.049153839403916405,0.01546067794164318,-0.03848604415371042,1.1200001239776611,2019-06-21 12:52:13:328
7.936657104492188,-5.471864196777344,1.1946883544921876,0.04848804913139659,0.015061203778131294,-0.03915183442623023,1.1249921321868896,2019-06-21 12:52:13:333
7.924686279296875,-5.480243774414062,1.192294189453125,0.04715646858635698,0.014928045723627333,-0.03901867637172627,1.1299841403961182,2019-06-21 12:52:13:338
7.911518371582031,-5.48742626953125,1.1803233642578124,0.04609120415032527,0.01692541654118676,-0.03875236026271835,1.1349761486053467,2019-06-21 12:52:13:343
7.928277526855468,-5.4527108764648435,1.1863087768554688,0.04502593971429358,0.018656471249738266,-0.038086569990198535,1.1399681568145752,2019-06-21 12:52:13:348
7.928277526855468,-5.459893371582031,1.1815204467773437,0.04369435916925396,0.017990680977218457,-0.03675498944515891,1.1449601650238037,2019-06-21 12:52:13:353
7.923489196777344,-5.4527108764648435,1.153987548828125,0.04249593667871831,0.019854893740273924,-0.036222357227143065,1.1499521732330322,2019-06-21 12:52:13:358
7.9103212890625,-5.433557556152343,1.1300458984375,0.0407648819701668,0.021186474285313544,-0.034624460573095525,1.1549441814422607,2019-06-21 12:52:13:363
7.915109619140625,-5.44911962890625,1.110892578125,0.04063172391566284,0.022118580666841275,-0.03449130251859156,1.1599361896514893,2019-06-21 12:52:13:368
7.883985473632812,-5.4527108764648435,1.1312429809570312,0.038900669207111334,0.022784370939361084,-0.03409182835507967,1.1649281978607178,2019-06-21 12:52:13:373
7.942642517089843,-5.471864196777344,1.1480021362304687,0.03836803698909549,0.024781741756920515,-0.0332928800280559,1.1699202060699463,2019-06-21 12:52:13:378
7.95820458984375,-5.432360473632812,1.1049071655273437,0.037302772553063794,0.024781741756920515,-0.03142866726500044,1.1749122142791748,2019-06-21 12:52:13:383
7.99651123046875,-5.4084188232421875,1.1132867431640625,0.03637066617153606,0.025314373974936362,-0.029697612556448934,1.1799039840698242,2019-06-21 12:52:13:388
8.059956604003906,-5.373703430175781,1.1683525390625,0.034639609382389955,0.02851016728303145,-0.02796655784789743,1.1850240230560303,2019-06-21 12:52:13:393
8.098263244628907,-5.371309265136719,1.1994766845703124,0.03264223856483052,0.02944227366455918,-0.026102345084841962,1.1900160312652588,2019-06-21 12:52:13:398
8.049182861328125,-5.374900512695312,1.2485570678710938,0.030112235529255245,0.029841747828071065,-0.023971816212778572,1.1950080394744873,2019-06-21 12:52:13:403
8.06474493408203,-5.413207153320313,1.2473599853515625,0.027582232493679974,0.03157280253662257,-0.02157497123170726,1.2000000476837158,2019-06-21 12:52:13:408
8.125796142578125,-5.416798400878906,1.086950927734375,0.025052229458104695,0.02930911561005522,-0.018778652087124058,1.2049920558929443,2019-06-21 12:52:13:413
8.131781555175781,-5.433557556152343,0.991184326171875,0.02718275833016808,0.02930911561005522,-0.014917068506509161,1.2099840641021729,2019-06-21 12:52:13:418
8.153329040527344,-5.329411376953125,1.0797684326171875,0.02984591942024732,0.031040170318606727,-0.010389694653374457,1.2149760723114014,2019-06-21 12:52:13:423
8.116219482421874,-5.231250610351562,1.1324400634765626,0.026783284166656197,0.030907012264102765,-0.005196530527719943,1.2199680805206299,2019-06-21 12:52:13:428
8.095869079589843,-5.206111877441406,1.1551846313476561,0.02385380696756904,0.03490175389922162,-0.0009354727835931616,1.2249600887298584,2019-06-21 12:52:13:433
8.030029541015624,-5.2480097656249995,1.1910971069335938,0.01985906533245018,0.03849702137082859,0.003325584960533619,1.229952096939087,2019-06-21 12:52:13:438
8.030029541015624,-5.329411376953125,1.2138416748046874,0.016663272024355094,0.042092288842435564,0.007986116868172285,1.2349441051483154,2019-06-21 12:52:13:443
8.047985778808593,-5.380885925292969,1.1611700439453125,0.01706274618786698,0.038630179425332554,0.011315068230771332,1.239936113357544,2019-06-21 12:52:13:448
8.119810729980468,-5.386871337890625,1.1168779907226563,0.018793800896418484,0.03929596969785236,0.016241916247417925,1.2449281215667725,2019-06-21 12:52:13:453
8.166496948242187,-5.346170532226562,1.0701917724609376,0.0183943267329066,0.04076070829739594,0.019704025664520935,1.249920129776001,2019-06-21 12:52:13:458
8.148540710449218,-5.283922241210937,1.0929363403320311,0.017329062296874902,0.04302439522396329,0.024364557572159603,1.2549121379852295,2019-06-21 12:52:13:463
8.1401611328125,-5.269557250976562,1.1312429809570312,0.013733794825267931,0.04582071436854649,0.02929140558880619,1.259904146194458,2019-06-21 12:52:13:468
8.098263244628907,-5.2492068481445315,1.17792919921875,0.008540630699613418,0.047551769077098,0.03315298916942108,1.265024185180664,2019-06-21 12:52:13:473
8.09347491455078,-5.298287231445312,1.1958854370117187,0.006010627664038141,0.050214930167177235,0.03714773080453994,1.2700161933898926,2019-06-21 12:52:13:478
8.075518676757813,-5.330608459472656,1.14919921875,0.004279572955486637,0.051280194603208935,0.04274036909370634,1.275008201599121,2019-06-21 12:52:13:483
8.15093487548828,-5.331805541992187,1.1815204467773437,0.00521167933701437,0.051280194603208935,0.047933533219360856,1.2800002098083496,2019-06-21 12:52:13:488
8.182059020996094,-5.303075561523437,1.2497541503906249,0.0073422082090777606,0.05074756238519308,0.05299353929051141,1.284991979598999,2019-06-21 12:52:13:493
8.191635681152343,-5.273148498535156,1.2425716552734374,0.005611153500526256,0.05114703654870497,0.05885249368868574,1.2899839878082275,2019-06-21 12:52:13:498
8.182059020996094,-5.2623747558593745,1.1659583740234374,0.0032143085194549412,0.051413352657712894,0.06524408030487591,1.294975996017456,2019-06-21 12:52:13:503
8.191635681152343,-5.275542663574218,1.1168779907226563,0.000950621592887589,0.05420967180229609,0.07163567108225528,1.2999680042266846,2019-06-21 12:52:13:508
8.16889111328125,-5.304272644042968,1.048644287109375,-0.0011799072791758016,0.05753862316489514,0.07762778353493358,1.304960012435913,2019-06-21 12:52:13:513
8.085095336914062,-5.333002624511718,1.0701917724609376,0.0001516732658638175,0.05580756845634364,0.08388621209661977,1.3099520206451416,2019-06-21 12:52:13:518
8.107839904785155,-5.417995483398437,1.2341920776367188,0.0004179893748717413,0.054076513747792126,0.09120990509433768,1.3149440288543701,2019-06-21 12:52:13:523
8.058759521484374,-5.2923018188476565,1.0833596801757812,0.002814834355943056,0.05274493320275251,0.09613675311098427,1.3199360370635986,2019-06-21 12:52:13:528
8.045591613769531,-5.388068420410156,1.0725859375,0.004812205173502484,0.054742304020311945,0.10066412696411897,1.3249280452728271,2019-06-21 12:52:13:533
8.076715759277343,-5.406024658203125,1.2150387573242187,0.006143785718542103,0.05500862012931987,0.10505834276274972,1.3299200534820557,2019-06-21 12:52:13:538
8.099460327148437,-5.4383458862304686,1.2329949951171875,0.0002848313203677794,0.05687283289237533,0.107588345798325,1.3349120616912842,2019-06-21 12:52:13:543
7.965387084960938,-5.462287536621093,1.1934912719726563,0.004146414900982675,0.05727230705588722,0.11184940354245178,1.3400321006774902,2019-06-21 12:52:13:548
7.895956298828125,-5.547280395507812,1.1659583740234374,0.002149044083423246,0.0559407265108476,0.11477888074153893,1.3450241088867188,2019-06-21 12:52:13:553
8.03481787109375,-5.519747497558594,1.0785713500976561,0.00454588906449456,0.05354388152977628,0.11850730626764988,1.3500161170959473,2019-06-21 12:52:13:558
7.970175415039062,-5.5700249633789065,1.125257568359375,0.009605895135645113,0.05194598487572874,0.121569941521241,1.3550081253051758,2019-06-21 12:52:13:563
7.9929199829101565,-5.4227838134765625,1.1288488159179688,0.009073262917629266,0.05567441040183968,0.12409994455681628,1.3600001335144043,2019-06-21 12:52:13:568
7.912715454101562,-5.427572143554688,1.240177490234375,0.006010627664038141,0.05753862316489514,0.12596415731987173,1.3649921417236328,2019-06-21 12:52:13:573
7.870817565917968,-5.599952026367188,1.25454248046875,0.005611153500526256,0.05753862316489514,0.12702942175590343,1.3699841499328613,2019-06-21 12:52:13:578
7.867226318359375,-5.6119228515624995,1.1120896606445312,0.0006843054838796651,0.058603887600926836,0.12969258284598267,1.3749761581420898,2019-06-21 12:52:13:583
7.8169488525390625,-5.728039855957031,1.10131591796875,0.004412731009990598,0.05753862316489514,0.13049153117300644,1.3799681663513184,2019-06-21 12:52:13:588
7.806175109863281,-5.783105651855468,1.2186300048828125,0.008940104863125305,0.05727230705588722,0.13009205700949455,1.3849601745605469,2019-06-21 12:52:13:593
7.76667138671875,-5.779514404296875,1.0725859375,0.006010627664038141,0.0538101976387842,0.12889363451895888,1.3899521827697754,2019-06-21 12:52:13:598
7.7594888916015625,-5.705295288085938,1.0223084716796875,0.014000110934275858,0.056340200674359485,0.1278283700829272,1.394944190979004,2019-06-21 12:52:13:603
7.694846435546875,-5.743601928710937,1.029490966796875,0.008407472645109456,0.05793809732840703,0.1264967895378876,1.3999361991882324,2019-06-21 12:52:13:608
7.629006896972656,-5.734025268554688,1.192294189453125,0.006543259882053989,0.059402835927950606,0.12383362844780835,1.404928207397461,2019-06-21 12:52:13:613
7.578729431152343,-5.8752810058593745,1.3431265869140625,0.005477995446022293,0.0604681003639823,0.12077099319421723,1.4099199771881104,2019-06-21 12:52:13:618
7.5404227905273435,-5.948303039550781,1.221024169921875,0.002814834355943056,0.06126704869100607,0.11517835490505082,1.4149119853973389,2019-06-21 12:52:13:623
7.4817657470703125,-6.012945495605469,1.3347470092773437,0.006010627664038141,0.059802310091462495,0.10985203272489234,1.4199039936065674,2019-06-21 12:52:13:628
7.397969970703125,-6.032098815917968,1.4329077758789062,0.005744311555030217,0.058603887600926836,0.10359360416320615,1.4250240325927734,2019-06-21 12:52:13:633
7.4087437133789065,-6.060828796386718,1.27369580078125,0.004412731009990598,0.055141778183823834,0.09746833365602389,1.430016040802002,2019-06-21 12:52:13:638
7.420714538574218,-6.1972962036132815,1.1851116943359374,0.008141156536101533,0.05048124627618516,0.08841358594975449,1.4350080490112305,2019-06-21 12:52:13:643
7.443459106445312,-6.3014423828125,1.1336371459960937,0.010804317626180771,0.050214930167177235,0.07989147046150093,1.440000057220459,2019-06-21 12:52:13:648
7.286641296386718,-6.27271240234375,1.0989217529296875,0.013733794825267931,0.04928282378564951,0.06843987361297099,1.4449920654296875,2019-06-21 12:52:13:653
7.2040426025390625,-6.279894897460937,1.1839146118164061,0.014665901206795666,0.05154651071221686,0.05805354536166197,1.449984073638916,2019-06-21 12:52:13:658
7.103487670898438,-6.373267333984375,1.3323528442382813,0.01493221731580359,0.04848387545862574,0.04513721407477766,1.4549760818481445,2019-06-21 12:52:13:663
7.001735656738281,-6.440303955078125,1.1982796020507813,0.01213589817122039,0.04395650160549103,0.03062298613384581,1.459968090057373,2019-06-21 12:52:13:668
7.031662719726563,-6.582756774902344,1.0642063598632812,0.016929588133363017,0.04235860495144349,0.014244545429858495,1.4649600982666016,2019-06-21 12:52:13:673
7.031662719726563,-6.582756774902344,1.0642063598632812,0.016929588133363017,0.04235860495144349,0.014244545429858495,1.4679040908813477,2019-06-21 12:52:13:676
6.913151550292969,-6.696479614257813,1.2246154174804686,0.02718275833016808,0.034768595844717656,-0.019843916523155754,1.4749441146850586,2019-06-21 12:52:13:683
6.913151550292969,-6.696479614257813,1.2246154174804686,0.02718275833016808,0.034768595844717656,-0.019843916523155754,1.4778881072998047,2019-06-21 12:52:13:686
6.805414123535156,-6.710844604492188,1.1803233642578124,0.03397381910987014,0.02864332533753541,-0.06045712314686413,1.4849281311035156,2019-06-21 12:52:13:693
6.805414123535156,-6.710844604492188,1.1803233642578124,0.03397381910987014,0.02864332533753541,-0.06045712314686413,1.4878721237182617,2019-06-21 12:52:13:696
6.812596618652344,-6.749151245117187,1.2868637084960937,0.037702246716575676,0.02424910953890467,-0.10280138031793483,1.4949121475219727,2019-06-21 12:52:13:703
6.812596618652344,-6.749151245117187,1.2868637084960937,0.037702246716575676,0.02424910953890467,-0.10280138031793483,1.4978561401367188,2019-06-21 12:52:13:706
6.773092895507812,-6.740771667480469,1.1611700439453125,0.043161726951238114,0.019988051794777886,-0.14820827690378582,1.5050241947174072,2019-06-21 12:52:13:713
6.785063720703125,-6.7371804199218746,1.163564208984375,0.043161726951238114,0.018789629304242227,-0.1692472495154118,1.5100162029266357,2019-06-21 12:52:13:718
6.831749938964844,-6.706056274414062,1.1671554565429687,0.04436014944177377,0.01599331015965903,-0.18975358990902194,1.5150082111358643,2019-06-21 12:52:13:723
6.872450744628906,-6.714435852050781,1.1683525390625,0.04862120718590056,0.013596465178587713,-0.21239045917469548,1.5199999809265137,2019-06-21 12:52:13:728
6.890406982421875,-6.671340881347656,1.1755350341796875,0.04928699745842036,0.01266435879705998,-0.23302995762280956,1.5249919891357422,2019-06-21 12:52:13:733
6.915545715332031,-6.652187561035156,1.1420167236328125,0.05048541994895602,0.009601723543468856,-0.2548678785614593,1.5299839973449707,2019-06-21 12:52:13:738
6.947866943359375,-6.6641583862304685,1.1120896606445312,0.05448016158407488,0.006539088289877732,-0.2737763223010219,1.5349760055541992,2019-06-21 12:52:13:743
7.07715185546875,-6.695282531738281,1.1815204467773437,0.05661069045613827,0.004009085254302456,-0.2948152949126479,1.5399680137634277,2019-06-21 12:52:13:748
7.07715185546875,-6.695282531738281,1.1815204467773437,0.05860806127369769,0.002544346654758875,-0.315454793360762,1.5449600219726562,2019-06-21 12:52:13:753
7.060392700195313,-6.662961303710937,1.2006737670898437,0.059673325709729386,0.0010796080552152938,-0.3372927142994117,1.5499520301818848,2019-06-21 12:52:13:758
7.083137268066406,-6.668946716308594,1.2150387573242187,0.05794227100117789,0.0002806597281915225,-0.35779905469302187,1.5549440383911133,2019-06-21 12:52:13:763
7.1010935058593745,-6.666552551269531,1.1456079711914062,0.06167069652728882,-0.0010509208168480967,-0.37724013065060036,1.5599360466003418,2019-06-21 12:52:13:768
7.0879255981445315,-6.658172973632812,1.1958854370117187,0.06220332874530467,-0.002781975525399601,-0.3990780515892501,1.5649280548095703,2019-06-21 12:52:13:773
7.0867285156249995,-6.595924682617188,1.2377833251953125,0.06313543512683241,-0.0050456624519669546,-0.42025018225537997,1.5699200630187988,2019-06-21 12:52:13:778
7.141794311523437,-6.580362609863281,1.192294189453125,0.06473333178087995,-0.007309349378534306,-0.4408896807034941,1.5749120712280273,2019-06-21 12:52:13:783
7.213619262695312,-6.5767713623046875,1.21623583984375,0.0642006995628641,-0.007975139651054116,-0.46179549526061614,1.5799040794372559,2019-06-21 12:52:13:788
7.302203369140625,-6.524099731445312,1.2150387573242187,0.06433385761736805,-0.008640929923573926,-0.4780407779100995,1.585024118423462,2019-06-21 12:52:13:793
7.389590393066406,-6.491778503417969,1.1336371459960937,0.06473333178087995,-0.0067767171605184594,-0.4961502733226383,1.5900161266326904,2019-06-21 12:52:13:798
7.461415344238281,-6.466639770507812,1.1420167236328125,0.06207017069080071,-0.006510401051510534,-0.5147924009531929,1.595008134841919,2019-06-21 12:52:13:803
7.523663635253906,-6.409179809570312,1.144410888671875,0.06380122539935221,-0.005178820506470916,-0.5309045255481724,1.6000001430511475,2019-06-21 12:52:13:808
7.5248607177734375,-6.348128601074219,1.1192721557617187,0.06286911901782448,-0.0035809238524233725,-0.5486145467971992,1.604992151260376,2019-06-21 12:52:13:813
7.485356994628906,-6.27271240234375,1.0965275878906249,0.061937012636296744,-0.0038472399614312967,-0.5663246013357398,1.6099841594696045,2019-06-21 12:52:13:818
7.4961307373046875,-6.2846832275390625,1.0522355346679688,0.06260280290881656,-0.0038472399614312967,-0.5809719873311756,1.614976167678833,2019-06-21 12:52:13:823
7.414729125976562,-6.278697814941406,1.1180750732421876,0.05740963878316204,-0.00038513054432828706,-0.5996141149617303,1.6199681758880615,2019-06-21 12:52:13:828
7.490145324707031,-6.355311096191406,1.0713888549804687,0.058474903219193734,-0.00011881443532036326,-0.6174572942652612,1.62496018409729,2019-06-21 12:52:13:833
7.448247436523437,-6.287077392578125,1.0378705444335938,0.05940700960072146,-0.0006514466533362108,-0.635699947732304,1.6299521923065186,2019-06-21 12:52:13:838
7.354875,-6.242785339355469,1.0318851318359374,0.0558117421291145,0.002278030545750951,-0.6563394461804181,1.634944200515747,2019-06-21 12:52:13:843
7.445853271484375,-6.1817341308593745,1.000760986328125,0.05181700049399564,0.00427540136331038,-0.6759136801925005,1.6399362087249756,2019-06-21 12:52:13:848
7.563167358398437,-6.203281616210937,1.010337646484375,0.051950158548499596,0.008403301052933198,-0.6946889658775591,1.644927978515625,2019-06-21 12:52:13:853
7.587109008789063,-6.216449523925781,1.163564208984375,0.049153839403916405,0.013196991015075828,-0.715727938489185,1.6499199867248535,2019-06-21 12:52:13:858
7.591897338867187,-6.1865224609375,1.0929363403320311,0.04755594274986886,0.015327519887139218,-0.7366337530463071,1.654911994934082,2019-06-21 12:52:13:863
7.55598486328125,-6.15779248046875,1.1037100830078124,0.04489278165978962,0.014794887669123371,-0.7559416709493816,1.6599040031433105,2019-06-21 12:52:13:868
7.534437377929687,-6.162580810546875,1.2138416748046874,0.04475962360528565,0.016392784323170914,-0.7769806435610076,1.6650240421295166,2019-06-21 12:52:13:873
7.619430236816406,-6.218843688964844,1.2868637084960937,0.05061857800345998,0.013196991015075828,-0.7977533000636257,1.6700160503387451,2019-06-21 12:52:13:878
7.6266127319335935,-6.166172058105468,1.221024169921875,0.051950158548499596,0.010933304088508474,-0.817593850184716,1.6750080585479736,2019-06-21 12:52:13:883
7.581123596191406,-6.188916625976562,1.1468050537109375,0.05301542298453129,0.012264884633548094,-0.8374344003058062,1.6800000667572021,2019-06-21 12:52:13:888
7.70921142578125,-6.1685662231445315,1.1408196411132812,0.05634437434713035,0.012131726579044133,-0.8596717954079679,1.6849920749664307,2019-06-21 12:52:13:893
7.869620483398437,-6.172157470703125,1.364674072265625,0.049553313567428287,0.015194361832635256,-0.8787133972020346,1.6899840831756592,2019-06-21 12:52:13:898
7.770262634277343,-5.997383422851563,1.0594180297851563,0.055678584074610536,0.019588577631266,-0.8985539473231248,1.6949760913848877,2019-06-21 12:52:13:903
7.723576416015625,-5.820215209960938,0.8367606811523437,0.05128436827597979,0.022251738721345237,-0.9179950232807031,1.6999680995941162,2019-06-21 12:52:13:908
7.691255187988281,-5.692127380371094,0.9756222534179687,0.041563830297190574,0.020121209849281847,-0.9339739898211786,1.7049601078033447,2019-06-21 12:52:13:913
7.620627319335937,-5.479046691894531,1.2317979125976561,0.043161726951238114,0.015860152105155068,-0.9520834852337176,1.7099521160125732,2019-06-21 12:52:13:918
7.444656188964844,-5.6885361328125,1.1300458984375,0.03490592549139788,0.01053382992499659,-0.9712582450822881,1.7149441242218018,2019-06-21 12:52:13:923
7.137005981445312,-5.675368225097656,0.4788330078125,0.031976448292310715,0.0223848967758492,-0.9964251173835368,1.7199361324310303,2019-06-21 12:52:13:928
7.883985473632812,-6.23440576171875,1.2497541503906249,0.03916698531611926,0.01333014906957979,-1.0219914638482974,1.7249281406402588,2019-06-21 12:52:13:933
8.407110534667968,-6.141033325195313,2.2241793212890624,0.036104350062528136,-0.000518288598832249,-1.0399678012063325,1.7299201488494873,2019-06-21 12:52:13:938
7.682875610351562,-5.853733520507812,1.1228634033203124,0.07472018586867708,0.0028106627637667987,-1.0608736157634544,1.7349121570587158,2019-06-21 12:52:13:943
7.652948547363281,-5.572419128417969,0.521927978515625,0.07139123450607804,-0.00757566548754223,-1.0796489014485129,1.7399041652679443,2019-06-21 12:52:13:948
7.492539489746093,-5.2480097656249995,1.8626604003906249,0.06579859621691164,-0.009839352414109583,-1.0986905032425796,1.7450242042541504,2019-06-21 12:52:13:953
7.435079528808593,-4.869731689453125,2.082923583984375,0.05834174516468977,-0.01596462292129183,-1.1193299351116663,1.750016212463379,2019-06-21 12:52:13:958
7.01969189453125,-5.094783203125,0.39264306640625,0.02691644222116016,-0.015298832648772022,-1.142099962431844,1.7550079822540283,2019-06-21 12:52:13:963
6.9993414916992185,-5.352155944824219,0.4082051391601562,0.03370750300086222,-0.009439878250597698,-1.1685984152781321,1.7599999904632568,2019-06-21 12:52:13:968
7.5404227905273435,-5.579601623535156,2.3630408935546874,0.0502191038399481,-0.027416215608632555,-1.1920342328708295,1.7649919986724854,2019-06-21 12:52:13:973
7.3057946166992185,-5.893237243652344,1.2952432861328125,0.06286911901782448,-0.021024628992442382,-1.2213290048617012,1.7699840068817139,2019-06-21 12:52:13:978
7.943839599609375,-5.537703735351562,-0.14245281982421876,0.06020595792774523,-0.034340434442838574,-1.2475611415989818,1.7749760150909424,2019-06-21 12:52:13:983
8.1210078125,-5.270754333496094,1.7178134155273437,0.051550684384987715,-0.029546744480695945,-1.270863801137175,1.779968023300171,2019-06-21 12:52:13:988
7.864832153320313,-5.095980285644531,2.4264862670898437,0.0502191038399481,-0.031544115298255376,-1.294965409002392,1.7849600315093994,2019-06-21 12:52:13:993
7.761883056640625,-5.2348418579101565,0.6560012207031249,0.057675954892169964,-0.03367464417031876,-1.316537013832034,1.789952039718628,2019-06-21 12:52:13:998
8.575899169921875,-5.384477172851563,0.742191162109375,0.06846175730699088,-0.059640464798591336,-1.3345133511900689,1.7949440479278564,2019-06-21 12:52:14:003
8.372395141601562,-5.079221130371094,2.311566345214844,0.09189757489968818,-0.0625699419976785,-1.3508917918940562,1.799936056137085,2019-06-21 12:52:14:008
8.091080749511718,-4.425614074707031,1.6471855468749999,0.0876365171555614,-0.06416783865172604,-1.3658054939984998,1.8049280643463135,2019-06-21 12:52:14:013
8.514847961425781,-4.545322326660156,0.33877435302734377,0.06912754757951069,-0.07428784663283794,-1.3813849863754635,1.809920072555542,2019-06-21 12:52:14:018
8.386760131835937,-4.258022521972656,2.0517994384765625,0.05141752633048375,-0.07641837550490133,-1.396698162643419,1.8149120807647705,2019-06-21 12:52:14:023
7.8337080078125,-4.189788818359375,2.4863403930664063,0.07298913116012558,-0.08081259130353208,-1.4153402902739738,1.819904088973999,2019-06-21 12:52:14:028
7.945036682128906,-4.7667825927734375,-0.196321533203125,0.06886123147050277,-0.08241048795757962,-1.4363792628855998,1.825024127960205,2019-06-21 12:52:14:033
8.83925732421875,-5.021761169433594,-0.004788330078125,0.07818229528578009,-0.08653838764720244,-1.453423493862107,1.8300161361694336,2019-06-21 12:52:14:038
8.863198974609375,-4.49145361328125,2.916093017578125,0.10907496393069925,-0.07961416881299642,-1.473929834255717,1.835008144378662,2019-06-21 12:52:14:043
8.726731567382812,-4.272387512207031,1.52268896484375,0.10774338338565964,-0.08334259433910735,-1.484848794725042,1.8400001525878906,2019-06-21 12:52:14:048
8.372395141601562,-3.873759033203125,-0.54586962890625,0.10215074509649325,-0.0866715457017064,-1.498430916284446,1.8449921607971191,2019-06-21 12:52:14:053
8.742293640136719,-3.6834229125976563,1.65676220703125,0.08257651108441084,-0.09452787091744014,-1.5110809314623221,1.8499841690063477,2019-06-21 12:52:14:058
8.794965270996094,-3.5266051025390626,2.634778625488281,0.06020595792774523,-0.07735048188642907,-1.5238641046947026,1.8549761772155762,2019-06-21 12:52:14:063
8.159314453124999,-3.715744140625,0.2992706298828125,0.07804913723127614,-0.07748363994093302,-1.5410414937257138,1.8599681854248047,2019-06-21 12:52:14:068
7.58471484375,-4.193380065917968,-0.46087677001953126,0.06446701567187202,-0.0670973158508132,-1.564210995209403,1.8649601936340332,2019-06-21 12:52:14:073
8.909885192871094,-4.392095764160156,1.21623583984375,0.08270966913891481,-0.0744210046873419,-1.5837852292214853,1.8699522018432617,2019-06-21 12:52:14:078
9.170849182128906,-4.026985595703125,2.7209685668945314,0.11466760221986565,-0.07455416274184587,-1.6048242018331116,1.8749442100524902,2019-06-21 12:52:14:083
8.750673217773437,-4.295132080078125,0.33398602294921875,0.11320286362032207,-0.06976047694089245,-1.6232000133546582,1.8799359798431396,2019-06-21 12:52:14:088
8.525621704101562,-3.440415161132812,-0.33398602294921875,0.11400181194734584,-0.08374206850261924,-1.6437063537482683,1.8849279880523682,2019-06-21 12:52:14:093
8.410701782226562,-3.3063419189453125,1.9715949096679688,0.0977565292978625,-0.07948101075849245,-1.6642126941418784,1.8899199962615967,2019-06-21 12:52:14:098
8.50407421875,-3.6606783447265623,1.9237116088867188,0.06260280290881656,-0.07202415970627059,-1.690045356715647,1.8949120044708252,2019-06-21 12:52:14:103
9.198382080078124,-3.7396857910156247,0.12569366455078124,0.09456073598976741,-0.08933470679178564,-1.7057580071471146,1.8999040126800537,2019-06-21 12:52:14:108
8.939812255859374,-3.6235687866210937,1.7585142211914062,0.13184499125087676,-0.10304998640569371,-1.721870131742094,1.9050240516662598,2019-06-21 12:52:14:113
8.450205505371093,-3.7001820678710935,2.006310302734375,0.14156552090728755,-0.11143894383944332,-1.7397133110456249,1.9100160598754883,2019-06-21 12:52:14:118
8.414293029785156,-3.3111302490234373,0.790074462890625,0.12665182712522222,-0.13500791948664456,-1.7684754508184808,1.9150080680847168,2019-06-21 12:52:14:123
8.32211767578125,-3.133962036132812,1.9284999389648436,0.10095232260595759,-0.1331437067235891,-1.7976370647548483,1.9200000762939453,2019-06-21 12:52:14:128
8.694410339355468,-3.3075390014648436,3.1207941284179688,0.10734390922214776,-0.1342089711596208,-1.8206734081840337,1.9249920845031738,2019-06-21 12:52:14:133
8.481329650878907,-3.720532470703125,1.0618121948242187,0.13677183926752334,-0.15098688602712,-1.8434434355042113,1.9299840927124023,2019-06-21 12:52:14:138
9.411462768554687,-3.8953065185546873,-0.6320595703125,0.16739818348105617,-0.15245162462666356,-1.8694092561324838,1.9349761009216309,2019-06-21 12:52:14:143
9.78854376220703,-3.6894083251953123,1.6962659301757812,0.18470873056657122,-0.14392950913841002,-1.896972973414804,1.9399681091308594,2019-06-21 12:52:14:148
9.028396362304687,-2.925669677734375,2.5270411987304686,0.1595418582653224,-0.13221160034206136,-1.9279988001142272,1.944960117340088,2019-06-21 12:52:14:153
8.870381469726562,-2.869406799316406,0.48003009033203126,0.15701185522974714,-0.14699214439200115,-1.95263304019746,1.9499521255493164,2019-06-21 12:52:14:158
8.818906921386718,-2.9986917114257814,0.01795623779296875,0.15807711966577884,-0.15032109575460018,-1.974071486972598,1.954944133758545,2019-06-21 12:52:14:163
8.869184387207032,-2.759275207519531,1.4041777954101562,0.161006596864866,-0.1505874118636081,-2.0012357300914063,1.9599361419677734,2019-06-21 12:52:14:168
8.7913740234375,-2.742516052246094,0.9828047485351562,0.18643978527512273,-0.14938898937307246,-2.0282668151557104,1.964928150177002,2019-06-21 12:52:14:173
8.804541931152343,-2.218193908691406,0.84274609375,0.18737189165665044,-0.14859004104604867,-2.049305787767336,1.9699201583862305,2019-06-21 12:52:14:178
8.909885192871094,-2.504296630859375,0.5207308959960938,0.20201927765208627,-0.15857689513384582,-2.0671489670708674,1.974912166595459,2019-06-21 12:52:14:183
8.535198364257813,-1.8207625122070312,0.8068336181640625,0.1885703141471861,-0.15431583738971905,-2.0876553074644773,1.9799041748046875,2019-06-21 12:52:14:188
9.332455322265625,-2.0470111083984373,1.2509512329101562,0.1914997913462733,-0.15085372797261604,-2.106031118986024,1.9850242137908936,2019-06-21 12:52:14:193
10.041128173828124,-1.7597113037109375,0.919359375,0.1829776758580197,-0.15431583738971905,-2.1272032496521542,1.990015983581543,2019-06-21 12:52:14:198
10.876691772460937,-2.293610107421875,0.4333438720703125,0.20401664846964568,-0.1552479437712468,-2.150772225299355,1.9950079917907715,2019-06-21 12:52:14:203
10.827611389160156,-1.6639447021484375,1.7273900756835938,0.19815769407147138,-0.1597753176243815,-2.1706127754204454,2.0,2019-06-21 12:52:14:208
9.18401708984375,-1.73337548828125,2.1571427001953123,0.18284451780351574,-0.1429974027568823,-2.1925838544135994,2.0049920082092285,2019-06-21 12:52:14:213
7.4231087036132815,-1.2102504272460937,1.5514189453125,0.1330434137414124,-0.1673653267311073,-2.218549675041872,2.009984016418457,2019-06-21 12:52:14:218
6.543253051757812,-1.1096954956054688,0.02513873291015625,0.12145866299956772,-0.1569789984797983,-2.2434503643921673,2.0149760246276855,2019-06-21 12:52:14:223
7.955810424804687,-0.7254320068359374,-0.004788330078125,0.13437499428645203,-0.16337058509598845,-2.254768799025004,2.019968032836914,2019-06-21 12:52:14:228
9.642499694824219,-0.9253447875976563,0.4201759643554687,0.16207186130089768,-0.15191899240864773,-2.26875039474792,2.0249600410461426,2019-06-21 12:52:14:233
11.922941894531249,-0.6320595703125,-0.12928491210937498,0.18537452083909103,-0.1419321383208506,-2.2750088233096064,2.029952049255371,2019-06-21 12:52:14:238
11.037100830078124,-0.004788330078125,0.56502294921875,0.2109408673038517,-0.1432637188658902,-2.2716798719470073,2.0349440574645996,2019-06-21 12:52:14:243
9.295345764160157,0.4776359252929687,0.6045266723632813,0.17272450566121464,-0.10424840889622937,-2.282731990470836,2.039936065673828,2019-06-21 12:52:14:248
9.397097778320312,0.28370855712890625,0.2418106689453125,0.09189757489968818,-0.1258200137258712,-2.297512534520776,2.0449280738830566,2019-06-21 12:52:14:253
9.410265686035157,-0.09696368408203125,1.5777547607421876,0.03836803698909549,-0.11902895294616914,-2.3266741484571436,2.049920082092285,2019-06-21 12:52:14:258
10.5151728515625,-0.44292053222656247,2.510282043457031,0.03637066617153606,-0.1552479437712468,-2.342519956943115,2.0549120903015137,2019-06-21 12:52:14:263
8.760249877929688,-0.9026002197265625,-0.023941650390625,0.07924755972181179,-0.11530052742005821,-2.3644910359362687,2.0600321292877197,2019-06-21 12:52:14:268
7.997708312988281,-1.3479149169921876,0.119708251953125,0.10294969342351702,-0.12342316874479987,-2.3995116042708107,2.0650241374969482,2019-06-21 12:52:14:273
9.453360656738282,-0.2657523193359375,1.36946240234375,0.13397552012294014,-0.16403637536850826,-2.4105637227946395,2.0700161457061768,2019-06-21 12:52:14:278
9.081067993164062,0.8259869384765625,0.9660455932617187,0.1459597367059183,-0.12036053349120876,-2.426809005444123,2.0750081539154053,2019-06-21 12:52:14:283
9.527579772949219,0.5973441772460938,0.07421911621093749,0.10148495482397343,-0.13753792252221983,-2.443586920311622,2.080000162124634,2019-06-21 12:52:14:288
10.31406298828125,0.627271240234375,0.2872998046875,0.056477532401634306,-0.1449947735744417,-2.475544853392573,2.0849921703338623,2019-06-21 12:52:14:293
11.427349731445313,0.6583953857421875,1.8494924926757812,0.031976448292310715,-0.16163953038743695,-2.4907248716060244,2.089984178543091,2019-06-21 12:52:14:298
9.926208251953124,1.584937255859375,0.9923814086914062,0.03743593060756775,-0.11929526905517707,-2.499246987094278,2.0949761867523193,2019-06-21 12:52:14:303
8.541183776855469,0.651212890625,-1.3802361450195313,0.08084545637585933,-0.11037367940341163,-2.510032789509099,2.099968194961548,2019-06-21 12:52:14:308
9.7873466796875,0.7912715454101562,-0.5303075561523437,0.05101805216697187,-0.1453942477379536,-2.5238812271775113,2.1049602031707764,2019-06-21 12:52:14:313
11.034706665039062,1.7848500366210938,1.8877991333007813,0.050751736057963945,-0.13647265808618814,-2.5434554611895934,2.109952211380005,2019-06-21 12:52:14:318
9.987259460449218,2.725756896972656,2.676676513671875,0.050751736057963945,-0.13647265808618814,-2.5434554611895934,2.1149439811706543,2019-06-21 12:52:14:323
7.702028930664063,1.8315362548828125,-0.191533203125,0.03304171272834241,-0.11982790127319291,-2.545186515898145,2.119935989379883,2019-06-21 12:52:14:328
9.468922729492187,1.9261057739257812,-2.2720626220703126,0.034373293273382025,-0.13101317785152572,-2.548781783369752,2.1249279975891113,2019-06-21 12:52:14:333
10.73423895263672,2.8466622314453125,2.601260314941406,0.021590120041001686,-0.15018793770009622,-2.5571707408035014,2.12992000579834,2019-06-21 12:52:14:338
9.970500305175781,2.6934356689453125,4.712913879394531,-0.013297290239036336,-0.16363690120499638,-2.562630221038164,2.1349120140075684,2019-06-21 12:52:14:343
8.5615341796875,2.5007053833007813,-0.9073885498046875,-0.009702022767429364,-0.1412663480483308,-2.566491804618779,2.139904022216797,2019-06-21 12:52:14:348
8.489709228515625,1.75252880859375,-2.82511474609375,-0.015294661056595764,-0.14392950913841002,-2.5715518106899293,2.145024061203003,2019-06-21 12:52:14:353
9.460543151855468,3.889321105957031,1.0270968017578124,0.022921700586041302,-0.15391636322620716,-2.5651602240737392,2.1500160694122314,2019-06-21 12:52:14:358
9.110995056152344,3.002282958984375,2.519858703613281,0.024253281131080925,-0.16803111700362713,-2.5615649566021323,2.15500807762146,2019-06-21 12:52:14:363
9.52877685546875,3.4224589233398435,0.8690819091796875,0.018128010623898676,-0.1111726277304354,-2.576478658706576,2.1600000858306885,2019-06-21 12:52:14:368
8.059956604003906,2.868209716796875,-0.2178690185546875,-0.03340415646913458,-0.1806811321815035,-2.5711523365264175,2.164992094039917,2019-06-21 12:52:14:373
8.520833374023438,3.285991516113281,0.8415490112304688,0.023321174749553187,-0.15644636626178243,-2.5712854945809216,2.1699841022491455,2019-06-21 12:52:14:378
8.627373718261719,2.450427917480469,0.6117091674804688,-0.015028344947587839,-0.1303473875790059,-2.583802351704294,2.174976110458374,2019-06-21 12:52:14:383
8.074321594238281,3.4990722045898437,-0.1723798828125,-0.0017125394971916493,-0.1443289833019219,-2.581139190614215,2.1799681186676025,2019-06-21 12:52:14:388
9.737069213867187,2.2409384765625,0.9121768798828125,0.04755594274986886,-0.1505874118636081,-2.594854470228123,2.184960126876831,2019-06-21 12:52:14:393
10.982035034179686,4.4603294677734375,3.259655700683594,0.05141752633048375,-0.15404952128071114,-2.617757655602804,2.1899521350860596,2019-06-21 12:52:14:398
9.614966796875,4.657848083496094,-0.5255192260742187,0.0183943267329066,-0.15817742097033394,-2.61189870120463,2.194944143295288,2019-06-21 12:52:14:403
7.810963439941406,1.9596240844726562,-1.8842078857421876,0.1571450132842511,-0.12835001676144647,-2.622950819728459,2.1999361515045166,2019-06-21 12:52:14:408
7.886379638671875,2.0685585937499997,1.1264546508789062,0.021590120041001686,-0.08520680710216283,-2.656506649463457,2.204928159713745,2019-06-21 12:52:14:413
7.883985473632812,3.9719197998046876,2.092500244140625,-0.03819784435068261,-0.16803111700362713,-2.670754561295381,2.2099201679229736,2019-06-21 12:52:14:418
9.67362384033203,2.783216857910156,1.8447041625976561,0.11613234081940925,-0.15098688602712,-2.7084382907200024,2.214912176132202,2019-06-21 12:52:14:423
9.743054626464843,3.6415250244140625,-1.6412001342773437,0.023321174749553187,-0.10118577364263825,-2.719224093134823,2.2199041843414307,2019-06-21 12:52:14:428
7.016100646972656,4.7356584472656245,-1.4041777954101562,0.09096546851816044,-0.13966845139428324,-2.7176261964807753,2.2250239849090576,2019-06-21 12:52:14:433
9.273798278808593,4.8972645874023435,2.103273986816406,0.2018861195975823,-0.07641837550490133,-2.7426599107275202,2.230015993118286,2019-06-21 12:52:14:438
9.073885498046875,6.568391784667969,0.7924686279296875,0.03370750300086222,-0.13713844835870795,-2.7282788408410927,2.2350080013275146,2019-06-21 12:52:14:443
9.06071759033203,6.351719848632812,-1.0666005249023438,0.05434700352957092,-0.1432637188658902,-2.726547786132541,2.240000009536743,2019-06-21 12:52:14:448
10.388282104492188,4.0210001831054685,0.6548041381835937,0.07312228921462954,-0.12835001676144647,-2.7486520231801985,2.2449920177459717,2019-06-21 12:52:14:453
6.816187866210937,4.813468811035156,0.7098699340820313,-0.029276256779511765,-0.16004163373338942,-2.73693411438385,2.2499840259552,2019-06-21 12:52:14:458
8.286205200195312,4.714110961914062,0.512351318359375,0.08523967217449008,-0.09439471286293619,-2.758239403104484,2.2549760341644287,2019-06-21 12:52:14:463
9.550324340820312,5.804653137207031,1.13962255859375,0.17086029289815918,-0.11370263076601067,-2.7640983575026583,2.2599680423736572,2019-06-21 12:52:14:468
7.3500866699218745,7.202845520019531,0.7637386474609374,0.06207017069080071,-0.13793739668573174,-2.7494509715072226,2.2649600505828857,2019-06-21 12:52:14:473
8.847636901855468,7.395575805664063,-0.2322340087890625,0.09602547458931099,-0.07402153052383002,-2.7609025641945633,2.2699520587921143,2019-06-21 12:52:14:478
7.366845825195313,6.599515930175781,0.23343109130859374,0.06513280594439183,-0.15072056991811206,-2.744923597654088,2.2749440670013428,2019-06-21 12:52:14:483
5.881266418457031,6.206872863769531,1.5238860473632811,0.049153839403916405,-0.14659267022848926,-2.722286728388414,2.2799360752105713,2019-06-21 12:52:14:488
8.542380859375,6.044069641113281,-0.3256064453125,0.071524392560582,-0.11183841800295521,-2.7226862025519263,2.2849280834198,2019-06-21 12:52:14:493
8.094671997070312,7.084334350585937,-1.10131591796875,0.06713017676195125,-0.16403637536850826,-2.7142972451181766,2.2899200916290283,2019-06-21 12:52:14:498
7.522466552734375,6.922728210449218,1.8219595947265625,0.09016652019113668,-0.11543368547456218,-2.7157619837177203,2.294912099838257,2019-06-21 12:52:14:503
7.022086059570312,7.261502563476562,1.0306880493164061,0.05181700049399564,-0.10038682531561448,-2.7053756554664115,2.2999041080474854,2019-06-21 12:52:14:508
6.7659104003906245,7.219604675292969,-1.1982796020507813,0.05794227100117789,-0.13367633894160494,-2.6892635308714317,2.3050241470336914,2019-06-21 12:52:14:513
8.306555603027343,8.202409423828124,1.0067463989257812,0.08417440773845838,-0.13088001979702174,-2.6848693150728007,2.31001615524292,2019-06-21 12:52:14:518
7.376422485351562,8.144949462890624,1.5861343383789062,-0.0073051777863580485,-0.1645690075865241,-2.670754561295381,2.3150081634521484,2019-06-21 12:52:14:523
6.656975891113281,6.1087120971679685,-0.56502294921875,0.05128436827597979,-0.12422211707182365,-2.6658277132787345,2.320000171661377,2019-06-21 12:52:14:528
6.095544189453125,5.207308959960938,-0.397431396484375,0.06273596096332051,-0.11862947878265725,-2.6712871935133973,2.3249921798706055,2019-06-21 12:52:14:533
5.006199096679687,6.338551940917968,2.063770263671875,0.04369435916925396,-0.1443289833019219,-2.6690235065868295,2.329984188079834,2019-06-21 12:52:14:538
6.74196875,6.939487365722656,0.9253447875976563,0.10654496089512398,-0.1051805152777571,-2.675015619039508,2.3349761962890625,2019-06-21 12:52:14:543
6.720421264648437,7.190874694824219,-1.8183683471679688,0.06686386065294334,-0.11649894991059387,-2.6712871935133973,2.339968204498291,2019-06-21 12:52:14:548
5.728039855957031,7.8337080078125,0.8858410644531249,0.056877006565146195,-0.1505874118636081,-2.664496132733695,2.3449602127075195,2019-06-21 12:52:14:553
7.078348937988281,7.368042907714844,2.9951004638671876,0.09535968431679118,-0.11530052742005821,-2.671020877404389,2.349951982498169,2019-06-21 12:52:14:558
6.599515930175781,8.086292419433594,-1.3431265869140625,0.07472018586867708,-0.13394265505061287,-2.653177698100858,2.3549439907073975,2019-06-21 12:52:14:563
6.832947021484375,7.947430847167968,-1.2844695434570312,0.09749021318885456,-0.11157210189394728,-2.6579713880630007,2.359935998916626,2019-06-21 12:52:14:568
5.81303271484375,7.470992004394531,1.1994766845703124,0.10348232564153287,-0.08107890741254,-2.653976646427882,2.3649280071258545,2019-06-21 12:52:14:573
4.936768310546875,8.524424621582032,1.4197398681640625,0.0558117421291145,-0.09479418702644807,-2.646386637321156,2.369920015335083,2019-06-21 12:52:14:578
4.747629272460937,7.491342407226562,0.8618994140625,0.10547969645909229,-0.10531367333226106,-2.6382639959964145,2.3749120235443115,2019-06-21 12:52:14:583
4.829030883789063,7.698437683105468,0.790074462890625,0.14569342059691037,-0.13021422952450196,-2.6204208166928833,2.37990403175354,2019-06-21 12:52:14:588
6.373267333984375,9.01044012451172,-0.3627160034179687,0.0865712527195297,-0.11783053045563349,-2.6110997528776063,2.385024070739746,2019-06-21 12:52:14:593
6.018930908203125,8.91706768798828,-0.038306640625,0.1484897397414936,-0.11476789520204236,-2.5976507893727057,2.3900160789489746,2019-06-21 12:52:14:598
5.224068115234375,8.517242126464843,0.3615189208984375,0.11653181498292113,-0.07109205332474286,-2.5999144762992734,2.395008087158203,2019-06-21 12:52:14:603
4.303511657714844,7.916306701660156,-0.7673298950195312,0.08191072081189102,-0.08520680710216283,-2.5827370872682622,2.4000000953674316,2019-06-21 12:52:14:608
4.466314880371094,7.912715454101562,0.5446725463867187,0.14635921086943018,-0.06323573227019831,-2.5782097134151276,2.40499210357666,2019-06-21 12:52:14:613
4.554898986816406,9.752631286621094,1.7273900756835938,0.10574601256810022,-0.10677841193180464,-2.5643612757467156,2.4099841117858887,2019-06-21 12:52:14:618
4.571658142089843,8.759052795410156,1.45565234375,0.14635921086943018,-0.11889579489166519,-2.545585990061657,2.414976119995117,2019-06-21 12:52:14:623
5.2180827026367185,9.2127470703125,-1.1563817138671875,0.13983446619873605,-0.06589889336027754,-2.5373301906824115,2.4199681282043457,2019-06-21 12:52:14:628
3.9886789550781248,9.2127470703125,-1.316790771484375,0.08950072991861686,-0.10731104414982048,-2.5154922697437616,2.424960136413574,2019-06-21 12:52:14:633
4.096416381835938,12.100110107421875,0.608117919921875,0.16779765764456805,-0.053648352345913045,-2.501776990129853,2.4299521446228027,2019-06-21 12:52:14:638
2.063770263671875,6.567194702148437,-2.533026611328125,-0.05750576225375709,-0.04179728549506044,-2.466623263740807,2.4349441528320312,2019-06-21 12:52:14:643
2.4863403930664063,9.793332092285157,1.4484698486328125,0.14902237195950943,-0.11596631769257802,-2.4209500510459487,2.4400641918182373,2019-06-21 12:52:14:648
5.577207458496094,7.450641601562499,5.001410766601563,0.1948287427088723,-0.13101317785152572,-2.4250779507355715,2.4449281692504883,2019-06-21 12:52:14:653
4.688972229003906,11.757744506835937,-1.1503963012695313,0.09456073598976741,-0.13261107450557325,-2.4072347714320403,2.449920177459717,2019-06-21 12:52:14:658
4.861352111816406,7.972569580078125,-2.294807189941406,0.05434700352957092,-0.07801627215894888,-2.4256105829535874,2.4549121856689453,2019-06-21 12:52:14:663
4.119160949707031,7.120246826171875,1.4855794067382813,0.16353659990044128,-0.05098519125583381,-2.428007427934659,2.459904193878174,2019-06-21 12:52:14:668
4.091628051757812,7.327342102050781,1.9943394775390624,0.034639609382389955,-0.04539255296666741,-2.43679585953192,2.465023994445801,2019-06-21 12:52:14:673
5.56403955078125,8.863198974609375,-0.71824951171875,0.16207186130089768,-0.012635671558692782,-2.460364835179121,2.4700160026550293,2019-06-21 12:52:14:678
5.06605322265625,9.507229370117187,-1.5262802124023438,0.167930815699072,-0.03567201498787819,-2.4796727530821956,2.475008010864258,2019-06-21 12:52:14:683
6.243982421875,8.095869079589843,0.14963531494140625,0.08923441380960893,0.02677911257447994,-2.4984480387672545,2.4800000190734863,2019-06-21 12:52:14:688
5.2480097656249995,5.359338439941406,4.890082092285156,0.21014191897682793,0.039429127752356324,-2.534800187646836,2.484992027282715,2019-06-21 12:52:14:693
2.969961730957031,5.593966613769531,2.6551290283203124,0.2130713961759151,0.03143964448211861,-2.577410765088104,2.4899840354919434,2019-06-21 12:52:14:698
4.005438110351562,8.170088195800782,-3.034604187011719,0.21666666364752207,0.07631391301114297,-2.5996481601902652,2.494976043701172,2019-06-21 12:52:14:703
3.8665765380859374,10.541508666992188,-1.5250831298828125,0.2994909735489864,0.06313126145406155,-2.6132302817496695,2.4999680519104004,2019-06-21 12:52:14:708
3.4667509765625,12.294037475585938,0.9552718505859374,0.1668655512630403,0.023982793429896745,-2.6274781935815934,2.504960060119629,2019-06-21 12:52:14:713
3.461962646484375,11.67394873046875,0.8918264770507812,0.11426812805635377,-0.0011840788713520585,-2.640261366813974,2.5099520683288574,2019-06-21 12:52:14:718
3.3494368896484374,10.226675964355469,-1.8949816284179688,0.1448944722698866,-0.049653610710794195,-2.6439897923400846,2.514944076538086,2019-06-21 12:52:14:723
2.7473043823242187,9.761010864257813,-4.3585774536132815,0.057675954892169964,-0.029679902535199906,-2.64012820875947,2.5199360847473145,2019-06-21 12:52:14:728
1.7166163330078124,10.748603942871094,-1.2820753784179688,0.09682442291633477,-0.03007937669871179,-2.6329376738162558,2.524928092956543,2019-06-21 12:52:14:733
1.6699301147460937,9.593419311523437,1.3048199462890624,0.10002021622442984,-0.03713675358742177,-2.6260134549820497,2.5299201011657715,2019-06-21 12:52:14:738
1.134834228515625,9.285769104003906,0.7362057495117187,0.03983277558863907,-0.06643152557829339,-2.610700278714094,2.534912109375,2019-06-21 12:52:14:743
1.6364118041992186,9.857974548339843,1.0701917724609376,0.07352176337814142,-0.12888264897946233,-2.5992486860267534,2.5399041175842285,2019-06-21 12:52:14:748
2.446836669921875,10.20752264404297,-0.158014892578125,0.11440128611085773,-0.1415326641573387,-2.585400248358342,2.5450241565704346,2019-06-21 12:52:14:753
2.896939697265625,11.493189270019531,-0.00957666015625,0.07685071474074048,-0.13154581006954155,-2.583136561431774,2.550016164779663,2019-06-21 12:52:14:758
3.889321105957031,11.908576904296874,0.7924686279296875,0.0725896569966137,-0.10984104718539577,-2.59711815715469,2.5550081729888916,2019-06-21 12:52:14:763
2.9747500610351563,9.120571716308593,1.0258997192382813,0.12159182105407168,-0.10025366726111051,-2.6096350142780627,2.56000018119812,2019-06-21 12:52:14:768
2.462398742675781,8.535198364257813,-1.2713016357421876,0.06433385761736805,-0.09146523566384902,-2.6418592634680214,2.5649921894073486,2019-06-21 12:52:14:773
2.3905737915039063,9.429419006347656,-1.1551846313476561,0.018261168678402637,-0.11609947574708199,-2.670488245186373,2.569984197616577,2019-06-21 12:52:14:778
1.7680908813476561,9.018819702148438,1.6842951049804686,0.11693128914643301,-0.11929526905517707,-2.682339312037226,2.5749762058258057,2019-06-21 12:52:14:783
2.188266845703125,9.56588641357422,0.20110986328125,0.08523967217449008,-0.09665839978950355,-2.695788275542126,2.579968214035034,2019-06-21 12:52:14:788
1.3706594848632812,10.049507751464844,-1.029490966796875,0.07338860532363746,-0.10291682835118975,-2.7063077618479388,2.5849599838256836,2019-06-21 12:52:14:793
1.720207580566406,10.539114501953124,0.7864832153320312,0.1522181652676045,-0.12608632983487914,-2.7296104213861323,2.589951992034912,2019-06-21 12:52:14:798
2.2146026611328122,10.7067060546875,0.07781036376953125,0.07165755061508597,-0.1314126520150376,-2.7425267526730166,2.5949440002441406,2019-06-21 12:52:14:803
2.188266845703125,10.711494384765624,-0.5303075561523437,0.056477532401634306,-0.1395352933397793,-2.7563751903414286,2.599936008453369,2019-06-21 12:52:14:808
2.8322972412109375,10.947319641113282,1.532265625,0.0760517664137167,-0.1722921747477539,-2.796855238910633,2.6049280166625977,2019-06-21 12:52:14:813
2.534223693847656,8.57111083984375,0.9073885498046875,0.04449330749627773,-0.16936269754866676,-2.8344058102807503,2.609920024871826,2019-06-21 12:52:14:818
3.242896545410156,8.105445739746093,-1.0917392578125,0.09549284237129514,-0.12289053652678403,-2.8810111293571365,2.6149120330810547,2019-06-21 12:52:14:823
1.0378705444335938,8.031226623535156,-1.1049071655273437,0.04902068134941244,-0.17136006836622616,-2.9153659074191594,2.619904041290283,2019-06-21 12:52:14:828
1.7417550659179688,10.10337646484375,1.6890834350585937,0.14223131117980736,-0.12528738150785537,-2.9569112204243955,2.6250240802764893,2019-06-21 12:52:14:833
0.7158553466796875,11.082589965820313,-0.25019024658203126,0.12052655661803999,-0.14286424470237832,-2.975020715836934,2.6300160884857178,2019-06-21 12:52:14:838
-0.47524176025390624,10.743815612792968,-1.9249086914062499,0.08670441077403365,-0.14472845746543378,-2.9955270562305443,2.6350080966949463,2019-06-21 12:52:14:843
1.6352147216796875,12.504723999023437,0.464468017578125,0.13291025568690845,-0.14659267022848926,-3.0165660288421705,2.640000104904175,2019-06-21 12:52:14:848
-0.158014892578125,13.365426330566406,0.1340732421875,0.08963388797312083,-0.22129433880521188,-3.0365397370177645,2.6449921131134033,2019-06-21 12:52:14:853
1.9739890747070312,10.613333618164063,0.24779608154296875,0.07525281808669294,-0.20012220813908194,-3.07169346340681,2.649984121322632,2019-06-21 12:52:14:858
1.6795067749023438,6.777881225585937,-0.8858410644531249,0.028647496929711667,-0.21503591024352567,-3.1083119283954,2.6549761295318604,2019-06-21 12:52:14:863
-0.03471539306640625,7.6864668579101565,-0.18794195556640625,0.02878065498421563,-0.22169381296872379,-3.143332496729942,2.659968137741089,2019-06-21 12:52:14:868
0.8080307006835937,10.564253234863282,1.1456079711914062,0.08790283326456931,-0.13687213224970002,-3.175556745919901,2.6649601459503174,2019-06-21 12:52:14:873
-0.9600601806640625,10.536720336914062,0.14724114990234374,0.13291025568690845,-0.13673897419519607,-3.18394570335365,2.669952154159546,2019-06-21 12:52:14:878
0.1364674072265625,11.762532836914062,-0.6978991088867187,0.08044598221234744,-0.15311741489918337,-3.22695575495843,2.6749441623687744,2019-06-21 12:52:14:883
-0.31004437255859374,9.389915283203125,0.2370223388671875,0.046490678313837165,-0.24899121414203595,-3.25585105278579,2.679936170578003,2019-06-21 12:52:14:888
0.8295781860351562,9.045155517578126,1.6651417846679688,0.14449499810637473,-0.266434919282055,-3.2948663627554504,2.6849281787872314,2019-06-21 12:52:14:893
0.0311241455078125,10.642063598632813,-0.7601473999023437,0.037702246716575676,-0.21490275218902172,-3.316437967585092,2.68992018699646,2019-06-21 12:52:14:898
-1.0342792968749999,11.682328308105468,-0.0981607666015625,0.1005528484424457,-0.17535481000134504,-3.354787487282233,2.6949121952056885,2019-06-21 12:52:14:903
-1.086950927734375,10.559464904785155,1.1899000244140625,0.14356289172484699,-0.13900266112176343,-3.3771580404388994,2.699904203414917,2019-06-21 12:52:14:908
-1.9991278076171874,10.82042889404297,-0.5338988037109375,0.03450645132788599,-0.22196012907773172,-3.408050709083818,2.705024003982544,2019-06-21 12:52:14:913
-0.7625415649414062,7.4889482421875,0.6907166137695312,0.123988666035143,-0.21876433576963664,-3.4326849491670512,2.7100160121917725,2019-06-21 12:52:14:918
0.45010302734374996,7.791810119628906,0.14364990234375,0.17592029896930972,-0.22901750596644166,-3.457585505359292,2.715008020401001,2019-06-21 12:52:14:923
-2.7377277221679686,12.097715942382813,-2.6934356689453125,0.035438559790008324,-0.2425996275258458,-3.485681854859628,2.7200000286102295,2019-06-21 12:52:14:928
-2.0996827392578123,13.674273620605469,3.482313049316406,0.1423644692343113,-0.22675381903987432,-3.5213682134666895,2.724992036819458,2019-06-21 12:52:14:933
-3.4356268310546874,11.705072875976562,1.4197398681640625,0.07911440166730783,-0.18680640268868573,-3.535349809189606,2.7299840450286865,2019-06-21 12:52:14:938
-1.9284999389648436,8.252686889648437,-3.7420799560546874,0.010005369299157,-0.12741791037991876,-3.551062459621073,2.734976053237915,2019-06-21 12:52:14:943
-1.4568494262695313,7.822934265136719,0.5829791870117187,0.1341086781774441,-0.23088171872949712,-3.5846182893560714,2.7399680614471436,2019-06-21 12:52:14:948
-3.9635402221679685,7.181298034667969,2.852647644042969,0.0861717785560178,-0.28361230831306605,-3.5944719853893647,2.744960069656372,2019-06-21 12:52:14:953
-1.9955365600585937,10.027960266113281,-2.371420471191406,0.1523513233221085,-0.206913268918784,-3.614312535510455,2.7499520778656006,2019-06-21 12:52:14:958
-4.690169311523437,9.571871826171876,-2.5533770141601564,0.1124039152932983,-0.26656807733655896,-3.6056572619676976,2.754944086074829,2019-06-21 12:52:14:963
-4.819454223632812,11.078998718261719,3.74447412109375,0.10361548369603682,-0.21290538137146228,-3.6238999154347407,2.7599360942840576,2019-06-21 12:52:14:968
-5.002607849121094,10.60255987548828,0.7062786865234375,0.08124493053937122,-0.21090801055390287,-3.6309572923234503,2.764928102493286,2019-06-21 12:52:14:973
-5.182170227050781,8.227548156738282,-2.827508911132812,0.0837749335749465,-0.19279851514136404,-3.618040961036566,2.7699201107025146,2019-06-21 12:52:14:978
-4.320270812988281,9.9022666015625,0.2418106689453125,0.0502191038399481,-0.2145032780255098,-3.6104509519298404,2.774912118911743,2019-06-21 12:52:14:983
-3.8510144653320313,8.052774108886718,1.8877991333007813,0.12891551405178958,-0.19213272486884425,-3.6139130613469432,2.780032157897949,2019-06-21 12:52:14:988
-3.3638018798828124,8.095869079589843,-0.3507451782226562,0.1599413324288343,-0.30212127788911675,-3.6477352071909497,2.7850241661071777,2019-06-21 12:52:14:993
-5.8621130981445315,8.105445739746093,-3.6415250244140625,-0.011699393584988792,-0.3101107611593545,-3.6481346813544615,2.7900161743164062,2019-06-21 12:52:14:998
-3.1974074096679685,9.307316589355468,1.9392736816406249,0.19562769103589608,-0.16110689816942111,-3.659985748205314,2.7950081825256348,2019-06-21 12:52:15:003
-4.7524176025390625,7.943839599609375,2.4049387817382812,0.08923441380960893,-0.2876070499481849,-3.6677089153665436,2.8000001907348633,2019-06-21 12:52:15:008
-4.858957946777344,7.955810424804687,-3.5984300537109375,0.011869582062212464,-0.16177268844194093,-3.673701027819222,2.804992198944092,2019-06-21 12:52:15:013
-6.130259582519531,11.163991577148437,-1.8459012451171875,0.11852918580048057,-0.2002553661935859,-3.6975363195754314,2.8099842071533203,2019-06-21 12:52:15:018
-8.774614868164063,9.385126953124999,4.346606628417969,0.051151210221475826,-0.276954405587868,-3.677029979181821,2.8149759769439697,2019-06-21 12:52:15:023
-4.083248474121094,10.084223144531249,2.3582525634765625,0.10880864782169133,-0.20251905312015325,-3.7293610946018783,2.8199679851531982,2019-06-21 12:52:15:028
-4.975074951171875,4.369351196289062,-5.465878784179687,0.08803599131907328,-0.33807395260518647,-3.7289616204383664,2.8249599933624268,2019-06-21 12:52:15:033
-4.36695703125,6.940684448242187,-1.2557395629882813,0.14635921086943018,-0.28121546333199476,-3.744008480597314,2.8299520015716553,2019-06-21 12:52:15:038
-5.255192260742187,8.083898254394532,4.3430153808593746,0.08457388190197027,-0.2379390956182071,-3.748402696395945,2.834944009780884,2019-06-21 12:52:15:043
-7.159750549316406,9.436601501464844,0.5614317016601562,0.1689960801351037,-0.24699384332447652,-3.7506663833225122,2.8399360179901123,2019-06-21 12:52:15:048
-5.967456359863281,7.415926208496094,-4.767979675292969,0.06273596096332051,-0.2079785333548157,-3.7835564227849905,2.844928026199341,2019-06-21 12:52:15:053
-8.320920593261718,10.244632202148438,0.0694307861328125,0.09722389707984665,-0.22994961234796943,-3.7772979942233045,2.8499200344085693,2019-06-21 12:52:15:058
-8.11143115234375,8.748279052734375,4.784738830566406,0.11599918276490528,-0.22209328713223567,-3.80100012792501,2.854912042617798,2019-06-21 12:52:15:063
-8.933826843261718,9.811288330078124,-2.3331138305664063,0.04888752329490848,-0.3250244632637982,-3.8035301309605853,2.8599040508270264,2019-06-21 12:52:15:068
-7.308188781738281,7.014903564453125,-2.0122957153320313,0.10175127093298136,-0.22835171569392188,-3.8235038391361793,2.8650240898132324,2019-06-21 12:52:15:073
-6.743165832519531,7.157356384277343,3.396123107910156,0.1571450132842511,-0.29865916847201374,-3.827631738825802,2.870016098022461,2019-06-21 12:52:15:078
-9.581448486328124,7.121443908691406,1.0558267822265626,0.04129751418818265,-0.2625733357014401,-3.8048617115056245,2.8750081062316895,2019-06-21 12:52:15:083
-6.252361999511718,7.34529833984375,-0.8702789916992187,0.11466760221986565,-0.15245162462666356,-3.824036471354195,2.880000114440918,2019-06-21 12:52:15:088
-7.863635070800781,5.426375061035156,-0.5243221435546875,0.08737020104655346,-0.26963071259015003,-3.817778042792509,2.8849921226501465,2019-06-21 12:52:15:093
-8.857213562011719,5.668185729980468,-0.320818115234375,0.10934128003970718,-0.22981645429346542,-3.814848565593422,2.889984130859375,2019-06-21 12:52:15:098
-8.775811950683593,6.698873779296875,-1.5059298095703124,0.10041969038794173,-0.23767277950919918,-3.80100012792501,2.8949761390686035,2019-06-21 12:52:15:103
-10.519961181640625,5.647835327148437,0.378278076171875,0.1155997086013934,-0.27815282807840364,-3.7884832708016374,2.899968147277832,2019-06-21 12:52:15:108
-7.509298645019531,5.7878939819335935,2.1200331420898437,0.15514764246669166,-0.2271532932033862,-3.7882169546926296,2.9049601554870605,2019-06-21 12:52:15:113
-7.065181030273437,5.498200012207031,-0.8618994140625,0.10028653233343776,-0.2240906579497951,-3.761984817955349,2.909952163696289,2019-06-21 12:52:15:118
-13.549777038574218,8.500482971191406,-2.268471374511719,0.09882179373389419,-0.31716813804806443,-3.7714390398251303,2.9149441719055176,2019-06-21 12:52:15:123
-8.8679873046875,4.745235107421875,4.419628662109375,0.14662552697843811,-0.25285279772265085,-3.769974301225586,2.919936180114746,2019-06-21 12:52:15:128
-3.4691451416015626,4.495044860839844,0.474044677734375,0.07125807645157407,-0.1877385090702135,-3.77916220698636,2.9249281883239746,2019-06-21 12:52:15:133
-6.787457885742187,2.935246337890625,-3.318312744140625,0.05261594882101941,-0.37309452093972845,-3.7770316781142967,2.929920196533203,2019-06-21 12:52:15:138
-7.328539184570312,4.024591430664063,3.0836845703124998,0.283378848954007,-0.17468901972882522,-3.789948009401181,2.9349122047424316,2019-06-21 12:52:15:143
-14.469136413574219,7.008918151855468,0.6955049438476563,0.07631808252272464,-0.24739331748798843,-3.769042194844059,2.9400320053100586,2019-06-21 12:52:15:148
-13.346273010253906,6.058434631347656,-1.9021641235351563,0.09163125879068025,-0.26750018371808665,-3.741212161452731,2.945024013519287,2019-06-21 12:52:15:153
-4.550110656738281,3.2177578125,0.0790074462890625,0.1403670984167519,-0.21783222938810887,-3.7890159030196533,2.9500160217285156,2019-06-21 12:52:15:158
-9.291754516601562,2.673085266113281,1.5418422851562499,0.10508022229558041,-0.3423350103493133,-3.7444079547608258,2.955008029937744,2019-06-21 12:52:15:163
-6.647399230957031,2.6623115234375,0.8630964965820312,0.17365661204274238,-0.22089486464170002,-3.7569248118841982,2.9600000381469727,2019-06-21 12:52:15:168
-9.830441650390625,3.216560729980469,-2.2768509521484375,0.13876921008508275,-0.27069597702618176,-3.726964249620807,2.964992046356201,2019-06-21 12:52:15:173
-11.803233642578125,3.1950132446289063,1.6004993286132811,0.12239076938109544,-0.2331454056560645,-3.696337897084896,2.9699840545654297,2019-06-21 12:52:15:178
-8.192832763671875,4.860155029296875,3.7995399169921873,0.16753134153556012,-0.17562112611035297,-3.7293610946018783,2.974976062774658,2019-06-21 12:52:15:183
-12.663935974121094,2.788005187988281,-1.2521483154296875,0.13011393654232525,-0.3576481866172689,-3.6902126265777135,2.9799680709838867,2019-06-21 12:52:15:188
-8.190438598632813,2.6503406982421875,-0.4668621826171875,0.19096715912825743,-0.12182527209075233,-3.71697739553301,2.9849600791931152,2019-06-21 12:52:15:193
-6.776684143066406,1.8411129150390624,-0.1604090576171875,0.07125807645157407,-0.2824138858225304,-3.6916773651772568,2.9899520874023438,2019-06-21 12:52:15:198
-10.31406298828125,2.5366178588867188,0.48721258544921875,0.13983446619873605,-0.29612916543643847,-3.663714173731425,2.9949440956115723,2019-06-21 12:52:15:203
-11.82717529296875,3.1866336669921873,3.0836845703124998,0.14116604674377567,-0.1841432415986065,-3.6775626113998374,2.999936103820801,2019-06-21 12:52:15:208
-11.890620666503906,2.5390120239257814,1.7297842407226562,0.17472187647877407,-0.24526278861592504,-3.6683747056390636,3.0049281120300293,2019-06-21 12:52:15:213
-7.633795227050781,1.3431265869140625,-1.9452590942382812,0.18164609531298007,-0.1869395607431897,-3.671703657001663,3.009920120239258,2019-06-21 12:52:15:218
-12.95722119140625,1.1120896606445312,-2.657523193359375,0.05780911294667392,-0.2913354754742959,-3.6288267634513867,3.0149121284484863,2019-06-21 12:52:15:223
-8.088686584472656,0.02274456787109375,4.8972645874023435,0.15368290386714809,-0.2153022263525336,-3.6183072771455738,3.019904136657715,2019-06-21 12:52:15:228
-6.142230407714844,-0.36511016845703126,2.3594496459960936,0.15075342666806094,-0.16070742400590923,-3.608320423057777,3.025024175643921,2019-06-21 12:52:15:233
-13.601251586914062,-1.3143966064453125,-6.175748718261719,0.14755763335996583,-0.2981265362539979,-3.5368145477891493,3.0300161838531494,2019-06-21 12:52:15:238
-8.144949462890624,0.6200887451171875,-2.3331138305664063,0.2917678063877566,-0.17136006836622616,-3.535349809189606,3.035008192062378,2019-06-21 12:52:15:243
-12.674709716796874,2.216996826171875,5.131892761230469,0.23943669096769954,-0.22728645125789018,-3.503658192217663,3.0400002002716064,2019-06-21 12:52:15:248
-12.480782348632813,1.7154192504882813,3.649904602050781,0.21759877002904982,-0.2750901928248125,-3.4940708122933777,3.044992208480835,2019-06-21 12:52:15:253
-6.082376281738281,-0.19273028564453124,-1.6340176391601562,0.15914238410181053,-0.21290538137146228,-3.5017939794546074,3.0499839782714844,2019-06-21 12:52:15:258
-10.014792358398438,-0.9205564575195312,1.1934912719726563,0.07631808252272464,-0.2471270013789805,-3.461713405048915,3.054975986480713,2019-06-21 12:52:15:263
-10.824020141601562,-1.7740762939453125,3.661875427246094,0.1194612921820083,-0.15990847567888544,-3.4485307576530224,3.0599679946899414,2019-06-21 12:52:15:268
-8.247898559570313,-0.8176073608398438,2.0110986328125,0.15128605888607677,-0.17668639054638466,-3.409515447683362,3.06496000289917,2019-06-21 12:52:15:273
-11.326794799804688,0.292088134765625,-2.534223693847656,0.15008763639554112,-0.1643026914775162,-3.3938027972518943,3.0699520111083984,2019-06-21 12:52:15:278
-10.610939453124999,1.2617249755859374,0.651212890625,0.17365661204274238,-0.18121376439951933,-3.39500121974243,3.074944019317627,2019-06-21 12:52:15:283
-10.04591650390625,2.9723558959960936,1.4748056640625,0.08457388190197027,-0.1873390349067016,-3.3975312227780057,3.0799360275268555,2019-06-21 12:52:15:288
-11.468050537109375,5.499397094726563,-0.5973441772460938,-0.012498341912012564,-0.23367803787408034,-3.440940748546297,3.084928035736084,2019-06-21 12:52:15:293
-7.722379333496094,4.420825744628906,1.6579592895507813,0.003081150464950979,-0.26310596791945595,-3.515376101014011,3.0899200439453125,2019-06-21 12:52:15:298
-4.389701599121094,3.9623431396484374,3.5649117431640622,-0.0955889658418902,-0.20012220813908194,-3.598466727024484,3.094912052154541,2019-06-21 12:52:15:303
-9.137330871582032,2.7951876831054685,-1.0666005249023438,-0.16190168530724164,-0.17375691334729748,-3.646270468591406,3.0999040603637695,2019-06-21 12:52:15:308
-11.724226196289063,-0.12569366455078124,0.6356508178710938,-0.07987631541042269,-0.21650064884306927,-3.697003687357416,3.1050240993499756,2019-06-21 12:52:15:313
-11.99955517578125,-2.9340492553710935,2.936443420410156,-0.03966258295022619,-0.18534166408914218,-3.733888468455013,3.110016107559204,2019-06-21 12:52:15:318
-10.999991271972656,-2.872998046875,-2.97834130859375,0.005078521282510408,-0.1810806063450154,-3.730293200983406,3.1150081157684326,2019-06-21 12:52:15:323
-10.042325256347656,-2.4875374755859374,-5.317440551757812,0.06220332874530467,-0.21996275826017225,-3.7171105535875135,3.120000123977661,2019-06-21 12:52:15:328
-12.68907470703125,-1.9129378662109375,2.600063232421875,0.12385550798063903,-0.24206699530782996,-3.7053926447911647,3.1249921321868896,2019-06-21 12:52:15:333
-12.85307501220703,-1.9715949096679688,2.4408512573242187,0.05048541994895602,-0.17495533583783315,-3.7069905414452125,3.129984140396118,2019-06-21 12:52:15:338
-8.16889111328125,-0.2322340087890625,-0.42257012939453126,0.09029967824564064,-0.21903065187864457,-3.7124500216798753,3.1349761486053467,2019-06-21 12:52:15:343
-8.604629150390625,-1.2485570678710938,0.20110986328125,0.06819544119798296,-0.25458385243120235,-3.7207058210591204,3.139968156814575,2019-06-21 12:52:15:348
-8.680045349121093,-0.6176945800781249,4.173029663085938,0.04409383333276585,-0.18707271879769366,-3.7386821584171557,3.1449601650238037,2019-06-21 12:52:15:353
-9.855580383300781,-1.7273900756835938,3.7229266357421875,0.04768910080437282,-0.21756591327910096,-3.7472042739054094,3.1499521732330322,2019-06-21 12:52:15:358
-12.414942810058594,-1.6388059692382813,-1.6675359497070312,0.010005369299157,-0.18361060938059065,-3.7575906021567183,3.1549441814422607,2019-06-21 12:52:15:363
-12.339526611328125,-2.106865234375,-1.6004993286132811,-0.0005141170066559921,-0.18587429630715802,-3.7855537936025505,3.1599361896514893,2019-06-21 12:52:15:368
-11.502765930175782,-1.5023385620117187,5.294695983886719,0.0725896569966137,-0.22089486464170002,-3.8195090975010606,3.1649281978607178,2019-06-21 12:52:15:373
-10.37272003173828,-2.1140477294921873,3.676240417480469,-0.02155308961828197,-0.19745904704900272,-3.8286970032618335,3.1699202060699463,2019-06-21 12:52:15:378
-8.718351989746093,-0.75655615234375,-1.7609083862304686,-0.05497575921818181,-0.19319798930487594,-3.853064927236059,3.174912214279175,2019-06-21 12:52:15:383
-8.985301391601562,-2.7209685668945314,0.67994287109375,-0.09439054335135454,-0.18946956377876498,-3.8783649575918115,3.179903984069824,2019-06-21 12:52:15:388
-7.676890197753906,-1.52268896484375,4.607570617675782,-0.09159422420677134,-0.1376710805767238,-3.9031323557295488,3.1850240230560303,2019-06-21 12:52:15:393
-9.659258850097656,-2.7748372802734376,-1.3467178344726562,-0.10424423938464772,-0.1842763996531105,-3.9173802675614726,3.190016031265259,2019-06-21 12:52:15:398
-10.151259765625,-2.6886473388671877,-2.3642379760742185,-0.0010467492246718398,-0.16789795894912315,-3.9469413556613517,3.1950080394744873,2019-06-21 12:52:15:403
-10.468486633300781,-3.14114453125,1.4712144165039063,-0.03273836619661477,-0.1419321383208506,-3.9754371793252,3.200000047683716,2019-06-21 12:52:15:408
-11.707467041015624,-1.9715949096679688,2.082923583984375,0.002282202137927208,-0.17828428720043218,-4.006463006024623,3.2049920558929443,2019-06-21 12:52:15:413
-10.582209472656249,-2.2373472290039063,-0.43214678955078123,-0.0034435942057431538,-0.16270479482346864,-4.05373411537353,3.209984064102173,2019-06-21 12:52:15:418
-10.761771850585937,-2.303186767578125,-0.9313302001953124,-0.039795741004730156,-0.20278536922916118,-4.091284686743647,3.2149760723114014,2019-06-21 12:52:15:423
-9.994441955566407,-2.4552162475585937,2.09728857421875,-0.030874153433559308,-0.1914669345963244,-4.144547908545231,3.21996808052063,2019-06-21 12:52:15:428
-8.22635107421875,-3.874956115722656,0.42257012939453126,-0.06016892334383632,-0.20544853031924043,-4.176638999680686,3.2249600887298584,2019-06-21 12:52:15:433
-8.876366882324218,-2.8909542846679686,-0.8152131958007812,-0.0007804331156639159,-0.26164122931991235,-4.199941659218879,3.229952096939087,2019-06-21 12:52:15:438
-10.048310668945312,-5.699309875488281,0.2106865234375,-0.026080463471416678,-0.21397064580749398,-4.239356443352052,3.2349441051483154,2019-06-21 12:52:15:443
-8.569913757324219,-3.75405078125,2.0769381713867188,-0.013963080511556146,-0.20478274004672062,-4.2610612062361986,3.239936113357544,2019-06-21 12:52:15:448
-11.04188916015625,-6.041675476074219,-1.000760986328125,-0.02048782518225028,-0.2512549010686033,-4.264523315653301,3.2449281215667725,2019-06-21 12:52:15:453
-10.845567626953125,-5.565236633300781,-1.4281194458007813,0.0502191038399481,-0.20638063670076817,-4.320183382435957,3.249920129776001,2019-06-21 12:52:15:458
-8.362818481445313,-5.767543579101562,2.5940778198242187,0.011336949844196618,-0.20678011086428003,-4.342021303374607,3.2549121379852295,2019-06-21 12:52:15:463
-10.28653009033203,-2.4396541748046876,-0.26216107177734377,0.03836803698909549,-0.25698069741227364,-4.35893237629661,3.259904146194458,2019-06-21 12:52:15:468
-9.105009643554688,-5.865704345703125,-2.2636830444335936,0.07445386975966915,-0.22648750293086642,-4.369451862602423,3.265024185180664,2019-06-21 12:52:15:473
-5.945908874511718,-3.4212618408203124,3.941992736816406,0.12718445934323808,-0.23887120199973488,-4.369451862602423,3.2700161933898926,2019-06-21 12:52:15:478
-8.563928344726563,-7.661328125,1.2042650146484375,-0.05058154341955107,-0.2718943995167174,-4.369451862602423,3.275008201599121,2019-06-21 12:52:15:483
-9.93099658203125,-4.8828995971679685,-2.2229822387695313,0.060472274036753156,-0.25258648161364294,-4.369451862602423,3.2800002098083496,2019-06-21 12:52:15:488
-7.664919372558594,-7.046027709960938,0.1987156982421875,-0.04365732458534505,-0.25391806215868257,-4.369451862602423,3.284991979598999,2019-06-21 12:52:15:493
-7.466203674316406,-3.965934387207031,4.189788818359375,0.22865088855287866,-0.24552910472493295,-4.369451862602423,3.2899839878082275,2019-06-21 12:52:15:498
-5.172593566894531,-8.76384112548828,-1.8482954101562499,0.09003336213663271,-0.18267850299906294,-4.369451862602423,3.294975996017456,2019-06-21 12:52:15:503
-7.895956298828125,-4.698548889160156,-1.5621926879882813,0.10148495482397343,-0.2215606549142198,-4.369451862602423,3.2999680042266846,2019-06-21 12:52:15:508
-9.484484802246094,-9.070294250488281,4.68298681640625,0.09056599435464856,-0.24326541779836558,-4.369451862602423,3.304960012435913,2019-06-21 12:52:15:513
-6.448683532714844,-7.0735606079101565,5.003804931640625,0.17392292815175028,-0.11703158212860972,-4.369451862602423,3.3099520206451416,2019-06-21 12:52:15:518
-5.9638651123046875,-5.772331909179687,-4.174226745605469,0.04276225278772623,-0.27309282200725304,-4.369451862602423,3.31494402885437,2019-06-21 12:52:15:523
-5.5269299926757816,-3.817496154785156,-0.92893603515625,0.18244504364000386,-0.22209328713223567,-4.369451862602423,3.3199360370635986,2019-06-21 12:52:15:528
-4.046138916015625,-11.254969848632813,6.5324793090820314,0.14702500114195,-0.20052168230259382,-4.369451862602423,3.324928045272827,2019-06-21 12:52:15:533
-7.2208017578125,-6.209267028808593,2.1679164428710935,0.039699617534135104,-0.24299910168935768,-4.369451862602423,3.3299200534820557,2019-06-21 12:52:15:538
-6.496566833496094,-8.262263549804688,-1.7345725708007813,0.017861694514890752,-0.20757905919130382,-4.369451862602423,3.334912061691284,2019-06-21 12:52:15:543
-4.029379760742187,-3.4368239135742185,4.888885009765625,0.23597458155059653,-0.20944327195435927,-4.369451862602423,3.3399040699005127,2019-06-21 12:52:15:548
-6.513325988769531,-4.311891235351562,-0.6739574584960938,-0.13673480468361443,-0.27309282200725304,-4.369451862602423,3.3450241088867188,2019-06-21 12:52:15:553
-6.427136047363281,-6.275106567382812,-0.9840018310546875,0.10028653233343776,-0.2617743873744163,-4.369451862602423,3.3500161170959473,2019-06-21 12:52:15:558
-4.620738525390625,-10.463698303222657,4.33822705078125,0.15394921997615602,-0.29080284325628003,-4.369451862602423,3.355008125305176,2019-06-21 12:52:15:563
-7.007721069335937,-7.457824096679687,-1.3419295043945312,-0.14086271269561565,-0.36071082187086,-4.369451862602423,3.3600001335144043,2019-06-21 12:52:15:568
-5.312652221679687,-3.491889709472656,0.5434754638671875,0.08803599131907328,-0.2971944298724702,-4.369451862602423,3.364992141723633,2019-06-21 12:52:15:573
-1.25454248046875,-6.838932434082031,3.228531555175781,0.1478239494689738,-0.2772207216968759,-4.369451862602423,3.3699841499328613,2019-06-21 12:52:15:578
-6.1542012329101565,-7.180100952148437,-2.0470111083984373,-0.03540152520609941,-0.31410550279447336,-4.369451862602423,3.37497615814209,2019-06-21 12:52:15:583
-6.709647521972656,-13.154739807128905,2.1631281127929687,0.049553313567428287,-0.28880547243872057,-4.369451862602423,3.3799681663513184,2019-06-21 12:52:15:588
-4.149088012695312,-10.530734924316405,5.125907348632812,0.08191072081189102,-0.3029202262161405,-4.369451862602423,3.384960174560547,2019-06-21 12:52:15:593
-5.596360778808593,-7.150173889160156,-3.372181457519531,-0.06749261634155422,-0.353786603036654,-4.369451862602423,3.3899521827697754,2019-06-21 12:52:15:598
-2.4875374755859374,-7.292626708984375,0.07062786865234374,0.1916329494007772,-0.3348781592970914,-4.369451862602423,3.394944190979004,2019-06-21 12:52:15:603
-1.3910098876953125,-6.302639465332031,2.649143615722656,0.07378807948714936,-0.3684339890320898,-4.369451862602423,3.3999361991882324,2019-06-21 12:52:15:608
-3.07410791015625,-8.301767272949219,-0.474044677734375,-0.07641420599331968,-0.3770892625748473,-4.369451862602423,3.404928207397461,2019-06-21 12:52:15:613
-1.1468050537109375,-10.25660302734375,1.6507767944335938,0.1988234843439912,-0.3093118128323307,-4.369451862602423,3.4099199771881104,2019-06-21 12:52:15:618
-1.65676220703125,-13.404930053710936,-0.881052734375,0.020391697550466027,-0.3792197914469107,-4.369451862602423,3.414911985397339,2019-06-21 12:52:15:623
-0.8870381469726563,-8.241913146972657,-0.6476216430664062,0.07059228617905428,-0.34220185229480926,-4.369451862602423,3.4199039936065674,2019-06-21 12:52:15:628
1.42692236328125,-11.209480712890624,3.965934387207031,0.14116604674377567,-0.32888604684441314,-4.369451862602423,3.4250240325927734,2019-06-21 12:52:15:633
0.04429205322265625,-11.440517639160156,-1.900967041015625,0.12718445934323808,-0.399060341568001,-4.369451862602423,3.430016040802002,2019-06-21 12:52:15:638
1.2844695434570312,-12.352694519042968,-0.5039717407226563,0.032375922455822596,-0.3336797368065557,-4.369451862602423,3.4350080490112305,2019-06-21 12:52:15:643
0.497986328125,-7.664919372558594,3.8797444458007813,0.15195184915859658,-0.3099776031048505,-4.369451862602423,3.440000057220459,2019-06-21 12:52:15:648
-1.3539003295898437,-7.387196228027344,0.3567305908203125,0.08843546548258516,-0.3346118431880835,-4.369451862602423,3.4449920654296875,2019-06-21 12:52:15:653
2.8502534790039062,-6.949064025878906,-0.3244093627929687,0.167930815699072,-0.2995912748535415,-4.369451862602423,3.449984073638916,2019-06-21 12:52:15:658
1.7752733764648436,-7.93905126953125,2.3462817382812498,0.13251078152339657,-0.3718960984491928,-4.369451862602423,3.4549760818481445,2019-06-21 12:52:15:663
1.8363245849609375,-12.762096740722656,-2.2110114135742185,0.051550684384987715,-0.3979950771319693,-4.369451862602423,3.459968090057373,2019-06-21 12:52:15:668
2.7461072998046876,-8.276628540039063,3.161494934082031,0.15421553608516395,-0.3250244632637982,-4.369451862602423,3.4649600982666016,2019-06-21 12:52:15:673
2.2672742919921873,-8.307752685546875,5.177381896972656,0.14010078230774398,-0.2912023174197919,-4.369451862602423,3.46995210647583,2019-06-21 12:52:15:678
3.7337003784179688,-6.782669555664063,-1.307214111328125,0.074986501977685,-0.27522335087931643,-4.369451862602423,3.4749441146850586,2019-06-21 12:52:15:683
2.0398286132812498,-8.047985778808593,-2.768851867675781,0.0379685628255836,-0.32555709548181405,-4.369451862602423,3.479936122894287,2019-06-21 12:52:15:688
3.326692321777344,-8.471752990722656,4.662636413574218,0.1697950284621275,-0.26936439648114213,-4.369451862602423,3.4849281311035156,2019-06-21 12:52:15:693
4.83621337890625,-7.9929199829101565,2.756881042480469,0.071524392560582,-0.2722938736802293,-4.369451862602423,3.489920139312744,2019-06-21 12:52:15:698
1.3610828247070312,-8.402322204589844,-2.467187072753906,0.028381180820703743,-0.3227607763372309,-4.369451862602423,3.4949121475219727,2019-06-21 12:52:15:703
5.479046691894531,-9.06909716796875,2.4779608154296873,0.15474816830317978,-0.1862737704706699,-4.369451862602423,3.499904155731201,2019-06-21 12:52:15:708
5.953091369628906,-8.0252412109375,5.469470031738281,0.04862120718590056,-0.26963071259015003,-4.369451862602423,3.5050241947174072,2019-06-21 12:52:15:713
0.9385126953125,-3.768415771484375,-2.035040283203125,0.02718275833016808,-0.3029202262161405,-4.369451862602423,3.5100162029266357,2019-06-21 12:52:15:718
2.829903076171875,-7.99651123046875,-0.7625415649414062,0.09083231046365649,-0.2118401169354306,-4.369451862602423,3.5150082111358643,2019-06-21 12:52:15:723
6.325384033203125,-8.018058715820313,7.827722595214843,0.05874121932820166,-0.2101090622268791,-4.369451862602423,3.5199999809265137,2019-06-21 12:52:15:728
4.602782287597656,-10.243435119628906,0.5446725463867187,-0.06695998412353837,-0.2716280834077095,-4.369451862602423,3.524991989135742,2019-06-21 12:52:15:733
5.099571533203125,-7.053210205078125,-4.279570007324218,0.20707928372323683,-0.2342106700920962,-4.369451862602423,3.5299839973449707,2019-06-21 12:52:15:738
5.048096984863281,-6.290668640136719,2.8945455322265623,0.07485334392318105,-0.2902702110382641,-4.369451862602423,3.534976005554199,2019-06-21 12:52:15:743
4.5764464721679685,-3.910868591308594,4.461526550292969,0.02052485560496999,-0.2925338979648315,-4.369451862602423,3.5399680137634277,2019-06-21 12:52:15:748
7.377619567871093,-9.812485412597656,-1.5621926879882813,0.03716961449855983,-0.22662066098537034,-4.369451862602423,3.5449600219726562,2019-06-21 12:52:15:753
5.77472607421875,-6.29186572265625,-0.06344537353515625,0.08670441077403365,-0.23540909258263187,-4.369451862602423,3.5499520301818848,2019-06-21 12:52:15:758
7.114261413574218,-10.5917861328125,0.3698984985351562,-0.050182069256039186,-0.17309112307477767,-4.369451862602423,3.5549440383911133,2019-06-21 12:52:15:763
9.22232373046875,-5.412010070800781,3.3075390014648436,0.1267849851797262,-0.14273108664787437,-4.369451862602423,3.559936046600342,2019-06-21 12:52:15:768
4.835016296386718,-8.123401977539062,-0.5398842163085937,0.012269056225724353,-0.24592857888844483,-4.369451862602423,3.5649280548095703,2019-06-21 12:52:15:773
4.149088012695312,-3.063334167480469,-1.1563817138671875,0.09416126182625552,-0.2122395910989425,-4.369451862602423,3.569920063018799,2019-06-21 12:52:15:778
6.829355773925781,-6.950261108398437,2.936443420410156,0.020924329768481874,-0.1935974634683878,-4.369451862602423,3.5749120712280273,2019-06-21 12:52:15:783
8.279022705078125,-5.572419128417969,3.707364562988281,0.11160496696627453,-0.2286180318029298,-4.369451862602423,3.5800321102142334,2019-06-21 12:52:15:788
7.113064331054687,-9.045155517578126,-1.546630615234375,-0.054842601163677854,-0.23967015032675865,-4.369451862602423,3.585024118423462,2019-06-21 12:52:15:793
7.526057800292969,-4.237672119140625,2.3175517578125,0.08457388190197027,-0.19865746953953836,-4.369451862602423,3.5900161266326904,2019-06-21 12:52:15:798
8.486117980957031,-5.951894287109375,0.876264404296875,0.03490592549139788,-0.15644636626178243,-4.369451862602423,3.595008134841919,2019-06-21 12:52:15:803
4.565672729492188,-2.601260314941406,-2.6623115234375,0.07578545030470879,-0.23607488285515166,-4.369451862602423,3.6000001430511475,2019-06-21 12:52:15:808
9.745448791503906,-4.776359252929687,1.7082367553710938,0.068062283143479,-0.1191621110006731,-4.369451862602423,3.604992151260376,2019-06-21 12:52:15:813
10.917392578125,-4.825439636230469,5.3365938720703125,0.0614043804182809,-0.22076170658719604,-4.369451862602423,3.6099841594696045,2019-06-21 12:52:15:818
3.6953937377929686,-3.8510144653320313,1.2174329223632812,-0.06695998412353837,-0.2262211868218585,-4.369451862602423,3.614976167678833,2019-06-21 12:52:15:823
9.409068603515625,-3.144735778808594,0.5710083618164062,0.015331691479315474,-0.07628521745039737,-4.369451862602423,3.6199681758880615,2019-06-21 12:52:15:828
11.545860900878907,-6.3014423828125,-1.6459884643554688,-0.06482945525147499,-0.23261277343804865,-4.369451862602423,3.62496018409729,2019-06-21 12:52:15:833
5.543689147949219,-5.033731994628906,-0.01077374267578125,-0.05058154341955107,-0.2994581167990375,-4.369451862602423,3.6299521923065186,2019-06-21 12:52:15:838
9.041564270019531,-3.040589599609375,5.328214294433594,0.1085423317126834,-0.03380780222482272,-4.369451862602423,3.634944200515747,2019-06-21 12:52:15:843
10.205128479003905,-1.4017836303710938,0.5757966918945312,0.014532743152291704,-0.18454271576211842,-4.369451862602423,3.6399362087249756,2019-06-21 12:52:15:848
6.011748413085938,-3.9156569213867187,-3.1387503662109375,-0.110236351837326,-0.2877402080026889,-4.369451862602423,3.644927978515625,2019-06-21 12:52:15:853
11.41537890625,-4.844592956542969,4.728475952148437,0.12731761739774203,-0.1150342113110503,-4.369451862602423,3.6499199867248535,2019-06-21 12:52:15:858
8.009679138183593,-6.028507568359375,2.437260009765625,0.006942734045565875,-0.19865746953953836,-4.369451862602423,3.654911994934082,2019-06-21 12:52:15:863
5.559251220703125,-3.523013854980469,-3.147129943847656,0.04675699442284509,-0.17855060330944011,-4.369451862602423,3.6599040031433105,2019-06-21 12:52:15:868
7.551196533203125,-5.536506652832031,0.933724365234375,0.20814454815926853,-0.24925753025104389,-4.369451862602423,3.6650240421295166,2019-06-21 12:52:15:873
7.445853271484375,-5.819018127441406,3.0298158569335936,0.10414811591405268,-0.30877918061431486,-4.369451862602423,3.670016050338745,2019-06-21 12:52:15:878
9.614966796875,-3.051363342285156,1.5789518432617187,0.04342804306024604,-0.18401008354410256,-4.369451862602423,3.6750080585479736,2019-06-21 12:52:15:883
4.523774841308594,-4.059306823730469,0.00119708251953125,0.17165924122518295,-0.22102802269620397,-4.369451862602423,3.680000066757202,2019-06-21 12:52:15:888
4.032971008300781,-3.0872758178710935,-0.44172344970703126,0.0764512405772286,-0.19080114432380463,-4.369451862602423,3.6849920749664307,2019-06-21 12:52:15:893
6.755136657714844,-2.9579909057617186,2.0709527587890624,0.038900669207111334,-0.24765963359699633,-4.369451862602423,3.689984083175659,2019-06-21 12:52:15:898
6.688100036621093,-6.764713317871093,2.922078430175781,0.14263078534331924,-0.4173029950350438,-4.369451862602423,3.6949760913848877,2019-06-21 12:52:15:903
12.483176513671875,-3.479918884277344,2.6563261108398435,0.10880864782169133,-0.3135728705764575,-4.369451862602423,3.699968099594116,2019-06-21 12:52:15:908
14.660669616699218,-4.068883483886719,-1.6064847412109375,0.02465275529459281,-0.32542393742731013,-4.369451862602423,3.7049601078033447,2019-06-21 12:52:15:913
13.09967401123047,-0.7050816040039062,0.89062939453125,0.1624713354644096,-0.25578227492173805,-4.369451862602423,3.7099521160125732,2019-06-21 12:52:15:918
9.11817755126953,-1.4640319213867188,1.5250831298828125,0.013334320661756046,-0.23208014122003282,-4.369451862602423,3.7149441242218018,2019-06-21 12:52:15:923
6.975399841308594,0.46207385253906247,2.6228078002929687,0.09282968128121591,-0.2327459314925526,-4.369451862602423,3.7199361324310303,2019-06-21 12:52:15:928
8.012073303222657,-1.8183683471679688,2.370223388671875,0.07272281505111766,-0.3145049769579852,-4.369451862602423,3.724928140640259,2019-06-21 12:52:15:933
