ACCELEROMETER X (m/s²),ACCELEROMETER Y (m/s²),ACCELEROMETER Z (m/s²),GYROSCOPE X (rad/s),GYROSCOPE Y (rad/s),GYROSCOPE Z (rad/s),Time since start in ms ,YYYY-MO-DD HH-MI-SS_SSS
-0.7601473999023437,9.786149597167968,0.18315362548828124,0.03490592549139788,0.017058574595690722,0.013312439048330764,0.0,2019-06-21 12:48:50:508
-0.7457824096679687,9.798120422363281,0.15202947998046876,0.034373293273382025,0.01612646821416299,0.013445597102834725,0.004992008209228516,2019-06-21 12:48:50:513
-0.761344482421875,9.792135009765625,0.15921197509765625,0.034373293273382025,0.015860152105155068,0.014510861538866418,0.009984016418457031,2019-06-21 12:48:50:518
-0.780497802734375,9.81607666015625,0.1508323974609375,0.034373293273382025,0.01612646821416299,0.01597560013841,0.014976024627685547,2019-06-21 12:48:50:523
-0.713461181640625,9.811288330078124,0.1795623779296875,0.033574344946358255,0.015860152105155068,0.015442967920394153,0.019968032836914062,2019-06-21 12:48:50:528
-0.7302203369140625,9.795726257324219,0.16160614013671876,0.03384066105536618,0.01546067794164318,0.014510861538866418,0.025088071823120117,2019-06-21 12:48:50:533
-0.7577532348632813,9.795726257324219,0.191533203125,0.03384066105536618,0.014129097396603561,0.013978229320850572,0.030080080032348633,2019-06-21 12:48:50:538
-0.7397969970703124,9.790937927246093,0.14245281982421876,0.0341069771643741,0.013862781287595638,0.01597560013841,0.03507208824157715,2019-06-21 12:48:50:543
-0.7242349243164062,9.7873466796875,0.13527032470703124,0.034373293273382025,0.014528571560115446,0.015442967920394153,0.040064096450805664,2019-06-21 12:48:50:548
-0.7122640991210938,9.834032897949218,0.14724114990234374,0.03450645132788599,0.014528571560115446,0.016375074301921887,0.04505610466003418,2019-06-21 12:48:50:553
-0.71824951171875,9.792135009765625,0.14245281982421876,0.0341069771643741,0.015194361832635256,0.016375074301921887,0.050048112869262695,2019-06-21 12:48:50:558
-0.7218407592773437,9.812485412597656,0.14484698486328124,0.03370750300086222,0.015194361832635256,0.01584244208390604,0.05504012107849121,2019-06-21 12:48:50:563
-0.7457824096679687,9.802908752441406,0.1364674072265625,0.03490592549139788,0.014661729614619408,0.016108758192913963,0.06003212928771973,2019-06-21 12:48:50:568
-0.7170524291992187,9.811288330078124,0.16280322265625,0.03397381910987014,0.015593835996147143,0.01517665181138623,0.06502413749694824,2019-06-21 12:48:50:573
-0.7218407592773437,9.823259155273437,0.1364674072265625,0.03317487078284637,0.015327519887139218,0.01584244208390604,0.0701441764831543,2019-06-21 12:48:50:578
-0.6978991088867187,9.822062072753907,0.1460440673828125,0.033441186891854296,0.014661729614619408,0.01597560013841,0.07500815391540527,2019-06-21 12:48:50:583
-0.7110670166015625,9.805302917480468,0.16759155273437498,0.03290855467383845,0.015327519887139218,0.01464401959337038,0.08000016212463379,2019-06-21 12:48:50:588
-0.703884521484375,9.818470825195313,0.1604090576171875,0.033441186891854296,0.016659100432178837,0.014244545429858495,0.0849921703338623,2019-06-21 12:48:50:593
-0.7110670166015625,9.812485412597656,0.15681781005859374,0.03317487078284637,0.01745804875920261,0.013312439048330764,0.08998417854309082,2019-06-21 12:48:50:598
-0.7050816040039062,9.800514587402343,0.14843823242187498,0.031976448292310715,0.017857522922714496,0.01251349072130699,0.09497618675231934,2019-06-21 12:48:50:603
-0.7026874389648438,9.804105834960938,0.13766448974609374,0.03171013218330279,0.017857522922714496,0.012646648775810952,0.09996819496154785,2019-06-21 12:48:50:608
-0.6763516235351562,9.811288330078124,0.177168212890625,0.03224276440131864,0.017857522922714496,0.01251349072130699,0.1050879955291748,2019-06-21 12:48:50:613
-0.651212890625,9.851989135742187,0.1316790771484375,0.03224276440131864,0.018789629304242227,0.011581384339779259,0.11008000373840332,2019-06-21 12:48:50:618
-0.6332566528320313,9.790937927246093,0.1651973876953125,0.03184329023780675,0.01905594541325015,0.01118191017626737,0.11507201194763184,2019-06-21 12:48:50:623
-0.6703662109374999,9.800514587402343,0.1340732421875,0.03264223856483052,0.020520684012793732,0.009983487685731714,0.12006402015686035,2019-06-21 12:48:50:628
-0.66078955078125,9.810091247558594,0.1340732421875,0.03290855467383845,0.019721735685769962,0.008651907140692095,0.12505602836608887,2019-06-21 12:48:50:633
-0.6404391479492187,9.79692333984375,0.15921197509765625,0.03330802883735033,0.019721735685769962,0.00905138130420398,0.13004803657531738,2019-06-21 12:48:50:638
-0.6308624877929687,9.786149597167968,0.13527032470703124,0.03210960634681467,0.020787000121801655,0.008119274922676247,0.1350400447845459,2019-06-21 12:48:50:643
-0.6248770751953124,9.784952514648436,0.19273028564453124,0.03330802883735033,0.020653842067297694,0.007054010486644552,0.14003205299377441,2019-06-21 12:48:50:648
-0.636847900390625,9.792135009765625,0.14963531494140625,0.03370750300086222,0.02158594844882543,0.005855587996108896,0.14502406120300293,2019-06-21 12:48:50:653
-0.6212858276367187,9.7873466796875,0.16878863525390625,0.032375922455822596,0.022651212884857122,0.0047903235600772,0.15001606941223145,2019-06-21 12:48:50:658
-0.6153004150390625,9.78854376220703,0.1508323974609375,0.032375922455822596,0.023050687048369007,0.0035919010695415433,0.15500807762145996,2019-06-21 12:48:50:663
-0.6021325073242187,9.799317504882811,0.15202947998046876,0.03210960634681467,0.02438226759340863,0.0022603205245019242,0.16000008583068848,2019-06-21 12:48:50:668
-0.6069208374023437,9.799317504882811,0.138861572265625,0.03224276440131864,0.024914899811424477,0.0007955819249583431,0.164992094039917,2019-06-21 12:48:50:673
-0.627271240234375,9.781361267089844,0.1556207275390625,0.032775396619334485,0.024515425647912592,0.0005292658159504193,0.1699841022491455,2019-06-21 12:48:50:678
-0.6260741577148438,9.811288330078124,0.1532265625,0.03224276440131864,0.025447532029440324,-3.366402065428287e-06,0.17497611045837402,2019-06-21 12:48:50:683
-0.6404391479492187,9.783755432128906,0.17118280029296876,0.031976448292310715,0.02504805786592844,-0.0020007372196248568,0.17996811866760254,2019-06-21 12:48:50:688
-0.6392420654296875,9.814879577636718,0.16400030517578124,0.03250908051032656,0.02598016424745617,-0.003066001655656552,0.1850881576538086,2019-06-21 12:48:50:693
-0.6260741577148438,9.811288330078124,0.16400030517578124,0.03171013218330279,0.027045428683487863,-0.004530740255200133,0.1900801658630371,2019-06-21 12:48:50:698
-0.6141033325195312,9.805302917480468,0.15921197509765625,0.031576974128798826,0.026113322301960132,-0.006528111072759562,0.19507217407226562,2019-06-21 12:48:50:703
-0.6356508178710938,9.804105834960938,0.17357696533203124,0.032775396619334485,0.02664595451997598,-0.007992849672303142,0.20006418228149414,2019-06-21 12:48:50:708
-0.6595924682617187,9.813682495117188,0.1699857177734375,0.03250908051032656,0.027977535065015602,-0.00852548189031899,0.20505619049072266,2019-06-21 12:48:50:713
-0.6200887451171875,9.795726257324219,0.14963531494140625,0.03264223856483052,0.02864332533753541,-0.009723904380854647,0.21004819869995117,2019-06-21 12:48:50:718
-0.6392420654296875,9.794529174804687,0.138861572265625,0.032775396619334485,0.02957543171906314,-0.010922326871390305,0.2150402069091797,2019-06-21 12:48:50:723
-0.6404391479492187,9.795726257324219,0.158014892578125,0.03304171272834241,0.029175957555551257,-0.011987591307421998,0.2200322151184082,2019-06-21 12:48:50:728
-0.6356508178710938,9.810091247558594,0.15202947998046876,0.032775396619334485,0.029042799501047295,-0.013319171852461618,0.22502398490905762,2019-06-21 12:48:50:733
-0.6284683227539062,9.814879577636718,0.14364990234375,0.031976448292310715,0.028909641446543333,-0.014118120179485391,0.23001599311828613,2019-06-21 12:48:50:738
-0.6560012207031249,9.802908752441406,0.19991278076171876,0.03317487078284637,0.02957543171906314,-0.014650752397501238,0.23500800132751465,2019-06-21 12:48:50:743
-0.6571983032226563,9.820864990234375,0.1699857177734375,0.03250908051032656,0.029708589773567103,-0.015849174888036895,0.24000000953674316,2019-06-21 12:48:50:748
-0.6440303955078125,9.790937927246093,0.12449658203125,0.03304171272834241,0.03037438004608691,-0.0175802295965884,0.24499201774597168,2019-06-21 12:48:50:753
-0.627271240234375,9.801711669921875,0.114919921875,0.03330802883735033,0.029175957555551257,-0.01824601986910821,0.2499840259552002,2019-06-21 12:48:50:758
-0.61290625,9.790937927246093,0.1412557373046875,0.03317487078284637,0.030907012264102765,-0.019178126250635943,0.2549760341644287,2019-06-21 12:48:50:763
-0.6176945800781249,9.792135009765625,0.17118280029296876,0.03317487078284637,0.030773854209598796,-0.02024339068666764,0.2599680423736572,2019-06-21 12:48:50:768
-0.6356508178710938,9.812485412597656,0.1891390380859375,0.03304171272834241,0.02930911561005522,-0.023705500103770646,0.2650880813598633,2019-06-21 12:48:50:773
-0.6248770751953124,9.820864990234375,0.17118280029296876,0.03450645132788599,0.030507538100590873,-0.024903922594306308,0.2700800895690918,2019-06-21 12:48:50:778
-0.6093150024414062,9.818470825195313,0.12090533447265625,0.03503908562649644,0.030507538100590873,-0.02450444843079442,0.2750720977783203,2019-06-21 12:48:50:783
-0.64163623046875,9.820864990234375,0.16400030517578124,0.03477276743689391,0.030773854209598796,-0.024637606485298384,0.28006410598754883,2019-06-21 12:48:50:788
-0.6344537353515625,9.813682495117188,0.158014892578125,0.034240135218878066,0.03037438004608691,-0.025702870921330077,0.28505611419677734,2019-06-21 12:48:50:793
-0.6548041381835937,9.832835815429688,0.15442364501953124,0.03384066105536618,0.030640696155094835,-0.026102345084841962,0.29004812240600586,2019-06-21 12:48:50:798
-0.6548041381835937,9.811288330078124,0.1556207275390625,0.034639609382389955,0.03183911864563049,-0.02743392562988158,0.2950401306152344,2019-06-21 12:48:50:803
-0.6488187255859375,9.83522998046875,0.13287615966796876,0.034240135218878066,0.03037438004608691,-0.028765506174921202,0.3000321388244629,2019-06-21 12:48:50:808
-0.6571983032226563,9.790937927246093,0.18315362548828124,0.03450645132788599,0.03117332837311069,-0.030363402828968742,0.3050241470336914,2019-06-21 12:48:50:813
-0.675154541015625,9.799317504882811,0.17836529541015625,0.034639609382389955,0.031040170318606727,-0.03102919310148855,0.3100161552429199,2019-06-21 12:48:50:818
-0.6536070556640625,9.820864990234375,0.16160614013671876,0.034240135218878066,0.03143964448211861,-0.030629718937976665,0.31500816345214844,2019-06-21 12:48:50:823
-0.6440303955078125,9.828047485351563,0.1556207275390625,0.03477276743689391,0.03024122199158295,-0.03142866726500044,0.32000017166137695,2019-06-21 12:48:50:828
-0.6571983032226563,9.812485412597656,0.14843823242187498,0.034373293273382025,0.03024122199158295,-0.03182814142851233,0.32499217987060547,2019-06-21 12:48:50:833
-0.6727603759765625,9.820864990234375,0.14843823242187498,0.034373293273382025,0.030507538100590873,-0.033159721973551944,0.329984188079834,2019-06-21 12:48:50:838
-0.6727603759765625,9.790937927246093,0.14484698486328124,0.035305401735504366,0.029974905882575027,-0.03222761559202421,0.3349761962890625,2019-06-21 12:48:50:843
-0.684731201171875,9.812485412597656,0.1795623779296875,0.0341069771643741,0.031040170318606727,-0.03289340586454402,0.339968204498291,2019-06-21 12:48:50:848
-0.6775487060546875,9.804105834960938,0.16280322265625,0.033574344946358255,0.032105434754638416,-0.034358144464087595,0.34508800506591797,2019-06-21 12:48:50:853
-0.64163623046875,9.798120422363281,0.13048199462890625,0.03370750300086222,0.032504908918150305,-0.03409182835507967,0.3500800132751465,2019-06-21 12:48:50:858
-0.6356508178710938,9.799317504882811,0.1651973876953125,0.03317487078284637,0.030907012264102765,-0.03515709279111137,0.355072021484375,2019-06-21 12:48:50:863
-0.6595924682617187,9.799317504882811,0.16639447021484374,0.034639609382389955,0.030507538100590873,-0.03675498944515891,0.3600640296936035,2019-06-21 12:48:50:868
-0.6560012207031249,9.790937927246093,0.19273028564453124,0.034373293273382025,0.03117332837311069,-0.03821972804470249,0.36505603790283203,2019-06-21 12:48:50:873
-0.6631837158203124,9.823259155273437,0.16400030517578124,0.033574344946358255,0.03223859280914238,-0.038086569990198535,0.37004804611206055,2019-06-21 12:48:50:878
-0.66078955078125,9.831638732910156,0.196321533203125,0.03330802883735033,0.032105434754638416,-0.038086569990198535,0.37504005432128906,2019-06-21 12:48:50:883
-0.6631837158203124,9.819667907714843,0.1843507080078125,0.033574344946358255,0.030640696155094835,-0.03901867637172627,0.3800320625305176,2019-06-21 12:48:50:888
-0.6739574584960938,9.808894165039062,0.14005865478515625,0.03450645132788599,0.03024122199158295,-0.03835288609920646,0.3850240707397461,2019-06-21 12:48:50:893
-0.646424560546875,9.814879577636718,0.11252575683593749,0.033574344946358255,0.032105434754638416,-0.04008394080775796,0.3900160789489746,2019-06-21 12:48:50:898
-0.6823370361328125,9.807697082519532,0.15202947998046876,0.03304171272834241,0.033303857245174075,-0.04141552135279758,0.3950080871582031,2019-06-21 12:48:50:903
-0.675154541015625,9.800514587402343,0.1340732421875,0.032775396619334485,0.03343701529967803,-0.04101604718928569,0.40000009536743164,2019-06-21 12:48:50:908
-0.6679720458984375,9.829244567871093,0.1723798828125,0.03330802883735033,0.033969647517693886,-0.041548679407301545,0.40499210357666016,2019-06-21 12:48:50:913
-0.6715632934570313,9.81607666015625,0.177168212890625,0.03384066105536618,0.0346354377902137,-0.04261394384333324,0.40998411178588867,2019-06-21 12:48:50:918
-0.6548041381835937,9.81607666015625,0.11611700439453125,0.03397381910987014,0.03543438611723747,-0.04354605022486097,0.4149761199951172,2019-06-21 12:48:50:923
-0.6931107788085937,9.795726257324219,0.16878863525390625,0.034373293273382025,0.03543438611723747,-0.04354605022486097,0.4199681282043457,2019-06-21 12:48:50:928
-0.6835341186523437,9.790937927246093,0.1891390380859375,0.034639609382389955,0.036366492498765196,-0.04421184049738078,0.42508816719055176,2019-06-21 12:48:50:933
-0.6452274780273437,9.8065,0.15921197509765625,0.03250908051032656,0.03703228277128501,-0.04447815660638871,0.4300801753997803,2019-06-21 12:48:50:938
-0.67994287109375,9.814879577636718,0.1508323974609375,0.03304171272834241,0.03716544082578897,-0.04421184049738078,0.4350721836090088,2019-06-21 12:48:50:943
-0.6859282836914062,9.822062072753907,0.11851116943359374,0.03370750300086222,0.03716544082578897,-0.04474447271539663,0.4400641918182373,2019-06-21 12:48:50:948
-0.6739574584960938,9.804105834960938,0.14724114990234374,0.033441186891854296,0.03716544082578897,-0.0455434210424204,0.4450562000274658,2019-06-21 12:48:50:953
-0.6955049438476563,9.792135009765625,0.13048199462890625,0.03330802883735033,0.03729859888029293,-0.047407633805475864,0.45004820823669434,2019-06-21 12:48:50:958
-0.7086728515625,9.824456237792969,0.14005865478515625,0.033441186891854296,0.037564914989300854,-0.04687500158746002,0.45503997802734375,2019-06-21 12:48:50:963
-0.7194465942382813,9.826850402832031,0.1556207275390625,0.03450645132788599,0.03849702137082859,-0.04700815964196398,0.46003198623657227,2019-06-21 12:48:50:968
-0.7290232543945312,9.819667907714843,0.12210241699218749,0.03384066105536618,0.0391628116433484,-0.046608685478452094,0.4650239944458008,2019-06-21 12:48:50:973
-0.7074757690429687,9.807697082519532,0.12329949951171874,0.03290855467383845,0.039429127752356324,-0.04700815964196398,0.4700160026550293,2019-06-21 12:48:50:978
-0.713461181640625,9.81607666015625,0.1604090576171875,0.03224276440131864,0.039429127752356324,-0.04620921131494021,0.4750080108642578,2019-06-21 12:48:50:983
-0.7122640991210938,9.822062072753907,0.15681781005859374,0.03330802883735033,0.03996175997037217,-0.046608685478452094,0.48000001907348633,2019-06-21 12:48:50:988
-0.7469794921874999,9.836427062988282,0.1604090576171875,0.032775396619334485,0.039828601915868206,-0.046475527423948136,0.48499202728271484,2019-06-21 12:48:50:993
-0.7266290893554688,9.804105834960938,0.15681781005859374,0.031976448292310715,0.04062755024289198,-0.04754079185997983,0.48998403549194336,2019-06-21 12:48:50:998
-0.73740283203125,9.799317504882811,0.1364674072265625,0.03210960634681467,0.04116018246090783,-0.046475527423948136,0.4949760437011719,2019-06-21 12:48:51:003
-0.7397969970703124,9.7873466796875,0.12569366455078124,0.03210960634681467,0.041027024406403864,-0.04634236936944417,0.4999680519104004,2019-06-21 12:48:51:008
-0.761344482421875,9.780164184570312,0.15921197509765625,0.032375922455822596,0.040893866351899906,-0.045676579096924366,0.5050880908966064,2019-06-21 12:48:51:013
-0.75655615234375,9.776572937011718,0.15202947998046876,0.03224276440131864,0.04155965662441971,-0.04607605326043625,0.510080099105835,2019-06-21 12:48:51:018
-0.7601473999023437,9.778967102050782,0.1699857177734375,0.03171013218330279,0.04062755024289198,-0.04634236936944417,0.5150721073150635,2019-06-21 12:48:51:023
-0.7888773803710938,9.807697082519532,0.16400030517578124,0.031976448292310715,0.04275807911495537,-0.04594289520593229,0.520064115524292,2019-06-21 12:48:51:028
-0.7924686279296875,9.793332092285157,0.1460440673828125,0.03210960634681467,0.04222544689693952,-0.04474447271539663,0.5250561237335205,2019-06-21 12:48:51:033
-0.8032423706054688,9.793332092285157,0.14364990234375,0.031976448292310715,0.04222544689693952,-0.04447815660638871,0.530048131942749,2019-06-21 12:48:51:038
-0.7864832153320312,9.826850402832031,0.13527032470703124,0.030778025801775053,0.04275807911495537,-0.04474447271539663,0.5350401401519775,2019-06-21 12:48:51:043
-0.8020452880859374,9.828047485351563,0.1723798828125,0.031044341910782983,0.04155965662441971,-0.04261394384333324,0.540032148361206,2019-06-21 12:48:51:048
-0.8367606811523437,9.81727374267578,0.18794195556640625,0.03290855467383845,0.04129334051541179,-0.041282363298293615,0.5450241565704346,2019-06-21 12:48:51:053
-0.8116219482421875,9.843609558105468,0.14843823242187498,0.031177499965286945,0.041692814678923676,-0.04061657302577381,0.5500161647796631,2019-06-21 12:48:51:058
-0.8247898559570312,9.822062072753907,0.1651973876953125,0.03051170969276713,0.04262492106045141,-0.039950782753254,0.5550081729888916,2019-06-21 12:48:51:063
-0.8080307006835937,9.824456237792969,0.1843507080078125,0.031044341910782983,0.04262492106045141,-0.03941815053523815,0.5600001811981201,2019-06-21 12:48:51:068
-0.8223956909179687,9.8256533203125,0.13048199462890625,0.030911183856279015,0.040893866351899906,-0.038086569990198535,0.5649921894073486,2019-06-21 12:48:51:073
-0.8355635986328125,9.8065,0.1412557373046875,0.031576974128798826,0.041027024406403864,-0.0371544636086708,0.5699841976165771,2019-06-21 12:48:51:078
-0.837957763671875,9.802908752441406,0.18195654296875,0.031177499965286945,0.04116018246090783,-0.035423408900119295,0.5751039981842041,2019-06-21 12:48:51:083
-0.8271840209960938,9.81607666015625,0.12569366455078124,0.0313106580197909,0.039828601915868206,-0.03395867030057571,0.5799682140350342,2019-06-21 12:48:51:088
-0.7960598754882813,9.808894165039062,0.13766448974609374,0.03224276440131864,0.03956228580686028,-0.031561825319504404,0.5850880146026611,2019-06-21 12:48:51:093
-0.8487315063476563,9.79692333984375,0.1508323974609375,0.03171013218330279,0.039029653588844436,-0.029830770610952895,0.5900800228118896,2019-06-21 12:48:51:098
-0.8559140014648438,9.81727374267578,0.12449658203125,0.03051170969276713,0.03796438915281274,-0.02849919006591328,0.5950720310211182,2019-06-21 12:48:51:103
-0.84274609375,9.795726257324219,0.19273028564453124,0.030778025801775053,0.03836386331632463,-0.026901293411865732,0.6000640392303467,2019-06-21 12:48:51:108
-0.8786585693359374,9.811288330078124,0.19273028564453124,0.03144381607429487,0.03809754720731671,-0.025303396757818192,0.6050560474395752,2019-06-21 12:48:51:113
-0.8618994140625,9.804105834960938,0.14963531494140625,0.03051170969276713,0.03769807304380482,-0.023705500103770646,0.6100480556488037,2019-06-21 12:48:51:118
-0.8319723510742187,9.810091247558594,0.1795623779296875,0.0313106580197909,0.03583386028074935,-0.021308655122699336,0.6150400638580322,2019-06-21 12:48:51:123
-0.8511256713867187,9.771784606933593,0.20110986328125,0.03250908051032656,0.03689912471678104,-0.020909180959187448,0.6200320720672607,2019-06-21 12:48:51:128
-0.8307752685546875,9.776572937011718,0.14005865478515625,0.0313106580197909,0.03610017638975727,-0.017313913487580476,0.6250240802764893,2019-06-21 12:48:51:133
-0.8451402587890625,9.808894165039062,0.10654034423828125,0.031576974128798826,0.034768595844717656,-0.015849174888036895,0.6300160884857178,2019-06-21 12:48:51:138
-0.8319723510742187,9.836427062988282,0.17118280029296876,0.031044341910782983,0.034768595844717656,-0.014251278233989353,0.6350080966949463,2019-06-21 12:48:51:143
-0.8403519287109374,9.830441650390625,0.1364674072265625,0.02984591942024732,0.034768595844717656,-0.013052855743453695,0.6400001049041748,2019-06-21 12:48:51:148
-0.828381103515625,9.8256533203125,0.14364990234375,0.031177499965286945,0.03370333140868596,-0.011188642980398228,0.6449921131134033,2019-06-21 12:48:51:153
-0.8463373413085937,9.807697082519532,0.15921197509765625,0.02971276136574336,0.03436912168120577,-0.010522852707878418,0.6499841213226318,2019-06-21 12:48:51:158
-0.8391548461914062,9.795726257324219,0.1532265625,0.031177499965286945,0.03303754113616615,-0.009324430217342762,0.6549761295318604,2019-06-21 12:48:51:163
-0.8247898559570312,9.784952514648436,0.158014892578125,0.03144381607429487,0.03183911864563049,-0.008259165781311067,0.6599681377410889,2019-06-21 12:48:51:168
-0.8607023315429687,9.813682495117188,0.119708251953125,0.031576974128798826,0.031705960591126535,-0.006128636909247675,0.6650881767272949,2019-06-21 12:48:51:173
-0.8391548461914062,9.820864990234375,0.13287615966796876,0.03171013218330279,0.029974905882575027,-0.004397582200696171,0.6700801849365234,2019-06-21 12:48:51:178
-0.8391548461914062,9.814879577636718,0.1460440673828125,0.03171013218330279,0.028909641446543333,-0.0035986338736723996,0.675072193145752,2019-06-21 12:48:51:183
-0.8307752685546875,9.81727374267578,0.10534326171875,0.031976448292310715,0.02957543171906314,-0.0018675791651208951,0.6800642013549805,2019-06-21 12:48:51:188
-0.8355635986328125,9.811288330078124,0.16280322265625,0.03250908051032656,0.029175957555551257,-0.0012017888926010854,0.685056209564209,2019-06-21 12:48:51:193
-0.8271840209960938,9.830441650390625,0.16759155273437498,0.03171013218330279,0.027578060901503717,0.00026294970694249554,0.6900479793548584,2019-06-21 12:48:51:198
-0.8104248657226563,9.824456237792969,0.1795623779296875,0.0313106580197909,0.026512796465472017,0.0009287399794623051,0.6950399875640869,2019-06-21 12:48:51:203
-0.8176073608398438,9.826850402832031,0.14245281982421876,0.032375922455822596,0.025580690083944285,0.0027929527425177717,0.7000319957733154,2019-06-21 12:48:51:208
-0.7972569580078125,9.8065,0.177168212890625,0.03224276440131864,0.0251812159204324,0.0029261107970217333,0.705024003982544,2019-06-21 12:48:51:213
-0.8235927734374999,9.802908752441406,0.1747740478515625,0.03224276440131864,0.02438226759340863,0.0047903235600772,0.7100160121917725,2019-06-21 12:48:51:218
-0.8056365356445312,9.799317504882811,0.1556207275390625,0.032375922455822596,0.02318384510287297,0.006388220214124742,0.715008020401001,2019-06-21 12:48:51:223
-0.7924686279296875,9.81727374267578,0.16759155273437498,0.03210960634681467,0.02331700315737693,0.0075866427046604006,0.7200000286102295,2019-06-21 12:48:51:228
-0.790074462890625,9.813682495117188,0.17597113037109374,0.03144381607429487,0.022917528993865045,0.008385591031684172,0.724992036819458,2019-06-21 12:48:51:233
-0.77570947265625,9.820864990234375,0.196321533203125,0.03171013218330279,0.02171910650332939,0.009317697413211905,0.7299840450286865,2019-06-21 12:48:51:238
-0.7733153076171875,9.811288330078124,0.1747740478515625,0.03264223856483052,0.02171910650332939,0.010649277958251524,0.734976053237915,2019-06-21 12:48:51:243
-0.75655615234375,9.798120422363281,0.17118280029296876,0.03171013218330279,0.021319632339817506,0.01104875212176341,0.7399680614471436,2019-06-21 12:48:51:248
-0.79486279296875,9.807697082519532,0.177168212890625,0.031044341910782983,0.019988051794777886,0.011448226285275297,0.7450881004333496,2019-06-21 12:48:51:253
-0.7709211425781249,9.813682495117188,0.1795623779296875,0.03224276440131864,0.018789629304242227,0.012779806830314914,0.7500801086425781,2019-06-21 12:48:51:258
-0.7505707397460938,9.81607666015625,0.16280322265625,0.031976448292310715,0.020121209849281847,0.013445597102834725,0.7550721168518066,2019-06-21 12:48:51:263
-0.7709211425781249,9.79692333984375,0.1412557373046875,0.031177499965286945,0.019588577631266,0.013978229320850572,0.7600641250610352,2019-06-21 12:48:51:268
-0.7362057495117187,9.771784606933593,0.177168212890625,0.031044341910782983,0.01732489070469865,0.013978229320850572,0.7650561332702637,2019-06-21 12:48:51:273
-0.7254320068359374,9.802908752441406,0.177168212890625,0.03171013218330279,0.016525942377674876,0.015309809865890192,0.7700481414794922,2019-06-21 12:48:51:278
-0.7433882446289062,9.81607666015625,0.19033612060546876,0.031576974128798826,0.015327519887139218,0.016375074301921887,0.7750401496887207,2019-06-21 12:48:51:283
-0.7541619873046875,9.793332092285157,0.18315362548828124,0.03210960634681467,0.016259626268666953,0.01570928402940208,0.7800321578979492,2019-06-21 12:48:51:288
-0.7433882446289062,9.811288330078124,0.16280322265625,0.030778025801775053,0.01612646821416299,0.015043493756882268,0.7850241661071777,2019-06-21 12:48:51:293
-0.7397969970703124,9.826850402832031,0.15921197509765625,0.031177499965286945,0.015726994050651106,0.01597560013841,0.7900161743164062,2019-06-21 12:48:51:298
-0.7242349243164062,9.811288330078124,0.17118280029296876,0.031177499965286945,0.015726994050651106,0.01584244208390604,0.7950081825256348,2019-06-21 12:48:51:303
-0.71824951171875,9.813682495117188,0.16759155273437498,0.031044341910782983,0.016659100432178837,0.01650823235642585,0.8000001907348633,2019-06-21 12:48:51:308
-0.7158553466796875,9.812485412597656,0.13527032470703124,0.03171013218330279,0.01612646821416299,0.01597560013841,0.8049921989440918,2019-06-21 12:48:51:313
-0.713461181640625,9.786149597167968,0.15921197509765625,0.0313106580197909,0.01732489070469865,0.01584244208390604,0.8099842071533203,2019-06-21 12:48:51:318
-0.7350086669921875,9.818470825195313,0.11851116943359374,0.031044341910782983,0.015593835996147143,0.016241916247417925,0.8149762153625488,2019-06-21 12:48:51:323
-0.7086728515625,9.790937927246093,0.12569366455078124,0.031576974128798826,0.016259626268666953,0.016241916247417925,0.8199679851531982,2019-06-21 12:48:51:328
-0.7314174194335937,9.781361267089844,0.1604090576171875,0.030911183856279015,0.01745804875920261,0.015442967920394153,0.8250880241394043,2019-06-21 12:48:51:333
-0.7146582641601562,9.804105834960938,0.16280322265625,0.031177499965286945,0.016659100432178837,0.015309809865890192,0.8300800323486328,2019-06-21 12:48:51:338
-0.6943078613281249,9.820864990234375,0.14724114990234374,0.031177499965286945,0.017857522922714496,0.01677454846543377,0.8350720405578613,2019-06-21 12:48:51:343
-0.7194465942382813,9.826850402832031,0.15681781005859374,0.031976448292310715,0.01825699708622638,0.017440338737953583,0.8400640487670898,2019-06-21 12:48:51:348
-0.6931107788085937,9.805302917480468,0.15921197509765625,0.03144381607429487,0.01812383903172242,0.01717402262894566,0.8450560569763184,2019-06-21 12:48:51:353
-0.69909619140625,9.782558349609374,0.17357696533203124,0.030245393583759207,0.017591206813706572,0.017573496792457545,0.8500480651855469,2019-06-21 12:48:51:358
-0.7098699340820313,9.801711669921875,0.1460440673828125,0.03171013218330279,0.018789629304242227,0.017706654846961507,0.8550400733947754,2019-06-21 12:48:51:363
-0.7326145019531249,9.801711669921875,0.18195654296875,0.031576974128798826,0.019988051794777886,0.01730718068344962,0.8600320816040039,2019-06-21 12:48:51:368
-0.7409940795898438,9.808894165039062,0.17597113037109374,0.03171013218330279,0.019721735685769962,0.01664139041092981,0.8650240898132324,2019-06-21 12:48:51:373
-0.7170524291992187,9.799317504882811,0.14963531494140625,0.03144381607429487,0.019854893740273924,0.01797297095596943,0.8700160980224609,2019-06-21 12:48:51:378
-0.7146582641601562,9.795726257324219,0.17118280029296876,0.03184329023780675,0.019588577631266,0.018771919282993203,0.8750081062316895,2019-06-21 12:48:51:383
-0.7158553466796875,9.8065,0.1651973876953125,0.030911183856279015,0.020121209849281847,0.019570867610016973,0.880000114440918,2019-06-21 12:48:51:388
-0.7469794921874999,9.814879577636718,0.14963531494140625,0.03051170969276713,0.02092015817630562,0.02023665788253678,0.8849921226501465,2019-06-21 12:48:51:393
-0.6703662109374999,9.823259155273437,0.16639447021484374,0.030778025801775053,0.02092015817630562,0.020369815937040743,0.889984130859375,2019-06-21 12:48:51:398
-0.6907166137695312,9.820864990234375,0.15681781005859374,0.0313106580197909,0.021186474285313544,0.021301922318568478,0.8949761390686035,2019-06-21 12:48:51:403
-0.7314174194335937,9.79692333984375,0.1508323974609375,0.030112235529255245,0.02158594844882543,0.021967712591088286,0.899968147277832,2019-06-21 12:48:51:408
-0.6955049438476563,9.8065,0.19273028564453124,0.0313106580197909,0.021985422612337314,0.022500344809104133,0.9050881862640381,2019-06-21 12:48:51:413
-0.7206436767578125,9.814879577636718,0.16878863525390625,0.030378551638263168,0.021985422612337314,0.022766660918112056,0.9100801944732666,2019-06-21 12:48:51:418
-0.71824951171875,9.798120422363281,0.1651973876953125,0.031044341910782983,0.02318384510287297,0.022899818972616018,0.9150722026824951,2019-06-21 12:48:51:423
-0.7026874389648438,9.790937927246093,0.16639447021484374,0.03064486774727109,0.02171910650332939,0.023432451190631868,0.9200642108917236,2019-06-21 12:48:51:428
-0.703884521484375,9.810091247558594,0.18195654296875,0.030911183856279015,0.021452790394321467,0.026095612280711104,0.925055980682373,2019-06-21 12:48:51:433
-0.6835341186523437,9.81727374267578,0.14484698486328124,0.030378551638263168,0.02251805483035316,0.02649508644422299,0.9300479888916016,2019-06-21 12:48:51:438
-0.6727603759765625,9.801711669921875,0.1508323974609375,0.030378551638263168,0.02331700315737693,0.027826666989262613,0.9350399971008301,2019-06-21 12:48:51:443
-0.6811399536132813,9.812485412597656,0.1604090576171875,0.030778025801775053,0.023849635375392784,0.02702771866223884,0.9400320053100586,2019-06-21 12:48:51:448
-0.6691691284179687,9.8065,0.177168212890625,0.031177499965286945,0.02438226759340863,0.02702771866223884,0.9450240135192871,2019-06-21 12:48:51:453
-0.6727603759765625,9.813682495117188,0.1268907470703125,0.031976448292310715,0.023982793429896745,0.027826666989262613,0.9500160217285156,2019-06-21 12:48:51:458
-0.6488187255859375,9.819667907714843,0.1556207275390625,0.031976448292310715,0.023849635375392784,0.027294034771246763,0.9550080299377441,2019-06-21 12:48:51:463
-0.6548041381835937,9.808894165039062,0.14484698486328124,0.0313106580197909,0.02438226759340863,0.028758773370790344,0.9600000381469727,2019-06-21 12:48:51:468
-0.7026874389648438,9.818470825195313,0.15921197509765625,0.03064486774727109,0.025314373974936362,0.028758773370790344,0.9649920463562012,2019-06-21 12:48:51:473
-0.6691691284179687,9.819667907714843,0.177168212890625,0.030378551638263168,0.024914899811424477,0.02915824753430223,0.9699840545654297,2019-06-21 12:48:51:478
-0.6452274780273437,9.832835815429688,0.1460440673828125,0.030778025801775053,0.024115951484400707,0.028226141152774498,0.9749760627746582,2019-06-21 12:48:51:483
-0.6117091674804688,9.798120422363281,0.191533203125,0.03064486774727109,0.023849635375392784,0.028226141152774498,0.9799680709838867,2019-06-21 12:48:51:488
-0.6356508178710938,9.828047485351563,0.1316790771484375,0.030778025801775053,0.025580690083944285,0.0271608767167428,0.9850881099700928,2019-06-21 12:48:51:493
-0.64163623046875,9.808894165039062,0.17118280029296876,0.0313106580197909,0.024515425647912592,0.026761402553230916,0.9900801181793213,2019-06-21 12:48:51:498
-0.6476216430664062,9.810091247558594,0.16400030517578124,0.031177499965286945,0.023849635375392784,0.02569613811719922,0.9950721263885498,2019-06-21 12:48:51:503
-0.627271240234375,9.81607666015625,0.196321533203125,0.030911183856279015,0.023583319266384854,0.02756035088025469,1.0000641345977783,2019-06-21 12:48:51:508
-0.6236799926757812,9.836427062988282,0.1987156982421875,0.0313106580197909,0.023450161211880892,0.02702771866223884,1.0050561428070068,2019-06-21 12:48:51:513
-0.6344537353515625,9.844806640625,0.16400030517578124,0.0313106580197909,0.022251738721345237,0.026095612280711104,1.0100481510162354,2019-06-21 12:48:51:518
-0.6176945800781249,9.832835815429688,0.196321533203125,0.029446445256735437,0.023450161211880892,0.02569613811719922,1.0150401592254639,2019-06-21 12:48:51:523
-0.588964599609375,9.83522998046875,0.1747740478515625,0.030378551638263168,0.022784370939361084,0.024630873681167526,1.0200321674346924,2019-06-21 12:48:51:528
-0.6188916625976563,9.811288330078124,0.17836529541015625,0.0313106580197909,0.023982793429896745,0.025296663953687334,1.025024175643921,2019-06-21 12:48:51:533
-0.6176945800781249,9.79692333984375,0.15442364501953124,0.0313106580197909,0.02251805483035316,0.02569613811719922,1.0300161838531494,2019-06-21 12:48:51:538
-0.5961470947265625,9.819667907714843,0.18075946044921876,0.031576974128798826,0.022251738721345237,0.024764031735671488,1.035008192062378,2019-06-21 12:48:51:543
-0.5925558471679687,9.808894165039062,0.17597113037109374,0.03144381607429487,0.02158594844882543,0.023432451190631868,1.0400002002716064,2019-06-21 12:48:51:548
-0.5901616821289062,9.798120422363281,0.16759155273437498,0.031576974128798826,0.022118580666841275,0.02409824146315168,1.044992208480835,2019-06-21 12:48:51:553
-0.6021325073242187,9.81607666015625,0.2082923583984375,0.032775396619334485,0.02092015817630562,0.024364557572159603,1.0499839782714844,2019-06-21 12:48:51:558
-0.5925558471679687,9.826850402832031,0.191533203125,0.03224276440131864,0.020787000121801655,0.024630873681167526,1.054975986480713,2019-06-21 12:48:51:563
-0.5769937744140625,9.848397888183593,0.1651973876953125,0.03250908051032656,0.02038752595828977,0.02356560924513583,1.0599679946899414,2019-06-21 12:48:51:568
-0.579387939453125,9.828047485351563,0.16160614013671876,0.03250908051032656,0.019322261522258077,0.023299293136127906,1.0650880336761475,2019-06-21 12:48:51:573
-0.5686141967773437,9.780164184570312,0.16759155273437498,0.03184329023780675,0.018789629304242227,0.021701396482080363,1.070080041885376,2019-06-21 12:48:51:578
-0.5817821044921875,9.79692333984375,0.177168212890625,0.032375922455822596,0.018789629304242227,0.021168764264064516,1.0750720500946045,2019-06-21 12:48:51:583
-0.5638258666992187,9.810091247558594,0.1843507080078125,0.031976448292310715,0.01905594541325015,0.02010349982803282,1.080064058303833,2019-06-21 12:48:51:588
-0.5662200317382813,9.801711669921875,0.16160614013671876,0.031976448292310715,0.01825699708622638,0.019171393446505088,1.0850560665130615,2019-06-21 12:48:51:593
-0.5757966918945312,9.819667907714843,0.158014892578125,0.03304171272834241,0.01825699708622638,0.018638761228489238,1.09004807472229,2019-06-21 12:48:51:598
-0.5494608764648438,9.829244567871093,0.158014892578125,0.03210960634681467,0.017724364868210534,0.01783981290146547,1.0950400829315186,2019-06-21 12:48:51:603
-0.5398842163085937,9.829244567871093,0.15442364501953124,0.03317487078284637,0.017191732650194684,0.01664139041092981,1.100032091140747,2019-06-21 12:48:51:608
-0.5303075561523437,9.794529174804687,0.1508323974609375,0.03250908051032656,0.017591206813706572,0.014910335702378303,1.1050240993499756,2019-06-21 12:48:51:613
-0.54586962890625,9.795726257324219,0.16400030517578124,0.03290855467383845,0.017591206813706572,0.013711913211842649,1.110016107559204,2019-06-21 12:48:51:618
-0.5243221435546875,9.8065,0.22864276123046876,0.03250908051032656,0.017191732650194684,0.011980858503291144,1.1150081157684326,2019-06-21 12:48:51:623
-0.49918341064453126,9.798120422363281,0.19273028564453124,0.033441186891854296,0.015860152105155068,0.012646648775810952,1.1200001239776611,2019-06-21 12:48:51:628
-0.5183367309570313,9.820864990234375,0.19991278076171876,0.0341069771643741,0.016659100432178837,0.010915594067259449,1.1249921321868896,2019-06-21 12:48:51:633
-0.5051688232421875,9.829244567871093,0.191533203125,0.03384066105536618,0.015726994050651106,0.009317697413211905,1.1299841403961182,2019-06-21 12:48:51:638
-0.4955921630859375,9.810091247558594,0.1747740478515625,0.034639609382389955,0.016259626268666953,0.006787694377636629,1.1349761486053467,2019-06-21 12:48:51:643
-0.48242425537109374,9.818470825195313,0.15681781005859374,0.0341069771643741,0.01612646821416299,0.0047903235600772,1.1399681568145752,2019-06-21 12:48:51:648
-0.4788330078125,9.823259155273437,0.1316790771484375,0.03317487078284637,0.015061203778131294,0.002526636633509848,1.1450881958007812,2019-06-21 12:48:51:653
-0.4524971923828125,9.822062072753907,0.17597113037109374,0.03397381910987014,0.015593835996147143,0.002393478579005886,1.1500802040100098,2019-06-21 12:48:51:658
-0.46207385253906247,9.798120422363281,0.17118280029296876,0.03370750300086222,0.017058574595690722,-0.0005359986200812759,1.1550722122192383,2019-06-21 12:48:51:663
-0.483621337890625,9.8065,0.1316790771484375,0.034639609382389955,0.017058574595690722,-0.0026665274921446663,1.1600639820098877,2019-06-21 12:48:51:668
-0.47524176025390624,9.8256533203125,0.1316790771484375,0.0351722436810004,0.01812383903172242,-0.004797056364208057,1.1650559902191162,2019-06-21 12:48:51:673
-0.47045343017578123,9.819667907714843,0.15681781005859374,0.03490592549139788,0.017990680977218457,-0.006927585236271447,1.1700479984283447,2019-06-21 12:48:51:678
-0.454891357421875,9.818470825195313,0.16639447021484374,0.03490592549139788,0.01825699708622638,-0.008791797999326913,1.1750400066375732,2019-06-21 12:48:51:683
-0.45130010986328123,9.822062072753907,0.18315362548828124,0.0341069771643741,0.01892278735874619,-0.01065601076238238,1.1800320148468018,2019-06-21 12:48:51:688
-0.4668621826171875,9.826850402832031,0.16878863525390625,0.03397381910987014,0.019988051794777886,-0.012520223525437848,1.1850240230560303,2019-06-21 12:48:51:693
-0.48003009033203126,9.792135009765625,0.158014892578125,0.034639609382389955,0.020653842067297694,-0.0147839104520052,1.1900160312652588,2019-06-21 12:48:51:698
-0.4596796875,9.784952514648436,0.13527032470703124,0.034639609382389955,0.020787000121801655,-0.01678128126956463,1.1950080394744873,2019-06-21 12:48:51:703
-0.4776359252929687,9.804105834960938,0.18075946044921876,0.03570487589901625,0.020787000121801655,-0.01891181014162802,1.2000000476837158,2019-06-21 12:48:51:708
-0.4656651000976562,9.819667907714843,0.18075946044921876,0.03477276743689391,0.02171910650332939,-0.02157497123170726,1.2049920558929443,2019-06-21 12:48:51:713
-0.46207385253906247,9.808894165039062,0.1747740478515625,0.034639609382389955,0.022651212884857122,-0.023705500103770646,1.2099840641021729,2019-06-21 12:48:51:718
-0.48122717285156247,9.81727374267578,0.1747740478515625,0.035438559790008324,0.023716477320888822,-0.025303396757818192,1.2149760723114014,2019-06-21 12:48:51:723
-0.48840966796874996,9.840018310546874,0.1556207275390625,0.03503908562649644,0.02424910953890467,-0.02743392562988158,1.2199680805206299,2019-06-21 12:48:51:728
-0.47284759521484376,9.828047485351563,0.20709527587890625,0.034639609382389955,0.025314373974936362,-0.02943129644744101,1.225088119506836,2019-06-21 12:48:51:733
-0.46327093505859374,9.81607666015625,0.1556207275390625,0.03490592549139788,0.025314373974936362,-0.03129550921049648,1.2300801277160645,2019-06-21 12:48:51:738
-0.474044677734375,9.805302917480468,0.18075946044921876,0.03490592549139788,0.02584700619295221,-0.032360773646528174,1.235072135925293,2019-06-21 12:48:51:743
-0.4776359252929687,9.81607666015625,0.18674487304687498,0.03450645132788599,0.027311744792495794,-0.033159721973551944,1.2400641441345215,2019-06-21 12:48:51:748
-0.46925634765625,9.801711669921875,0.1747740478515625,0.034373293273382025,0.027977535065015602,-0.03648867333615099,1.24505615234375,2019-06-21 12:48:51:753
-0.4955921630859375,9.804105834960938,0.1843507080078125,0.034639609382389955,0.029175957555551257,-0.037820253881190605,1.2500481605529785,2019-06-21 12:48:51:758
-0.474044677734375,9.81727374267578,0.177168212890625,0.0341069771643741,0.03024122199158295,-0.040350256916765886,1.255040168762207,2019-06-21 12:48:51:763
-0.4572855224609375,9.832835815429688,0.158014892578125,0.03330802883735033,0.030907012264102765,-0.04181499551630947,1.2600321769714355,2019-06-21 12:48:51:768
-0.4716505126953125,9.841215393066406,0.1723798828125,0.03450645132788599,0.032105434754638416,-0.043812366333868896,1.265024185180664,2019-06-21 12:48:51:773
-0.497986328125,9.832835815429688,0.15202947998046876,0.03477276743689391,0.03183911864563049,-0.044877630769900596,1.2700161933898926,2019-06-21 12:48:51:778
-0.48960675048828123,9.828047485351563,0.16400030517578124,0.03397381910987014,0.03383648946318992,-0.04687500158746002,1.275008201599121,2019-06-21 12:48:51:783
-0.49918341064453126,9.818470825195313,0.18674487304687498,0.03397381910987014,0.03423596362670181,-0.04860605629601152,1.2800002098083496,2019-06-21 12:48:51:788
-0.49200091552734376,9.811288330078124,0.1556207275390625,0.03384066105536618,0.03436912168120577,-0.04993763684105114,1.284991979598999,2019-06-21 12:48:51:793
-0.48960675048828123,9.805302917480468,0.17357696533203124,0.034240135218878066,0.03570070222624539,-0.051002901277082846,1.2899839878082275,2019-06-21 12:48:51:798
-0.5159425659179687,9.834032897949218,0.158014892578125,0.033574344946358255,0.03809754720731671,-0.05246763987662642,1.294975996017456,2019-06-21 12:48:51:803
-0.5243221435546875,9.8256533203125,0.1747740478515625,0.03330802883735033,0.03956228580686028,-0.05286711404013831,1.2999680042266846,2019-06-21 12:48:51:808
-0.5350958862304688,9.801711669921875,0.17118280029296876,0.0341069771643741,0.03889649553434048,-0.054331852639681884,1.3050880432128906,2019-06-21 12:48:51:813
-0.5303075561523437,9.807697082519532,0.1651973876953125,0.034373293273382025,0.04036123413388405,-0.05553027513021754,1.3100800514221191,2019-06-21 12:48:51:818
-0.5530521240234375,9.814879577636718,0.16280322265625,0.03397381910987014,0.041027024406403864,-0.05646238151174528,1.3150720596313477,2019-06-21 12:48:51:823
-0.541081298828125,9.810091247558594,0.1508323974609375,0.032375922455822596,0.0419591307879316,-0.05819343622029679,1.3200640678405762,2019-06-21 12:48:51:828
-0.560234619140625,9.793332092285157,0.2082923583984375,0.03224276440131864,0.04235860495144349,-0.05979133287434433,1.3250560760498047,2019-06-21 12:48:51:833
-0.5686141967773437,9.786149597167968,0.13048199462890625,0.032775396619334485,0.04395650160549103,-0.059658174819840364,1.3300480842590332,2019-06-21 12:48:51:838
-0.5638258666992187,9.819667907714843,0.16639447021484374,0.03290855467383845,0.04568755631404253,-0.06165554563739979,1.3350400924682617,2019-06-21 12:48:51:843
-0.579387939453125,9.822062072753907,0.1699857177734375,0.03384066105536618,0.04542124020503461,-0.06258765201892752,1.3400321006774902,2019-06-21 12:48:51:848
-0.5865704345703124,9.801711669921875,0.19273028564453124,0.034373293273382025,0.04635334658656234,-0.06205501980091167,1.3450241088867188,2019-06-21 12:48:51:853
-0.60332958984375,9.776572937011718,0.19751861572265625,0.03477276743689391,0.0464865046410663,-0.06325344229144733,1.3500161170959473,2019-06-21 12:48:51:858
-0.588964599609375,9.823259155273437,0.16878863525390625,0.03384066105536618,0.04728545296809008,-0.06458502283648695,1.3550081253051758,2019-06-21 12:48:51:863
-0.5817821044921875,9.832835815429688,0.1604090576171875,0.034240135218878066,0.04888334962213762,-0.0647181808909909,1.3600001335144043,2019-06-21 12:48:51:868
-0.60332958984375,9.814879577636718,0.1556207275390625,0.034240135218878066,0.049815456003665354,-0.06405239061847111,1.3649921417236328,2019-06-21 12:48:51:873
-0.6667749633789062,9.81607666015625,0.158014892578125,0.03397381910987014,0.04968229794916139,-0.06485133894549487,1.3699841499328613,2019-06-21 12:48:51:878
-0.651212890625,9.79692333984375,0.138861572265625,0.034373293273382025,0.04928282378564951,-0.06298712618243942,1.3749761581420898,2019-06-21 12:48:51:883
-0.6380449829101562,9.811288330078124,0.14963531494140625,0.03477276743689391,0.04928282378564951,-0.06365291645495921,1.380096197128296,2019-06-21 12:48:51:888
-0.651212890625,9.824456237792969,0.1699857177734375,0.0351722436810004,0.048617033513129695,-0.06272081007343148,1.3850882053375244,2019-06-21 12:48:51:893
-0.6488187255859375,9.792135009765625,0.17836529541015625,0.03490592549139788,0.049815456003665354,-0.06298712618243942,1.390080213546753,2019-06-21 12:48:51:898
-0.6763516235351562,9.823259155273437,0.177168212890625,0.034639609382389955,0.05008177211267328,-0.06298712618243942,1.3950719833374023,2019-06-21 12:48:51:903
-0.6907166137695312,9.802908752441406,0.16639447021484374,0.0341069771643741,0.048617033513129695,-0.06285396812793545,1.4000639915466309,2019-06-21 12:48:51:908
-0.6404391479492187,9.7873466796875,0.18794195556640625,0.03583803395352021,0.04795124324060989,-0.06138922952839187,1.4050559997558594,2019-06-21 12:48:51:913
-0.6703662109374999,9.804105834960938,0.17836529541015625,0.034373293273382025,0.04808440129511385,-0.06005764898335225,1.410048007965088,2019-06-21 12:48:51:918
-0.66078955078125,9.826850402832031,0.15202947998046876,0.0351722436810004,0.04701913685908215,-0.06019080703785621,1.4150400161743164,2019-06-21 12:48:51:923
-0.68951953125,9.850792053222657,0.1651973876953125,0.0351722436810004,0.046885978804578184,-0.05979133287434433,1.420032024383545,2019-06-21 12:48:51:928
-0.7146582641601562,9.819667907714843,0.1747740478515625,0.034639609382389955,0.047418611022594044,-0.058859226492816594,1.4250240325927734,2019-06-21 12:48:51:933
-0.7062786865234375,9.813682495117188,0.16400030517578124,0.033574344946358255,0.04555439825953857,-0.05925870065632848,1.430016040802002,2019-06-21 12:48:51:938
-0.7062786865234375,9.792135009765625,0.11372283935546874,0.034373293273382025,0.045154924096026686,-0.05806027816579282,1.4350080490112305,2019-06-21 12:48:51:943
-0.7002932739257812,9.829244567871093,0.15681781005859374,0.03397381910987014,0.04488860798701876,-0.05632922345724131,1.440000057220459,2019-06-21 12:48:51:948
-0.6943078613281249,9.823259155273437,0.1987156982421875,0.03317487078284637,0.04408965965999499,-0.055796591239225465,1.4449920654296875,2019-06-21 12:48:51:953
-0.6667749633789062,9.831638732910156,0.15442364501953124,0.033441186891854296,0.04302439522396329,-0.05446501069418585,1.449984073638916,2019-06-21 12:48:51:958
-0.7302203369140625,9.829244567871093,0.20470111083984374,0.034240135218878066,0.0419591307879316,-0.05366606236716208,1.4549760818481445,2019-06-21 12:48:51:963
-0.7086728515625,9.807697082519532,0.18195654296875,0.03450645132788599,0.04142649856991575,-0.053399746258154156,1.459968090057373,2019-06-21 12:48:51:968
-0.6823370361328125,9.805302917480468,0.2178690185546875,0.034639609382389955,0.040893866351899906,-0.05300027209464227,1.465088129043579,2019-06-21 12:48:51:973
-0.7086728515625,9.813682495117188,0.1843507080078125,0.03557171784451229,0.04116018246090783,-0.051801849604106616,1.4700801372528076,2019-06-21 12:48:51:978
-0.71824951171875,9.84600372314453,0.18315362548828124,0.03477276743689391,0.040228076079380094,-0.05140237544059473,1.4750721454620361,2019-06-21 12:48:51:983
-0.7242349243164062,9.840018310546874,0.215474853515625,0.034639609382389955,0.03996175997037217,-0.050470269059066986,1.4800641536712646,2019-06-21 12:48:51:988
-0.7409940795898438,9.810091247558594,0.13527032470703124,0.03477276743689391,0.04036123413388405,-0.051002901277082846,1.4850561618804932,2019-06-21 12:48:51:993
-0.751767822265625,9.801711669921875,0.10294909667968749,0.0351722436810004,0.03876333747983651,-0.050470269059066986,1.4900481700897217,2019-06-21 12:48:51:998
-0.751767822265625,9.8065,0.1316790771484375,0.035305401735504366,0.03956228580686028,-0.048472898241507564,1.4950401782989502,2019-06-21 12:48:52:003
-0.7553590698242187,9.838821228027344,0.09217535400390625,0.03450645132788599,0.03796438915281274,-0.04674184353295606,1.5000321865081787,2019-06-21 12:48:52:008
-0.7445853271484375,9.848397888183593,0.11611700439453125,0.03503908562649644,0.036366492498765196,-0.04421184049738078,1.5050241947174072,2019-06-21 12:48:52:013
-0.7649357299804688,9.832835815429688,0.100554931640625,0.035305401735504366,0.03490175389922162,-0.04208131162531739,1.5100162029266357,2019-06-21 12:48:52:018
-0.7721182250976563,9.810091247558594,0.12569366455078124,0.034373293273382025,0.032504908918150305,-0.0416818374618055,1.5150082111358643,2019-06-21 12:48:52:023
-0.7433882446289062,9.784952514648436,0.1412557373046875,0.034240135218878066,0.03223859280914238,-0.04061657302577381,1.5199999809265137,2019-06-21 12:48:52:028
-0.7338115844726563,9.794529174804687,0.18315362548828124,0.03370750300086222,0.03197227670013446,-0.03848604415371042,1.5249919891357422,2019-06-21 12:48:52:033
-0.7769065551757812,9.799317504882811,0.1460440673828125,0.0341069771643741,0.03024122199158295,-0.036222357227143065,1.5299839973449707,2019-06-21 12:48:52:038
-0.7589503173828125,9.811288330078124,0.1556207275390625,0.034373293273382025,0.028377009228527487,-0.035023934736607414,1.5349760055541992,2019-06-21 12:48:52:043
-0.7697240600585937,9.800514587402343,0.16878863525390625,0.03397381910987014,0.028377009228527487,-0.03382551224607175,1.5400960445404053,2019-06-21 12:48:52:048
-0.7589503173828125,9.834032897949218,0.18075946044921876,0.03450645132788599,0.027311744792495794,-0.03169498337400836,1.5450880527496338,2019-06-21 12:48:52:053
-0.7637386474609374,9.844806640625,0.14005865478515625,0.03583803395352021,0.02784437701051164,-0.031561825319504404,1.5500800609588623,2019-06-21 12:48:52:058
-0.7362057495117187,9.824456237792969,0.14364990234375,0.03583803395352021,0.027178586737991825,-0.030762876992480627,1.5550720691680908,2019-06-21 12:48:52:063
-0.73740283203125,9.85438330078125,0.17118280029296876,0.03477276743689391,0.02664595451997598,-0.028099715902401394,1.5600640773773193,2019-06-21 12:48:52:068
-0.73740283203125,9.807697082519532,0.18315362548828124,0.034639609382389955,0.026246480356464093,-0.02796655784789743,1.5650560855865479,2019-06-21 12:48:52:073
-0.7541619873046875,9.780164184570312,0.17597113037109374,0.03490592549139788,0.02584700619295221,-0.026235503139345924,1.5700480937957764,2019-06-21 12:48:52:078
-0.7649357299804688,9.781361267089844,0.15202947998046876,0.03450645132788599,0.026512796465472017,-0.024903922594306308,1.5750401020050049,2019-06-21 12:48:52:083
-0.7936657104492187,9.778967102050782,0.1460440673828125,0.034240135218878066,0.026246480356464093,-0.023572342049266684,1.5800321102142334,2019-06-21 12:48:52:088
-0.77570947265625,9.775375854492188,0.1747740478515625,0.03397381910987014,0.024648583702416554,-0.020776022904683486,1.585024118423462,2019-06-21 12:48:52:093
-0.7864832153320312,9.766996276855469,0.1795623779296875,0.033441186891854296,0.023583319266384854,-0.018645494032620096,1.5900161266326904,2019-06-21 12:48:52:098
-0.804439453125,9.770587524414061,0.1843507080078125,0.032375922455822596,0.022118580666841275,-0.01678128126956463,1.595008134841919,2019-06-21 12:48:52:103
-0.790074462890625,9.765799194335937,0.13766448974609374,0.03317487078284637,0.020653842067297694,-0.01611549099704482,1.6000001430511475,2019-06-21 12:48:52:108
-0.7864832153320312,9.764602111816407,0.12569366455078124,0.03264223856483052,0.020787000121801655,-0.015183384615517085,1.604992151260376,2019-06-21 12:48:52:113
-0.727826171875,9.775375854492188,0.11372283935546874,0.03330802883735033,0.020121209849281847,-0.014384436288493315,1.6099841594696045,2019-06-21 12:48:52:118
-0.7433882446289062,9.765799194335937,0.15681781005859374,0.032775396619334485,0.021452790394321467,-0.013052855743453695,1.614976167678833,2019-06-21 12:48:52:123
-0.71824951171875,9.808894165039062,0.1747740478515625,0.03304171272834241,0.022651212884857122,-0.010789168816886343,1.6199681758880615,2019-06-21 12:48:52:128
-0.7242349243164062,9.81607666015625,0.1723798828125,0.03290855467383845,0.021186474285313544,-0.009723904380854647,1.6250882148742676,2019-06-21 12:48:52:133
-0.7350086669921875,9.7873466796875,0.177168212890625,0.03477276743689391,0.020520684012793732,-0.0091912721628388,1.630079984664917,2019-06-21 12:48:52:138
-0.7505707397460938,9.800514587402343,0.18674487304687498,0.03450645132788599,0.020653842067297694,-0.00785969161779918,1.6350719928741455,2019-06-21 12:48:52:143
-0.73740283203125,9.826850402832031,0.196321533203125,0.03490592549139788,0.021452790394321467,-0.0070607432907754085,1.640064001083374,2019-06-21 12:48:52:148
-0.7338115844726563,9.837624145507812,0.21906610107421876,0.03503908562649644,0.022784370939361084,-0.005862320800239752,1.6450560092926025,2019-06-21 12:48:52:153
-0.7266290893554688,9.847200805664063,0.1939273681640625,0.03384066105536618,0.021985422612337314,-0.005462846636727866,1.650048017501831,2019-06-21 12:48:52:158
-0.7086728515625,9.829244567871093,0.2106865234375,0.03557171784451229,0.022784370939361084,-0.00506337247321598,1.6550400257110596,2019-06-21 12:48:52:163
-0.71824951171875,9.823259155273437,0.20470111083984374,0.03477276743689391,0.0223848967758492,-0.003465475819168438,1.660032033920288,2019-06-21 12:48:52:168
-0.7206436767578125,9.783755432128906,0.1340732421875,0.035305401735504366,0.022784370939361084,-0.003066001655656552,1.6650240421295166,2019-06-21 12:48:52:173
-0.7002932739257812,9.814879577636718,0.16400030517578124,0.03677014033504794,0.023050687048369007,-0.0026665274921446663,1.6700160503387451,2019-06-21 12:48:52:178
-0.6727603759765625,9.819667907714843,0.1891390380859375,0.03570487589901625,0.02331700315737693,-0.0024002113831367426,1.6750080585479736,2019-06-21 12:48:52:183
-0.6560012207031249,9.775375854492188,0.15202947998046876,0.03450645132788599,0.02504805786592844,-0.0025333694376407047,1.6800000667572021,2019-06-21 12:48:52:188
-0.6536070556640625,9.800514587402343,0.114919921875,0.034639609382389955,0.02318384510287297,-0.0013349469471050472,1.6849920749664307,2019-06-21 12:48:52:193
-0.6057237548828125,9.802908752441406,0.1077374267578125,0.03570487589901625,0.023849635375392784,-0.0013349469471050472,1.6899840831756592,2019-06-21 12:48:52:198
-0.6200887451171875,9.843609558105468,0.1556207275390625,0.03650382422604002,0.024115951484400707,-0.0022670533286327805,1.6949760913848877,2019-06-21 12:48:52:203
-0.64163623046875,9.828047485351563,0.15442364501953124,0.035438559790008324,0.024914899811424477,-0.0029328436011525905,1.6999680995941162,2019-06-21 12:48:52:208
-0.58417626953125,9.832835815429688,0.18315362548828124,0.036237508117032094,0.025713848138448247,-0.0035986338736723996,1.7050881385803223,2019-06-21 12:48:52:213
-0.62248291015625,9.782558349609374,0.22026318359375,0.037036456444055864,0.02584700619295221,-0.004530740255200133,1.7100801467895508,2019-06-21 12:48:52:218
-0.5829791870117187,9.830441650390625,0.16639447021484374,0.037036456444055864,0.026379638410968055,-0.0066612691272635235,1.7150721549987793,2019-06-21 12:48:52:223
-0.574599609375,9.866354125976562,0.12928491210937498,0.03637066617153606,0.02584700619295221,-0.0066612691272635235,1.7200641632080078,2019-06-21 12:48:52:228
-0.574599609375,9.866354125976562,0.12928491210937498,0.03637066617153606,0.02584700619295221,-0.0066612691272635235,1.7228801250457764,2019-06-21 12:48:52:231
-0.5722054443359375,9.805302917480468,0.177168212890625,0.03716961449855983,0.027444902846999755,-0.0091912721628388,1.7300481796264648,2019-06-21 12:48:52:238
-0.5722054443359375,9.805302917480468,0.177168212890625,0.03716961449855983,0.027444902846999755,-0.0091912721628388,1.7328641414642334,2019-06-21 12:48:52:241
-0.58417626953125,9.822062072753907,0.22505151367187498,0.04063172391566284,0.02771121895600768,-0.01398496212498143,1.7400321960449219,2019-06-21 12:48:52:248
-0.58417626953125,9.822062072753907,0.22505151367187498,0.04063172391566284,0.02771121895600768,-0.01398496212498143,1.742976188659668,2019-06-21 12:48:52:251
-0.560234619140625,9.832835815429688,0.1843507080078125,0.039699617534135104,0.027578060901503717,-0.015849174888036895,1.750016212463379,2019-06-21 12:48:52:258
-0.560234619140625,9.832835815429688,0.1843507080078125,0.039699617534135104,0.027578060901503717,-0.015849174888036895,1.752960205078125,2019-06-21 12:48:52:261
-0.5518550415039062,9.823259155273437,0.18195654296875,0.04023224975215095,0.026113322301960132,-0.021974445395219144,1.7599999904632568,2019-06-21 12:48:52:268
-0.58417626953125,9.798120422363281,0.19751861572265625,0.04009909169764699,0.027578060901503717,-0.023572342049266684,1.7649919986724854,2019-06-21 12:48:52:273
-0.5710083618164062,9.77777001953125,0.1604090576171875,0.03863435309810341,0.027311744792495794,-0.02517023870331423,1.7699840068817139,2019-06-21 12:48:52:278
-0.531504638671875,9.800514587402343,0.1364674072265625,0.0390338272616153,0.028110693119519563,-0.027300767575377617,1.7749760150909424,2019-06-21 12:48:52:283
-0.5662200317382813,9.814879577636718,0.1340732421875,0.039566459479631146,0.025447532029440324,-0.029697612556448934,1.779968023300171,2019-06-21 12:48:52:288
-0.5386871337890625,9.828047485351563,0.10654034423828125,0.03783540477107964,0.02584700619295221,-0.03129550921049648,1.785088062286377,2019-06-21 12:48:52:293
-0.5578404541015625,9.81727374267578,0.1173140869140625,0.03783540477107964,0.02584700619295221,-0.03395867030057571,1.7900800704956055,2019-06-21 12:48:52:298
-0.5578404541015625,9.81727374267578,0.1173140869140625,0.038767511152607376,0.024914899811424477,-0.03635551528164703,1.795072078704834,2019-06-21 12:48:52:303
-0.5518550415039062,9.826850402832031,0.114919921875,0.03743593060756775,0.025314373974936362,-0.038086569990198535,1.8000640869140625,2019-06-21 12:48:52:308
-0.5350958862304688,9.830441650390625,0.14364990234375,0.03716961449855983,0.02504805786592844,-0.04141552135279758,1.805056095123291,2019-06-21 12:48:52:313
-0.550657958984375,9.81727374267578,0.12329949951171874,0.036903298389551906,0.026113322301960132,-0.04421184049738078,1.8100481033325195,2019-06-21 12:48:52:318
-0.5590375366210938,9.805302917480468,0.14245281982421876,0.03716961449855983,0.027311744792495794,-0.04634236936944417,1.815040111541748,2019-06-21 12:48:52:323
-0.5829791870117187,9.822062072753907,0.16280322265625,0.03677014033504794,0.02771121895600768,-0.04913868851402737,1.8200321197509766,2019-06-21 12:48:52:328
-0.5674171142578125,9.795726257324219,0.16280322265625,0.03637066617153606,0.02864332533753541,-0.05153553349509869,1.825024127960205,2019-06-21 12:48:52:333
-0.5434754638671875,9.775375854492188,0.0957666015625,0.036104350062528136,0.02864332533753541,-0.05206816571311454,1.8300161361694336,2019-06-21 12:48:52:338
-0.5434754638671875,9.792135009765625,0.14724114990234374,0.03570487589901625,0.029708589773567103,-0.055397117075713584,1.835008144378662,2019-06-21 12:48:52:343
-0.5470667114257812,9.822062072753907,0.17597113037109374,0.03583803395352021,0.030907012264102765,-0.05806027816579282,1.8400001525878906,2019-06-21 12:48:52:348
-0.56502294921875,9.79692333984375,0.13766448974609374,0.03557171784451229,0.03223859280914238,-0.05979133287434433,1.8449921607971191,2019-06-21 12:48:52:353
-0.5781908569335937,9.807697082519532,0.12808782958984374,0.033441186891854296,0.03303754113616615,-0.0612560714738879,1.8499841690063477,2019-06-21 12:48:52:358
-0.6093150024414062,9.81727374267578,0.14963531494140625,0.033441186891854296,0.032904383081662186,-0.06391923256396714,1.8549761772155762,2019-06-21 12:48:52:363
-0.5925558471679687,9.823259155273437,0.14364990234375,0.03264223856483052,0.035168070008229545,-0.06431870672747902,1.8599681854248047,2019-06-21 12:48:52:368
-0.5877675170898438,9.802908752441406,0.11851116943359374,0.032775396619334485,0.036366492498765196,-0.0655171292180147,1.8650879859924316,2019-06-21 12:48:52:373
-0.6057237548828125,9.793332092285157,0.11252575683593749,0.032375922455822596,0.03836386331632463,-0.06738134198107015,1.8700799942016602,2019-06-21 12:48:52:378
-0.6332566528320313,9.793332092285157,0.11851116943359374,0.031576974128798826,0.039429127752356324,-0.0696450289076375,1.8750720024108887,2019-06-21 12:48:52:383
-0.627271240234375,9.801711669921875,0.15202947998046876,0.032375922455822596,0.04142649856991575,-0.06977818696214147,1.8800640106201172,2019-06-21 12:48:52:388
-0.6344537353515625,9.811288330078124,0.08379577636718749,0.03144381607429487,0.04315755327846726,-0.07044397307347207,1.8850560188293457,2019-06-21 12:48:52:393
-0.6727603759765625,9.794529174804687,0.09337243652343749,0.031044341910782983,0.04582071436854649,-0.07057713112797603,1.8900480270385742,2019-06-21 12:48:52:398
-0.6440303955078125,9.822062072753907,0.12808782958984374,0.031044341910782983,0.04568755631404253,-0.07204186972751961,1.8950400352478027,2019-06-21 12:48:52:403
-0.665577880859375,9.823259155273437,0.12449658203125,0.03064486774727109,0.04568755631404253,-0.07257450194553547,1.9000320434570312,2019-06-21 12:48:52:408
-0.6763516235351562,9.826850402832031,0.10534326171875,0.02971276136574336,0.04728545296809008,-0.07297397610904735,1.9050240516662598,2019-06-21 12:48:52:413
-0.6859282836914062,9.823259155273437,0.11372283935546874,0.030112235529255245,0.04954913989465743,-0.07337345027255923,1.9100160598754883,2019-06-21 12:48:52:418
-0.6715632934570313,9.824456237792969,0.119708251953125,0.029979077474751283,0.05234545903924063,-0.07510450498111075,1.9150080680847168,2019-06-21 12:48:52:423
-0.6548041381835937,9.832835815429688,0.100554931640625,0.02971276136574336,0.054076513747792126,-0.0756371371991266,1.9200000762939453,2019-06-21 12:48:52:428
-0.6907166137695312,9.834032897949218,0.12329949951171874,0.029979077474751283,0.0538101976387842,-0.07497134692660679,1.9249920845031738,2019-06-21 12:48:52:433
-0.6835341186523437,9.802908752441406,0.16160614013671876,0.029979077474751283,0.054742304020311945,-0.07537082109011867,1.9299840927124023,2019-06-21 12:48:52:438
-0.69909619140625,9.805302917480468,0.1508323974609375,0.0295796033112394,0.05647335872886345,-0.0745718727630949,1.9349761009216309,2019-06-21 12:48:52:443
-0.7206436767578125,9.801711669921875,0.14364990234375,0.029180129147727513,0.0576717812193991,-0.0752376630356147,1.9399681091308594,2019-06-21 12:48:52:448
-0.73740283203125,9.822062072753907,0.1412557373046875,0.02904697109322355,0.05753862316489514,-0.0756371371991266,1.9450881481170654,2019-06-21 12:48:52:453
-0.7589503173828125,9.802908752441406,0.14843823242187498,0.028381180820703743,0.05833757149191891,-0.07510450498111075,1.950080156326294,2019-06-21 12:48:52:458
-0.7553590698242187,9.792135009765625,0.15921197509765625,0.02904697109322355,0.059003361764438725,-0.07510450498111075,1.9550721645355225,2019-06-21 12:48:52:463
-0.7637386474609374,9.79692333984375,0.16878863525390625,0.02984591942024732,0.058204413437414955,-0.07497134692660679,1.960064172744751,2019-06-21 12:48:52:468
-0.7781036376953124,9.81727374267578,0.1508323974609375,0.030378551638263168,0.05966915203695853,-0.07590345330813451,1.9650561809539795,2019-06-21 12:48:52:473
-0.780497802734375,9.828047485351563,0.14724114990234374,0.029979077474751283,0.059802310091462495,-0.07537082109011867,1.970048189163208,2019-06-21 12:48:52:478
-0.7852861328125,9.831638732910156,0.14364990234375,0.029446445256735437,0.059802310091462495,-0.07310713416355132,1.9750401973724365,2019-06-21 12:48:52:483
-0.81401611328125,9.794529174804687,0.1316790771484375,0.03051170969276713,0.0604681003639823,-0.07230818583652754,1.980032205581665,2019-06-21 12:48:52:488
-0.8008482055664062,9.793332092285157,0.1604090576171875,0.029979077474751283,0.06086757452749419,-0.07124292140049585,1.9850242137908936,2019-06-21 12:48:52:493
-0.8176073608398438,9.819667907714843,0.17836529541015625,0.02984591942024732,0.06086757452749419,-0.06991134085545622,1.990015983581543,2019-06-21 12:48:52:498
-0.8295781860351562,9.811288330078124,0.14963531494140625,0.0295796033112394,0.05993546814596645,-0.06924555474412562,1.9950079917907715,2019-06-21 12:48:52:503
-0.8247898559570312,9.784952514648436,0.15681781005859374,0.029979077474751283,0.05926967787344665,-0.06831344836259788,2.0,2019-06-21 12:48:52:508
-0.8200015258789062,9.805302917480468,0.16878863525390625,0.028514338875207705,0.058603887600926836,-0.0661829194905345,2.0049920082092285,2019-06-21 12:48:52:513
-0.8319723510742187,9.802908752441406,0.15921197509765625,0.02984591942024732,0.057804939273903067,-0.06458502283648695,2.009984016418457,2019-06-21 12:48:52:518
-0.8535198364257812,9.810091247558594,0.15681781005859374,0.02878065498421563,0.05687283289237533,-0.06365291645495921,2.0149760246276855,2019-06-21 12:48:52:523
-0.8307752685546875,9.802908752441406,0.14484698486328124,0.02798170665719186,0.05620704261985553,-0.06205501980091167,2.0200960636138916,2019-06-21 12:48:52:528
-0.837957763671875,9.78854376220703,0.177168212890625,0.028248022766199782,0.05607388456535156,-0.05992449092884829,2.02508807182312,2019-06-21 12:48:52:533
-0.8547169189453124,9.789740844726563,0.138861572265625,0.02971276136574336,0.055141778183823834,-0.05912554260182452,2.0300800800323486,2019-06-21 12:48:52:538
-0.8487315063476563,9.804105834960938,0.1795623779296875,0.02971276136574336,0.05420967180229609,-0.057793962056784894,2.035072088241577,2019-06-21 12:48:52:543
-0.8654906616210938,9.799317504882811,0.1795623779296875,0.02984591942024732,0.052878091257256475,-0.05766080400228093,2.0400640964508057,2019-06-21 12:48:52:548
-0.8559140014648438,9.784952514648436,0.18195654296875,0.030378551638263168,0.05074756238519308,-0.055397117075713584,2.045056104660034,2019-06-21 12:48:52:553
-0.8978118896484375,9.793332092285157,0.1723798828125,0.0313106580197909,0.05088072043969705,-0.05406553653067396,2.0500481128692627,2019-06-21 12:48:52:558
-0.8858410644531249,9.800514587402343,0.177168212890625,0.03171013218330279,0.04848387545862574,-0.05140237544059473,2.055040121078491,2019-06-21 12:48:52:563
-0.8990089721679687,9.804105834960938,0.16639447021484374,0.03064486774727109,0.046885978804578184,-0.050070794895555104,2.0600321292877197,2019-06-21 12:48:52:568
-0.8918264770507812,9.793332092285157,0.19512445068359374,0.030778025801775053,0.04502176604152272,-0.04900553045952341,2.0650241374969482,2019-06-21 12:48:52:573
-0.89062939453125,9.8065,0.19991278076171876,0.03210960634681467,0.043290711332971216,-0.04620921131494021,2.0700161457061768,2019-06-21 12:48:52:578
-0.8990089721679687,9.7873466796875,0.1532265625,0.032775396619334485,0.040893866351899906,-0.044877630769900596,2.0750081539154053,2019-06-21 12:48:52:583
-0.904994384765625,9.78854376220703,0.1723798828125,0.03224276440131864,0.04116018246090783,-0.04341289217035701,2.080000162124634,2019-06-21 12:48:52:588
-0.8918264770507812,9.784952514648436,0.1699857177734375,0.031976448292310715,0.04049439218838802,-0.040483414971269845,2.0849921703338623,2019-06-21 12:48:52:593
-0.9061914672851562,9.807697082519532,0.16280322265625,0.031976448292310715,0.03809754720731671,-0.03901867637172627,2.0901122093200684,2019-06-21 12:48:52:598
-0.8894323120117187,9.799317504882811,0.16160614013671876,0.032375922455822596,0.03623333444426124,-0.03742077971767872,2.0949761867523193,2019-06-21 12:48:52:603
-0.9014031372070312,9.781361267089844,0.18075946044921876,0.032375922455822596,0.03490175389922162,-0.03555656695462326,2.099968194961548,2019-06-21 12:48:52:608
-0.8858410644531249,9.772981689453125,0.16639447021484374,0.03264223856483052,0.033969647517693886,-0.03342603808255987,2.105087995529175,2019-06-21 12:48:52:613
-0.9073885498046875,9.794529174804687,0.18315362548828124,0.0341069771643741,0.03343701529967803,-0.03289340586454402,2.1100800037384033,2019-06-21 12:48:52:618
-0.914571044921875,9.8065,0.2130806884765625,0.034240135218878066,0.031040170318606727,-0.03089603504698459,2.115072011947632,2019-06-21 12:48:52:623
-0.904994384765625,9.789740844726563,0.1987156982421875,0.03397381910987014,0.03037438004608691,-0.029164980338433087,2.1200640201568604,2019-06-21 12:48:52:628
-0.8846439819335937,9.792135009765625,0.19033612060546876,0.032375922455822596,0.030108063937078988,-0.026235503139345924,2.125056028366089,2019-06-21 12:48:52:633
-0.8858410644531249,9.813682495117188,0.1364674072265625,0.03250908051032656,0.02877648339203937,-0.025303396757818192,2.1300480365753174,2019-06-21 12:48:52:638
-0.881052734375,9.813682495117188,0.1532265625,0.033574344946358255,0.027311744792495794,-0.02450444843079442,2.135040044784546,2019-06-21 12:48:52:643
-0.89062939453125,9.808894165039062,0.1508323974609375,0.034639609382389955,0.025713848138448247,-0.02237391955873103,2.1400320529937744,2019-06-21 12:48:52:648
-0.8846439819335937,9.78854376220703,0.1316790771484375,0.034639609382389955,0.024914899811424477,-0.020909180959187448,2.145024061203003,2019-06-21 12:48:52:653
-0.8834468994140625,9.75861669921875,0.1891390380859375,0.034639609382389955,0.025447532029440324,-0.01957760041414783,2.1500160694122314,2019-06-21 12:48:52:658
-0.8930235595703124,9.780164184570312,0.1795623779296875,0.03477276743689391,0.02424910953890467,-0.016514965160556706,2.15500807762146,2019-06-21 12:48:52:663
-0.895417724609375,9.79692333984375,0.14364990234375,0.03490592549139788,0.023050687048369007,-0.01611549099704482,2.1600000858306885,2019-06-21 12:48:52:668
-0.8870381469726563,9.790937927246093,0.10893450927734374,0.03570487589901625,0.023050687048369007,-0.013585487961469541,2.164992094039917,2019-06-21 12:48:52:673
-0.8918264770507812,9.781361267089844,0.14005865478515625,0.0351722436810004,0.022784370939361084,-0.01345232990696558,2.1699841022491455,2019-06-21 12:48:52:678
-0.9169652099609374,9.7873466796875,0.19273028564453124,0.03384066105536618,0.022251738721345237,-0.012919697688949733,2.174976110458374,2019-06-21 12:48:52:683
-0.919359375,9.798120422363281,0.16160614013671876,0.03503908562649644,0.02158594844882543,-0.010123378544366533,2.1799681186676025,2019-06-21 12:48:52:688
-0.9037973022460938,9.8256533203125,0.1556207275390625,0.036104350062528136,0.02171910650332939,-0.007992849672303142,2.1850881576538086,2019-06-21 12:48:52:693
-0.8870381469726563,9.811288330078124,0.14364990234375,0.036104350062528136,0.021186474285313544,-0.00572916274573579,2.190080165863037,2019-06-21 12:48:52:698
-0.8738702392578125,9.819667907714843,0.158014892578125,0.03677014033504794,0.02158594844882543,-0.004930214418712019,2.1950721740722656,2019-06-21 12:48:52:703
-0.9121768798828125,9.804105834960938,0.18315362548828124,0.03557171784451229,0.021985422612337314,-0.003465475819168438,2.200064182281494,2019-06-21 12:48:52:708
-0.8750673217773437,9.801711669921875,0.17118280029296876,0.035438559790008324,0.021319632339817506,-0.0031991597101605138,2.2050561904907227,2019-06-21 12:48:52:713
-0.8726731567382813,9.81607666015625,0.13766448974609374,0.035438559790008324,0.021319632339817506,-0.002133895274128819,2.210048198699951,2019-06-21 12:48:52:718
-0.84274609375,9.7873466796875,0.14963531494140625,0.03503908562649644,0.020653842067297694,-0.0005359986200812759,2.2150402069091797,2019-06-21 12:48:52:723
-0.8475344238281249,9.799317504882811,0.1699857177734375,0.035438559790008324,0.019189103467754116,0.0017276883064860763,2.220032215118408,2019-06-21 12:48:52:728
-0.8487315063476563,9.782558349609374,0.16639447021484374,0.035438559790008324,0.019721735685769962,0.0031924269060296575,2.2250239849090576,2019-06-21 12:48:52:733
-0.8307752685546875,9.792135009765625,0.177168212890625,0.03490592549139788,0.020520684012793732,0.005056639669085124,2.230015993118286,2019-06-21 12:48:52:738
-0.8367606811523437,9.820864990234375,0.14843823242187498,0.03450645132788599,0.020121209849281847,0.005589271887100972,2.2350080013275146,2019-06-21 12:48:52:743
-0.8176073608398438,9.83522998046875,0.13766448974609374,0.03503908562649644,0.020121209849281847,0.007719800759164362,2.240000009536743,2019-06-21 12:48:52:748
-0.8391548461914062,9.811288330078124,0.12808782958984374,0.034240135218878066,0.019721735685769962,0.007187168541148514,2.2449920177459717,2019-06-21 12:48:52:753
-0.8295781860351562,9.79692333984375,0.10294909667968749,0.03384066105536618,0.02025436790378581,0.009850329631227752,2.2499840259552,2019-06-21 12:48:52:758
-0.8319723510742187,9.801711669921875,0.11611700439453125,0.034240135218878066,0.019854893740273924,0.010649277958251524,2.2549760341644287,2019-06-21 12:48:52:763
-0.818804443359375,9.805302917480468,0.16160614013671876,0.034639609382389955,0.020121209849281847,0.01104875212176341,2.2599680423736572,2019-06-21 12:48:52:768
-0.83316943359375,9.794529174804687,0.119708251953125,0.034240135218878066,0.02025436790378581,0.01104875212176341,2.2650880813598633,2019-06-21 12:48:52:773
-0.8223956909179687,9.786149597167968,0.15921197509765625,0.03397381910987014,0.019588577631266,0.011847700448787182,2.270080089569092,2019-06-21 12:48:52:778
-0.7888773803710938,9.808894165039062,0.1532265625,0.034373293273382025,0.020121209849281847,0.011581384339779259,2.2750720977783203,2019-06-21 12:48:52:783
-0.8128190307617187,9.807697082519532,0.138861572265625,0.03490592549139788,0.019322261522258077,0.011980858503291144,2.280064105987549,2019-06-21 12:48:52:788
-0.7781036376953124,9.814879577636718,0.14484698486328124,0.03450645132788599,0.02038752595828977,0.013711913211842649,2.2850561141967773,2019-06-21 12:48:52:793
-0.7972569580078125,9.820864990234375,0.1556207275390625,0.03370750300086222,0.020520684012793732,0.014377703484362457,2.290048122406006,2019-06-21 12:48:52:798
-0.7864832153320312,9.805302917480468,0.14245281982421876,0.03477276743689391,0.020520684012793732,0.013179280993826802,2.2950401306152344,2019-06-21 12:48:52:803
-0.77570947265625,9.828047485351563,0.14724114990234374,0.03384066105536618,0.02038752595828977,0.012646648775810952,2.300032138824463,2019-06-21 12:48:52:808
-0.7721182250976563,9.81727374267578,0.12808782958984374,0.033574344946358255,0.02038752595828977,0.01118191017626737,2.3050241470336914,2019-06-21 12:48:52:813
-0.7493736572265625,9.824456237792969,0.14005865478515625,0.03317487078284637,0.01945541957676204,0.01118191017626737,2.31001615524292,2019-06-21 12:48:52:818
-0.7661328125,9.795726257324219,0.13766448974609374,0.03370750300086222,0.019322261522258077,0.011448226285275297,2.3150081634521484,2019-06-21 12:48:52:823
-0.7385999145507812,9.823259155273437,0.110131591796875,0.03317487078284637,0.019721735685769962,0.011847700448787182,2.320000171661377,2019-06-21 12:48:52:828
-0.7326145019531249,9.814879577636718,0.14843823242187498,0.03317487078284637,0.019721735685769962,0.010782436012755485,2.3249921798706055,2019-06-21 12:48:52:833
-0.7098699340820313,9.810091247558594,0.14484698486328124,0.03224276440131864,0.019721735685769962,0.010116645740235677,2.329984188079834,2019-06-21 12:48:52:838
-0.7242349243164062,9.784952514648436,0.1364674072265625,0.03224276440131864,0.020121209849281847,0.009450855467715867,2.3349761962890625,2019-06-21 12:48:52:843
-0.7290232543945312,9.781361267089844,0.17357696533203124,0.03290855467383845,0.020520684012793732,0.007986116868172285,2.339968204498291,2019-06-21 12:48:52:848
-0.727826171875,9.781361267089844,0.15442364501953124,0.03264223856483052,0.019988051794777886,0.007320326595652477,2.345088005065918,2019-06-21 12:48:52:853
-0.7086728515625,9.802908752441406,0.12569366455078124,0.0313106580197909,0.019322261522258077,0.005988746050612857,2.3500800132751465,2019-06-21 12:48:52:858
-0.69909619140625,9.783755432128906,0.1604090576171875,0.03264223856483052,0.019988051794777886,0.003725059124045505,2.355072021484375,2019-06-21 12:48:52:863
-0.7014903564453124,9.786149597167968,0.1460440673828125,0.03210960634681467,0.019588577631266,0.003325584960533619,2.3600640296936035,2019-06-21 12:48:52:868
-0.6679720458984375,9.801711669921875,0.14843823242187498,0.03210960634681467,0.019588577631266,0.003325584960533619,2.365056037902832,2019-06-21 12:48:52:873
-0.6859282836914062,9.81727374267578,0.16280322265625,0.031976448292310715,0.020121209849281847,0.0038582171785494666,2.3700480461120605,2019-06-21 12:48:52:878
-0.7050816040039062,9.820864990234375,0.16759155273437498,0.03171013218330279,0.020653842067297694,0.002526636633509848,2.375040054321289,2019-06-21 12:48:52:883
-0.6883224487304688,9.780164184570312,0.14843823242187498,0.03144381607429487,0.02158594844882543,0.0018608463609900384,2.3800320625305176,2019-06-21 12:48:52:888
-0.69909619140625,9.804105834960938,0.16160614013671876,0.031976448292310715,0.022784370939361084,0.0011950560884702289,2.385024070739746,2019-06-21 12:48:52:893
-0.7002932739257812,9.813682495117188,0.14364990234375,0.031976448292310715,0.021852264557833352,0.0011950560884702289,2.3900160789489746,2019-06-21 12:48:52:898
-0.69909619140625,9.811288330078124,0.14843823242187498,0.031976448292310715,0.02158594844882543,-0.0001365244565693902,2.395008087158203,2019-06-21 12:48:52:903
-0.703884521484375,9.811288330078124,0.12210241699218749,0.03264223856483052,0.022251738721345237,-0.0024002113831367426,2.4000000953674316,2019-06-21 12:48:52:908
-0.6931107788085937,9.812485412597656,0.13048199462890625,0.03264223856483052,0.021852264557833352,-0.004397582200696171,2.40499210357666,2019-06-21 12:48:52:913
-0.6823370361328125,9.8065,0.14245281982421876,0.03290855467383845,0.0223848967758492,-0.004797056364208057,2.4099841117858887,2019-06-21 12:48:52:918
-0.7074757690429687,9.810091247558594,0.1340732421875,0.03210960634681467,0.02251805483035316,-0.004530740255200133,2.414976119995117,2019-06-21 12:48:52:923
-0.6967020263671875,9.81727374267578,0.12928491210937498,0.03224276440131864,0.02331700315737693,-0.004397582200696171,2.4199681282043457,2019-06-21 12:48:52:928
-0.6835341186523437,9.83522998046875,0.1556207275390625,0.032775396619334485,0.022784370939361084,-0.0053296885822239045,2.4250881671905518,2019-06-21 12:48:52:933
-0.703884521484375,9.834032897949218,0.16400030517578124,0.031576974128798826,0.022251738721345237,-0.005995478854743714,2.4300801753997803,2019-06-21 12:48:52:938
-0.7074757690429687,9.799317504882811,0.14245281982421876,0.031044341910782983,0.02171910650332939,-0.007593375508791257,2.435072183609009,2019-06-21 12:48:52:943
-0.6835341186523437,9.804105834960938,0.1460440673828125,0.030911183856279015,0.021985422612337314,-0.00852548189031899,2.4400641918182373,2019-06-21 12:48:52:948
-0.7062786865234375,9.84600372314453,0.14843823242187498,0.031576974128798826,0.022118580666841275,-0.01065601076238238,2.445056200027466,2019-06-21 12:48:52:953
-0.6919136962890625,9.805302917480468,0.1723798828125,0.03171013218330279,0.023450161211880892,-0.011454959089406152,2.4500482082366943,2019-06-21 12:48:52:958
-0.7158553466796875,9.805302917480468,0.17597113037109374,0.031576974128798826,0.02331700315737693,-0.01212074936192596,2.4550399780273438,2019-06-21 12:48:52:963
-0.7350086669921875,9.81607666015625,0.20948944091796876,0.03171013218330279,0.023849635375392784,-0.011055484925894267,2.4600319862365723,2019-06-21 12:48:52:968
-0.7206436767578125,9.81607666015625,0.21188360595703123,0.031576974128798826,0.023450161211880892,-0.013319171852461618,2.465023994445801,2019-06-21 12:48:52:973
-0.7218407592773437,9.814879577636718,0.1939273681640625,0.03264223856483052,0.023450161211880892,-0.011854433252918036,2.4700160026550293,2019-06-21 12:48:52:978
-0.7146582641601562,9.813682495117188,0.1604090576171875,0.03171013218330279,0.022784370939361084,-0.013052855743453695,2.475008010864258,2019-06-21 12:48:52:983
-0.7002932739257812,9.823259155273437,0.1723798828125,0.03184329023780675,0.023849635375392784,-0.014118120179485391,2.4800000190734863,2019-06-21 12:48:52:988
-0.742191162109375,9.8256533203125,0.1532265625,0.03171013218330279,0.023716477320888822,-0.014917068506509161,2.484992027282715,2019-06-21 12:48:52:993
-0.7314174194335937,9.819667907714843,0.14364990234375,0.03210960634681467,0.023982793429896745,-0.014650752397501238,2.4899840354919434,2019-06-21 12:48:52:998
-0.7254320068359374,9.783755432128906,0.11372283935546874,0.03290855467383845,0.02424910953890467,-0.014118120179485391,2.494976043701172,2019-06-21 12:48:53:003
-0.7445853271484375,9.781361267089844,0.14843823242187498,0.03224276440131864,0.024648583702416554,-0.014118120179485391,2.4999680519104004,2019-06-21 12:48:53:008
-0.7409940795898438,9.770587524414061,0.215474853515625,0.03184329023780675,0.024115951484400707,-0.01345232990696558,2.5050880908966064,2019-06-21 12:48:53:013
-0.751767822265625,9.786149597167968,0.177168212890625,0.03144381607429487,0.024515425647912592,-0.013186013797957656,2.510080099105835,2019-06-21 12:48:53:018
-0.7445853271484375,9.775375854492188,0.14843823242187498,0.03184329023780675,0.026113322301960132,-0.013186013797957656,2.5150721073150635,2019-06-21 12:48:53:023
-0.7385999145507812,9.789740844726563,0.14843823242187498,0.03210960634681467,0.0269122706289839,-0.014118120179485391,2.520064115524292,2019-06-21 12:48:53:028
-0.761344482421875,9.830441650390625,0.2082923583984375,0.03210960634681467,0.025447532029440324,-0.012919697688949733,2.5250561237335205,2019-06-21 12:48:53:033
-0.7709211425781249,9.805302917480468,0.16878863525390625,0.03224276440131864,0.026246480356464093,-0.01265338157994181,2.530048131942749,2019-06-21 12:48:53:038
-0.7541619873046875,9.783755432128906,0.18195654296875,0.032375922455822596,0.026379638410968055,-0.011588117143910113,2.5350401401519775,2019-06-21 12:48:53:043
-0.7625415649414062,9.793332092285157,0.138861572265625,0.0313106580197909,0.02851016728303145,-0.011588117143910113,2.540032148361206,2019-06-21 12:48:53:048
-0.7721182250976563,9.780164184570312,0.12808782958984374,0.031177499965286945,0.02944227366455918,-0.011454959089406152,2.5450241565704346,2019-06-21 12:48:53:053
-0.7745123901367187,9.813682495117188,0.1987156982421875,0.031976448292310715,0.030507538100590873,-0.01132180103490219,2.550016164779663,2019-06-21 12:48:53:058
-0.7457824096679687,9.814879577636718,0.19751861572265625,0.03210960634681467,0.029974905882575027,-0.011055484925894267,2.5550081729888916,2019-06-21 12:48:53:063
-0.7577532348632813,9.808894165039062,0.19033612060546876,0.03317487078284637,0.029974905882575027,-0.010389694653374457,2.56000018119812,2019-06-21 12:48:53:068
-0.7457824096679687,9.793332092285157,0.20589819335937498,0.03224276440131864,0.030773854209598796,-0.009723904380854647,2.5649921894073486,2019-06-21 12:48:53:073
-0.7409940795898438,9.769390441894531,0.20948944091796876,0.03184329023780675,0.032105434754638416,-0.008924956053830875,2.569984197616577,2019-06-21 12:48:53:078
-0.77570947265625,9.795726257324219,0.17597113037109374,0.03250908051032656,0.03237175086364634,-0.008924956053830875,2.5749762058258057,2019-06-21 12:48:53:083
-0.7960598754882813,9.7873466796875,0.16878863525390625,0.03264223856483052,0.03343701529967803,-0.008126007726807105,2.579968214035034,2019-06-21 12:48:53:088
-0.79486279296875,9.795726257324219,0.196321533203125,0.03250908051032656,0.034768595844717656,-0.0077265335632952185,2.585088014602661,2019-06-21 12:48:53:093
-0.7733153076171875,9.765799194335937,0.1795623779296875,0.03317487078284637,0.03490175389922162,-0.006128636909247675,2.5900800228118896,2019-06-21 12:48:53:098
-0.7649357299804688,9.794529174804687,0.15681781005859374,0.033441186891854296,0.03423596362670181,-0.005862320800239752,2.595072031021118,2019-06-21 12:48:53:103
-0.7685269775390625,9.77777001953125,0.16280322265625,0.033441186891854296,0.03370333140868596,-0.004797056364208057,2.6000640392303467,2019-06-21 12:48:53:108
-0.7733153076171875,9.801711669921875,0.1412557373046875,0.03384066105536618,0.034768595844717656,-0.0042644241461922095,2.605056047439575,2019-06-21 12:48:53:113
-0.7840890502929687,9.772981689453125,0.18794195556640625,0.033441186891854296,0.033969647517693886,-0.004131266091688247,2.6100480556488037,2019-06-21 12:48:53:118
-0.7685269775390625,9.812485412597656,0.1891390380859375,0.033441186891854296,0.032904383081662186,-0.0031991597101605138,2.6150400638580322,2019-06-21 12:48:53:123
-0.761344482421875,9.811288330078124,0.16280322265625,0.03384066105536618,0.033969647517693886,-0.002133895274128819,2.6200320720672607,2019-06-21 12:48:53:128
-0.7733153076171875,9.800514587402343,0.14484698486328124,0.03450645132788599,0.033969647517693886,-0.0010686308380971235,2.6250240802764893,2019-06-21 12:48:53:133
-0.73740283203125,9.801711669921875,0.1651973876953125,0.03384066105536618,0.03317069919067011,-0.0012017888926010854,2.6300160884857178,2019-06-21 12:48:53:138
-0.7290232543945312,9.79692333984375,0.1651973876953125,0.034240135218878066,0.033303857245174075,0.0009287399794623051,2.6350080966949463,2019-06-21 12:48:53:143
-0.742191162109375,9.799317504882811,0.15681781005859374,0.0351722436810004,0.033303857245174075,0.0007955819249583431,2.640000104904175,2019-06-21 12:48:53:148
-0.7541619873046875,9.798120422363281,0.12928491210937498,0.03450645132788599,0.03237175086364634,0.002127162469997962,2.6449921131134033,2019-06-21 12:48:53:153
-0.73740283203125,9.784952514648436,0.12090533447265625,0.034240135218878066,0.03037438004608691,0.002526636633509848,2.649984121322632,2019-06-21 12:48:53:158
-0.7338115844726563,9.792135009765625,0.17118280029296876,0.034373293273382025,0.029841747828071065,0.0017276883064860763,2.6549761295318604,2019-06-21 12:48:53:163
-0.7062786865234375,9.798120422363281,0.18674487304687498,0.03397381910987014,0.02864332533753541,0.0011950560884702289,2.659968137741089,2019-06-21 12:48:53:168
-0.7242349243164062,9.812485412597656,0.14724114990234374,0.03384066105536618,0.029175957555551257,0.002393478579005886,2.665088176727295,2019-06-21 12:48:53:173
-0.69909619140625,9.823259155273437,0.13527032470703124,0.033574344946358255,0.029841747828071065,0.0018608463609900384,2.6700801849365234,2019-06-21 12:48:53:178
-0.68951953125,9.818470825195313,0.158014892578125,0.03370750300086222,0.030108063937078988,0.0017276883064860763,2.675072193145752,2019-06-21 12:48:53:183
-0.6883224487304688,9.8065,0.1699857177734375,0.03317487078284637,0.029042799501047295,-0.0005359986200812759,2.6800642013549805,2019-06-21 12:48:53:188
-0.68951953125,9.81727374267578,0.14963531494140625,0.03264223856483052,0.027178586737991825,-0.0001365244565693902,2.685056209564209,2019-06-21 12:48:53:193
-0.7074757690429687,9.829244567871093,0.16878863525390625,0.0313106580197909,0.027045428683487863,-0.0012017888926010854,2.6900479793548584,2019-06-21 12:48:53:198
-0.7026874389648438,9.828047485351563,0.1340732421875,0.031976448292310715,0.025447532029440324,-0.0006691566745852378,2.695039987564087,2019-06-21 12:48:53:203
-0.6667749633789062,9.837624145507812,0.1340732421875,0.03184329023780675,0.02504805786592844,-0.003066001655656552,2.7000319957733154,2019-06-21 12:48:53:208
-0.6835341186523437,9.848397888183593,0.1532265625,0.032375922455822596,0.024914899811424477,-0.004131266091688247,2.705024003982544,2019-06-21 12:48:53:213
-0.69909619140625,9.87353662109375,0.1556207275390625,0.032375922455822596,0.024515425647912592,-0.0038649499826803237,2.7100160121917725,2019-06-21 12:48:53:218
-0.7062786865234375,9.875930786132812,0.1508323974609375,0.03171013218330279,0.021985422612337314,-0.0046638983097040945,2.715008020401001,2019-06-21 12:48:53:223
-0.6907166137695312,9.8639599609375,0.10893450927734374,0.032375922455822596,0.02171910650332939,-0.0053296885822239045,2.7200000286102295,2019-06-21 12:48:53:228
-0.7074757690429687,9.905857849121093,0.12928491210937498,0.03210960634681467,0.02158594844882543,-0.006794427181767485,2.724992036819458,2019-06-21 12:48:53:233
-0.7074757690429687,9.881916198730469,0.14963531494140625,0.03184329023780675,0.021319632339817506,-0.006528111072759562,2.7299840450286865,2019-06-21 12:48:53:238
-0.7397969970703124,9.843609558105468,0.12329949951171874,0.031576974128798826,0.019988051794777886,-0.0073270593997833335,2.734976053237915,2019-06-21 12:48:53:243
-0.7350086669921875,9.848397888183593,0.119708251953125,0.03184329023780675,0.019588577631266,-0.0063949530182556,2.7399680614471436,2019-06-21 12:48:53:248
-0.7314174194335937,9.834032897949218,0.14005865478515625,0.03210960634681467,0.01905594541325015,-0.0053296885822239045,2.7450881004333496,2019-06-21 12:48:53:253
-0.7457824096679687,9.826850402832031,0.12329949951171874,0.03210960634681467,0.017191732650194684,-0.005995478854743714,2.750080108642578,2019-06-21 12:48:53:258
-0.73740283203125,9.843609558105468,0.10654034423828125,0.031576974128798826,0.015860152105155068,-0.005596004691231829,2.7550721168518066,2019-06-21 12:48:53:263
-0.73740283203125,9.856777465820313,0.12210241699218749,0.030911183856279015,0.0167922584866828,-0.00572916274573579,2.760064125061035,2019-06-21 12:48:53:268
-0.7457824096679687,9.810091247558594,0.12210241699218749,0.03064486774727109,0.01825699708622638,-0.00572916274573579,2.7650561332702637,2019-06-21 12:48:53:273
-0.727826171875,9.7873466796875,0.12329949951171874,0.031044341910782983,0.01692541654118676,-0.004797056364208057,2.770048141479492,2019-06-21 12:48:53:278
-0.7158553466796875,9.7873466796875,0.191533203125,0.031177499965286945,0.01612646821416299,-0.0033323177646644763,2.7750401496887207,2019-06-21 12:48:53:283
-0.6978991088867187,9.802908752441406,0.16639447021484374,0.031044341910782983,0.016259626268666953,-0.003465475819168438,2.780032157897949,2019-06-21 12:48:53:288
-0.6955049438476563,9.808894165039062,0.16400030517578124,0.03144381607429487,0.01825699708622638,-0.0035986338736723996,2.7850241661071777,2019-06-21 12:48:53:293
-0.67994287109375,9.772981689453125,0.16878863525390625,0.030245393583759207,0.01892278735874619,-0.0035986338736723996,2.7900161743164062,2019-06-21 12:48:53:298
-0.68951953125,9.75861669921875,0.191533203125,0.030778025801775053,0.020121209849281847,-0.0024002113831367426,2.7950081825256348,2019-06-21 12:48:53:303
-0.6871253662109374,9.790937927246093,0.19751861572265625,0.031044341910782983,0.02092015817630562,-0.0037317919281763612,2.8000001907348633,2019-06-21 12:48:53:308
-0.6619866333007812,9.782558349609374,0.17597113037109374,0.03171013218330279,0.02158594844882543,-0.004397582200696171,2.804992198944092,2019-06-21 12:48:53:313
-0.6643807983398438,9.770587524414061,0.17836529541015625,0.032375922455822596,0.023050687048369007,-0.004530740255200133,2.8099842071533203,2019-06-21 12:48:53:318
-0.6775487060546875,9.761010864257813,0.20709527587890625,0.03224276440131864,0.024914899811424477,-0.0042644241461922095,2.814976215362549,2019-06-21 12:48:53:323
-0.6703662109374999,9.738266296386719,0.22146026611328123,0.03184329023780675,0.02677911257447994,-0.0053296885822239045,2.8199679851531982,2019-06-21 12:48:53:328
-0.6931107788085937,9.737069213867187,0.20948944091796876,0.032775396619334485,0.02877648339203937,-0.006261794963751639,2.8250880241394043,2019-06-21 12:48:53:333
-0.6583953857421875,9.747842956542968,0.19033612060546876,0.032775396619334485,0.029841747828071065,-0.006794427181767485,2.830080032348633,2019-06-21 12:48:53:338
-0.6476216430664062,9.757419616699218,0.17597113037109374,0.03304171272834241,0.030773854209598796,-0.007193901345279372,2.8350720405578613,2019-06-21 12:48:53:343
-0.6500158081054688,9.73108380126953,0.17597113037109374,0.03370750300086222,0.032904383081662186,-0.00852548189031899,2.84006404876709,2019-06-21 12:48:53:348
-0.6488187255859375,9.769390441894531,0.24061358642578123,0.03397381910987014,0.03450227973570973,-0.0091912721628388,2.8450560569763184,2019-06-21 12:48:53:353
-0.6560012207031249,9.751434204101562,0.2130806884765625,0.034373293273382025,0.03583386028074935,-0.009457588271846723,2.850048065185547,2019-06-21 12:48:53:358
-0.636847900390625,9.750237121582032,0.18195654296875,0.03397381910987014,0.03649965055326916,-0.010922326871390305,2.8550400733947754,2019-06-21 12:48:53:363
-0.636847900390625,9.764602111816407,0.191533203125,0.035305401735504366,0.03783123109830878,-0.01212074936192596,2.860032081604004,2019-06-21 12:48:53:368
-0.6619866333007812,9.801711669921875,0.1460440673828125,0.034240135218878066,0.03889649553434048,-0.011987591307421998,2.8650240898132324,2019-06-21 12:48:53:373
-0.665577880859375,9.805302917480468,0.1604090576171875,0.0341069771643741,0.041692814678923676,-0.013718646015973503,2.870016098022461,2019-06-21 12:48:53:378
-0.6524099731445312,9.823259155273437,0.119708251953125,0.03450645132788599,0.04155965662441971,-0.013585487961469541,2.8750081062316895,2019-06-21 12:48:53:383
-0.68951953125,9.836427062988282,0.15442364501953124,0.03397381910987014,0.04129334051541179,-0.013585487961469541,2.880000114440918,2019-06-21 12:48:53:388
-0.6775487060546875,9.828047485351563,0.15202947998046876,0.034240135218878066,0.0419591307879316,-0.013186013797957656,2.8849921226501465,2019-06-21 12:48:53:393
-0.6883224487304688,9.8256533203125,0.17357696533203124,0.034373293273382025,0.041027024406403864,-0.01345232990696558,2.889984130859375,2019-06-21 12:48:53:398
-0.6967020263671875,9.81727374267578,0.13048199462890625,0.034639609382389955,0.04182597273342764,-0.014517594342997276,2.8949761390686035,2019-06-21 12:48:53:403
-0.6907166137695312,9.813682495117188,0.16160614013671876,0.035438559790008324,0.04036123413388405,-0.014650752397501238,2.899968147277832,2019-06-21 12:48:53:408
-0.6883224487304688,9.840018310546874,0.1532265625,0.03477276743689391,0.039029653588844436,-0.01345232990696558,2.905088186264038,2019-06-21 12:48:53:413
-0.7218407592773437,9.861565795898438,0.1316790771484375,0.03583803395352021,0.03929596969785236,-0.013585487961469541,2.9100801944732666,2019-06-21 12:48:53:418
-0.7290232543945312,9.841215393066406,0.14484698486328124,0.0351722436810004,0.03783123109830878,-0.012520223525437848,2.915072202682495,2019-06-21 12:48:53:423
-0.7385999145507812,9.808894165039062,0.1604090576171875,0.03503908562649644,0.03583386028074935,-0.012520223525437848,2.9200642108917236,2019-06-21 12:48:53:428
-0.727826171875,9.836427062988282,0.14724114990234374,0.03450645132788599,0.035967018335253315,-0.012253907416429925,2.925055980682373,2019-06-21 12:48:53:433
-0.7469794921874999,9.844806640625,0.1532265625,0.03397381910987014,0.035168070008229545,-0.011188642980398228,2.9300479888916016,2019-06-21 12:48:53:438
-0.7433882446289062,9.81607666015625,0.1460440673828125,0.03450645132788599,0.034102805572197845,-0.009857062435358608,2.93503999710083,2019-06-21 12:48:53:443
-0.7254320068359374,9.851989135742187,0.1364674072265625,0.03503908562649644,0.03183911864563049,-0.008791797999326913,2.9400320053100586,2019-06-21 12:48:53:448
-0.7445853271484375,9.831638732910156,0.14843823242187498,0.03370750300086222,0.030640696155094835,-0.00785969161779918,2.945024013519287,2019-06-21 12:48:53:453
-0.7122640991210938,9.81727374267578,0.15921197509765625,0.0341069771643741,0.029175957555551257,-0.0066612691272635235,2.9500160217285156,2019-06-21 12:48:53:458
-0.7242349243164062,9.832835815429688,0.1268907470703125,0.034639609382389955,0.027311744792495794,-0.006528111072759562,2.955008029937744,2019-06-21 12:48:53:463
-0.7194465942382813,9.830441650390625,0.12329949951171874,0.03384066105536618,0.025713848138448247,-0.006128636909247675,2.9600000381469727,2019-06-21 12:48:53:468
-0.6907166137695312,9.830441650390625,0.15921197509765625,0.03490592549139788,0.0251812159204324,-0.005196530527719943,2.964992046356201,2019-06-21 12:48:53:473
-0.7098699340820313,9.820864990234375,0.14364990234375,0.034240135218878066,0.02424910953890467,-0.004397582200696171,2.9699840545654297,2019-06-21 12:48:53:478
-0.7170524291992187,9.819667907714843,0.1340732421875,0.03370750300086222,0.023050687048369007,-0.005196530527719943,2.974976062774658,2019-06-21 12:48:53:483
-0.6883224487304688,9.81607666015625,0.13766448974609374,0.033441186891854296,0.021452790394321467,-0.0046638983097040945,2.9800961017608643,2019-06-21 12:48:53:488
-0.6943078613281249,9.826850402832031,0.12808782958984374,0.03503908562649644,0.02158594844882543,-0.003998108037184285,2.9850881099700928,2019-06-21 12:48:53:493
-0.6703662109374999,9.81607666015625,0.10893450927734374,0.03290855467383845,0.018789629304242227,-0.0037317919281763612,2.9900801181793213,2019-06-21 12:48:53:498
-0.68951953125,9.830441650390625,0.114919921875,0.03304171272834241,0.01812383903172242,-0.003998108037184285,2.99507212638855,2019-06-21 12:48:53:503
-0.6811399536132813,9.837624145507812,0.13048199462890625,0.03290855467383845,0.017857522922714496,-0.004530740255200133,3.0000641345977783,2019-06-21 12:48:53:508
-0.6595924682617187,9.828047485351563,0.10654034423828125,0.03250908051032656,0.015860152105155068,-0.00506337247321598,3.005056142807007,2019-06-21 12:48:53:513
-0.6643807983398438,9.831638732910156,0.1268907470703125,0.03144381607429487,0.01546067794164318,-0.006261794963751639,3.0100481510162354,2019-06-21 12:48:53:518
-0.6476216430664062,9.81727374267578,0.14364990234375,0.031976448292310715,0.014395413505611484,-0.006128636909247675,3.015040159225464,2019-06-21 12:48:53:523
-0.64163623046875,9.8256533203125,0.15681781005859374,0.03144381607429487,0.014262255451107523,-0.0070607432907754085,3.0200321674346924,2019-06-21 12:48:53:528
-0.6476216430664062,9.823259155273437,0.16759155273437498,0.030778025801775053,0.013196991015075828,-0.00852548189031899,3.025024175643921,2019-06-21 12:48:53:533
-0.6392420654296875,9.84600372314453,0.18315362548828124,0.030778025801775053,0.013063832960571866,-0.009990220489862572,3.0300161838531494,2019-06-21 12:48:53:538
-0.6212858276367187,9.832835815429688,0.16400030517578124,0.029979077474751283,0.012930674906067903,-0.010922326871390305,3.035008192062378,2019-06-21 12:48:53:543
-0.6153004150390625,9.844806640625,0.14484698486328124,0.030112235529255245,0.012930674906067903,-0.012387065470933887,3.0400002002716064,2019-06-21 12:48:53:548
-0.598541259765625,9.813682495117188,0.1651973876953125,0.030778025801775053,0.011865410470036208,-0.01345232990696558,3.044992208480835,2019-06-21 12:48:53:553
-0.6021325073242187,9.811288330078124,0.15202947998046876,0.030378551638263168,0.012398042688052056,-0.014917068506509161,3.0499839782714844,2019-06-21 12:48:53:558
-0.5997383422851562,9.801711669921875,0.177168212890625,0.03051170969276713,0.012797516851563941,-0.0175802295965884,3.054975986480713,2019-06-21 12:48:53:563
-0.5710083618164062,9.769390441894531,0.19512445068359374,0.030778025801775053,0.015194361832635256,-0.01891181014162802,3.0599679946899414,2019-06-21 12:48:53:568
-0.5710083618164062,9.798120422363281,0.1723798828125,0.03051170969276713,0.015194361832635256,-0.020909180959187448,3.0650880336761475,2019-06-21 12:48:53:573
-0.574599609375,9.799317504882811,0.1604090576171875,0.03144381607429487,0.015061203778131294,-0.02157497123170726,3.070080041885376,2019-06-21 12:48:53:578
-0.5937529296874999,9.795726257324219,0.1795623779296875,0.031044341910782983,0.017191732650194684,-0.021841287340715183,3.0750720500946045,2019-06-21 12:48:53:583
-0.5781908569335937,9.790937927246093,0.1651973876953125,0.030245393583759207,0.0167922584866828,-0.024371290376290457,3.080064058303833,2019-06-21 12:48:53:588
-0.5542492065429687,9.8256533203125,0.22983984375,0.03051170969276713,0.0167922584866828,-0.02583602897583404,3.0850560665130615,2019-06-21 12:48:53:593
-0.5913587646484375,9.831638732910156,0.1795623779296875,0.03064486774727109,0.01905594541325015,-0.027700241738889506,3.09004807472229,2019-06-21 12:48:53:598
-0.5614317016601562,9.800514587402343,0.16400030517578124,0.029313287202231475,0.020121209849281847,-0.028765506174921202,3.0950400829315186,2019-06-21 12:48:53:603
-0.5734025268554688,9.789740844726563,0.1699857177734375,0.02971276136574336,0.021452790394321467,-0.030363402828968742,3.100032091140747,2019-06-21 12:48:53:608
-0.598541259765625,9.795726257324219,0.2035040283203125,0.031044341910782983,0.023716477320888822,-0.0326270897555361,3.1050240993499756,2019-06-21 12:48:53:613
-0.5937529296874999,9.823259155273437,0.191533203125,0.031177499965286945,0.02424910953890467,-0.03409182835507967,3.110016107559204,2019-06-21 12:48:53:618
-0.6153004150390625,9.811288330078124,0.18554779052734374,0.031576974128798826,0.025447532029440324,-0.03688814749966288,3.1150081157684326,2019-06-21 12:48:53:623
-0.5937529296874999,9.789740844726563,0.19273028564453124,0.03184329023780675,0.028110693119519563,-0.03795341193569457,3.120000123977661,2019-06-21 12:48:53:628
-0.5901616821289062,9.77777001953125,0.16759155273437498,0.03290855467383845,0.029175957555551257,-0.03861920220821438,3.1249921321868896,2019-06-21 12:48:53:633
-0.569811279296875,9.790937927246093,0.1604090576171875,0.03144381607429487,0.03157280253662257,-0.041149205243789656,3.129984140396118,2019-06-21 12:48:53:638
-0.579387939453125,9.79692333984375,0.18554779052734374,0.031044341910782983,0.03317069919067011,-0.04208131162531739,3.1349761486053467,2019-06-21 12:48:53:643
-0.5973441772460938,9.790937927246093,0.191533203125,0.031576974128798826,0.033303857245174075,-0.04288025995234116,3.139968156814575,2019-06-21 12:48:53:648
-0.5997383422851562,9.802908752441406,0.1843507080078125,0.03171013218330279,0.03570070222624539,-0.04434499855188474,3.1450881958007812,2019-06-21 12:48:53:653
-0.6141033325195312,9.792135009765625,0.18674487304687498,0.03171013218330279,0.03796438915281274,-0.046475527423948136,3.1500802040100098,2019-06-21 12:48:53:658
-0.6105120849609375,9.814879577636718,0.19273028564453124,0.03144381607429487,0.03969544386136425,-0.047274475750971906,3.1550722122192383,2019-06-21 12:48:53:663
-0.6248770751953124,9.828047485351563,0.1987156982421875,0.031576974128798826,0.04049439218838802,-0.048206582132499634,3.1600639820098877,2019-06-21 12:48:53:668
-0.598541259765625,9.794529174804687,0.21667193603515625,0.031576974128798826,0.042092288842435564,-0.04980447878654718,3.165055990219116,2019-06-21 12:48:53:673
-0.6045266723632813,9.776572937011718,0.21188360595703123,0.03250908051032656,0.044489133823506874,-0.05206816571311454,3.1700479984283447,2019-06-21 12:48:53:678
-0.6356508178710938,9.794529174804687,0.1843507080078125,0.03250908051032656,0.04542124020503461,-0.052733955985634344,3.1750400066375732,2019-06-21 12:48:53:683
-0.6260741577148438,9.818470825195313,0.1843507080078125,0.03250908051032656,0.04635334658656234,-0.05300027209464227,3.1800320148468018,2019-06-21 12:48:53:688
-0.64163623046875,9.83522998046875,0.20470111083984374,0.03317487078284637,0.048617033513129695,-0.05459816874868981,3.1850240230560303,2019-06-21 12:48:53:693
-0.6452274780273437,9.819667907714843,0.2370223388671875,0.033574344946358255,0.04914966573114554,-0.05486448485769773,3.190016031265259,2019-06-21 12:48:53:698
-0.6452274780273437,9.813682495117188,0.21188360595703123,0.034240135218878066,0.050614404330689124,-0.05606290734823339,3.1950080394744873,2019-06-21 12:48:53:703
-0.651212890625,9.8256533203125,0.15681781005859374,0.034240135218878066,0.05088072043969705,-0.05819343622029679,3.200000047683716,2019-06-21 12:48:53:708
-0.6703662109374999,9.828047485351563,0.1651973876953125,0.03370750300086222,0.05221230098473666,-0.05912554260182452,3.2049920558929443,2019-06-21 12:48:53:713
-0.6931107788085937,9.83522998046875,0.158014892578125,0.0351722436810004,0.05274493320275251,-0.05939185871083244,3.209984064102173,2019-06-21 12:48:53:718
-0.7002932739257812,9.81607666015625,0.18075946044921876,0.035438559790008324,0.05394335569328817,-0.05939185871083244,3.2149760723114014,2019-06-21 12:48:53:723
-0.675154541015625,9.811288330078124,0.18195654296875,0.03477276743689391,0.05221230098473666,-0.05925870065632848,3.21996808052063,2019-06-21 12:48:53:728
-0.727826171875,9.81607666015625,0.1651973876953125,0.03370750300086222,0.05261177514824855,-0.05939185871083244,3.225088119506836,2019-06-21 12:48:53:733
-0.7385999145507812,9.824456237792969,0.16639447021484374,0.03304171272834241,0.05301124931176043,-0.059525016765336405,3.2300801277160645,2019-06-21 12:48:53:738
-0.7218407592773437,9.811288330078124,0.1508323974609375,0.0341069771643741,0.053677039584280245,-0.05925870065632848,3.235072135925293,2019-06-21 12:48:53:743
-0.727826171875,9.800514587402343,0.1699857177734375,0.0341069771643741,0.05301124931176043,-0.059525016765336405,3.2400641441345215,2019-06-21 12:48:53:748
-0.7445853271484375,9.802908752441406,0.11252575683593749,0.03477276743689391,0.0531444073662644,-0.05806027816579282,3.24505615234375,2019-06-21 12:48:53:753
-0.7362057495117187,9.8065,0.14364990234375,0.03450645132788599,0.05221230098473666,-0.05752764594777697,3.2500481605529785,2019-06-21 12:48:53:758
-0.73740283203125,9.790937927246093,0.1532265625,0.033441186891854296,0.05167966876672082,-0.05819343622029679,3.255040168762207,2019-06-21 12:48:53:763
-0.7469794921874999,9.7873466796875,0.16639447021484374,0.034639609382389955,0.05088072043969705,-0.057793962056784894,3.2600321769714355,2019-06-21 12:48:53:768
-0.75655615234375,9.801711669921875,0.1532265625,0.03450645132788599,0.05074756238519308,-0.05806027816579282,3.265024185180664,2019-06-21 12:48:53:773
-0.751767822265625,9.818470825195313,0.14724114990234374,0.033441186891854296,0.05048124627618516,-0.058726068438312636,3.2700161933898926,2019-06-21 12:48:53:778
-0.7816948852539062,9.8065,0.14963531494140625,0.03330802883735033,0.04914966573114554,-0.05792712011128885,3.275008201599121,2019-06-21 12:48:53:783
-0.7769065551757812,9.831638732910156,0.15921197509765625,0.03397381910987014,0.04808440129511385,-0.05646238151174528,3.2800002098083496,2019-06-21 12:48:53:788
-0.7685269775390625,9.808894165039062,0.18554779052734374,0.0341069771643741,0.046752820750074225,-0.055130800966705654,3.284991979598999,2019-06-21 12:48:53:793
-0.7828919677734375,9.8256533203125,0.17118280029296876,0.03477276743689391,0.04635334658656234,-0.055397117075713584,3.2899839878082275,2019-06-21 12:48:53:798
-0.7876802978515625,9.776572937011718,0.16160614013671876,0.033574344946358255,0.04408965965999499,-0.054198694585177926,3.294975996017456,2019-06-21 12:48:53:803
-0.7912715454101562,9.769390441894531,0.16400030517578124,0.033574344946358255,0.04408965965999499,-0.053532904312658114,3.2999680042266846,2019-06-21 12:48:53:808
-0.780497802734375,9.79692333984375,0.15681781005859374,0.03384066105536618,0.042491763005947446,-0.05286711404013831,3.3050880432128906,2019-06-21 12:48:53:813
-0.780497802734375,9.811288330078124,0.15681781005859374,0.03317487078284637,0.040893866351899906,-0.05300027209464227,3.310080051422119,2019-06-21 12:48:53:818
-0.7745123901367187,9.822062072753907,0.1460440673828125,0.03304171272834241,0.040228076079380094,-0.052733955985634344,3.3150720596313477,2019-06-21 12:48:53:823
-0.8020452880859374,9.813682495117188,0.16639447021484374,0.031576974128798826,0.040228076079380094,-0.051935007658610574,3.320064067840576,2019-06-21 12:48:53:828
-0.77570947265625,9.819667907714843,0.17836529541015625,0.03224276440131864,0.04009491802487613,-0.051801849604106616,3.3250560760498047,2019-06-21 12:48:53:833
-0.79486279296875,9.807697082519532,0.1795623779296875,0.03330802883735033,0.03889649553434048,-0.05073658516807491,3.330048084259033,2019-06-21 12:48:53:838
-0.7876802978515625,9.812485412597656,0.1795623779296875,0.03290855467383845,0.038230705261820666,-0.051002901277082846,3.3350400924682617,2019-06-21 12:48:53:843
-0.7864832153320312,9.79692333984375,0.16160614013671876,0.03264223856483052,0.03716544082578897,-0.05073658516807491,3.3400321006774902,2019-06-21 12:48:53:848
-0.8032423706054688,9.79692333984375,0.13287615966796876,0.03317487078284637,0.03623333444426124,-0.04953816267753926,3.3450241088867188,2019-06-21 12:48:53:853
-0.7852861328125,9.79692333984375,0.1460440673828125,0.03290855467383845,0.035967018335253315,-0.04953816267753926,3.3500161170959473,2019-06-21 12:48:53:858
-0.799651123046875,9.784952514648436,0.1795623779296875,0.03290855467383845,0.035567544171741426,-0.04913868851402737,3.355008125305176,2019-06-21 12:48:53:863
-0.8235927734374999,9.769390441894531,0.15681781005859374,0.033441186891854296,0.03543438611723747,-0.048073424077995676,3.3600001335144043,2019-06-21 12:48:53:868
-0.8487315063476563,9.78854376220703,0.16280322265625,0.0341069771643741,0.0346354377902137,-0.04620921131494021,3.364992141723633,2019-06-21 12:48:53:873
-0.8355635986328125,9.804105834960938,0.21427777099609374,0.03384066105536618,0.033303857245174075,-0.044877630769900596,3.3699841499328613,2019-06-21 12:48:53:878
-0.8475344238281249,9.795726257324219,0.17118280029296876,0.03477276743689391,0.032105434754638416,-0.04447815660638871,3.37497615814209,2019-06-21 12:48:53:883
-0.8247898559570312,9.7873466796875,0.16639447021484374,0.03450645132788599,0.03117332837311069,-0.04407868244287682,3.3799681663513184,2019-06-21 12:48:53:888
-0.818804443359375,9.799317504882811,0.16878863525390625,0.034639609382389955,0.03237175086364634,-0.0427471018978372,3.3850882053375244,2019-06-21 12:48:53:893
-0.84274609375,9.795726257324219,0.1508323974609375,0.03477276743689391,0.032105434754638416,-0.04288025995234116,3.390080213546753,2019-06-21 12:48:53:898
-0.837957763671875,9.814879577636718,0.12090533447265625,0.03330802883735033,0.032105434754638416,-0.04088288913478173,3.3950719833374023,2019-06-21 12:48:53:903
-0.8439431762695312,9.789740844726563,0.14724114990234374,0.03384066105536618,0.03223859280914238,-0.040483414971269845,3.400063991546631,2019-06-21 12:48:53:908
-0.8259869384765625,9.800514587402343,0.16878863525390625,0.03503908562649644,0.031306486427614647,-0.03835288609920646,3.4050559997558594,2019-06-21 12:48:53:913
-0.8403519287109374,9.792135009765625,0.1651973876953125,0.03397381910987014,0.03197227670013446,-0.03728762166317476,3.410048007965088,2019-06-21 12:48:53:918
-0.837957763671875,9.805302917480468,0.16878863525390625,0.03384066105536618,0.03117332837311069,-0.03582288306363118,3.4150400161743164,2019-06-21 12:48:53:923
-0.8583081665039062,9.79692333984375,0.17357696533203124,0.033441186891854296,0.031306486427614647,-0.03475761862759949,3.420032024383545,2019-06-21 12:48:53:928
-0.8403519287109374,9.799317504882811,0.19033612060546876,0.033441186891854296,0.031306486427614647,-0.03369235419156779,3.4250240325927734,2019-06-21 12:48:53:933
-0.8463373413085937,9.784952514648436,0.18674487304687498,0.03370750300086222,0.03183911864563049,-0.031961299483016285,3.430016040802002,2019-06-21 12:48:53:938
-0.8499285888671875,9.78854376220703,0.16878863525390625,0.03450645132788599,0.03263806697265426,-0.030496560883472704,3.4350080490112305,2019-06-21 12:48:53:943
-0.8511256713867187,9.819667907714843,0.15921197509765625,0.03384066105536618,0.032504908918150305,-0.027567083684385544,3.440000057220459,2019-06-21 12:48:53:948
-0.8690819091796875,9.800514587402343,0.14724114990234374,0.034373293273382025,0.03237175086364634,-0.02676813535736177,3.4449920654296875,2019-06-21 12:48:53:953
-0.881052734375,9.800514587402343,0.18554779052734374,0.034639609382389955,0.032904383081662186,-0.024903922594306308,3.449984073638916,2019-06-21 12:48:53:958
-0.8882352294921875,9.818470825195313,0.18794195556640625,0.0341069771643741,0.031705960591126535,-0.022640235667738953,3.4549760818481445,2019-06-21 12:48:53:963
-0.8870381469726563,9.81727374267578,0.18554779052734374,0.0341069771643741,0.03143964448211861,-0.02104233901369141,3.4600961208343506,2019-06-21 12:48:53:968
-0.9061914672851562,9.820864990234375,0.15681781005859374,0.0341069771643741,0.031705960591126535,-0.01904496819613198,3.465088129043579,2019-06-21 12:48:53:973
-0.9037973022460938,9.822062072753907,0.14005865478515625,0.0351722436810004,0.030907012264102765,-0.017180755433076515,3.4700801372528076,2019-06-21 12:48:53:978
-0.9085856323242187,9.810091247558594,0.16878863525390625,0.034240135218878066,0.031306486427614647,-0.014650752397501238,3.475072145462036,2019-06-21 12:48:53:983
-0.8870381469726563,9.795726257324219,0.1795623779296875,0.03370750300086222,0.029708589773567103,-0.012387065470933887,3.4800641536712646,2019-06-21 12:48:53:988
-0.8858410644531249,9.79692333984375,0.1460440673828125,0.033574344946358255,0.028909641446543333,-0.010522852707878418,3.485056161880493,2019-06-21 12:48:53:993
-0.8738702392578125,9.774178771972656,0.15681781005859374,0.03384066105536618,0.02957543171906314,-0.009457588271846723,3.4900481700897217,2019-06-21 12:48:53:998
-0.8547169189453124,9.792135009765625,0.15202947998046876,0.033574344946358255,0.03024122199158295,-0.007992849672303142,3.49504017829895,2019-06-21 12:48:54:003
-0.8559140014648438,9.79692333984375,0.18075946044921876,0.03250908051032656,0.02944227366455918,-0.006128636909247675,3.5000321865081787,2019-06-21 12:48:54:008
-0.8475344238281249,9.813682495117188,0.13527032470703124,0.032375922455822596,0.028243851174023525,-0.004397582200696171,3.5050241947174072,2019-06-21 12:48:54:013
-0.828381103515625,9.778967102050782,0.11611700439453125,0.032375922455822596,0.027311744792495794,-0.002799685546648628,3.5100162029266357,2019-06-21 12:48:54:018
-0.8451402587890625,9.808894165039062,0.14843823242187498,0.03171013218330279,0.027311744792495794,-0.0012017888926010854,3.5150082111358643,2019-06-21 12:48:54:023
-0.8319723510742187,9.813682495117188,0.13287615966796876,0.032375922455822596,0.02771121895600768,-0.0005359986200812759,3.5199999809265137,2019-06-21 12:48:54:028
-0.8403519287109374,9.782558349609374,0.13048199462890625,0.032375922455822596,0.027311744792495794,0.0011950560884702289,3.524991989135742,2019-06-21 12:48:54:033
-0.8307752685546875,9.800514587402343,0.15681781005859374,0.03250908051032656,0.02598016424745617,0.002526636633509848,3.5299839973449707,2019-06-21 12:48:54:038
-0.8307752685546875,9.79692333984375,0.1699857177734375,0.03264223856483052,0.025580690083944285,0.0034587430150375817,3.534976005554199,2019-06-21 12:48:54:043
-0.8152131958007812,9.798120422363281,0.1747740478515625,0.03250908051032656,0.025314373974936362,0.005855587996108896,3.5399680137634277,2019-06-21 12:48:54:048
-0.8235927734374999,9.7873466796875,0.18794195556640625,0.03264223856483052,0.024648583702416554,0.007054010486644552,3.545088052749634,2019-06-21 12:48:54:053
-0.8367606811523437,9.81727374267578,0.19033612060546876,0.03304171272834241,0.024781741756920515,0.008385591031684172,3.5500800609588623,2019-06-21 12:48:54:058
-0.8654906616210938,9.822062072753907,0.18674487304687498,0.03370750300086222,0.024515425647912592,0.010116645740235677,3.555072069168091,2019-06-21 12:48:54:063
-0.8223956909179687,9.811288330078124,0.19033612060546876,0.03384066105536618,0.023450161211880892,0.011847700448787182,3.5600640773773193,2019-06-21 12:48:54:068
-0.818804443359375,9.775375854492188,0.19512445068359374,0.03370750300086222,0.02331700315737693,0.012380332666803029,3.565056085586548,2019-06-21 12:48:54:073
-0.8080307006835937,9.761010864257813,0.191533203125,0.0341069771643741,0.023583319266384854,0.013046122939322837,3.5700480937957764,2019-06-21 12:48:54:078
-0.7912715454101562,9.790937927246093,0.191533203125,0.03290855467383845,0.021985422612337314,0.014510861538866418,3.575040102005005,2019-06-21 12:48:54:083
-0.8343665161132813,9.782558349609374,0.191533203125,0.03290855467383845,0.020787000121801655,0.014910335702378303,3.5800321102142334,2019-06-21 12:48:54:088
-0.8032423706054688,9.795726257324219,0.1843507080078125,0.03317487078284637,0.021186474285313544,0.01597560013841,3.585024118423462,2019-06-21 12:48:54:093
-0.7876802978515625,9.789740844726563,0.1651973876953125,0.03330802883735033,0.02171910650332939,0.01597560013841,3.5900161266326904,2019-06-21 12:48:54:098
-0.7840890502929687,9.800514587402343,0.1699857177734375,0.03330802883735033,0.020121209849281847,0.01783981290146547,3.595008134841919,2019-06-21 12:48:54:103
-0.780497802734375,9.793332092285157,0.17836529541015625,0.03317487078284637,0.019322261522258077,0.019038235392001127,3.6000001430511475,2019-06-21 12:48:54:108
-0.804439453125,9.790937927246093,0.1939273681640625,0.03250908051032656,0.019988051794777886,0.02023665788253678,3.6051201820373535,2019-06-21 12:48:54:113
-0.7984540405273437,9.79692333984375,0.17357696533203124,0.03450645132788599,0.01945541957676204,0.02236718675460017,3.6099841594696045,2019-06-21 12:48:54:118
-0.7733153076171875,9.804105834960938,0.14005865478515625,0.034240135218878066,0.01892278735874619,0.022500344809104133,3.614976167678833,2019-06-21 12:48:54:123
-0.7721182250976563,9.808894165039062,0.16280322265625,0.034240135218878066,0.01945541957676204,0.021834554536584325,3.620096206665039,2019-06-21 12:48:54:128
-0.7781036376953124,9.792135009765625,0.1843507080078125,0.03264223856483052,0.017724364868210534,0.023299293136127906,3.6250882148742676,2019-06-21 12:48:54:133
-0.8020452880859374,9.792135009765625,0.1891390380859375,0.0341069771643741,0.017990680977218457,0.023299293136127906,3.630079984664917,2019-06-21 12:48:54:138
-0.7864832153320312,9.820864990234375,0.16280322265625,0.0341069771643741,0.017058574595690722,0.024764031735671488,3.6350719928741455,2019-06-21 12:48:54:143
-0.81401611328125,9.812485412597656,0.1604090576171875,0.0341069771643741,0.01599331015965903,0.025562980062695258,3.640064001083374,2019-06-21 12:48:54:148
-0.79486279296875,9.804105834960938,0.18554779052734374,0.03397381910987014,0.015061203778131294,0.026095612280711104,3.6450560092926025,2019-06-21 12:48:54:153
-0.7912715454101562,9.814879577636718,0.17597113037109374,0.03450645132788599,0.016659100432178837,0.026761402553230916,3.650048017501831,2019-06-21 12:48:54:158
-0.7924686279296875,9.8256533203125,0.1843507080078125,0.03503908562649644,0.016259626268666953,0.026894560607734878,3.6550400257110596,2019-06-21 12:48:54:163
-0.8020452880859374,9.784952514648436,0.16639447021484374,0.035438559790008324,0.015061203778131294,0.02849245726178242,3.660032033920288,2019-06-21 12:48:54:168
-0.780497802734375,9.795726257324219,0.1412557373046875,0.0341069771643741,0.014528571560115446,0.029690879752318076,3.6650240421295166,2019-06-21 12:48:54:173
-0.7529649047851562,9.798120422363281,0.11851116943359374,0.033574344946358255,0.015593835996147143,0.03115561835186166,3.670016050338745,2019-06-21 12:48:54:178
-0.7445853271484375,9.831638732910156,0.14724114990234374,0.034373293273382025,0.014661729614619408,0.03115561835186166,3.6750080585479736,2019-06-21 12:48:54:183
-0.7314174194335937,9.802908752441406,0.12569366455078124,0.0341069771643741,0.013729623233091676,0.03168825056987751,3.680000066757202,2019-06-21 12:48:54:188
-0.7445853271484375,9.81607666015625,0.14005865478515625,0.03397381910987014,0.013196991015075828,0.032220882787893354,3.6849920749664307,2019-06-21 12:48:54:193
-0.7493736572265625,9.813682495117188,0.17597113037109374,0.03450645132788599,0.012930674906067903,0.033419305278429005,3.689984083175659,2019-06-21 12:48:54:198
