ACCELEROMETER X (m/s²),ACCELEROMETER Y (m/s²),ACCELEROMETER Z (m/s²),GYROSCOPE X (rad/s),GYROSCOPE Y (rad/s),GYROSCOPE Z (rad/s),Time since start in ms ,YYYY-MO-DD HH-MI-SS_SSS
8.913476440429687,3.7420799560546874,0.502774658203125,0.03290855467383845,0.03143964448211861,-0.017979703760100288,0.0,2019-06-21 12:55:06:974
8.887140625,3.74447412109375,0.5422783813476563,0.033441186891854296,0.03223859280914238,-0.019178126250635943,0.004992008209228516,2019-06-21 12:55:06:979
8.900308532714844,3.75405078125,0.5087600708007812,0.03397381910987014,0.031306486427614647,-0.019311284305139904,0.009984016418457031,2019-06-21 12:55:06:984
8.914673522949219,3.74447412109375,0.5398842163085937,0.033574344946358255,0.030640696155094835,-0.02024339068666764,0.014976024627685547,2019-06-21 12:55:06:989
8.913476440429687,3.7348974609375,0.4908038330078125,0.033441186891854296,0.031040170318606727,-0.020642864850179524,0.019968032836914062,2019-06-21 12:55:06:994
8.901505615234376,3.758839111328125,0.49200091552734376,0.0341069771643741,0.03037438004608691,-0.021308655122699336,0.024960041046142578,2019-06-21 12:55:06:999
8.897914367675781,3.749262451171875,0.5063659057617187,0.034639609382389955,0.030507538100590873,-0.020909180959187448,0.029952049255371094,2019-06-21 12:55:07:004
8.879958129882812,3.7516566162109375,0.49918341064453126,0.03397381910987014,0.030640696155094835,-0.020509706795675563,0.03494405746459961,2019-06-21 12:55:07:009
8.894323120117187,3.7337003784179688,0.5147454833984375,0.03490592549139788,0.03117332837311069,-0.019977074577659716,0.039936065673828125,2019-06-21 12:55:07:014
8.932629760742188,3.772007019042969,0.5327017211914062,0.035438559790008324,0.030773854209598796,-0.021441813177203298,0.04505610466003418,2019-06-21 12:55:07:019
8.92425018310547,3.777992431640625,0.5231250610351562,0.03503908562649644,0.03117332837311069,-0.0203765487411716,0.050048112869262695,2019-06-21 12:55:07:024
8.946994750976563,3.758839111328125,0.4908038330078125,0.036237508117032094,0.03277122502715823,-0.020909180959187448,0.05504012107849121,2019-06-21 12:55:07:029
8.918264770507813,3.7851749267578123,0.4860155029296875,0.035438559790008324,0.03223859280914238,-0.021308655122699336,0.06003212928771973,2019-06-21 12:55:07:034
8.920658935546875,3.772007019042969,0.4848184204101562,0.035438559790008324,0.030907012264102765,-0.020776022904683486,0.06502413749694824,2019-06-21 12:55:07:039
8.929038513183594,3.76362744140625,0.5051688232421875,0.03597119200802417,0.030507538100590873,-0.0203765487411716,0.07001614570617676,2019-06-21 12:55:07:044
8.929038513183594,3.7815836791992186,0.5111542358398438,0.034639609382389955,0.031306486427614647,-0.020776022904683486,0.07500815391540527,2019-06-21 12:55:07:049
8.891928955078125,3.7791895141601564,0.5039717407226563,0.03490592549139788,0.03117332837311069,-0.019311284305139904,0.08000016212463379,2019-06-21 12:55:07:054
8.889534790039063,3.806722412109375,0.5171396484374999,0.03490592549139788,0.030907012264102765,-0.020776022904683486,0.0849921703338623,2019-06-21 12:55:07:059
8.871578552246094,3.7660216064453125,0.54586962890625,0.03503908562649644,0.03037438004608691,-0.019977074577659716,0.08998417854309082,2019-06-21 12:55:07:064
8.899111450195312,3.7432770385742185,0.49918341064453126,0.03397381910987014,0.03183911864563049,-0.020776022904683486,0.09497618675231934,2019-06-21 12:55:07:069
8.903899780273438,3.792357421875,0.4967892456054687,0.034240135218878066,0.03183911864563049,-0.02104233901369141,0.09996819496154785,2019-06-21 12:55:07:074
8.879958129882812,3.8103136596679685,0.502774658203125,0.03503908562649644,0.030907012264102765,-0.021841287340715183,0.10496020317077637,2019-06-21 12:55:07:079
8.893126037597655,3.7815836791992186,0.50756298828125,0.03650382422604002,0.03183911864563049,-0.022906551776746876,0.10995221138000488,2019-06-21 12:55:07:084
8.900308532714844,3.7899632568359376,0.5063659057617187,0.03557171784451229,0.03183911864563049,-0.021841287340715183,0.1149442195892334,2019-06-21 12:55:07:089
8.879958129882812,3.8091165771484374,0.5039717407226563,0.0351722436810004,0.03143964448211861,-0.02157497123170726,0.12006402015686035,2019-06-21 12:55:07:094
8.899111450195312,3.7959486694335935,0.5051688232421875,0.03583803395352021,0.031306486427614647,-0.021175497068195374,0.12505602836608887,2019-06-21 12:55:07:099
8.911082275390624,3.80193408203125,0.5183367309570313,0.03503908562649644,0.03143964448211861,-0.021308655122699336,0.13004803657531738,2019-06-21 12:55:07:104
8.913476440429687,3.774401184082031,0.5015775756835937,0.035438559790008324,0.03143964448211861,-0.020642864850179524,0.1350400447845459,2019-06-21 12:55:07:109
8.890731872558593,3.7935545043945313,0.54586962890625,0.035305401735504366,0.031705960591126535,-0.021175497068195374,0.14003205299377441,2019-06-21 12:55:07:114
8.902702697753906,3.768415771484375,0.48003009033203126,0.03503908562649644,0.032105434754638416,-0.020776022904683486,0.14502406120300293,2019-06-21 12:55:07:119
8.908688110351562,3.7995399169921873,0.474044677734375,0.03583803395352021,0.03117332837311069,-0.020776022904683486,0.15001606941223145,2019-06-21 12:55:07:124
8.879958129882812,3.7851749267578123,0.48960675048828123,0.03490592549139788,0.030773854209598796,-0.020642864850179524,0.15500807762145996,2019-06-21 12:55:07:129
8.8679873046875,3.7755982666015626,0.4776359252929687,0.03570487589901625,0.03117332837311069,-0.020642864850179524,0.16000008583068848,2019-06-21 12:55:07:134
8.863198974609375,3.774401184082031,0.4572855224609375,0.035438559790008324,0.03037438004608691,-0.019843916523155754,0.164992094039917,2019-06-21 12:55:07:139
8.869184387207032,3.792357421875,0.497986328125,0.034639609382389955,0.031306486427614647,-0.01957760041414783,0.1699841022491455,2019-06-21 12:55:07:144
8.897914367675781,3.798342834472656,0.521927978515625,0.03397381910987014,0.030507538100590873,-0.01957760041414783,0.17497611045837402,2019-06-21 12:55:07:149
8.865593139648437,3.797145751953125,0.5039717407226563,0.03290855467383845,0.02930911561005522,-0.019977074577659716,0.17996811866760254,2019-06-21 12:55:07:154
8.883549377441406,3.7935545043945313,0.53629296875,0.032775396619334485,0.029974905882575027,-0.0203765487411716,0.18496012687683105,2019-06-21 12:55:07:159
8.891928955078125,3.788766174316406,0.502774658203125,0.033574344946358255,0.029974905882575027,-0.018778652087124058,0.18995213508605957,2019-06-21 12:55:07:164
8.888337707519531,3.7899632568359376,0.5446725463867187,0.03210960634681467,0.030507538100590873,-0.017846545705596326,0.19494414329528809,2019-06-21 12:55:07:169
8.89552020263672,3.80193408203125,0.5087600708007812,0.03250908051032656,0.030773854209598796,-0.018512335978116135,0.1999361515045166,2019-06-21 12:55:07:174
8.884746459960937,3.7660216064453125,0.512351318359375,0.032375922455822596,0.03037438004608691,-0.018645494032620096,0.20505619049072266,2019-06-21 12:55:07:179
8.93622100830078,3.7947515869140624,0.4967892456054687,0.03304171272834241,0.03037438004608691,-0.018645494032620096,0.21004819869995117,2019-06-21 12:55:07:184
8.932629760742188,3.777992431640625,0.5350958862304688,0.03264223856483052,0.030773854209598796,-0.019977074577659716,0.2150402069091797,2019-06-21 12:55:07:189
8.911082275390624,3.7815836791992186,0.5338988037109375,0.03330802883735033,0.02957543171906314,-0.01904496819613198,0.2200322151184082,2019-06-21 12:55:07:194
8.913476440429687,3.78278076171875,0.5291104736328125,0.03264223856483052,0.030773854209598796,-0.017713387651092365,0.22502422332763672,2019-06-21 12:55:07:199
8.89552020263672,3.7899632568359376,0.541081298828125,0.03264223856483052,0.030640696155094835,-0.017846545705596326,0.23001599311828613,2019-06-21 12:55:07:204
8.894323120117187,3.80193408203125,0.53629296875,0.032375922455822596,0.02957543171906314,-0.017713387651092365,0.23500800132751465,2019-06-21 12:55:07:209
8.929038513183594,3.7959486694335935,0.5147454833984375,0.03290855467383845,0.02930911561005522,-0.016381807106052745,0.24000000953674316,2019-06-21 12:55:07:214
8.926644348144531,3.786372009277344,0.48840966796874996,0.03171013218330279,0.02930911561005522,-0.017979703760100288,0.24499201774597168,2019-06-21 12:55:07:219
8.902702697753906,3.7660216064453125,0.483621337890625,0.032375922455822596,0.029974905882575027,-0.018778652087124058,0.2499840259552002,2019-06-21 12:55:07:224
8.909885192871094,3.774401184082031,0.49439508056640624,0.03250908051032656,0.02930911561005522,-0.019178126250635943,0.2549760341644287,2019-06-21 12:55:07:229
8.909885192871094,3.7732041015625,0.5159425659179687,0.03224276440131864,0.028909641446543333,-0.017713387651092365,0.2599680423736572,2019-06-21 12:55:07:234
8.890731872558593,3.7732041015625,0.49918341064453126,0.03171013218330279,0.02930911561005522,-0.016648123215060668,0.26496005058288574,2019-06-21 12:55:07:239
8.92425018310547,3.768415771484375,0.45010302734374996,0.03184329023780675,0.029708589773567103,-0.017047597378572553,0.26995205879211426,2019-06-21 12:55:07:244
8.937418090820312,3.7708099365234373,0.4477088623046875,0.031576974128798826,0.03024122199158295,-0.018512335978116135,0.2749440670013428,2019-06-21 12:55:07:249
8.91706768798828,3.797145751953125,0.5171396484374999,0.03210960634681467,0.029708589773567103,-0.017713387651092365,0.2799360752105713,2019-06-21 12:55:07:254
8.899111450195312,3.7672186889648436,0.48721258544921875,0.03330802883735033,0.028377009228527487,-0.017979703760100288,0.28505611419677734,2019-06-21 12:55:07:259
8.91706768798828,3.7516566162109375,0.5147454833984375,0.03264223856483052,0.028377009228527487,-0.017713387651092365,0.29004812240600586,2019-06-21 12:55:07:264
8.905096862792968,3.746868286132812,0.5159425659179687,0.03210960634681467,0.028243851174023525,-0.018645494032620096,0.2950401306152344,2019-06-21 12:55:07:269
8.884746459960937,3.758839111328125,0.531504638671875,0.03224276440131864,0.02851016728303145,-0.020509706795675563,0.3000321388244629,2019-06-21 12:55:07:274
8.894323120117187,3.7265178833007813,0.50756298828125,0.03144381607429487,0.028377009228527487,-0.020776022904683486,0.3050241470336914,2019-06-21 12:55:07:279
8.89552020263672,3.745671203613281,0.5087600708007812,0.031044341910782983,0.028110693119519563,-0.020776022904683486,0.3100161552429199,2019-06-21 12:55:07:284
8.897914367675781,3.7624303588867187,0.5195338134765625,0.03224276440131864,0.028909641446543333,-0.0203765487411716,0.31500816345214844,2019-06-21 12:55:07:289
8.887140625,3.7396857910156247,0.5255192260742187,0.03184329023780675,0.02784437701051164,-0.021441813177203298,0.32000017166137695,2019-06-21 12:55:07:294
8.908688110351562,3.745671203613281,0.46087677001953126,0.03144381607429487,0.027444902846999755,-0.02104233901369141,0.32499217987060547,2019-06-21 12:55:07:299
8.872775634765624,3.760036193847656,0.4788330078125,0.031576974128798826,0.02864332533753541,-0.020909180959187448,0.329984188079834,2019-06-21 12:55:07:304
8.891928955078125,3.7755982666015626,0.48122717285156247,0.03184329023780675,0.028909641446543333,-0.020509706795675563,0.3349761962890625,2019-06-21 12:55:07:309
8.894323120117187,3.745671203613281,0.48242425537109374,0.03224276440131864,0.028110693119519563,-0.022240761504227068,0.339968204498291,2019-06-21 12:55:07:314
8.920658935546875,3.745671203613281,0.49439508056640624,0.03210960634681467,0.02877648339203937,-0.02104233901369141,0.34496021270751953,2019-06-21 12:55:07:319
8.929038513183594,3.7672186889648436,0.5171396484374999,0.03290855467383845,0.02864332533753541,-0.02237391955873103,0.34995222091674805,2019-06-21 12:55:07:324
8.913476440429687,3.7660216064453125,0.502774658203125,0.03317487078284637,0.02864332533753541,-0.024238132321786496,0.35494422912597656,2019-06-21 12:55:07:329
8.903899780273438,3.75405078125,0.5015775756835937,0.03210960634681467,0.02784437701051164,-0.022640235667738953,0.359935998916626,2019-06-21 12:55:07:334
8.923053100585937,3.7289120483398435,0.5099571533203124,0.03210960634681467,0.02877648339203937,-0.022107603449723106,0.36505603790283203,2019-06-21 12:55:07:339
8.901505615234376,3.7229266357421875,0.48242425537109374,0.031976448292310715,0.028909641446543333,-0.023439183994762722,0.37004804611206055,2019-06-21 12:55:07:344
8.909885192871094,3.7564449462890623,0.48122717285156247,0.03210960634681467,0.02851016728303145,-0.022773393722242914,0.37504005432128906,2019-06-21 12:55:07:349
8.875169799804688,3.716941223144531,0.5087600708007812,0.03224276440131864,0.02851016728303145,-0.022773393722242914,0.3800320625305176,2019-06-21 12:55:07:354
8.894323120117187,3.758839111328125,0.5386871337890625,0.03250908051032656,0.02851016728303145,-0.024238132321786496,0.3850240707397461,2019-06-21 12:55:07:359
8.871578552246094,3.760036193847656,0.493197998046875,0.032375922455822596,0.02851016728303145,-0.024238132321786496,0.3900160789489746,2019-06-21 12:55:07:364
8.863198974609375,3.7516566162109375,0.5039717407226563,0.031976448292310715,0.028110693119519563,-0.024903922594306308,0.3950080871582031,2019-06-21 12:55:07:369
8.89671728515625,3.78278076171875,0.5374900512695312,0.03264223856483052,0.02944227366455918,-0.026102345084841962,0.40000009536743164,2019-06-21 12:55:07:374
8.901505615234376,3.783977844238281,0.48721258544921875,0.03290855467383845,0.02957543171906314,-0.02676813535736177,0.40499210357666016,2019-06-21 12:55:07:379
8.888337707519531,3.7935545043945313,0.46805926513671875,0.03370750300086222,0.03037438004608691,-0.027167609520873656,0.40998411178588867,2019-06-21 12:55:07:384
8.894323120117187,3.7995399169921873,0.49918341064453126,0.03477276743689391,0.03024122199158295,-0.027167609520873656,0.4149761199951172,2019-06-21 12:55:07:389
8.87756396484375,3.7815836791992186,0.5063659057617187,0.034373293273382025,0.02957543171906314,-0.026501819248353847,0.4199681282043457,2019-06-21 12:55:07:394
8.888337707519531,3.7947515869140624,0.5195338134765625,0.03397381910987014,0.029042799501047295,-0.027034451466369694,0.4249601364135742,2019-06-21 12:55:07:399
8.905096862792968,3.788766174316406,0.48721258544921875,0.033441186891854296,0.030108063937078988,-0.026901293411865732,0.42995214462280273,2019-06-21 12:55:07:404
8.89671728515625,3.7767953491210937,0.5159425659179687,0.0341069771643741,0.029974905882575027,-0.02663497730285781,0.43494415283203125,2019-06-21 12:55:07:409
8.912279357910156,3.7959486694335935,0.5159425659179687,0.03317487078284637,0.03037438004608691,-0.02663497730285781,0.43993616104125977,2019-06-21 12:55:07:414
8.901505615234376,3.8079194946289063,0.4908038330078125,0.033574344946358255,0.030640696155094835,-0.02450444843079442,0.4450562000274658,2019-06-21 12:55:07:419
8.89552020263672,3.803131164550781,0.5063659057617187,0.034240135218878066,0.03037438004608691,-0.02503708064881027,0.45004820823669434,2019-06-21 12:55:07:424
8.901505615234376,3.8210874023437498,0.5147454833984375,0.0341069771643741,0.030773854209598796,-0.024104974267282534,0.45504021644592285,2019-06-21 12:55:07:429
8.891928955078125,3.8366494750976563,0.46087677001953126,0.03477276743689391,0.03117332837311069,-0.024238132321786496,0.46003222465515137,2019-06-21 12:55:07:434
8.897914367675781,3.829466979980469,0.502774658203125,0.03557171784451229,0.030773854209598796,-0.022773393722242914,0.4650239944458008,2019-06-21 12:55:07:439
8.918264770507813,3.8390436401367185,0.474044677734375,0.03490592549139788,0.03117332837311069,-0.022107603449723106,0.4700160026550293,2019-06-21 12:55:07:444
8.879958129882812,3.84024072265625,0.5183367309570313,0.03450645132788599,0.030108063937078988,-0.02157497123170726,0.4750080108642578,2019-06-21 12:55:07:449
8.89671728515625,3.8486203002929686,0.47284759521484376,0.03503908562649644,0.03117332837311069,-0.021308655122699336,0.48000001907348633,2019-06-21 12:55:07:454
8.909885192871094,3.8306640625,0.49200091552734376,0.03583803395352021,0.030773854209598796,-0.01957760041414783,0.48499202728271484,2019-06-21 12:55:07:459
8.905096862792968,3.8282698974609373,0.48840966796874996,0.03450645132788599,0.030773854209598796,-0.019178126250635943,0.48998403549194336,2019-06-21 12:55:07:464
8.891928955078125,3.8426348876953123,0.4860155029296875,0.03490592549139788,0.031040170318606727,-0.017979703760100288,0.4949760437011719,2019-06-21 12:55:07:469
8.903899780273438,3.8378465576171874,0.46087677001953126,0.034639609382389955,0.031306486427614647,-0.017313913487580476,0.4999680519104004,2019-06-21 12:55:07:474
8.926644348144531,3.8378465576171874,0.49918341064453126,0.03490592549139788,0.030773854209598796,-0.017180755433076515,0.5049600601196289,2019-06-21 12:55:07:479
8.894323120117187,3.8474232177734375,0.4656651000976562,0.034373293273382025,0.030773854209598796,-0.016248649051548783,0.5099520683288574,2019-06-21 12:55:07:484
8.884746459960937,3.845029052734375,0.483621337890625,0.033441186891854296,0.03024122199158295,-0.015183384615517085,0.5149440765380859,2019-06-21 12:55:07:489
8.899111450195312,3.8366494750976563,0.4967892456054687,0.033441186891854296,0.030507538100590873,-0.014384436288493315,0.5199360847473145,2019-06-21 12:55:07:494
8.919461853027343,3.8342553100585937,0.47284759521484376,0.03330802883735033,0.03037438004608691,-0.013186013797957656,0.5250561237335205,2019-06-21 12:55:07:499
8.885943542480469,3.8330582275390626,0.512351318359375,0.032775396619334485,0.030507538100590873,-0.013319171852461618,0.530048131942749,2019-06-21 12:55:07:504
8.894323120117187,3.8222844848632813,0.512351318359375,0.03224276440131864,0.031306486427614647,-0.012520223525437848,0.5350401401519775,2019-06-21 12:55:07:509
8.897914367675781,3.829466979980469,0.5195338134765625,0.03290855467383845,0.030773854209598796,-0.01212074936192596,0.540032148361206,2019-06-21 12:55:07:514
8.884746459960937,3.7995399169921873,0.493197998046875,0.032375922455822596,0.03117332837311069,-0.011721275198414075,0.5450241565704346,2019-06-21 12:55:07:519
8.899111450195312,3.7767953491210937,0.5195338134765625,0.03224276440131864,0.030108063937078988,-0.01065601076238238,0.5500161647796631,2019-06-21 12:55:07:524
8.90749102783203,3.7947515869140624,0.48003009033203126,0.031044341910782983,0.029974905882575027,-0.009457588271846723,0.5550081729888916,2019-06-21 12:55:07:529
8.885943542480469,3.787569091796875,0.5291104736328125,0.031976448292310715,0.029841747828071065,-0.009857062435358608,0.5600001811981201,2019-06-21 12:55:07:534
8.885943542480469,3.8079194946289063,0.5374900512695312,0.03250908051032656,0.03024122199158295,-0.011188642980398228,0.5649921894073486,2019-06-21 12:55:07:539
8.900308532714844,3.78278076171875,0.4848184204101562,0.03250908051032656,0.031040170318606727,-0.010922326871390305,0.5699841976165771,2019-06-21 12:55:07:544
8.897914367675781,3.800736999511719,0.50756298828125,0.03144381607429487,0.03037438004608691,-0.010789168816886343,0.5749762058258057,2019-06-21 12:55:07:549
8.90749102783203,3.7755982666015626,0.49439508056640624,0.03171013218330279,0.029974905882575027,-0.010123378544366533,0.5799682140350342,2019-06-21 12:55:07:554
8.876366882324218,3.7732041015625,0.5195338134765625,0.031576974128798826,0.029175957555551257,-0.010256536598870495,0.5849602222442627,2019-06-21 12:55:07:559
8.913476440429687,3.7767953491210937,0.5446725463867187,0.030378551638263168,0.030108063937078988,-0.010256536598870495,0.5899519920349121,2019-06-21 12:55:07:564
8.91587060546875,3.786372009277344,0.5099571533203124,0.0295796033112394,0.030108063937078988,-0.008924956053830875,0.5949440002441406,2019-06-21 12:55:07:569
8.90749102783203,3.7516566162109375,0.48122717285156247,0.030911183856279015,0.029042799501047295,-0.009590746326350685,0.5999360084533691,2019-06-21 12:55:07:574
8.897914367675781,3.757642028808594,0.497986328125,0.031177499965286945,0.02877648339203937,-0.008924956053830875,0.6050560474395752,2019-06-21 12:55:07:579
8.894323120117187,3.772007019042969,0.47524176025390624,0.031044341910782983,0.03037438004608691,-0.010389694653374457,0.6100480556488037,2019-06-21 12:55:07:584
8.881155212402344,3.7767953491210937,0.5063659057617187,0.03051170969276713,0.029974905882575027,-0.009723904380854647,0.6150400638580322,2019-06-21 12:55:07:589
8.89671728515625,3.786372009277344,0.5111542358398438,0.030112235529255245,0.029974905882575027,-0.010789168816886343,0.6200320720672607,2019-06-21 12:55:07:594
8.901505615234376,3.774401184082031,0.493197998046875,0.031177499965286945,0.03037438004608691,-0.01132180103490219,0.6250240802764893,2019-06-21 12:55:07:599
8.921856018066405,3.7552478637695312,0.4764388427734375,0.031976448292310715,0.02944227366455918,-0.010522852707878418,0.6300160884857178,2019-06-21 12:55:07:604
8.870381469726562,3.7289120483398435,0.4967892456054687,0.031044341910782983,0.029841747828071065,-0.010123378544366533,0.6350080966949463,2019-06-21 12:55:07:609
8.90749102783203,3.783977844238281,0.5087600708007812,0.030911183856279015,0.030640696155094835,-0.01065601076238238,0.6400001049041748,2019-06-21 12:55:07:614
8.884746459960937,3.7767953491210937,0.5554462890625,0.031576974128798826,0.03024122199158295,-0.01132180103490219,0.6449921131134033,2019-06-21 12:55:07:619
8.905096862792968,3.768415771484375,0.52671630859375,0.03144381607429487,0.030507538100590873,-0.011854433252918036,0.6499841213226318,2019-06-21 12:55:07:624
8.913476440429687,3.7648245239257814,0.5099571533203124,0.030778025801775053,0.030907012264102765,-0.011721275198414075,0.6549761295318604,2019-06-21 12:55:07:629
8.901505615234376,3.7528536987304686,0.474044677734375,0.030778025801775053,0.030773854209598796,-0.012786539634445772,0.6599681377410889,2019-06-21 12:55:07:634
8.899111450195312,3.760036193847656,0.49439508056640624,0.0313106580197909,0.030108063937078988,-0.01345232990696558,0.6649601459503174,2019-06-21 12:55:07:639
8.881155212402344,3.7672186889648436,0.48960675048828123,0.031576974128798826,0.03037438004608691,-0.014650752397501238,0.6699521541595459,2019-06-21 12:55:07:644
8.899111450195312,3.760036193847656,0.4908038330078125,0.031177499965286945,0.03024122199158295,-0.014118120179485391,0.6749441623687744,2019-06-21 12:55:07:649
8.92425018310547,3.7528536987304686,0.47524176025390624,0.03171013218330279,0.030640696155094835,-0.014650752397501238,0.6799361705780029,2019-06-21 12:55:07:654
8.958965576171876,3.721729553222656,0.46087677001953126,0.03184329023780675,0.030773854209598796,-0.014650752397501238,0.685056209564209,2019-06-21 12:55:07:659
8.923053100585937,3.7408828735351562,0.502774658203125,0.031576974128798826,0.029974905882575027,-0.014384436288493315,0.6900482177734375,2019-06-21 12:55:07:664
8.891928955078125,3.7480653686523437,0.5147454833984375,0.032375922455822596,0.030907012264102765,-0.014650752397501238,0.695040225982666,2019-06-21 12:55:07:669
8.89552020263672,3.7672186889648436,0.5338988037109375,0.032775396619334485,0.030773854209598796,-0.0147839104520052,0.7000319957733154,2019-06-21 12:55:07:674
8.902702697753906,3.757642028808594,0.493197998046875,0.03250908051032656,0.029708589773567103,-0.014917068506509161,0.705024003982544,2019-06-21 12:55:07:679
8.900308532714844,3.75405078125,0.5147454833984375,0.031976448292310715,0.02877648339203937,-0.016648123215060668,0.7100160121917725,2019-06-21 12:55:07:684
8.912279357910156,3.7337003784179688,0.5063659057617187,0.03224276440131864,0.028909641446543333,-0.01811286181460425,0.715008020401001,2019-06-21 12:55:07:689
8.911082275390624,3.768415771484375,0.497986328125,0.03330802883735033,0.029042799501047295,-0.018778652087124058,0.7200000286102295,2019-06-21 12:55:07:694
8.927841430664062,3.768415771484375,0.5039717407226563,0.03317487078284637,0.029175957555551257,-0.018512335978116135,0.724992036819458,2019-06-21 12:55:07:699
8.92425018310547,3.7516566162109375,0.5015775756835937,0.03250908051032656,0.028909641446543333,-0.01944444235964387,0.7299840450286865,2019-06-21 12:55:07:704
8.905096862792968,3.758839111328125,0.5003804931640625,0.03264223856483052,0.029708589773567103,-0.018778652087124058,0.734976053237915,2019-06-21 12:55:07:709
8.908688110351562,3.7408828735351562,0.5338988037109375,0.032775396619334485,0.02877648339203937,-0.01811286181460425,0.7399680614471436,2019-06-21 12:55:07:714
8.90749102783203,3.7516566162109375,0.5147454833984375,0.03317487078284637,0.02864332533753541,-0.01811286181460425,0.7449600696563721,2019-06-21 12:55:07:719
8.894323120117187,3.772007019042969,0.5183367309570313,0.03224276440131864,0.030640696155094835,-0.019843916523155754,0.7499520778656006,2019-06-21 12:55:07:724
8.894323120117187,3.772007019042969,0.5183367309570313,0.03224276440131864,0.030640696155094835,-0.019843916523155754,0.7528960704803467,2019-06-21 12:55:07:727
8.914673522949219,3.7935545043945313,0.531504638671875,0.03397381910987014,0.02944227366455918,-0.020509706795675563,0.7599360942840576,2019-06-21 12:55:07:734
8.914673522949219,3.7935545043945313,0.531504638671875,0.03397381910987014,0.02944227366455918,-0.020509706795675563,0.7628800868988037,2019-06-21 12:55:07:737
8.893126037597655,3.760036193847656,0.5255192260742187,0.03330802883735033,0.030108063937078988,-0.019843916523155754,0.7700481414794922,2019-06-21 12:55:07:744
8.893126037597655,3.760036193847656,0.5255192260742187,0.03330802883735033,0.030108063937078988,-0.019843916523155754,0.7728641033172607,2019-06-21 12:55:07:747
8.901505615234376,3.7528536987304686,0.52671630859375,0.03370750300086222,0.02944227366455918,-0.019977074577659716,0.7800321578979492,2019-06-21 12:55:07:754
8.901505615234376,3.7528536987304686,0.52671630859375,0.03370750300086222,0.02944227366455918,-0.019977074577659716,0.7828481197357178,2019-06-21 12:55:07:757
8.903899780273438,3.7815836791992186,0.5171396484374999,0.03477276743689391,0.030108063937078988,-0.02104233901369141,0.7900161743164062,2019-06-21 12:55:07:764
8.91587060546875,3.7432770385742185,0.5147454833984375,0.03397381910987014,0.030108063937078988,-0.019977074577659716,0.7950081825256348,2019-06-21 12:55:07:769
8.908688110351562,3.7648245239257814,0.5231250610351562,0.0351722436810004,0.028909641446543333,-0.02170812928621122,0.8000001907348633,2019-06-21 12:55:07:774
8.9062939453125,3.7624303588867187,0.5338988037109375,0.03384066105536618,0.029042799501047295,-0.022240761504227068,0.8049921989440918,2019-06-21 12:55:07:779
8.900308532714844,3.750459533691406,0.5338988037109375,0.03397381910987014,0.03037438004608691,-0.02250707761323499,0.8099842071533203,2019-06-21 12:55:07:784
8.926644348144531,3.7348974609375,0.50756298828125,0.03450645132788599,0.029841747828071065,-0.021974445395219144,0.8149762153625488,2019-06-21 12:55:07:789
8.90749102783203,3.7396857910156247,0.4776359252929687,0.03450645132788599,0.030507538100590873,-0.022640235667738953,0.8199682235717773,2019-06-21 12:55:07:794
8.90749102783203,3.7396857910156247,0.4776359252929687,0.03490592549139788,0.03024122199158295,-0.022640235667738953,0.8250880241394043,2019-06-21 12:55:07:799
8.890731872558593,3.758839111328125,0.4668621826171875,0.0351722436810004,0.029974905882575027,-0.02250707761323499,0.8299520015716553,2019-06-21 12:55:07:804
8.902702697753906,3.7767953491210937,0.5159425659179687,0.034373293273382025,0.029841747828071065,-0.022906551776746876,0.8349440097808838,2019-06-21 12:55:07:809
8.889534790039063,3.7767953491210937,0.5111542358398438,0.03397381910987014,0.028909641446543333,-0.023039709831250837,0.8399360179901123,2019-06-21 12:55:07:814
8.882352294921875,3.768415771484375,0.5207308959960938,0.03330802883735033,0.030108063937078988,-0.023705500103770646,0.8450560569763184,2019-06-21 12:55:07:819
8.890731872558593,3.7612332763671876,0.502774658203125,0.03370750300086222,0.031306486427614647,-0.023705500103770646,0.8500480651855469,2019-06-21 12:55:07:824
8.899111450195312,3.786372009277344,0.521927978515625,0.03384066105536618,0.031040170318606727,-0.023439183994762722,0.8550400733947754,2019-06-21 12:55:07:829
8.89552020263672,3.7767953491210937,0.4668621826171875,0.03317487078284637,0.030507538100590873,-0.024637606485298384,0.8600320816040039,2019-06-21 12:55:07:834
8.908688110351562,3.7648245239257814,0.5015775756835937,0.03370750300086222,0.030773854209598796,-0.023439183994762722,0.8650240898132324,2019-06-21 12:55:07:839
8.929038513183594,3.7947515869140624,0.502774658203125,0.03290855467383845,0.030907012264102765,-0.024238132321786496,0.8700160980224609,2019-06-21 12:55:07:844
8.899111450195312,3.7815836791992186,0.5087600708007812,0.03370750300086222,0.030907012264102765,-0.024637606485298384,0.8750081062316895,2019-06-21 12:55:07:849
8.887140625,3.8055253295898437,0.5015775756835937,0.03370750300086222,0.030773854209598796,-0.023439183994762722,0.880000114440918,2019-06-21 12:55:07:854
8.882352294921875,3.78278076171875,0.5255192260742187,0.03304171272834241,0.030640696155094835,-0.022640235667738953,0.8849921226501465,2019-06-21 12:55:07:859
8.902702697753906,3.797145751953125,0.493197998046875,0.03250908051032656,0.029841747828071065,-0.02330602594025876,0.889984130859375,2019-06-21 12:55:07:864
8.893126037597655,3.800736999511719,0.502774658203125,0.032375922455822596,0.030907012264102765,-0.023572342049266684,0.8949761390686035,2019-06-21 12:55:07:869
8.882352294921875,3.786372009277344,0.5111542358398438,0.03184329023780675,0.030773854209598796,-0.021974445395219144,0.899968147277832,2019-06-21 12:55:07:874
8.875169799804688,3.7959486694335935,0.493197998046875,0.03250908051032656,0.030773854209598796,-0.02250707761323499,0.9049601554870605,2019-06-21 12:55:07:879
8.893126037597655,3.806722412109375,0.50756298828125,0.03290855467383845,0.030507538100590873,-0.02237391955873103,0.9099521636962891,2019-06-21 12:55:07:884
8.902702697753906,3.803131164550781,0.5279133911132813,0.03290855467383845,0.03037438004608691,-0.021441813177203298,0.9149441719055176,2019-06-21 12:55:07:889
8.901505615234376,3.7959486694335935,0.53629296875,0.03250908051032656,0.02944227366455918,-0.021841287340715183,0.9199361801147461,2019-06-21 12:55:07:894
8.897914367675781,3.7995399169921873,0.5111542358398438,0.032775396619334485,0.030907012264102765,-0.02170812928621122,0.9250562191009521,2019-06-21 12:55:07:899
8.919461853027343,3.7935545043945313,0.4848184204101562,0.03264223856483052,0.031040170318606727,-0.021441813177203298,0.9300482273101807,2019-06-21 12:55:07:904
8.90749102783203,3.7947515869140624,0.5135484008789062,0.03171013218330279,0.031306486427614647,-0.019977074577659716,0.9350399971008301,2019-06-21 12:55:07:909
8.914673522949219,3.75405078125,0.48960675048828123,0.03264223856483052,0.03037438004608691,-0.020776022904683486,0.9400320053100586,2019-06-21 12:55:07:914
8.901505615234376,3.7648245239257814,0.464468017578125,0.03397381910987014,0.030640696155094835,-0.02237391955873103,0.9450240135192871,2019-06-21 12:55:07:919
8.89671728515625,3.7755982666015626,0.47524176025390624,0.03370750300086222,0.03024122199158295,-0.023039709831250837,0.9500160217285156,2019-06-21 12:55:07:924
8.883549377441406,3.774401184082031,0.512351318359375,0.03264223856483052,0.030108063937078988,-0.022107603449723106,0.9550080299377441,2019-06-21 12:55:07:929
8.882352294921875,3.746868286132812,0.49200091552734376,0.032775396619334485,0.03037438004608691,-0.020642864850179524,0.9600000381469727,2019-06-21 12:55:07:934
8.87876104736328,3.7624303588867187,0.47045343017578123,0.03264223856483052,0.03117332837311069,-0.021441813177203298,0.9649920463562012,2019-06-21 12:55:07:939
8.875169799804688,3.7732041015625,0.4860155029296875,0.03370750300086222,0.030773854209598796,-0.020909180959187448,0.9699840545654297,2019-06-21 12:55:07:944
8.87876104736328,3.772007019042969,0.5063659057617187,0.03397381910987014,0.030108063937078988,-0.021308655122699336,0.9749760627746582,2019-06-21 12:55:07:949
8.887140625,3.792357421875,0.4776359252929687,0.03370750300086222,0.030507538100590873,-0.02104233901369141,0.9799680709838867,2019-06-21 12:55:07:954
8.905096862792968,3.75405078125,0.49918341064453126,0.034240135218878066,0.030640696155094835,-0.021308655122699336,0.9849600791931152,2019-06-21 12:55:07:959
8.933826843261718,3.76362744140625,0.5291104736328125,0.034240135218878066,0.031040170318606727,-0.020909180959187448,0.9899520874023438,2019-06-21 12:55:07:964
8.912279357910156,3.7528536987304686,0.5171396484374999,0.034639609382389955,0.030907012264102765,-0.021974445395219144,0.9949440956115723,2019-06-21 12:55:07:969
8.903899780273438,3.7660216064453125,0.5147454833984375,0.03477276743689391,0.030773854209598796,-0.021974445395219144,0.9999361038208008,2019-06-21 12:55:07:974
8.891928955078125,3.7612332763671876,0.5039717407226563,0.03477276743689391,0.030108063937078988,-0.02250707761323499,1.0050561428070068,2019-06-21 12:55:07:979
8.913476440429687,3.746868286132812,0.54586962890625,0.034240135218878066,0.030108063937078988,-0.023039709831250837,1.0100481510162354,2019-06-21 12:55:07:984
8.893126037597655,3.7564449462890623,0.5243221435546875,0.034373293273382025,0.029841747828071065,-0.023039709831250837,1.0150401592254639,2019-06-21 12:55:07:989
8.890731872558593,3.7851749267578123,0.52671630859375,0.03557171784451229,0.029708589773567103,-0.02237391955873103,1.0200321674346924,2019-06-21 12:55:07:994
8.871578552246094,3.7851749267578123,0.5398842163085937,0.03570487589901625,0.029708589773567103,-0.021841287340715183,1.025024175643921,2019-06-21 12:55:07:999
8.899111450195312,3.8091165771484374,0.5015775756835937,0.03503908562649644,0.029974905882575027,-0.02250707761323499,1.0300161838531494,2019-06-21 12:55:08:004
8.900308532714844,3.806722412109375,0.48122717285156247,0.03450645132788599,0.030108063937078988,-0.022240761504227068,1.035008192062378,2019-06-21 12:55:08:009
8.89671728515625,3.803131164550781,0.493197998046875,0.035438559790008324,0.030907012264102765,-0.02157497123170726,1.0400002002716064,2019-06-21 12:55:08:014
8.87876104736328,3.8186932373046876,0.5291104736328125,0.03597119200802417,0.03037438004608691,-0.021175497068195374,1.044992208480835,2019-06-21 12:55:08:019
8.8679873046875,3.7959486694335935,0.49439508056640624,0.03663698228054398,0.032105434754638416,-0.021974445395219144,1.0499842166900635,2019-06-21 12:55:08:024
8.889534790039063,3.7803865966796875,0.4955921630859375,0.036237508117032094,0.030907012264102765,-0.021175497068195374,1.054976224899292,2019-06-21 12:55:08:029
8.889534790039063,3.7815836791992186,0.5195338134765625,0.03637066617153606,0.030507538100590873,-0.02157497123170726,1.0599679946899414,2019-06-21 12:55:08:034
8.901505615234376,3.8055253295898437,0.5135484008789062,0.03597119200802417,0.030907012264102765,-0.020642864850179524,1.06496000289917,2019-06-21 12:55:08:039
8.92425018310547,3.7995399169921873,0.4860155029296875,0.035305401735504366,0.030907012264102765,-0.020909180959187448,1.0699520111083984,2019-06-21 12:55:08:044
8.920658935546875,3.8091165771484374,0.48960675048828123,0.03503908562649644,0.031705960591126535,-0.020642864850179524,1.074944019317627,2019-06-21 12:55:08:049
8.889534790039063,3.8342553100585937,0.5291104736328125,0.034240135218878066,0.031306486427614647,-0.019977074577659716,1.0799360275268555,2019-06-21 12:55:08:054
8.882352294921875,3.8186932373046876,0.5039717407226563,0.034373293273382025,0.03024122199158295,-0.01891181014162802,1.0850560665130615,2019-06-21 12:55:08:059
8.911082275390624,3.798342834472656,0.5087600708007812,0.034639609382389955,0.030507538100590873,-0.019843916523155754,1.09004807472229,2019-06-21 12:55:08:064
8.914673522949219,3.7959486694335935,0.521927978515625,0.033574344946358255,0.029974905882575027,-0.019178126250635943,1.0950400829315186,2019-06-21 12:55:08:069
8.899111450195312,3.7791895141601564,0.4776359252929687,0.03370750300086222,0.03037438004608691,-0.018645494032620096,1.100032091140747,2019-06-21 12:55:08:074
8.899111450195312,3.7672186889648436,0.5111542358398438,0.032775396619334485,0.030640696155094835,-0.017979703760100288,1.1050240993499756,2019-06-21 12:55:08:079
8.885943542480469,3.792357421875,0.4967892456054687,0.03250908051032656,0.030640696155094835,-0.019843916523155754,1.110016107559204,2019-06-21 12:55:08:084
8.882352294921875,3.783977844238281,0.4848184204101562,0.03304171272834241,0.030108063937078988,-0.019977074577659716,1.1150081157684326,2019-06-21 12:55:08:089
8.87876104736328,3.788766174316406,0.4524971923828125,0.033441186891854296,0.030507538100590873,-0.018379177923612173,1.1200001239776611,2019-06-21 12:55:08:094
8.887140625,3.774401184082031,0.47524176025390624,0.03330802883735033,0.03037438004608691,-0.01891181014162802,1.1249921321868896,2019-06-21 12:55:08:099
8.901505615234376,3.7732041015625,0.49200091552734376,0.03370750300086222,0.029708589773567103,-0.019311284305139904,1.1299841403961182,2019-06-21 12:55:08:104
8.889534790039063,3.78278076171875,0.5099571533203124,0.033441186891854296,0.02944227366455918,-0.017846545705596326,1.1349761486053467,2019-06-21 12:55:08:109
8.879958129882812,3.7911603393554687,0.531504638671875,0.03304171272834241,0.030108063937078988,-0.019178126250635943,1.1399681568145752,2019-06-21 12:55:08:114
8.89671728515625,3.7732041015625,0.493197998046875,0.03250908051032656,0.029841747828071065,-0.019311284305139904,1.1449601650238037,2019-06-21 12:55:08:119
8.905096862792968,3.7767953491210937,0.497986328125,0.03184329023780675,0.02851016728303145,-0.017713387651092365,1.1499521732330322,2019-06-21 12:55:08:124
8.87756396484375,3.7552478637695312,0.46207385253906247,0.032775396619334485,0.02957543171906314,-0.017713387651092365,1.1549441814422607,2019-06-21 12:55:08:129
8.891928955078125,3.786372009277344,0.48960675048828123,0.031576974128798826,0.029708589773567103,-0.017979703760100288,1.1599361896514893,2019-06-21 12:55:08:134
8.903899780273438,3.7648245239257814,0.5338988037109375,0.031044341910782983,0.02864332533753541,-0.0175802295965884,1.1650562286376953,2019-06-21 12:55:08:139
8.879958129882812,3.7672186889648436,0.5171396484374999,0.0313106580197909,0.028377009228527487,-0.017979703760100288,1.1700479984283447,2019-06-21 12:55:08:144
8.888337707519531,3.7732041015625,0.493197998046875,0.031576974128798826,0.02851016728303145,-0.017846545705596326,1.1750400066375732,2019-06-21 12:55:08:149
8.887140625,3.788766174316406,0.5039717407226563,0.031044341910782983,0.029708589773567103,-0.018512335978116135,1.1800320148468018,2019-06-21 12:55:08:154
8.882352294921875,3.7755982666015626,0.5171396484374999,0.030778025801775053,0.02877648339203937,-0.01811286181460425,1.1850240230560303,2019-06-21 12:55:08:159
8.900308532714844,3.7791895141601564,0.5063659057617187,0.0313106580197909,0.028243851174023525,-0.018379177923612173,1.1900160312652588,2019-06-21 12:55:08:164
8.902702697753906,3.758839111328125,0.50756298828125,0.03064486774727109,0.028909641446543333,-0.018645494032620096,1.1950080394744873,2019-06-21 12:55:08:169
8.901505615234376,3.786372009277344,0.5159425659179687,0.031976448292310715,0.029841747828071065,-0.018778652087124058,1.2000000476837158,2019-06-21 12:55:08:174
8.881155212402344,3.797145751953125,0.5087600708007812,0.03210960634681467,0.02930911561005522,-0.018379177923612173,1.2049920558929443,2019-06-21 12:55:08:179
8.9062939453125,3.8103136596679685,0.5135484008789062,0.032775396619334485,0.02877648339203937,-0.019311284305139904,1.2099840641021729,2019-06-21 12:55:08:184
8.89671728515625,3.7947515869140624,0.521927978515625,0.03250908051032656,0.028377009228527487,-0.017846545705596326,1.2149760723114014,2019-06-21 12:55:08:189
8.893126037597655,3.8055253295898437,0.49918341064453126,0.0313106580197909,0.02851016728303145,-0.017979703760100288,1.2199680805206299,2019-06-21 12:55:08:194
8.893126037597655,3.7803865966796875,0.5482637939453124,0.0313106580197909,0.02851016728303145,-0.016648123215060668,1.2249600887298584,2019-06-21 12:55:08:199
8.908688110351562,3.760036193847656,0.5255192260742187,0.031576974128798826,0.02784437701051164,-0.017447071542084438,1.229952096939087,2019-06-21 12:55:08:204
8.903899780273438,3.78278076171875,0.49439508056640624,0.03250908051032656,0.02851016728303145,-0.017713387651092365,1.2349441051483154,2019-06-21 12:55:08:209
8.903899780273438,3.76362744140625,0.48960675048828123,0.0313106580197909,0.028909641446543333,-0.017447071542084438,1.2400641441345215,2019-06-21 12:55:08:214
8.909885192871094,3.7911603393554687,0.54586962890625,0.030911183856279015,0.02851016728303145,-0.017846545705596326,1.24505615234375,2019-06-21 12:55:08:219
8.913476440429687,3.806722412109375,0.5183367309570313,0.031576974128798826,0.027977535065015602,-0.018778652087124058,1.2500481605529785,2019-06-21 12:55:08:224
8.912279357910156,3.7815836791992186,0.47524176025390624,0.0313106580197909,0.028377009228527487,-0.018512335978116135,1.255040168762207,2019-06-21 12:55:08:229
8.918264770507813,3.7755982666015626,0.493197998046875,0.030378551638263168,0.028909641446543333,-0.017846545705596326,1.2600321769714355,2019-06-21 12:55:08:234
8.909885192871094,3.7851749267578123,0.4273584594726562,0.03051170969276713,0.02864332533753541,-0.018512335978116135,1.265024185180664,2019-06-21 12:55:08:239
8.879958129882812,3.787569091796875,0.4716505126953125,0.03064486774727109,0.02944227366455918,-0.018645494032620096,1.2700161933898926,2019-06-21 12:55:08:244
8.900308532714844,3.800736999511719,0.4955921630859375,0.030245393583759207,0.029708589773567103,-0.017447071542084438,1.275008201599121,2019-06-21 12:55:08:249
8.913476440429687,3.7815836791992186,0.502774658203125,0.030778025801775053,0.02864332533753541,-0.017979703760100288,1.2800002098083496,2019-06-21 12:55:08:254
8.913476440429687,3.7528536987304686,0.5159425659179687,0.030112235529255245,0.02930911561005522,-0.018512335978116135,1.2849922180175781,2019-06-21 12:55:08:259
8.913476440429687,3.7552478637695312,0.48242425537109374,0.02971276136574336,0.029841747828071065,-0.017846545705596326,1.2899842262268066,2019-06-21 12:55:08:264
8.930235595703126,3.78278076171875,0.49439508056640624,0.0295796033112394,0.03024122199158295,-0.017846545705596326,1.294975996017456,2019-06-21 12:55:08:269
8.912279357910156,3.7767953491210937,0.49200091552734376,0.030112235529255245,0.02877648339203937,-0.018379177923612173,1.2999680042266846,2019-06-21 12:55:08:274
8.932629760742188,3.7432770385742185,0.47045343017578123,0.02971276136574336,0.02851016728303145,-0.01811286181460425,1.304960012435913,2019-06-21 12:55:08:279
8.91706768798828,3.7516566162109375,0.502774658203125,0.029446445256735437,0.02851016728303145,-0.01904496819613198,1.3099520206451416,2019-06-21 12:55:08:284
8.912279357910156,3.7241237182617186,0.5291104736328125,0.030378551638263168,0.029042799501047295,-0.018778652087124058,1.3149440288543701,2019-06-21 12:55:08:289
8.897914367675781,3.745671203613281,0.5207308959960938,0.02984591942024732,0.02877648339203937,-0.019311284305139904,1.3199360370635986,2019-06-21 12:55:08:294
8.897914367675781,3.7480653686523437,0.5159425659179687,0.029979077474751283,0.02930911561005522,-0.019843916523155754,1.3250560760498047,2019-06-21 12:55:08:299
8.897914367675781,3.78278076171875,0.5015775756835937,0.030245393583759207,0.030773854209598796,-0.02024339068666764,1.3300480842590332,2019-06-21 12:55:08:304
8.914673522949219,3.7803865966796875,0.474044677734375,0.03171013218330279,0.03024122199158295,-0.021308655122699336,1.3350400924682617,2019-06-21 12:55:08:309
8.918264770507813,3.7432770385742185,0.5231250610351562,0.031976448292310715,0.029175957555551257,-0.022906551776746876,1.3400321006774902,2019-06-21 12:55:08:314
8.87876104736328,3.749262451171875,0.5554462890625,0.03210960634681467,0.029042799501047295,-0.02237391955873103,1.3450241088867188,2019-06-21 12:55:08:319
8.903899780273438,3.736094543457031,0.5482637939453124,0.03290855467383845,0.029175957555551257,-0.023039709831250837,1.3500161170959473,2019-06-21 12:55:08:324
8.91706768798828,3.749262451171875,0.5398842163085937,0.03330802883735033,0.02864332533753541,-0.02330602594025876,1.3550081253051758,2019-06-21 12:55:08:329
8.913476440429687,3.75405078125,0.5422783813476563,0.034373293273382025,0.029042799501047295,-0.023705500103770646,1.3600001335144043,2019-06-21 12:55:08:334
8.908688110351562,3.7612332763671876,0.5374900512695312,0.034373293273382025,0.03024122199158295,-0.025702870921330077,1.3649921417236328,2019-06-21 12:55:08:339
8.900308532714844,3.7672186889648436,0.5195338134765625,0.034240135218878066,0.028909641446543333,-0.025569712866826116,1.3699841499328613,2019-06-21 12:55:08:344
8.909885192871094,3.7660216064453125,0.5099571533203124,0.0341069771643741,0.029841747828071065,-0.024637606485298384,1.3749761581420898,2019-06-21 12:55:08:349
8.90749102783203,3.797145751953125,0.4955921630859375,0.0341069771643741,0.02944227366455918,-0.024637606485298384,1.3799681663513184,2019-06-21 12:55:08:354
8.887140625,3.777992431640625,0.5051688232421875,0.03503908562649644,0.029042799501047295,-0.025303396757818192,1.3849601745605469,2019-06-21 12:55:08:359
8.923053100585937,3.788766174316406,0.4908038330078125,0.034240135218878066,0.029974905882575027,-0.025436554812322154,1.3899521827697754,2019-06-21 12:55:08:364
8.913476440429687,3.817496154785156,0.47284759521484376,0.034240135218878066,0.029974905882575027,-0.025436554812322154,1.394944190979004,2019-06-21 12:55:08:369
8.93502392578125,3.7947515869140624,0.5207308959960938,0.034639609382389955,0.029841747828071065,-0.026102345084841962,1.3999361991882324,2019-06-21 12:55:08:374
8.920658935546875,3.7851749267578123,0.5135484008789062,0.03650382422604002,0.03037438004608691,-0.025702870921330077,1.4050559997558594,2019-06-21 12:55:08:379
8.900308532714844,3.786372009277344,0.5099571533203124,0.03490592549139788,0.030907012264102765,-0.026368661193849886,1.410048007965088,2019-06-21 12:55:08:384
8.889534790039063,3.80193408203125,0.5446725463867187,0.034639609382389955,0.030507538100590873,-0.025436554812322154,1.4150400161743164,2019-06-21 12:55:08:389
8.882352294921875,3.777992431640625,0.52671630859375,0.03450645132788599,0.03037438004608691,-0.02517023870331423,1.420032024383545,2019-06-21 12:55:08:394
8.905096862792968,3.7911603393554687,0.5207308959960938,0.0351722436810004,0.030507538100590873,-0.025436554812322154,1.4250240325927734,2019-06-21 12:55:08:399
8.870381469726562,3.8043282470703126,0.550657958984375,0.0351722436810004,0.03037438004608691,-0.02583602897583404,1.430016040802002,2019-06-21 12:55:08:404
8.91587060546875,3.7947515869140624,0.48003009033203126,0.035305401735504366,0.030108063937078988,-0.025569712866826116,1.4350080490112305,2019-06-21 12:55:08:409
8.903899780273438,3.7815836791992186,0.49439508056640624,0.03677014033504794,0.02957543171906314,-0.025702870921330077,1.440000057220459,2019-06-21 12:55:08:414
8.900308532714844,3.7755982666015626,0.445314697265625,0.035305401735504366,0.030773854209598796,-0.025303396757818192,1.4449920654296875,2019-06-21 12:55:08:419
8.909885192871094,3.7528536987304686,0.4764388427734375,0.0351722436810004,0.03143964448211861,-0.023838658158274607,1.449984073638916,2019-06-21 12:55:08:424
8.89552020263672,3.7767953491210937,0.4716505126953125,0.03477276743689391,0.03183911864563049,-0.024238132321786496,1.4549760818481445,2019-06-21 12:55:08:429
8.889534790039063,3.817496154785156,0.483621337890625,0.0351722436810004,0.031306486427614647,-0.024770764539802346,1.459968090057373,2019-06-21 12:55:08:434
8.887140625,3.7899632568359376,0.47284759521484376,0.03557171784451229,0.029841747828071065,-0.023838658158274607,1.4649600982666016,2019-06-21 12:55:08:439
8.897914367675781,3.7935545043945313,0.5003804931640625,0.03637066617153606,0.029841747828071065,-0.023439183994762722,1.46995210647583,2019-06-21 12:55:08:444
8.89552020263672,3.800736999511719,0.5147454833984375,0.03570487589901625,0.031705960591126535,-0.023439183994762722,1.4749441146850586,2019-06-21 12:55:08:449
8.87876104736328,3.8103136596679685,0.5338988037109375,0.03677014033504794,0.030507538100590873,-0.022240761504227068,1.479936122894287,2019-06-21 12:55:08:454
8.857213562011719,3.8043282470703126,0.5231250610351562,0.03650382422604002,0.031040170318606727,-0.021974445395219144,1.4850561618804932,2019-06-21 12:55:08:459
8.875169799804688,3.8246786499023435,0.502774658203125,0.036237508117032094,0.030907012264102765,-0.021974445395219144,1.4900481700897217,2019-06-21 12:55:08:464
8.882352294921875,3.829466979980469,0.5422783813476563,0.037036456444055864,0.03117332837311069,-0.02250707761323499,1.4950401782989502,2019-06-21 12:55:08:469
8.894323120117187,3.812707824707031,0.49918341064453126,0.03503908562649644,0.03024122199158295,-0.022240761504227068,1.5000321865081787,2019-06-21 12:55:08:474
8.879958129882812,3.827072814941406,0.5422783813476563,0.03450645132788599,0.030773854209598796,-0.022906551776746876,1.5050241947174072,2019-06-21 12:55:08:479
8.902702697753906,3.806722412109375,0.5338988037109375,0.03477276743689391,0.030907012264102765,-0.02157497123170726,1.5100162029266357,2019-06-21 12:55:08:484
8.899111450195312,3.815101989746094,0.4967892456054687,0.03477276743689391,0.031306486427614647,-0.019311284305139904,1.5150082111358643,2019-06-21 12:55:08:489
8.887140625,3.7911603393554687,0.5051688232421875,0.035438559790008324,0.030907012264102765,-0.01824601986910821,1.5200002193450928,2019-06-21 12:55:08:494
8.871578552246094,3.7995399169921873,0.4908038330078125,0.03490592549139788,0.03143964448211861,-0.019178126250635943,1.5249922275543213,2019-06-21 12:55:08:499
8.889534790039063,3.817496154785156,0.5039717407226563,0.03370750300086222,0.030907012264102765,-0.018778652087124058,1.5299839973449707,2019-06-21 12:55:08:504
8.902702697753906,3.80193408203125,0.5051688232421875,0.03503908562649644,0.031040170318606727,-0.017846545705596326,1.5349760055541992,2019-06-21 12:55:08:509
8.871578552246094,3.8043282470703126,0.5039717407226563,0.0341069771643741,0.031306486427614647,-0.016514965160556706,1.5399680137634277,2019-06-21 12:55:08:514
8.879958129882812,3.7959486694335935,0.5063659057617187,0.03370750300086222,0.030907012264102765,-0.015849174888036895,1.5449600219726562,2019-06-21 12:55:08:519
8.87876104736328,3.8186932373046876,0.4860155029296875,0.03330802883735033,0.031040170318606727,-0.016514965160556706,1.5499520301818848,2019-06-21 12:55:08:524
8.86679022216797,3.803131164550781,0.483621337890625,0.03304171272834241,0.031040170318606727,-0.016248649051548783,1.5549440383911133,2019-06-21 12:55:08:529
8.884746459960937,3.8079194946289063,0.4656651000976562,0.03171013218330279,0.03117332837311069,-0.01611549099704482,1.5600640773773193,2019-06-21 12:55:08:534
8.875169799804688,3.798342834472656,0.5087600708007812,0.03224276440131864,0.031705960591126535,-0.015183384615517085,1.5650560855865479,2019-06-21 12:55:08:539
8.89671728515625,3.7911603393554687,0.48721258544921875,0.03250908051032656,0.03117332837311069,-0.01558285877902897,1.5700480937957764,2019-06-21 12:55:08:544
8.903899780273438,3.8079194946289063,0.474044677734375,0.03250908051032656,0.03117332837311069,-0.0147839104520052,1.5750401020050049,2019-06-21 12:55:08:549
8.87876104736328,3.7851749267578123,0.48840966796874996,0.03290855467383845,0.030907012264102765,-0.014251278233989353,1.5800321102142334,2019-06-21 12:55:08:554
8.870381469726562,3.774401184082031,0.5303075561523437,0.033574344946358255,0.03024122199158295,-0.014118120179485391,1.585024118423462,2019-06-21 12:55:08:559
8.887140625,3.7708099365234373,0.5626287841796875,0.03330802883735033,0.030108063937078988,-0.014251278233989353,1.5900161266326904,2019-06-21 12:55:08:564
8.912279357910156,3.7732041015625,0.5386871337890625,0.03304171272834241,0.02930911561005522,-0.014251278233989353,1.595008134841919,2019-06-21 12:55:08:569
8.893126037597655,3.777992431640625,0.512351318359375,0.032375922455822596,0.030640696155094835,-0.01345232990696558,1.6000001430511475,2019-06-21 12:55:08:574
8.86679022216797,3.7995399169921873,0.5207308959960938,0.031976448292310715,0.03037438004608691,-0.01398496212498143,1.604992151260376,2019-06-21 12:55:08:579
8.889534790039063,3.7851749267578123,0.48960675048828123,0.03210960634681467,0.02930911561005522,-0.014650752397501238,1.6099841594696045,2019-06-21 12:55:08:584
8.912279357910156,3.7624303588867187,0.48242425537109374,0.03370750300086222,0.02957543171906314,-0.0147839104520052,1.614976167678833,2019-06-21 12:55:08:589
8.894323120117187,3.7528536987304686,0.5087600708007812,0.03264223856483052,0.02957543171906314,-0.014650752397501238,1.6199681758880615,2019-06-21 12:55:08:594
8.889534790039063,3.7803865966796875,0.5003804931640625,0.031576974128798826,0.029974905882575027,-0.0147839104520052,1.62496018409729,2019-06-21 12:55:08:599
8.873972717285156,3.798342834472656,0.5338988037109375,0.031976448292310715,0.029841747828071065,-0.013851804070477465,1.6299521923065186,2019-06-21 12:55:08:604
8.905096862792968,3.8043282470703126,0.5063659057617187,0.03224276440131864,0.02944227366455918,-0.014650752397501238,1.634944200515747,2019-06-21 12:55:08:609
8.884746459960937,3.7959486694335935,0.502774658203125,0.03250908051032656,0.02957543171906314,-0.015316542670021046,1.6399362087249756,2019-06-21 12:55:08:614
8.862001892089843,3.7660216064453125,0.5243221435546875,0.03210960634681467,0.03024122199158295,-0.016248649051548783,1.6450560092926025,2019-06-21 12:55:08:619
8.882352294921875,3.787569091796875,0.5243221435546875,0.03210960634681467,0.029708589773567103,-0.0147839104520052,1.650048017501831,2019-06-21 12:55:08:624
8.901505615234376,3.787569091796875,0.5303075561523437,0.030911183856279015,0.029175957555551257,-0.013851804070477465,1.6550400257110596,2019-06-21 12:55:08:629
8.909885192871094,3.8079194946289063,0.502774658203125,0.03064486774727109,0.02851016728303145,-0.01398496212498143,1.660032033920288,2019-06-21 12:55:08:634
8.903899780273438,3.803131164550781,0.49200091552734376,0.031044341910782983,0.028243851174023525,-0.014517594342997276,1.6650240421295166,2019-06-21 12:55:08:639
8.893126037597655,3.8079194946289063,0.4788330078125,0.03064486774727109,0.028909641446543333,-0.014384436288493315,1.6700160503387451,2019-06-21 12:55:08:644
8.903899780273438,3.8079194946289063,0.5039717407226563,0.030245393583759207,0.027578060901503717,-0.013319171852461618,1.6750080585479736,2019-06-21 12:55:08:649
8.887140625,3.7851749267578123,0.502774658203125,0.03051170969276713,0.028243851174023525,-0.013319171852461618,1.6800000667572021,2019-06-21 12:55:08:654
8.885943542480469,3.786372009277344,0.4584826049804687,0.030378551638263168,0.02877648339203937,-0.013851804070477465,1.6849920749664307,2019-06-21 12:55:08:659
8.903899780273438,3.7815836791992186,0.48003009033203126,0.03051170969276713,0.02877648339203937,-0.013052855743453695,1.6899840831756592,2019-06-21 12:55:08:664
8.901505615234376,3.798342834472656,0.4860155029296875,0.0295796033112394,0.02877648339203937,-0.012786539634445772,1.6949760913848877,2019-06-21 12:55:08:669
8.891928955078125,3.7815836791992186,0.45369427490234376,0.029313287202231475,0.028909641446543333,-0.014251278233989353,1.6999680995941162,2019-06-21 12:55:08:674
8.881155212402344,3.74447412109375,0.48840966796874996,0.030245393583759207,0.028909641446543333,-0.012253907416429925,1.7049601078033447,2019-06-21 12:55:08:679
8.926644348144531,3.7708099365234373,0.48721258544921875,0.03064486774727109,0.029042799501047295,-0.012919697688949733,1.7099521160125732,2019-06-21 12:55:08:684
8.903899780273438,3.769612854003906,0.4788330078125,0.030245393583759207,0.029974905882575027,-0.012520223525437848,1.7149441242218018,2019-06-21 12:55:08:689
8.891928955078125,3.7564449462890623,0.483621337890625,0.0313106580197909,0.029841747828071065,-0.012387065470933887,1.7199361324310303,2019-06-21 12:55:08:694
8.873972717285156,3.7432770385742185,0.502774658203125,0.03171013218330279,0.029708589773567103,-0.012253907416429925,1.7250561714172363,2019-06-21 12:55:08:699
8.894323120117187,3.7480653686523437,0.5159425659179687,0.03144381607429487,0.028909641446543333,-0.012919697688949733,1.7300481796264648,2019-06-21 12:55:08:704
8.905096862792968,3.7516566162109375,0.483621337890625,0.030378551638263168,0.02851016728303145,-0.01345232990696558,1.7350401878356934,2019-06-21 12:55:08:709
8.893126037597655,3.7528536987304686,0.49918341064453126,0.030778025801775053,0.02957543171906314,-0.014650752397501238,1.7400321960449219,2019-06-21 12:55:08:714
8.91587060546875,3.7337003784179688,0.4908038330078125,0.03144381607429487,0.029708589773567103,-0.014650752397501238,1.7450242042541504,2019-06-21 12:55:08:719
8.920658935546875,3.7528536987304686,0.5111542358398438,0.031177499965286945,0.03037438004608691,-0.014917068506509161,1.750016212463379,2019-06-21 12:55:08:724
8.90749102783203,3.7420799560546874,0.54586962890625,0.031177499965286945,0.030507538100590873,-0.014384436288493315,1.7550082206726074,2019-06-21 12:55:08:729
8.87876104736328,3.757642028808594,0.5111542358398438,0.03224276440131864,0.030640696155094835,-0.014650752397501238,1.760000228881836,2019-06-21 12:55:08:734
8.91706768798828,3.760036193847656,0.541081298828125,0.031576974128798826,0.029708589773567103,-0.01678128126956463,1.7649919986724854,2019-06-21 12:55:08:739
8.931432678222656,3.7660216064453125,0.5063659057617187,0.0313106580197909,0.03024122199158295,-0.017180755433076515,1.7699840068817139,2019-06-21 12:55:08:744
8.903899780273438,3.757642028808594,0.4860155029296875,0.03224276440131864,0.030507538100590873,-0.016248649051548783,1.7749760150909424,2019-06-21 12:55:08:749
8.921856018066405,3.7803865966796875,0.5135484008789062,0.03184329023780675,0.03024122199158295,-0.015716016833532933,1.779968023300171,2019-06-21 12:55:08:754
8.91706768798828,3.783977844238281,0.5051688232421875,0.03250908051032656,0.030907012264102765,-0.015183384615517085,1.7849600315093994,2019-06-21 12:55:08:759
8.91706768798828,3.7516566162109375,0.497986328125,0.03171013218330279,0.03117332837311069,-0.015183384615517085,1.789952039718628,2019-06-21 12:55:08:764
8.913476440429687,3.7420799560546874,0.5147454833984375,0.03210960634681467,0.03117332837311069,-0.015716016833532933,1.7949440479278564,2019-06-21 12:55:08:769
8.90749102783203,3.7708099365234373,0.4788330078125,0.031976448292310715,0.03237175086364634,-0.015716016833532933,1.799936056137085,2019-06-21 12:55:08:774
8.899111450195312,3.7624303588867187,0.5207308959960938,0.03250908051032656,0.030907012264102765,-0.016248649051548783,1.805056095123291,2019-06-21 12:55:08:779
8.908688110351562,3.7564449462890623,0.5279133911132813,0.03250908051032656,0.030773854209598796,-0.01678128126956463,1.8100481033325195,2019-06-21 12:55:08:784
8.912279357910156,3.768415771484375,0.5566433715820313,0.032775396619334485,0.030640696155094835,-0.016648123215060668,1.815040111541748,2019-06-21 12:55:08:789
8.912279357910156,3.7516566162109375,0.5327017211914062,0.03317487078284637,0.03117332837311069,-0.016648123215060668,1.8200321197509766,2019-06-21 12:55:08:794
8.92425018310547,3.758839111328125,0.5063659057617187,0.03317487078284637,0.030773854209598796,-0.016514965160556706,1.825024127960205,2019-06-21 12:55:08:799
8.894323120117187,3.78278076171875,0.512351318359375,0.03330802883735033,0.03024122199158295,-0.015849174888036895,1.8300161361694336,2019-06-21 12:55:08:804
8.911082275390624,3.769612854003906,0.5159425659179687,0.03330802883735033,0.030640696155094835,-0.015449700724525008,1.835008144378662,2019-06-21 12:55:08:809
8.92425018310547,3.8055253295898437,0.53629296875,0.034373293273382025,0.029974905882575027,-0.017313913487580476,1.8400001525878906,2019-06-21 12:55:08:814
8.923053100585937,3.7672186889648436,0.5422783813476563,0.03397381910987014,0.03037438004608691,-0.01691443932406859,1.8449921607971191,2019-06-21 12:55:08:819
8.925447265625,3.7851749267578123,0.5446725463867187,0.03384066105536618,0.029841747828071065,-0.01678128126956463,1.8499841690063477,2019-06-21 12:55:08:824
8.930235595703126,3.769612854003906,0.50756298828125,0.034639609382389955,0.029841747828071065,-0.0175802295965884,1.8549761772155762,2019-06-21 12:55:08:829
8.923053100585937,3.787569091796875,0.5039717407226563,0.03397381910987014,0.028909641446543333,-0.01598233294254086,1.8599681854248047,2019-06-21 12:55:08:834
8.903899780273438,3.7564449462890623,0.512351318359375,0.03384066105536618,0.028909641446543333,-0.01678128126956463,1.8649601936340332,2019-06-21 12:55:08:839
8.903899780273438,3.7552478637695312,0.52671630859375,0.03477276743689391,0.03117332837311069,-0.016514965160556706,1.8699522018432617,2019-06-21 12:55:08:844
8.897914367675781,3.792357421875,0.497986328125,0.03557171784451229,0.03037438004608691,-0.017047597378572553,1.8749442100524902,2019-06-21 12:55:08:849
8.893126037597655,3.788766174316406,0.5147454833984375,0.036104350062528136,0.030108063937078988,-0.01691443932406859,1.8800640106201172,2019-06-21 12:55:08:854
8.902702697753906,3.783977844238281,0.48840966796874996,0.036104350062528136,0.029974905882575027,-0.017180755433076515,1.8850560188293457,2019-06-21 12:55:08:859
8.882352294921875,3.7959486694335935,0.52671630859375,0.03570487589901625,0.029175957555551257,-0.017846545705596326,1.8900480270385742,2019-06-21 12:55:08:864
8.90749102783203,3.7672186889648436,0.5434754638671875,0.036237508117032094,0.029175957555551257,-0.017979703760100288,1.8950400352478027,2019-06-21 12:55:08:869
8.941009338378906,3.7708099365234373,0.5494608764648438,0.03597119200802417,0.02957543171906314,-0.018778652087124058,1.9000320434570312,2019-06-21 12:55:08:874
8.888337707519531,3.7624303588867187,0.53629296875,0.03597119200802417,0.029042799501047295,-0.017047597378572553,1.9050240516662598,2019-06-21 12:55:08:879
8.918264770507813,3.7612332763671876,0.5279133911132813,0.03597119200802417,0.02957543171906314,-0.017447071542084438,1.9100160598754883,2019-06-21 12:55:08:884
8.9062939453125,3.768415771484375,0.4848184204101562,0.03570487589901625,0.03037438004608691,-0.01811286181460425,1.9150080680847168,2019-06-21 12:55:08:889
8.925447265625,3.7755982666015626,0.4860155029296875,0.036237508117032094,0.029974905882575027,-0.018645494032620096,1.9200000762939453,2019-06-21 12:55:08:894
8.890731872558593,3.768415771484375,0.5350958862304688,0.03597119200802417,0.02957543171906314,-0.019710758468651793,1.9249920845031738,2019-06-21 12:55:08:899
8.901505615234376,3.7648245239257814,0.5291104736328125,0.034639609382389955,0.02944227366455918,-0.018379177923612173,1.9299840927124023,2019-06-21 12:55:08:904
8.92425018310547,3.7660216064453125,0.5231250610351562,0.03503908562649644,0.03037438004608691,-0.017846545705596326,1.9349761009216309,2019-06-21 12:55:08:909
8.914673522949219,3.797145751953125,0.5255192260742187,0.03450645132788599,0.029841747828071065,-0.017313913487580476,1.9399681091308594,2019-06-21 12:55:08:914
8.9062939453125,3.800736999511719,0.4584826049804687,0.034240135218878066,0.029974905882575027,-0.018512335978116135,1.944960117340088,2019-06-21 12:55:08:919
8.930235595703126,3.7911603393554687,0.4908038330078125,0.03304171272834241,0.02877648339203937,-0.019178126250635943,1.9499521255493164,2019-06-21 12:55:08:924
8.903899780273438,3.817496154785156,0.54586962890625,0.03224276440131864,0.02944227366455918,-0.01904496819613198,1.954944133758545,2019-06-21 12:55:08:929
8.894323120117187,3.803131164550781,0.4764388427734375,0.03264223856483052,0.02957543171906314,-0.018512335978116135,1.9599361419677734,2019-06-21 12:55:08:934
8.903899780273438,3.8103136596679685,0.493197998046875,0.032375922455822596,0.02944227366455918,-0.017180755433076515,1.9650561809539795,2019-06-21 12:55:08:939
8.91587060546875,3.798342834472656,0.5015775756835937,0.03210960634681467,0.028377009228527487,-0.016381807106052745,1.970048189163208,2019-06-21 12:55:08:944
8.920658935546875,3.80193408203125,0.4860155029296875,0.03184329023780675,0.028377009228527487,-0.016648123215060668,1.9750401973724365,2019-06-21 12:55:08:949
8.900308532714844,3.8055253295898437,0.4596796875,0.031976448292310715,0.02877648339203937,-0.01691443932406859,1.980032205581665,2019-06-21 12:55:08:954
8.899111450195312,3.7624303588867187,0.4788330078125,0.031177499965286945,0.02944227366455918,-0.017447071542084438,1.9850242137908936,2019-06-21 12:55:08:959
8.923053100585937,3.7648245239257814,0.493197998046875,0.031576974128798826,0.028243851174023525,-0.01611549099704482,1.990016222000122,2019-06-21 12:55:08:964
8.903899780273438,3.76362744140625,0.48242425537109374,0.031976448292310715,0.02771121895600768,-0.016648123215060668,1.9950079917907715,2019-06-21 12:55:08:969
8.90749102783203,3.7672186889648436,0.5039717407226563,0.030911183856279015,0.028110693119519563,-0.01598233294254086,2.0,2019-06-21 12:55:08:974
8.894323120117187,3.7672186889648436,0.5039717407226563,0.029446445256735437,0.02930911561005522,-0.015716016833532933,2.0049920082092285,2019-06-21 12:55:08:979
8.91587060546875,3.772007019042969,0.5135484008789062,0.029979077474751283,0.02957543171906314,-0.01611549099704482,2.009984016418457,2019-06-21 12:55:08:984
8.921856018066405,3.8091165771484374,0.5111542358398438,0.0295796033112394,0.02944227366455918,-0.017447071542084438,2.0149760246276855,2019-06-21 12:55:08:989
8.89552020263672,3.7672186889648436,0.5063659057617187,0.0295796033112394,0.029175957555551257,-0.017447071542084438,2.019968032836914,2019-06-21 12:55:08:994
8.87756396484375,3.76362744140625,0.5183367309570313,0.029180129147727513,0.030640696155094835,-0.017979703760100288,2.0249600410461426,2019-06-21 12:55:08:999
8.913476440429687,3.7564449462890623,0.5063659057617187,0.03064486774727109,0.03157280253662257,-0.017313913487580476,2.029952049255371,2019-06-21 12:55:09:004
8.899111450195312,3.7348974609375,0.5087600708007812,0.031177499965286945,0.031040170318606727,-0.017447071542084438,2.0349440574645996,2019-06-21 12:55:09:009
8.920658935546875,3.749262451171875,0.5147454833984375,0.030245393583759207,0.030507538100590873,-0.01824601986910821,2.039936065673828,2019-06-21 12:55:09:014
8.918264770507813,3.730109130859375,0.5039717407226563,0.030112235529255245,0.029841747828071065,-0.019710758468651793,2.045056104660034,2019-06-21 12:55:09:019
8.897914367675781,3.745671203613281,0.48840966796874996,0.030778025801775053,0.030108063937078988,-0.019710758468651793,2.0500481128692627,2019-06-21 12:55:09:024
8.899111450195312,3.7791895141601564,0.502774658203125,0.030112235529255245,0.030907012264102765,-0.01944444235964387,2.055040121078491,2019-06-21 12:55:09:029
8.9062939453125,3.7791895141601564,0.5039717407226563,0.03064486774727109,0.029841747828071065,-0.019710758468651793,2.0600321292877197,2019-06-21 12:55:09:034
8.908688110351562,3.7384887084960936,0.52671630859375,0.030911183856279015,0.029841747828071065,-0.01904496819613198,2.0650241374969482,2019-06-21 12:55:09:039
8.908688110351562,3.7516566162109375,0.5255192260742187,0.0313106580197909,0.02851016728303145,-0.019843916523155754,2.0700161457061768,2019-06-21 12:55:09:044
8.890731872558593,3.7372916259765625,0.5195338134765625,0.030778025801775053,0.027977535065015602,-0.021175497068195374,2.0750081539154053,2019-06-21 12:55:09:049
8.893126037597655,3.75405078125,0.4967892456054687,0.031044341910782983,0.028909641446543333,-0.022240761504227068,2.080000162124634,2019-06-21 12:55:09:054
8.911082275390624,3.7528536987304686,0.48242425537109374,0.032375922455822596,0.030640696155094835,-0.022107603449723106,2.0849921703338623,2019-06-21 12:55:09:059
8.908688110351562,3.7528536987304686,0.4860155029296875,0.03224276440131864,0.03037438004608691,-0.023439183994762722,2.089984178543091,2019-06-21 12:55:09:064
8.900308532714844,3.7648245239257814,0.5099571533203124,0.03264223856483052,0.02944227366455918,-0.023705500103770646,2.0949761867523193,2019-06-21 12:55:09:069
8.908688110351562,3.7624303588867187,0.5147454833984375,0.03290855467383845,0.030108063937078988,-0.02330602594025876,2.099968194961548,2019-06-21 12:55:09:074
8.890731872558593,3.760036193847656,0.541081298828125,0.03397381910987014,0.029841747828071065,-0.023971816212778572,2.1049602031707764,2019-06-21 12:55:09:079
8.900308532714844,3.731306213378906,0.5518550415039062,0.033441186891854296,0.029841747828071065,-0.024371290376290457,2.109952211380005,2019-06-21 12:55:09:084
8.914673522949219,3.7432770385742185,0.5350958862304688,0.034240135218878066,0.030507538100590873,-0.024637606485298384,2.1149442195892334,2019-06-21 12:55:09:089
8.891928955078125,3.7552478637695312,0.5147454833984375,0.0341069771643741,0.030907012264102765,-0.02503708064881027,2.119936227798462,2019-06-21 12:55:09:094
8.899111450195312,3.760036193847656,0.5446725463867187,0.034639609382389955,0.030640696155094835,-0.024903922594306308,2.125056028366089,2019-06-21 12:55:09:099
8.902702697753906,3.7612332763671876,0.50756298828125,0.035438559790008324,0.02851016728303145,-0.024371290376290457,2.1300480365753174,2019-06-21 12:55:09:104
8.899111450195312,3.746868286132812,0.5171396484374999,0.034373293273382025,0.029708589773567103,-0.024637606485298384,2.135040044784546,2019-06-21 12:55:09:109
8.899111450195312,3.757642028808594,0.50756298828125,0.033574344946358255,0.029974905882575027,-0.02503708064881027,2.1400320529937744,2019-06-21 12:55:09:114
8.902702697753906,3.7803865966796875,0.521927978515625,0.03503908562649644,0.030507538100590873,-0.024903922594306308,2.145024061203003,2019-06-21 12:55:09:119
8.897914367675781,3.8055253295898437,0.5135484008789062,0.035438559790008324,0.03024122199158295,-0.02503708064881027,2.1500160694122314,2019-06-21 12:55:09:124
8.890731872558593,3.7851749267578123,0.50756298828125,0.0341069771643741,0.03024122199158295,-0.025569712866826116,2.15500807762146,2019-06-21 12:55:09:129
8.9062939453125,3.7899632568359376,0.502774658203125,0.035438559790008324,0.03024122199158295,-0.025303396757818192,2.1600000858306885,2019-06-21 12:55:09:134
8.89671728515625,3.787569091796875,0.5051688232421875,0.03677014033504794,0.03037438004608691,-0.024770764539802346,2.164992094039917,2019-06-21 12:55:09:139
8.87756396484375,3.7911603393554687,0.4955921630859375,0.036104350062528136,0.029841747828071065,-0.023439183994762722,2.1699841022491455,2019-06-21 12:55:09:144
8.8679873046875,3.800736999511719,0.493197998046875,0.036104350062528136,0.029708589773567103,-0.024104974267282534,2.174976110458374,2019-06-21 12:55:09:149
8.893126037597655,3.783977844238281,0.5135484008789062,0.035438559790008324,0.02944227366455918,-0.0231728678857548,2.1799681186676025,2019-06-21 12:55:09:154
8.899111450195312,3.774401184082031,0.48960675048828123,0.03570487589901625,0.029175957555551257,-0.024104974267282534,2.184960126876831,2019-06-21 12:55:09:159
8.875169799804688,3.78278076171875,0.4764388427734375,0.03637066617153606,0.02957543171906314,-0.023705500103770646,2.1899521350860596,2019-06-21 12:55:09:164
8.897914367675781,3.7959486694335935,0.474044677734375,0.03677014033504794,0.02877648339203937,-0.023039709831250837,2.194944143295288,2019-06-21 12:55:09:169
8.885943542480469,3.788766174316406,0.5099571533203124,0.03650382422604002,0.029175957555551257,-0.023838658158274607,2.1999361515045166,2019-06-21 12:55:09:174
8.885943542480469,3.798342834472656,0.5171396484374999,0.03557171784451229,0.03024122199158295,-0.023039709831250837,2.2050561904907227,2019-06-21 12:55:09:179
8.875169799804688,3.788766174316406,0.48840966796874996,0.0351722436810004,0.02930911561005522,-0.021841287340715183,2.210048198699951,2019-06-21 12:55:09:184
8.881155212402344,3.800736999511719,0.5039717407226563,0.03490592549139788,0.029841747828071065,-0.021974445395219144,2.2150402069091797,2019-06-21 12:55:09:189
8.889534790039063,3.8282698974609373,0.48122717285156247,0.03490592549139788,0.029708589773567103,-0.021308655122699336,2.220032215118408,2019-06-21 12:55:09:194
8.879958129882812,3.792357421875,0.493197998046875,0.03503908562649644,0.030108063937078988,-0.021841287340715183,2.2250242233276367,2019-06-21 12:55:09:199
8.889534790039063,3.7995399169921873,0.5051688232421875,0.0341069771643741,0.03037438004608691,-0.020909180959187448,2.230015993118286,2019-06-21 12:55:09:204
8.879958129882812,3.7935545043945313,0.49439508056640624,0.034240135218878066,0.030640696155094835,-0.020642864850179524,2.2350080013275146,2019-06-21 12:55:09:209
8.87756396484375,3.7899632568359376,0.49200091552734376,0.03330802883735033,0.02944227366455918,-0.020642864850179524,2.240000009536743,2019-06-21 12:55:09:214
8.913476440429687,3.787569091796875,0.4967892456054687,0.032375922455822596,0.029708589773567103,-0.01944444235964387,2.2449920177459717,2019-06-21 12:55:09:219
8.914673522949219,3.80193408203125,0.5147454833984375,0.03224276440131864,0.029841747828071065,-0.019311284305139904,2.2499840259552,2019-06-21 12:55:09:224
8.900308532714844,3.783977844238281,0.49439508056640624,0.03250908051032656,0.029841747828071065,-0.01891181014162802,2.2549760341644287,2019-06-21 12:55:09:229
8.89552020263672,3.8103136596679685,0.5039717407226563,0.033441186891854296,0.030108063937078988,-0.018645494032620096,2.2599680423736572,2019-06-21 12:55:09:234
8.882352294921875,3.80193408203125,0.5039717407226563,0.033441186891854296,0.029175957555551257,-0.017180755433076515,2.2649600505828857,2019-06-21 12:55:09:239
8.912279357910156,3.8115107421875,0.46207385253906247,0.03290855467383845,0.029042799501047295,-0.01691443932406859,2.2699520587921143,2019-06-21 12:55:09:244
8.911082275390624,3.80193408203125,0.48960675048828123,0.03304171272834241,0.030507538100590873,-0.017979703760100288,2.2749440670013428,2019-06-21 12:55:09:249
8.894323120117187,3.8198903198242187,0.5039717407226563,0.03171013218330279,0.029841747828071065,-0.017846545705596326,2.2799360752105713,2019-06-21 12:55:09:254
8.933826843261718,3.8330582275390626,0.4716505126953125,0.031976448292310715,0.029841747828071065,-0.01691443932406859,2.2850561141967773,2019-06-21 12:55:09:259
8.925447265625,3.84024072265625,0.4572855224609375,0.03224276440131864,0.02944227366455918,-0.016514965160556706,2.290048122406006,2019-06-21 12:55:09:264
8.912279357910156,3.803131164550781,0.45010302734374996,0.03144381607429487,0.029042799501047295,-0.016381807106052745,2.2950401306152344,2019-06-21 12:55:09:269
8.933826843261718,3.7947515869140624,0.4848184204101562,0.030778025801775053,0.02944227366455918,-0.01598233294254086,2.300032138824463,2019-06-21 12:55:09:274
8.9062939453125,3.758839111328125,0.5195338134765625,0.031177499965286945,0.03024122199158295,-0.014917068506509161,2.3050241470336914,2019-06-21 12:55:09:279
8.894323120117187,3.788766174316406,0.5051688232421875,0.03064486774727109,0.029841747828071065,-0.0147839104520052,2.31001615524292,2019-06-21 12:55:09:284
8.887140625,3.7935545043945313,0.5243221435546875,0.02984591942024732,0.02944227366455918,-0.015183384615517085,2.3150081634521484,2019-06-21 12:55:09:289
8.905096862792968,3.80193408203125,0.502774658203125,0.029446445256735437,0.02944227366455918,-0.015849174888036895,2.320000171661377,2019-06-21 12:55:09:294
8.893126037597655,3.787569091796875,0.4967892456054687,0.029446445256735437,0.028909641446543333,-0.015316542670021046,2.3249921798706055,2019-06-21 12:55:09:299
8.902702697753906,3.798342834472656,0.4908038330078125,0.029180129147727513,0.030108063937078988,-0.014917068506509161,2.329984188079834,2019-06-21 12:55:09:304
8.899111450195312,3.787569091796875,0.4776359252929687,0.0295796033112394,0.029708589773567103,-0.015183384615517085,2.3349761962890625,2019-06-21 12:55:09:309
8.887140625,3.76362744140625,0.5063659057617187,0.03051170969276713,0.02957543171906314,-0.014650752397501238,2.3400959968566895,2019-06-21 12:55:09:314
8.909885192871094,3.750459533691406,0.502774658203125,0.029979077474751283,0.030108063937078988,-0.014384436288493315,2.3449602127075195,2019-06-21 12:55:09:319
8.905096862792968,3.7348974609375,0.5099571533203124,0.030245393583759207,0.03024122199158295,-0.016248649051548783,2.349952220916748,2019-06-21 12:55:09:324
8.900308532714844,3.721729553222656,0.4967892456054687,0.031044341910782983,0.031306486427614647,-0.016514965160556706,2.3549442291259766,2019-06-21 12:55:09:329
8.900308532714844,3.7612332763671876,0.5171396484374999,0.03144381607429487,0.02957543171906314,-0.017447071542084438,2.359935998916626,2019-06-21 12:55:09:334
8.885943542480469,3.745671203613281,0.5374900512695312,0.031177499965286945,0.02930911561005522,-0.017846545705596326,2.365056037902832,2019-06-21 12:55:09:339
8.893126037597655,3.7348974609375,0.48122717285156247,0.031576974128798826,0.029042799501047295,-0.017979703760100288,2.3700480461120605,2019-06-21 12:55:09:344
8.897914367675781,3.7516566162109375,0.5255192260742187,0.031976448292310715,0.030108063937078988,-0.018645494032620096,2.375040054321289,2019-06-21 12:55:09:349
8.90749102783203,3.757642028808594,0.5303075561523437,0.032375922455822596,0.029841747828071065,-0.0175802295965884,2.3800320625305176,2019-06-21 12:55:09:354
8.919461853027343,3.732503295898437,0.5303075561523437,0.032375922455822596,0.030507538100590873,-0.019710758468651793,2.385024070739746,2019-06-21 12:55:09:359
8.925447265625,3.7420799560546874,0.5147454833984375,0.032775396619334485,0.030640696155094835,-0.01891181014162802,2.3900160789489746,2019-06-21 12:55:09:364
8.921856018066405,3.746868286132812,0.5255192260742187,0.033441186891854296,0.030773854209598796,-0.02024339068666764,2.395008087158203,2019-06-21 12:55:09:369
8.912279357910156,3.788766174316406,0.48721258544921875,0.03304171272834241,0.030108063937078988,-0.021441813177203298,2.4000000953674316,2019-06-21 12:55:09:374
8.900308532714844,3.7803865966796875,0.5063659057617187,0.03290855467383845,0.02957543171906314,-0.020909180959187448,2.40499210357666,2019-06-21 12:55:09:379
8.9062939453125,3.7767953491210937,0.5099571533203124,0.03304171272834241,0.029841747828071065,-0.0203765487411716,2.4099841117858887,2019-06-21 12:55:09:384
8.899111450195312,3.786372009277344,0.5147454833984375,0.033441186891854296,0.02877648339203937,-0.020642864850179524,2.414976119995117,2019-06-21 12:55:09:389
8.908688110351562,3.8055253295898437,0.5039717407226563,0.03370750300086222,0.028909641446543333,-0.020509706795675563,2.4199681282043457,2019-06-21 12:55:09:394
8.884746459960937,3.797145751953125,0.52671630859375,0.03370750300086222,0.029841747828071065,-0.019843916523155754,2.424960136413574,2019-06-21 12:55:09:399
8.899111450195312,3.8198903198242187,0.5159425659179687,0.03317487078284637,0.030108063937078988,-0.019977074577659716,2.4299521446228027,2019-06-21 12:55:09:404
8.89671728515625,3.8115107421875,0.5147454833984375,0.03450645132788599,0.03157280253662257,-0.01944444235964387,2.4349441528320312,2019-06-21 12:55:09:409
8.881155212402344,3.8079194946289063,0.531504638671875,0.034240135218878066,0.03024122199158295,-0.01944444235964387,2.4399361610412598,2019-06-21 12:55:09:414
8.89671728515625,3.8103136596679685,0.5003804931640625,0.03370750300086222,0.029841747828071065,-0.01904496819613198,2.445056200027466,2019-06-21 12:55:09:419
8.911082275390624,3.854605712890625,0.5171396484374999,0.034373293273382025,0.030640696155094835,-0.019178126250635943,2.4500482082366943,2019-06-21 12:55:09:424
8.894323120117187,3.8198903198242187,0.5195338134765625,0.03397381910987014,0.02930911561005522,-0.018512335978116135,2.455040216445923,2019-06-21 12:55:09:429
8.90749102783203,3.786372009277344,0.4967892456054687,0.03450645132788599,0.030773854209598796,-0.01824601986910821,2.4600322246551514,2019-06-21 12:55:09:434
8.901505615234376,3.7803865966796875,0.454891357421875,0.0341069771643741,0.030507538100590873,-0.01904496819613198,2.465023994445801,2019-06-21 12:55:09:439
8.9062939453125,3.783977844238281,0.5039717407226563,0.034240135218878066,0.02957543171906314,-0.018379177923612173,2.4700160026550293,2019-06-21 12:55:09:444
8.920658935546875,3.786372009277344,0.5482637939453124,0.034240135218878066,0.03037438004608691,-0.019311284305139904,2.475008010864258,2019-06-21 12:55:09:449
8.918264770507813,3.803131164550781,0.53629296875,0.0341069771643741,0.03117332837311069,-0.018512335978116135,2.4800000190734863,2019-06-21 12:55:09:454
8.921856018066405,3.7995399169921873,0.4955921630859375,0.03450645132788599,0.030507538100590873,-0.017713387651092365,2.484992027282715,2019-06-21 12:55:09:459
8.894323120117187,3.8043282470703126,0.5183367309570313,0.033441186891854296,0.030773854209598796,-0.017713387651092365,2.4899840354919434,2019-06-21 12:55:09:464
8.923053100585937,3.7648245239257814,0.49918341064453126,0.03304171272834241,0.030108063937078988,-0.018379177923612173,2.494976043701172,2019-06-21 12:55:09:469
8.890731872558593,3.7708099365234373,0.4955921630859375,0.032775396619334485,0.029974905882575027,-0.0175802295965884,2.4999680519104004,2019-06-21 12:55:09:474
8.884746459960937,3.7791895141601564,0.48960675048828123,0.033574344946358255,0.03024122199158295,-0.017713387651092365,2.504960060119629,2019-06-21 12:55:09:479
8.897914367675781,3.768415771484375,0.4967892456054687,0.033441186891854296,0.031705960591126535,-0.017713387651092365,2.5099520683288574,2019-06-21 12:55:09:484
8.9062939453125,3.777992431640625,0.493197998046875,0.03264223856483052,0.03117332837311069,-0.017313913487580476,2.514944076538086,2019-06-21 12:55:09:489
8.914673522949219,3.783977844238281,0.5171396484374999,0.032775396619334485,0.02877648339203937,-0.017047597378572553,2.520064115524292,2019-06-21 12:55:09:494
8.905096862792968,3.78278076171875,0.5195338134765625,0.03250908051032656,0.02851016728303145,-0.017447071542084438,2.5250561237335205,2019-06-21 12:55:09:499
8.911082275390624,3.7899632568359376,0.4716505126953125,0.031576974128798826,0.029974905882575027,-0.017846545705596326,2.530048131942749,2019-06-21 12:55:09:504
8.905096862792968,3.7420799560546874,0.5291104736328125,0.031976448292310715,0.03024122199158295,-0.017447071542084438,2.5350401401519775,2019-06-21 12:55:09:509
8.879958129882812,3.769612854003906,0.5255192260742187,0.031976448292310715,0.029974905882575027,-0.01678128126956463,2.540032148361206,2019-06-21 12:55:09:514
8.901505615234376,3.7755982666015626,0.4967892456054687,0.031177499965286945,0.030507538100590873,-0.016648123215060668,2.5450241565704346,2019-06-21 12:55:09:519
8.888337707519531,3.7732041015625,0.5087600708007812,0.03184329023780675,0.030773854209598796,-0.017180755433076515,2.550016164779663,2019-06-21 12:55:09:524
8.902702697753906,3.777992431640625,0.5147454833984375,0.031976448292310715,0.03037438004608691,-0.017713387651092365,2.5550081729888916,2019-06-21 12:55:09:529
8.902702697753906,3.777992431640625,0.5051688232421875,0.03210960634681467,0.030108063937078988,-0.01678128126956463,2.56000018119812,2019-06-21 12:55:09:534
8.913476440429687,3.750459533691406,0.5243221435546875,0.03171013218330279,0.029841747828071065,-0.017447071542084438,2.5649921894073486,2019-06-21 12:55:09:539
8.908688110351562,3.786372009277344,0.5111542358398438,0.031976448292310715,0.030773854209598796,-0.018379177923612173,2.569984197616577,2019-06-21 12:55:09:544
8.9062939453125,3.7899632568359376,0.5087600708007812,0.03224276440131864,0.030773854209598796,-0.0175802295965884,2.5749762058258057,2019-06-21 12:55:09:549
8.90749102783203,3.786372009277344,0.5003804931640625,0.03184329023780675,0.031040170318606727,-0.017180755433076515,2.579968214035034,2019-06-21 12:55:09:554
8.923053100585937,3.78278076171875,0.4848184204101562,0.031576974128798826,0.030773854209598796,-0.01678128126956463,2.5849602222442627,2019-06-21 12:55:09:559
8.913476440429687,3.800736999511719,0.48122717285156247,0.03210960634681467,0.03037438004608691,-0.018379177923612173,2.589951992034912,2019-06-21 12:55:09:564
8.890731872558593,3.787569091796875,0.5231250610351562,0.03304171272834241,0.02957543171906314,-0.016648123215060668,2.5949440002441406,2019-06-21 12:55:09:569
8.920658935546875,3.7708099365234373,0.4716505126953125,0.03330802883735033,0.02877648339203937,-0.017313913487580476,2.599936008453369,2019-06-21 12:55:09:574
8.890731872558593,3.757642028808594,0.48840966796874996,0.0341069771643741,0.02851016728303145,-0.017180755433076515,2.605056047439575,2019-06-21 12:55:09:579
8.929038513183594,3.758839111328125,0.5195338134765625,0.032775396619334485,0.02944227366455918,-0.017180755433076515,2.6100480556488037,2019-06-21 12:55:09:584
8.897914367675781,3.7732041015625,0.5003804931640625,0.03250908051032656,0.029974905882575027,-0.01824601986910821,2.6150400638580322,2019-06-21 12:55:09:589
8.903899780273438,3.76362744140625,0.47524176025390624,0.03210960634681467,0.03143964448211861,-0.016514965160556706,2.6200320720672607,2019-06-21 12:55:09:594
8.923053100585937,3.7767953491210937,0.4656651000976562,0.031177499965286945,0.031040170318606727,-0.016248649051548783,2.6250240802764893,2019-06-21 12:55:09:599
8.908688110351562,3.7528536987304686,0.48242425537109374,0.032775396619334485,0.029974905882575027,-0.017447071542084438,2.6300160884857178,2019-06-21 12:55:09:604
8.911082275390624,3.758839111328125,0.5171396484374999,0.03330802883735033,0.031040170318606727,-0.017846545705596326,2.6350080966949463,2019-06-21 12:55:09:609
8.91587060546875,3.75405078125,0.5087600708007812,0.033574344946358255,0.030773854209598796,-0.017979703760100288,2.640000104904175,2019-06-21 12:55:09:614
8.908688110351562,3.745671203613281,0.48003009033203126,0.03317487078284637,0.029708589773567103,-0.017713387651092365,2.6449921131134033,2019-06-21 12:55:09:619
8.914673522949219,3.772007019042969,0.502774658203125,0.03317487078284637,0.030108063937078988,-0.017447071542084438,2.649984121322632,2019-06-21 12:55:09:624
8.90749102783203,3.769612854003906,0.5039717407226563,0.03264223856483052,0.030108063937078988,-0.018379177923612173,2.6549761295318604,2019-06-21 12:55:09:629
8.912279357910156,3.7767953491210937,0.5003804931640625,0.03184329023780675,0.029708589773567103,-0.01824601986910821,2.659968137741089,2019-06-21 12:55:09:634
8.925447265625,3.7672186889648436,0.5327017211914062,0.03317487078284637,0.030640696155094835,-0.017979703760100288,2.6649601459503174,2019-06-21 12:55:09:639
8.911082275390624,3.7420799560546874,0.5231250610351562,0.03370750300086222,0.030108063937078988,-0.018379177923612173,2.669952154159546,2019-06-21 12:55:09:644
8.890731872558593,3.768415771484375,0.5303075561523437,0.03304171272834241,0.030773854209598796,-0.01891181014162802,2.6749441623687744,2019-06-21 12:55:09:649
8.912279357910156,3.7755982666015626,0.5231250610351562,0.03330802883735033,0.029841747828071065,-0.01904496819613198,2.679936170578003,2019-06-21 12:55:09:654
8.884746459960937,3.774401184082031,0.5015775756835937,0.03304171272834241,0.02957543171906314,-0.020642864850179524,2.685056209564209,2019-06-21 12:55:09:659
8.903899780273438,3.7372916259765625,0.512351318359375,0.03370750300086222,0.02957543171906314,-0.01944444235964387,2.6900482177734375,2019-06-21 12:55:09:664
8.913476440429687,3.7372916259765625,0.5063659057617187,0.03397381910987014,0.030507538100590873,-0.018778652087124058,2.695040225982666,2019-06-21 12:55:09:669
8.913476440429687,3.783977844238281,0.5255192260742187,0.033574344946358255,0.02957543171906314,-0.01891181014162802,2.7000319957733154,2019-06-21 12:55:09:674
8.87876104736328,3.772007019042969,0.5398842163085937,0.03384066105536618,0.02851016728303145,-0.020909180959187448,2.705024003982544,2019-06-21 12:55:09:679
8.909885192871094,3.7672186889648436,0.5243221435546875,0.03397381910987014,0.02930911561005522,-0.0203765487411716,2.7100160121917725,2019-06-21 12:55:09:684
8.913476440429687,3.7851749267578123,0.48242425537109374,0.03384066105536618,0.029841747828071065,-0.02024339068666764,2.715008020401001,2019-06-21 12:55:09:689
8.921856018066405,3.7899632568359376,0.47524176025390624,0.03250908051032656,0.029974905882575027,-0.020110232632163678,2.7200000286102295,2019-06-21 12:55:09:694
8.909885192871094,3.8043282470703126,0.4584826049804687,0.03317487078284637,0.029841747828071065,-0.019311284305139904,2.724992036819458,2019-06-21 12:55:09:699
8.888337707519531,3.777992431640625,0.4848184204101562,0.03290855467383845,0.030108063937078988,-0.019178126250635943,2.7299840450286865,2019-06-21 12:55:09:704
8.858410644531249,3.8115107421875,0.47524176025390624,0.033441186891854296,0.029175957555551257,-0.01944444235964387,2.734976053237915,2019-06-21 12:55:09:709
8.929038513183594,3.812707824707031,0.47524176025390624,0.03250908051032656,0.030640696155094835,-0.019710758468651793,2.7399680614471436,2019-06-21 12:55:09:714
8.921856018066405,3.8043282470703126,0.5099571533203124,0.0341069771643741,0.03024122199158295,-0.019843916523155754,2.744960069656372,2019-06-21 12:55:09:719
8.87756396484375,3.8079194946289063,0.474044677734375,0.03317487078284637,0.030108063937078988,-0.018778652087124058,2.7499520778656006,2019-06-21 12:55:09:724
8.89671728515625,3.8210874023437498,0.48003009033203126,0.032775396619334485,0.030108063937078988,-0.01904496819613198,2.754944086074829,2019-06-21 12:55:09:729
8.927841430664062,3.806722412109375,0.45369427490234376,0.03250908051032656,0.029708589773567103,-0.01891181014162802,2.7599360942840576,2019-06-21 12:55:09:734
8.900308532714844,3.7815836791992186,0.4967892456054687,0.03304171272834241,0.030108063937078988,-0.019843916523155754,2.7650561332702637,2019-06-21 12:55:09:739
8.901505615234376,3.8055253295898437,0.5003804931640625,0.03317487078284637,0.030640696155094835,-0.019710758468651793,2.770048141479492,2019-06-21 12:55:09:744
8.901505615234376,3.7732041015625,0.5051688232421875,0.03370750300086222,0.03157280253662257,-0.019710758468651793,2.7750401496887207,2019-06-21 12:55:09:749
8.903899780273438,3.774401184082031,0.47284759521484376,0.033574344946358255,0.030507538100590873,-0.018645494032620096,2.780032157897949,2019-06-21 12:55:09:754
8.901505615234376,3.7732041015625,0.4908038330078125,0.03317487078284637,0.029042799501047295,-0.01811286181460425,2.7850241661071777,2019-06-21 12:55:09:759
8.902702697753906,3.760036193847656,0.5386871337890625,0.0313106580197909,0.029175957555551257,-0.018645494032620096,2.7900161743164062,2019-06-21 12:55:09:764
8.920658935546875,3.772007019042969,0.4967892456054687,0.03144381607429487,0.029708589773567103,-0.019311284305139904,2.7950081825256348,2019-06-21 12:55:09:769
8.93502392578125,3.78278076171875,0.4764388427734375,0.03184329023780675,0.029042799501047295,-0.02024339068666764,2.8000001907348633,2019-06-21 12:55:09:774
8.887140625,3.757642028808594,0.50756298828125,0.03171013218330279,0.03024122199158295,-0.019977074577659716,2.804992198944092,2019-06-21 12:55:09:779
8.903899780273438,3.7767953491210937,0.5183367309570313,0.03224276440131864,0.02877648339203937,-0.018512335978116135,2.8099842071533203,2019-06-21 12:55:09:784
8.89552020263672,3.7815836791992186,0.4776359252929687,0.03210960634681467,0.029042799501047295,-0.0203765487411716,2.814976215362549,2019-06-21 12:55:09:789
8.900308532714844,3.788766174316406,0.531504638671875,0.03264223856483052,0.02930911561005522,-0.01957760041414783,2.8199682235717773,2019-06-21 12:55:09:794
8.872775634765624,3.7815836791992186,0.5159425659179687,0.0313106580197909,0.02864332533753541,-0.020509706795675563,2.8249599933624268,2019-06-21 12:55:09:799
8.858410644531249,3.760036193847656,0.5291104736328125,0.03184329023780675,0.02877648339203937,-0.020509706795675563,2.8299520015716553,2019-06-21 12:55:09:804
8.872775634765624,3.7564449462890623,0.541081298828125,0.03171013218330279,0.03024122199158295,-0.019710758468651793,2.834944009780884,2019-06-21 12:55:09:809
8.91587060546875,3.750459533691406,0.550657958984375,0.03264223856483052,0.03024122199158295,-0.019311284305139904,2.84006404876709,2019-06-21 12:55:09:814
8.926644348144531,3.769612854003906,0.5422783813476563,0.03264223856483052,0.030640696155094835,-0.019843916523155754,2.8450560569763184,2019-06-21 12:55:09:819
8.89671728515625,3.746868286132812,0.4967892456054687,0.032775396619334485,0.02957543171906314,-0.02104233901369141,2.850048065185547,2019-06-21 12:55:09:824
8.894323120117187,3.75405078125,0.5183367309570313,0.03250908051032656,0.03024122199158295,-0.02157497123170726,2.8550400733947754,2019-06-21 12:55:09:829
8.901505615234376,3.75405078125,0.5338988037109375,0.03264223856483052,0.028909641446543333,-0.020776022904683486,2.860032081604004,2019-06-21 12:55:09:834
8.89552020263672,3.730109130859375,0.5015775756835937,0.03250908051032656,0.029175957555551257,-0.020642864850179524,2.8650240898132324,2019-06-21 12:55:09:839
8.902702697753906,3.730109130859375,0.5159425659179687,0.032375922455822596,0.02944227366455918,-0.020909180959187448,2.870016098022461,2019-06-21 12:55:09:844
8.884746459960937,3.745671203613281,0.4967892456054687,0.03264223856483052,0.029841747828071065,-0.02170812928621122,2.8750081062316895,2019-06-21 12:55:09:849
8.912279357910156,3.768415771484375,0.4764388427734375,0.032775396619334485,0.03024122199158295,-0.023039709831250837,2.880000114440918,2019-06-21 12:55:09:854
8.875169799804688,3.757642028808594,0.46087677001953126,0.03290855467383845,0.029708589773567103,-0.022773393722242914,2.8849921226501465,2019-06-21 12:55:09:859
8.865593139648437,3.769612854003906,0.474044677734375,0.03384066105536618,0.029175957555551257,-0.022640235667738953,2.889984130859375,2019-06-21 12:55:09:864
8.890731872558593,3.772007019042969,0.53629296875,0.03330802883735033,0.027977535065015602,-0.021841287340715183,2.8949761390686035,2019-06-21 12:55:09:869
8.908688110351562,3.7851749267578123,0.5327017211914062,0.032775396619334485,0.028243851174023525,-0.023572342049266684,2.899968147277832,2019-06-21 12:55:09:874
8.881155212402344,3.797145751953125,0.5566433715820313,0.03304171272834241,0.029708589773567103,-0.023039709831250837,2.9049601554870605,2019-06-21 12:55:09:879
8.87756396484375,3.7935545043945313,0.5243221435546875,0.03250908051032656,0.02957543171906314,-0.02330602594025876,2.909952163696289,2019-06-21 12:55:09:884
8.889534790039063,3.788766174316406,0.52671630859375,0.03304171272834241,0.02930911561005522,-0.022240761504227068,2.9149441719055176,2019-06-21 12:55:09:889
8.902702697753906,3.783977844238281,0.5087600708007812,0.03290855467383845,0.02930911561005522,-0.022773393722242914,2.919936180114746,2019-06-21 12:55:09:894
8.908688110351562,3.7947515869140624,0.47284759521484376,0.032775396619334485,0.029974905882575027,-0.023838658158274607,2.925056219100952,2019-06-21 12:55:09:899
8.90749102783203,3.8043282470703126,0.5015775756835937,0.031976448292310715,0.030108063937078988,-0.023039709831250837,2.9300482273101807,2019-06-21 12:55:09:904
8.889534790039063,3.792357421875,0.521927978515625,0.031976448292310715,0.02944227366455918,-0.0231728678857548,2.93503999710083,2019-06-21 12:55:09:909
8.91587060546875,3.792357421875,0.5051688232421875,0.03290855467383845,0.029708589773567103,-0.021841287340715183,2.9400320053100586,2019-06-21 12:55:09:914
8.891928955078125,3.7899632568359376,0.5015775756835937,0.03370750300086222,0.029841747828071065,-0.021308655122699336,2.945024013519287,2019-06-21 12:55:09:919
8.912279357910156,3.788766174316406,0.47284759521484376,0.03330802883735033,0.029841747828071065,-0.0203765487411716,2.9500160217285156,2019-06-21 12:55:09:924
8.893126037597655,3.8139049072265623,0.4860155029296875,0.032775396619334485,0.02864332533753541,-0.020776022904683486,2.955008029937744,2019-06-21 12:55:09:929
8.89671728515625,3.8139049072265623,0.5147454833984375,0.032775396619334485,0.027977535065015602,-0.019710758468651793,2.9600000381469727,2019-06-21 12:55:09:934
8.921856018066405,3.797145751953125,0.5099571533203124,0.03264223856483052,0.027977535065015602,-0.01957760041414783,2.964992046356201,2019-06-21 12:55:09:939
8.909885192871094,3.787569091796875,0.521927978515625,0.03317487078284637,0.02851016728303145,-0.018778652087124058,2.9699840545654297,2019-06-21 12:55:09:944
8.897914367675781,3.80193408203125,0.5087600708007812,0.03184329023780675,0.029841747828071065,-0.017713387651092365,2.974976062774658,2019-06-21 12:55:09:949
8.881155212402344,3.788766174316406,0.53629296875,0.03184329023780675,0.03037438004608691,-0.01691443932406859,2.9799680709838867,2019-06-21 12:55:09:954
8.887140625,3.8115107421875,0.50756298828125,0.03264223856483052,0.029175957555551257,-0.017313913487580476,2.9849600791931152,2019-06-21 12:55:09:959
8.87756396484375,3.825875732421875,0.502774658203125,0.03290855467383845,0.028909641446543333,-0.016514965160556706,2.9899520874023438,2019-06-21 12:55:09:964
8.871578552246094,3.8079194946289063,0.497986328125,0.03290855467383845,0.029042799501047295,-0.014517594342997276,2.9949440956115723,2019-06-21 12:55:09:969
8.87756396484375,3.798342834472656,0.483621337890625,0.03290855467383845,0.02877648339203937,-0.014517594342997276,2.999936103820801,2019-06-21 12:55:09:974
8.881155212402344,3.7959486694335935,0.48242425537109374,0.03250908051032656,0.029175957555551257,-0.01598233294254086,3.005056142807007,2019-06-21 12:55:09:979
8.894323120117187,3.7935545043945313,0.48721258544921875,0.031976448292310715,0.029042799501047295,-0.014517594342997276,3.0100481510162354,2019-06-21 12:55:09:984
8.913476440429687,3.817496154785156,0.4848184204101562,0.031976448292310715,0.027977535065015602,-0.014650752397501238,3.015040159225464,2019-06-21 12:55:09:989
8.899111450195312,3.7959486694335935,0.4967892456054687,0.03184329023780675,0.03024122199158295,-0.014118120179485391,3.0200321674346924,2019-06-21 12:55:09:994
8.893126037597655,3.7791895141601564,0.48960675048828123,0.03290855467383845,0.02957543171906314,-0.012919697688949733,3.025024175643921,2019-06-21 12:55:09:999
8.901505615234376,3.8198903198242187,0.5243221435546875,0.03171013218330279,0.02957543171906314,-0.01345232990696558,3.0300161838531494,2019-06-21 12:55:10:004
8.889534790039063,3.792357421875,0.502774658203125,0.031044341910782983,0.030640696155094835,-0.01345232990696558,3.035008192062378,2019-06-21 12:55:10:009
8.905096862792968,3.7815836791992186,0.50756298828125,0.030378551638263168,0.029841747828071065,-0.013718646015973503,3.0400002002716064,2019-06-21 12:55:10:014
8.87876104736328,3.787569091796875,0.5063659057617187,0.031044341910782983,0.029708589773567103,-0.013718646015973503,3.044992208480835,2019-06-21 12:55:10:019
8.911082275390624,3.8306640625,0.5147454833984375,0.031576974128798826,0.02930911561005522,-0.014118120179485391,3.0499842166900635,2019-06-21 12:55:10:024
8.912279357910156,3.812707824707031,0.4656651000976562,0.03224276440131864,0.029175957555551257,-0.014118120179485391,3.054976224899292,2019-06-21 12:55:10:029
8.903899780273438,3.800736999511719,0.4668621826171875,0.03210960634681467,0.029708589773567103,-0.01398496212498143,3.0599679946899414,2019-06-21 12:55:10:034
8.91706768798828,3.7851749267578123,0.47045343017578123,0.031576974128798826,0.030108063937078988,-0.012919697688949733,3.06496000289917,2019-06-21 12:55:10:039
8.913476440429687,3.7911603393554687,0.48003009033203126,0.031976448292310715,0.02944227366455918,-0.011854433252918036,3.0699520111083984,2019-06-21 12:55:10:044
8.938615173339844,3.787569091796875,0.5003804931640625,0.031044341910782983,0.030640696155094835,-0.01265338157994181,3.074944019317627,2019-06-21 12:55:10:049
8.89552020263672,3.758839111328125,0.5243221435546875,0.030112235529255245,0.029708589773567103,-0.013585487961469541,3.0799360275268555,2019-06-21 12:55:10:054
8.900308532714844,3.75405078125,0.52671630859375,0.03064486774727109,0.02944227366455918,-0.013718646015973503,3.0850560665130615,2019-06-21 12:55:10:059
8.9062939453125,3.783977844238281,0.5015775756835937,0.03144381607429487,0.030108063937078988,-0.012919697688949733,3.09004807472229,2019-06-21 12:55:10:064
8.901505615234376,3.788766174316406,0.4908038330078125,0.03171013218330279,0.03024122199158295,-0.012387065470933887,3.0950400829315186,2019-06-21 12:55:10:069
8.900308532714844,3.7935545043945313,0.5003804931640625,0.031976448292310715,0.030640696155094835,-0.01212074936192596,3.100032091140747,2019-06-21 12:55:10:074
8.909885192871094,3.777992431640625,0.5159425659179687,0.030378551638263168,0.03037438004608691,-0.013186013797957656,3.1050240993499756,2019-06-21 12:55:10:079
8.893126037597655,3.7648245239257814,0.512351318359375,0.03144381607429487,0.029974905882575027,-0.012919697688949733,3.110016107559204,2019-06-21 12:55:10:084
8.897914367675781,3.730109130859375,0.48122717285156247,0.03210960634681467,0.030773854209598796,-0.012520223525437848,3.1150081157684326,2019-06-21 12:55:10:089
8.897914367675781,3.7372916259765625,0.48721258544921875,0.03171013218330279,0.030907012264102765,-0.014517594342997276,3.120000123977661,2019-06-21 12:55:10:094
8.897914367675781,3.769612854003906,0.49918341064453126,0.03224276440131864,0.03037438004608691,-0.014118120179485391,3.1249921321868896,2019-06-21 12:55:10:099
8.908688110351562,3.7815836791992186,0.5422783813476563,0.031976448292310715,0.029708589773567103,-0.012520223525437848,3.129984140396118,2019-06-21 12:55:10:104
8.926644348144531,3.760036193847656,0.497986328125,0.031576974128798826,0.030907012264102765,-0.01345232990696558,3.1349761486053467,2019-06-21 12:55:10:109
8.89671728515625,3.7384887084960936,0.48960675048828123,0.031976448292310715,0.030640696155094835,-0.014118120179485391,3.139968156814575,2019-06-21 12:55:10:114
8.911082275390624,3.7755982666015626,0.4572855224609375,0.03210960634681467,0.03024122199158295,-0.014251278233989353,3.1449601650238037,2019-06-21 12:55:10:119
8.903899780273438,3.7755982666015626,0.45608843994140624,0.03304171272834241,0.030773854209598796,-0.014517594342997276,3.1499521732330322,2019-06-21 12:55:10:124
8.923053100585937,3.777992431640625,0.5195338134765625,0.03250908051032656,0.031705960591126535,-0.015183384615517085,3.1549441814422607,2019-06-21 12:55:10:129
8.890731872558593,3.757642028808594,0.4788330078125,0.03290855467383845,0.031040170318606727,-0.014650752397501238,3.1599361896514893,2019-06-21 12:55:10:134
8.899111450195312,3.768415771484375,0.5087600708007812,0.03224276440131864,0.031705960591126535,-0.013851804070477465,3.1650562286376953,2019-06-21 12:55:10:139
8.882352294921875,3.75405078125,0.5183367309570313,0.032775396619334485,0.030507538100590873,-0.014118120179485391,3.1700479984283447,2019-06-21 12:55:10:144
8.92425018310547,3.7755982666015626,0.541081298828125,0.032775396619334485,0.030640696155094835,-0.013851804070477465,3.1750400066375732,2019-06-21 12:55:10:149
8.89671728515625,3.760036193847656,0.5255192260742187,0.03290855467383845,0.030907012264102765,-0.016514965160556706,3.1800320148468018,2019-06-21 12:55:10:154
8.918264770507813,3.750459533691406,0.5231250610351562,0.0341069771643741,0.030907012264102765,-0.017313913487580476,3.1850240230560303,2019-06-21 12:55:10:159
8.931432678222656,3.774401184082031,0.483621337890625,0.034373293273382025,0.030640696155094835,-0.017313913487580476,3.190016031265259,2019-06-21 12:55:10:164
8.929038513183594,3.736094543457031,0.46925634765625,0.034240135218878066,0.029974905882575027,-0.017180755433076515,3.1950080394744873,2019-06-21 12:55:10:169
8.903899780273438,3.74447412109375,0.48721258544921875,0.03330802883735033,0.030108063937078988,-0.01678128126956463,3.200000047683716,2019-06-21 12:55:10:174
8.911082275390624,3.7516566162109375,0.512351318359375,0.033574344946358255,0.029841747828071065,-0.017047597378572553,3.2049920558929443,2019-06-21 12:55:10:179
8.893126037597655,3.7420799560546874,0.4656651000976562,0.033574344946358255,0.029708589773567103,-0.0175802295965884,3.209984064102173,2019-06-21 12:55:10:184
8.908688110351562,3.758839111328125,0.464468017578125,0.03503908562649644,0.029974905882575027,-0.017979703760100288,3.2149760723114014,2019-06-21 12:55:10:189
8.9062939453125,3.74447412109375,0.5015775756835937,0.034639609382389955,0.029974905882575027,-0.0175802295965884,3.21996808052063,2019-06-21 12:55:10:194
8.932629760742188,3.7528536987304686,0.54586962890625,0.03450645132788599,0.03024122199158295,-0.019977074577659716,3.2249600887298584,2019-06-21 12:55:10:199
8.914673522949219,3.746868286132812,0.5374900512695312,0.03384066105536618,0.03157280253662257,-0.01944444235964387,3.229952096939087,2019-06-21 12:55:10:204
8.91706768798828,3.7708099365234373,0.48721258544921875,0.034639609382389955,0.03117332837311069,-0.01957760041414783,3.2349441051483154,2019-06-21 12:55:10:209
8.912279357910156,3.76362744140625,0.4848184204101562,0.03397381910987014,0.03143964448211861,-0.01944444235964387,3.239936113357544,2019-06-21 12:55:10:214
8.893126037597655,3.757642028808594,0.497986328125,0.0341069771643741,0.030773854209598796,-0.019843916523155754,3.24505615234375,2019-06-21 12:55:10:219
8.869184387207032,3.758839111328125,0.5231250610351562,0.033441186891854296,0.03037438004608691,-0.019178126250635943,3.2500481605529785,2019-06-21 12:55:10:224
8.869184387207032,3.7767953491210937,0.541081298828125,0.03397381910987014,0.03024122199158295,-0.018645494032620096,3.255040168762207,2019-06-21 12:55:10:229
8.901505615234376,3.7624303588867187,0.4955921630859375,0.0341069771643741,0.031705960591126535,-0.01904496819613198,3.2600321769714355,2019-06-21 12:55:10:234
8.894323120117187,3.7660216064453125,0.5303075561523437,0.03503908562649644,0.03037438004608691,-0.019311284305139904,3.265024185180664,2019-06-21 12:55:10:239
8.893126037597655,3.7648245239257814,0.5231250610351562,0.034373293273382025,0.03157280253662257,-0.01957760041414783,3.2700161933898926,2019-06-21 12:55:10:244
8.899111450195312,3.7767953491210937,0.48840966796874996,0.03450645132788599,0.03117332837311069,-0.019710758468651793,3.275008201599121,2019-06-21 12:55:10:249
8.926644348144531,3.760036193847656,0.47524176025390624,0.0341069771643741,0.030773854209598796,-0.01957760041414783,3.2800002098083496,2019-06-21 12:55:10:254
8.919461853027343,3.7624303588867187,0.46087677001953126,0.03397381910987014,0.02877648339203937,-0.019977074577659716,3.284992218017578,2019-06-21 12:55:10:259
8.919461853027343,3.760036193847656,0.497986328125,0.03370750300086222,0.028909641446543333,-0.019311284305139904,3.2899842262268066,2019-06-21 12:55:10:264
8.91587060546875,3.769612854003906,0.5051688232421875,0.03370750300086222,0.03037438004608691,-0.01944444235964387,3.294975996017456,2019-06-21 12:55:10:269
8.89671728515625,3.750459533691406,0.5207308959960938,0.03184329023780675,0.030108063937078988,-0.0203765487411716,3.2999680042266846,2019-06-21 12:55:10:274
8.91587060546875,3.7648245239257814,0.50756298828125,0.031576974128798826,0.02930911561005522,-0.020110232632163678,3.304960012435913,2019-06-21 12:55:10:279
8.89552020263672,3.757642028808594,0.5255192260742187,0.03210960634681467,0.02944227366455918,-0.0203765487411716,3.3099520206451416,2019-06-21 12:55:10:284
8.909885192871094,3.745671203613281,0.5494608764648438,0.03264223856483052,0.030773854209598796,-0.020509706795675563,3.31494402885437,2019-06-21 12:55:10:289
8.873972717285156,3.774401184082031,0.502774658203125,0.03250908051032656,0.03037438004608691,-0.021974445395219144,3.320064067840576,2019-06-21 12:55:10:294
8.869184387207032,3.768415771484375,0.50756298828125,0.03384066105536618,0.029708589773567103,-0.02104233901369141,3.3250560760498047,2019-06-21 12:55:10:299
8.894323120117187,3.7851749267578123,0.531504638671875,0.03304171272834241,0.02957543171906314,-0.021175497068195374,3.330048084259033,2019-06-21 12:55:10:304
8.87756396484375,3.787569091796875,0.5422783813476563,0.03250908051032656,0.02957543171906314,-0.021308655122699336,3.3350400924682617,2019-06-21 12:55:10:309
8.903899780273438,3.7815836791992186,0.5291104736328125,0.031976448292310715,0.029708589773567103,-0.02170812928621122,3.3400321006774902,2019-06-21 12:55:10:314
8.911082275390624,3.7552478637695312,0.4788330078125,0.032375922455822596,0.02930911561005522,-0.02104233901369141,3.3450241088867188,2019-06-21 12:55:10:319
8.893126037597655,3.7564449462890623,0.4955921630859375,0.03317487078284637,0.02864332533753541,-0.022107603449723106,3.3500161170959473,2019-06-21 12:55:10:324
8.89671728515625,3.7755982666015626,0.5015775756835937,0.03304171272834241,0.029042799501047295,-0.021841287340715183,3.355008125305176,2019-06-21 12:55:10:329
8.901505615234376,3.7851749267578123,0.531504638671875,0.032775396619334485,0.029974905882575027,-0.020776022904683486,3.3600001335144043,2019-06-21 12:55:10:334
8.89671728515625,3.788766174316406,0.521927978515625,0.032775396619334485,0.02851016728303145,-0.022240761504227068,3.364992141723633,2019-06-21 12:55:10:339
8.914673522949219,3.786372009277344,0.493197998046875,0.03264223856483052,0.027977535065015602,-0.022240761504227068,3.3699841499328613,2019-06-21 12:55:10:344
8.909885192871094,3.7755982666015626,0.49200091552734376,0.03264223856483052,0.02851016728303145,-0.021441813177203298,3.37497615814209,2019-06-21 12:55:10:349
8.901505615234376,3.772007019042969,0.5255192260742187,0.03250908051032656,0.02877648339203937,-0.021308655122699336,3.3799681663513184,2019-06-21 12:55:10:354
8.890731872558593,3.769612854003906,0.502774658203125,0.03264223856483052,0.029974905882575027,-0.021175497068195374,3.384960174560547,2019-06-21 12:55:10:359
8.899111450195312,3.7959486694335935,0.5099571533203124,0.032775396619334485,0.030108063937078988,-0.020909180959187448,3.3899521827697754,2019-06-21 12:55:10:364
8.911082275390624,3.757642028808594,0.5434754638671875,0.032775396619334485,0.02957543171906314,-0.020909180959187448,3.394944190979004,2019-06-21 12:55:10:369
8.92425018310547,3.772007019042969,0.5434754638671875,0.03210960634681467,0.028909641446543333,-0.021441813177203298,3.3999361991882324,2019-06-21 12:55:10:374
8.889534790039063,3.7672186889648436,0.531504638671875,0.03250908051032656,0.02877648339203937,-0.021841287340715183,3.4050559997558594,2019-06-21 12:55:10:379
8.876366882324218,3.772007019042969,0.48721258544921875,0.03250908051032656,0.028110693119519563,-0.021441813177203298,3.410048007965088,2019-06-21 12:55:10:384
8.909885192871094,3.786372009277344,0.5051688232421875,0.031576974128798826,0.029042799501047295,-0.021441813177203298,3.4150400161743164,2019-06-21 12:55:10:389
8.927841430664062,3.786372009277344,0.50756298828125,0.03264223856483052,0.02944227366455918,-0.021841287340715183,3.420032024383545,2019-06-21 12:55:10:394
8.933826843261718,3.78278076171875,0.483621337890625,0.03184329023780675,0.02957543171906314,-0.019977074577659716,3.4250240325927734,2019-06-21 12:55:10:399
8.920658935546875,3.7624303588867187,0.4908038330078125,0.03210960634681467,0.030108063937078988,-0.0203765487411716,3.430016040802002,2019-06-21 12:55:10:404
8.905096862792968,3.7791895141601564,0.5422783813476563,0.03250908051032656,0.030108063937078988,-0.02104233901369141,3.4350080490112305,2019-06-21 12:55:10:409
8.897914367675781,3.7803865966796875,0.5183367309570313,0.03264223856483052,0.02864332533753541,-0.022240761504227068,3.440000057220459,2019-06-21 12:55:10:414
8.901505615234376,3.7755982666015626,0.5159425659179687,0.03330802883735033,0.028377009228527487,-0.021441813177203298,3.4449920654296875,2019-06-21 12:55:10:419
8.89671728515625,3.7708099365234373,0.497986328125,0.033441186891854296,0.02957543171906314,-0.020642864850179524,3.449984073638916,2019-06-21 12:55:10:424
8.903899780273438,3.7552478637695312,0.5530521240234375,0.03330802883735033,0.03024122199158295,-0.019843916523155754,3.4549760818481445,2019-06-21 12:55:10:429
8.918264770507813,3.7767953491210937,0.5087600708007812,0.033574344946358255,0.02851016728303145,-0.020509706795675563,3.459968090057373,2019-06-21 12:55:10:434
8.899111450195312,3.800736999511719,0.5386871337890625,0.032775396619334485,0.03024122199158295,-0.0203765487411716,3.4649600982666016,2019-06-21 12:55:10:439
8.887140625,3.7899632568359376,0.5051688232421875,0.03330802883735033,0.029708589773567103,-0.018512335978116135,3.46995210647583,2019-06-21 12:55:10:444
8.89671728515625,3.80193408203125,0.49200091552734376,0.03370750300086222,0.02957543171906314,-0.019710758468651793,3.4749441146850586,2019-06-21 12:55:10:449
8.913476440429687,3.7815836791992186,0.483621337890625,0.03290855467383845,0.030773854209598796,-0.019311284305139904,3.479936122894287,2019-06-21 12:55:10:454
8.914673522949219,3.7995399169921873,0.4955921630859375,0.03304171272834241,0.03024122199158295,-0.019710758468651793,3.485056161880493,2019-06-21 12:55:10:459
8.887140625,3.7911603393554687,0.46327093505859374,0.03250908051032656,0.029708589773567103,-0.02024339068666764,3.4900481700897217,2019-06-21 12:55:10:464
8.897914367675781,3.786372009277344,0.497986328125,0.03224276440131864,0.029708589773567103,-0.020110232632163678,3.49504017829895,2019-06-21 12:55:10:469
8.919461853027343,3.7851749267578123,0.5303075561523437,0.03290855467383845,0.030640696155094835,-0.01944444235964387,3.5000321865081787,2019-06-21 12:55:10:474
8.905096862792968,3.7803865966796875,0.49918341064453126,0.03210960634681467,0.03143964448211861,-0.019311284305139904,3.5050241947174072,2019-06-21 12:55:10:479
8.891928955078125,3.786372009277344,0.49918341064453126,0.03330802883735033,0.029841747828071065,-0.019710758468651793,3.5100162029266357,2019-06-21 12:55:10:484
8.905096862792968,3.787569091796875,0.5135484008789062,0.03370750300086222,0.030640696155094835,-0.019977074577659716,3.5150082111358643,2019-06-21 12:55:10:489
8.890731872558593,3.7612332763671876,0.5087600708007812,0.033574344946358255,0.030507538100590873,-0.020642864850179524,3.5200002193450928,2019-06-21 12:55:10:494
8.881155212402344,3.7648245239257814,0.4596796875,0.03370750300086222,0.031306486427614647,-0.0203765487411716,3.5249922275543213,2019-06-21 12:55:10:499
8.89552020263672,3.7851749267578123,0.48122717285156247,0.0341069771643741,0.03143964448211861,-0.020509706795675563,3.5299839973449707,2019-06-21 12:55:10:504
8.941009338378906,3.7851749267578123,0.50756298828125,0.03370750300086222,0.03024122199158295,-0.020509706795675563,3.534976005554199,2019-06-21 12:55:10:509
8.930235595703126,3.7732041015625,0.54586962890625,0.033574344946358255,0.029841747828071065,-0.020909180959187448,3.5399680137634277,2019-06-21 12:55:10:514
8.912279357910156,3.7480653686523437,0.483621337890625,0.033441186891854296,0.029974905882575027,-0.021441813177203298,3.5449600219726562,2019-06-21 12:55:10:519
8.891928955078125,3.774401184082031,0.4955921630859375,0.03370750300086222,0.03024122199158295,-0.021308655122699336,3.5499520301818848,2019-06-21 12:55:10:524
8.888337707519531,3.7528536987304686,0.5159425659179687,0.03370750300086222,0.030507538100590873,-0.0203765487411716,3.5549440383911133,2019-06-21 12:55:10:529
8.902702697753906,3.768415771484375,0.5099571533203124,0.033441186891854296,0.03117332837311069,-0.020909180959187448,3.559936046600342,2019-06-21 12:55:10:534
8.897914367675781,3.7791895141601564,0.521927978515625,0.03330802883735033,0.030907012264102765,-0.0203765487411716,3.565056085586548,2019-06-21 12:55:10:539
8.902702697753906,3.768415771484375,0.50756298828125,0.03330802883735033,0.029974905882575027,-0.021308655122699336,3.5700480937957764,2019-06-21 12:55:10:544
8.908688110351562,3.78278076171875,0.5386871337890625,0.033574344946358255,0.02944227366455918,-0.021441813177203298,3.575040102005005,2019-06-21 12:55:10:549
8.890731872558593,3.787569091796875,0.5135484008789062,0.03330802883735033,0.029974905882575027,-0.021308655122699336,3.5800321102142334,2019-06-21 12:55:10:554
8.889534790039063,3.800736999511719,0.49200091552734376,0.03317487078284637,0.031040170318606727,-0.021308655122699336,3.585024118423462,2019-06-21 12:55:10:559
8.894323120117187,3.831861145019531,0.497986328125,0.033574344946358255,0.030507538100590873,-0.02170812928621122,3.5900161266326904,2019-06-21 12:55:10:564
8.884746459960937,3.7995399169921873,0.48721258544921875,0.033441186891854296,0.030773854209598796,-0.020909180959187448,3.595008134841919,2019-06-21 12:55:10:569
8.879958129882812,3.798342834472656,0.5003804931640625,0.03370750300086222,0.03117332837311069,-0.020909180959187448,3.6000001430511475,2019-06-21 12:55:10:574
8.900308532714844,3.78278076171875,0.47524176025390624,0.0341069771643741,0.030773854209598796,-0.020642864850179524,3.604992151260376,2019-06-21 12:55:10:579
8.885943542480469,3.777992431640625,0.49918341064453126,0.03384066105536618,0.030507538100590873,-0.020110232632163678,3.6099841594696045,2019-06-21 12:55:10:584
8.89671728515625,3.7767953491210937,0.5087600708007812,0.032775396619334485,0.029841747828071065,-0.019843916523155754,3.614976167678833,2019-06-21 12:55:10:589
8.876366882324218,3.80193408203125,0.512351318359375,0.033441186891854296,0.029042799501047295,-0.01904496819613198,3.6199681758880615,2019-06-21 12:55:10:594
8.902702697753906,3.7815836791992186,0.5243221435546875,0.03370750300086222,0.029974905882575027,-0.01904496819613198,3.62496018409729,2019-06-21 12:55:10:599
8.912279357910156,3.783977844238281,0.5303075561523437,0.03370750300086222,0.031306486427614647,-0.019178126250635943,3.6299521923065186,2019-06-21 12:55:10:604
8.91706768798828,3.8079194946289063,0.49439508056640624,0.03397381910987014,0.03143964448211861,-0.01957760041414783,3.634944200515747,2019-06-21 12:55:10:609
8.900308532714844,3.7899632568359376,0.5159425659179687,0.032775396619334485,0.030507538100590873,-0.018379177923612173,3.6399362087249756,2019-06-21 12:55:10:614
8.899111450195312,3.80193408203125,0.5003804931640625,0.03304171272834241,0.030507538100590873,-0.019311284305139904,3.6450560092926025,2019-06-21 12:55:10:619
8.89671728515625,3.7899632568359376,0.5099571533203124,0.033574344946358255,0.03024122199158295,-0.019843916523155754,3.650048017501831,2019-06-21 12:55:10:624
8.885943542480469,3.7899632568359376,0.49918341064453126,0.03264223856483052,0.029974905882575027,-0.019311284305139904,3.6550400257110596,2019-06-21 12:55:10:629
8.897914367675781,3.7767953491210937,0.5099571533203124,0.03264223856483052,0.029974905882575027,-0.017313913487580476,3.660032033920288,2019-06-21 12:55:10:634
8.89552020263672,3.7708099365234373,0.49439508056640624,0.03317487078284637,0.02944227366455918,-0.017979703760100288,3.6650240421295166,2019-06-21 12:55:10:639
8.905096862792968,3.7899632568359376,0.474044677734375,0.03304171272834241,0.030640696155094835,-0.01944444235964387,3.670016050338745,2019-06-21 12:55:10:644
8.897914367675781,3.768415771484375,0.4955921630859375,0.033441186891854296,0.02877648339203937,-0.01824601986910821,3.6750080585479736,2019-06-21 12:55:10:649
8.873972717285156,3.7791895141601564,0.5087600708007812,0.033574344946358255,0.02851016728303145,-0.018512335978116135,3.680000066757202,2019-06-21 12:55:10:654
8.879958129882812,3.7803865966796875,0.5015775756835937,0.03384066105536618,0.029042799501047295,-0.017447071542084438,3.6849920749664307,2019-06-21 12:55:10:659
8.913476440429687,3.774401184082031,0.5099571533203124,0.032775396619334485,0.029042799501047295,-0.017047597378572553,3.689984083175659,2019-06-21 12:55:10:664
8.93502392578125,3.7732041015625,0.5303075561523437,0.03264223856483052,0.029841747828071065,-0.017180755433076515,3.6949760913848877,2019-06-21 12:55:10:669
8.903899780273438,3.7612332763671876,0.5207308959960938,0.03330802883735033,0.02944227366455918,-0.017979703760100288,3.699968099594116,2019-06-21 12:55:10:674
8.889534790039063,3.7660216064453125,0.5159425659179687,0.03184329023780675,0.029175957555551257,-0.017047597378572553,3.7049601078033447,2019-06-21 12:55:10:679
8.885943542480469,3.7791895141601564,0.5327017211914062,0.03290855467383845,0.02957543171906314,-0.016648123215060668,3.7099521160125732,2019-06-21 12:55:10:684
