ACCELEROMETER X (m/s²),ACCELEROMETER Y (m/s²),ACCELEROMETER Z (m/s²),GYROSCOPE X (rad/s),GYROSCOPE Y (rad/s),GYROSCOPE Z (rad/s),Time since start in ms ,YYYY-MO-DD HH-MI-SS_SSS
-8.62019122314453,-5.052885314941406,0.8618994140625,0.03783540477107964,0.028909641446543333,0.015309809865890192,0.0,2019-06-21 12:36:54:950
-8.634556213378906,-5.043308654785156,0.9085856323242187,0.04169698835169454,0.03037438004608691,0.01570928402940208,0.004992008209228516,2019-06-21 12:36:54:955
-8.64772412109375,-5.048096984863281,0.9468922729492187,0.04409383333276585,0.032904383081662186,0.01570928402940208,0.010048151016235352,2019-06-21 12:36:54:960
-8.627373718261719,-5.0133815917968745,0.9444981079101562,0.04595804609582131,0.034768595844717656,0.016375074301921887,0.015040159225463867,2019-06-21 12:36:54:965
-8.650118286132813,-5.009790344238281,0.92893603515625,0.04702331053185301,0.037564914989300854,0.01517665181138623,0.02003192901611328,2019-06-21 12:36:54:970
-8.652512451171875,-4.98943994140625,0.9109797973632813,0.04662383636834113,0.03969544386136425,0.01570928402940208,0.025023937225341797,2019-06-21 12:36:54:975
-8.681242431640625,-5.048096984863281,0.8583081665039062,0.04902068134941244,0.04036123413388405,0.0170408645744417,0.030015945434570312,2019-06-21 12:36:54:980
-8.687227844238281,-5.074432800292969,0.7840890502929687,0.05221647465750752,0.042092288842435564,0.017440338737953583,0.03500795364379883,2019-06-21 12:36:54:985
-8.650118286132813,-5.067250305175781,0.8487315063476563,0.05434700352957092,0.042092288842435564,0.018905077337497165,0.039999961853027344,2019-06-21 12:36:54:990
-8.652512451171875,-5.016972839355469,0.8858410644531249,0.05634437434713035,0.044355975769002916,0.019837183719024896,0.04499197006225586,2019-06-21 12:36:54:995
-8.672862854003906,-4.976272033691406,0.876264404296875,0.05701016461965015,0.04342386938747518,0.019837183719024896,0.050048112869262695,2019-06-21 12:36:55:000
-8.692016174316405,-4.9858486938476565,0.837957763671875,0.057276480728658076,0.04422281771449895,0.019570867610016973,0.05504012107849121,2019-06-21 12:36:55:005
-8.688424926757813,-4.987045776367188,0.866687744140625,0.05834174516468977,0.04395650160549103,0.01783981290146547,0.06003212928771973,2019-06-21 12:36:55:010
-8.703986999511718,-4.948739135742187,0.919359375,0.05820858711018581,0.045154924096026686,0.01810612901047339,0.06502413749694824,2019-06-21 12:36:55:015
-8.70638116455078,-4.952330383300781,0.9014031372070312,0.05940700960072146,0.046752820750074225,0.01650823235642585,0.07001614570617676,2019-06-21 12:36:55:020
-8.737505310058594,-4.91282666015625,0.8295781860351562,0.05914069349171354,0.04795124324060989,0.01650823235642585,0.07500815391540527,2019-06-21 12:36:55:025
-8.76384112548828,-4.921206237792969,0.8583081665039062,0.0603391159822492,0.04768492713160197,0.01650823235642585,0.08000016212463379,2019-06-21 12:36:55:030
-8.754264465332032,-4.910432495117187,0.876264404296875,0.05980648376423335,0.04808440129511385,0.01517665181138623,0.0849919319152832,2019-06-21 12:36:55:035
-8.750673217773437,-4.902052917480469,0.8990089721679687,0.059273851546217504,0.04795124324060989,0.014244545429858495,0.09004807472229004,2019-06-21 12:36:55:040
-8.738702392578125,-4.869731689453125,0.8882352294921875,0.05860806127369769,0.04728545296809008,0.012247174612299067,0.09504008293151855,2019-06-21 12:36:55:045
-8.756658630371094,-4.83621337890625,0.895417724609375,0.05940700960072146,0.046752820750074225,0.01118191017626737,0.10003209114074707,2019-06-21 12:36:55:050
-8.775811950683593,-4.831425048828125,0.9325272827148438,0.05900753543720958,0.046885978804578184,0.009317697413211905,0.10502409934997559,2019-06-21 12:36:55:055
-8.774614868164063,-4.856563781738281,0.9421039428710938,0.056877006565146195,0.04728545296809008,0.008385591031684172,0.1100161075592041,2019-06-21 12:36:55:060
-8.76384112548828,-4.844592956542969,0.9253447875976563,0.05554542602010658,0.04661966269557026,0.005322955778093048,0.11500811576843262,2019-06-21 12:36:55:065
-8.773417785644531,-4.85536669921875,0.9373156127929687,0.055012793802090725,0.045288082150530644,0.0035919010695415433,0.12000012397766113,2019-06-21 12:36:55:070
-8.76384112548828,-4.862549194335937,0.9205564575195312,0.053148581039035254,0.04622018853205838,0.0022603205245019242,0.12499213218688965,2019-06-21 12:36:55:075
-8.800950683593749,-4.8457900390625,0.895417724609375,0.051550684384987715,0.04502176604152272,-0.0006691566745852378,0.13004803657531738,2019-06-21 12:36:55:080
-8.797359436035157,-4.830227966308594,0.8978118896484375,0.049553313567428287,0.04542124020503461,-0.0025333694376407047,0.1350400447845459,2019-06-21 12:36:55:085
-8.775811950683593,-4.898461669921875,0.866687744140625,0.04902068134941244,0.045953872423050456,-0.0022670533286327805,0.14003205299377441,2019-06-21 12:36:55:090
-8.773417785644531,-4.917614990234375,0.83316943359375,0.04902068134941244,0.04395650160549103,-0.0037317919281763612,0.14502406120300293,2019-06-21 12:36:55:095
-8.757855712890624,-4.914023742675782,0.8295781860351562,0.04835489107689263,0.04262492106045141,-0.004930214418712019,0.15001606941223145,2019-06-21 12:36:55:100
-8.720746154785155,-4.927191650390625,0.837957763671875,0.047289626640860935,0.04315755327846726,-0.005462846636727866,0.15500807762145996,2019-06-21 12:36:55:105
-8.750673217773437,-4.9259945678710935,0.8499285888671875,0.04768910080437282,0.0419591307879316,-0.005462846636727866,0.16000008583068848,2019-06-21 12:36:55:110
-8.756658630371094,-4.929585815429688,0.8894323120117187,0.047289626640860935,0.04235860495144349,-0.00572916274573579,0.164992094039917,2019-06-21 12:36:55:115
-8.736308227539062,-4.93197998046875,0.8607023315429687,0.04675699442284509,0.04129334051541179,-0.005596004691231829,0.17004799842834473,2019-06-21 12:36:55:120
-8.736308227539062,-4.924797485351562,0.8092277832031249,0.046490678313837165,0.040228076079380094,-0.006528111072759562,0.17510414123535156,2019-06-21 12:36:55:125
-8.756658630371094,-4.9415566406249996,0.8307752685546875,0.04595804609582131,0.04076070829739594,-0.0073270593997833335,0.18003201484680176,2019-06-21 12:36:55:130
-8.76264404296875,-4.936768310546875,0.8116219482421875,0.04675699442284509,0.039828601915868206,-0.007460217454287295,0.18502402305603027,2019-06-21 12:36:55:135
-8.760249877929688,-4.935571228027344,0.8463373413085937,0.045425413877805465,0.03996175997037217,-0.008259165781311067,0.1900160312652588,2019-06-21 12:36:55:140
-8.760249877929688,-4.920009155273437,0.8630964965820312,0.0452922558233015,0.038630179425332554,-0.009324430217342762,0.1950080394744873,2019-06-21 12:36:55:145
-8.766235290527344,-4.93197998046875,0.857111083984375,0.04449330749627773,0.038230705261820666,-0.011454959089406152,0.20000004768371582,2019-06-21 12:36:55:150
-8.761446960449218,-4.8972645874023435,0.8894323120117187,0.04422699138726981,0.03809754720731671,-0.011188642980398228,0.20499205589294434,2019-06-21 12:36:55:155
-8.796162353515625,-4.862549194335937,0.904994384765625,0.04342804306024604,0.038630179425332554,-0.013186013797957656,0.21004796028137207,2019-06-21 12:36:55:160
-8.775811950683593,-4.843395874023438,0.8786585693359374,0.042362778624214344,0.03849702137082859,-0.01398496212498143,0.21503996849060059,2019-06-21 12:36:55:165
-8.778206115722655,-4.842198791503906,0.8630964965820312,0.041164356133678685,0.03729859888029293,-0.01611549099704482,0.2200319766998291,2019-06-21 12:36:55:170
-8.779403198242187,-4.843395874023438,0.8487315063476563,0.04089804002467076,0.036765966662277084,-0.017180755433076515,0.22502398490905762,2019-06-21 12:36:55:175
-8.785388610839844,-4.842198791503906,0.8870381469726563,0.040365407806654915,0.03610017638975727,-0.017846545705596326,0.23001599311828613,2019-06-21 12:36:55:180
-8.806936096191405,-4.852972534179687,0.8846439819335937,0.038767511152607376,0.035967018335253315,-0.020909180959187448,0.23500800132751465,2019-06-21 12:36:55:185
-8.816512756347656,-4.825439636230469,0.876264404296875,0.03743593060756775,0.0346354377902137,-0.023039709831250837,0.24000000953674316,2019-06-21 12:36:55:190
-8.830877746582031,-4.83621337890625,0.8774614868164062,0.03597119200802417,0.033969647517693886,-0.026501819248353847,0.24499201774597168,2019-06-21 12:36:55:195
-8.827286499023437,-4.831425048828125,0.8630964965820312,0.034373293273382025,0.03223859280914238,-0.02743392562988158,0.2500481605529785,2019-06-21 12:36:55:200
-8.822498168945312,-4.8098775634765625,0.8678848266601562,0.03250908051032656,0.031040170318606727,-0.028366032011409317,0.25503993034362793,2019-06-21 12:36:55:205
-8.812921508789062,-4.821848388671875,0.8894323120117187,0.029979077474751283,0.02930911561005522,-0.03129550921049648,0.26003193855285645,2019-06-21 12:36:55:210
-8.803344848632813,-4.803892150878906,0.8930235595703124,0.02811486471169582,0.02784437701051164,-0.034358144464087595,0.26502394676208496,2019-06-21 12:36:55:215
-8.81052734375,-4.802695068359375,0.89062939453125,0.02691644222116016,0.026113322301960132,-0.03635551528164703,0.2700159549713135,2019-06-21 12:36:55:220
-8.826089416503907,-4.803892150878906,0.9301331176757812,0.02545170362161658,0.026512796465472017,-0.03768709582668665,0.275007963180542,2019-06-21 12:36:55:225
-8.81052734375,-4.794315490722656,0.8535198364257812,0.024386439185584887,0.024914899811424477,-0.039950782753254,0.2799999713897705,2019-06-21 12:36:55:230
-8.815315673828124,-4.802695068359375,0.8583081665039062,0.024386439185584887,0.024914899811424477,-0.039950782753254,0.284991979598999,2019-06-21 12:36:55:235
-8.836863159179687,-4.81706005859375,0.8618994140625,0.022122752259017532,0.02318384510287297,-0.0416818374618055,0.29004812240600586,2019-06-21 12:36:55:240
-8.805739013671875,-4.846987121582031,0.8271840209960938,0.020125381441458104,0.020653842067297694,-0.045010788824404555,0.2950401306152344,2019-06-21 12:36:55:245
-8.799753601074219,-4.846987121582031,0.8343665161132813,0.01919327505993037,0.019588577631266,-0.04674184353295606,0.3000321388244629,2019-06-21 12:36:55:250
-8.817709838867188,-4.832622131347656,0.818804443359375,0.018128010623898676,0.019322261522258077,-0.048872372405019446,0.3050241470336914,2019-06-21 12:36:55:255
-8.815315673828124,-4.85536669921875,0.8271840209960938,0.01706274618786698,0.018390155140730342,-0.05126921738609077,0.3100161552429199,2019-06-21 12:36:55:260
-8.800950683593749,-4.8685346069335935,0.8164102783203124,0.016663272024355094,0.01892278735874619,-0.05326658820365019,0.31500816345214844,2019-06-21 12:36:55:265
-8.774614868164063,-4.856563781738281,0.8343665161132813,0.015997481751835286,0.015327519887139218,-0.055796591239225465,0.31999993324279785,2019-06-21 12:36:55:270
-8.76264404296875,-4.848184204101562,0.8439431762695312,0.014799059261299628,0.013463307124083751,-0.05832659427480075,0.32499194145202637,2019-06-21 12:36:55:275
-8.774614868164063,-4.850578369140625,0.8738702392578125,0.014266427043283781,0.014262255451107523,-0.059658174819840364,0.3300480842590332,2019-06-21 12:36:55:280
-8.7530673828125,-4.863746276855468,0.8882352294921875,0.014266427043283781,0.01333014906957979,-0.06165554563739979,0.3350400924682617,2019-06-21 12:36:55:285
-8.742293640136719,-4.899658752441406,0.837957763671875,0.012934846498244161,0.012264884633548094,-0.06258765201892752,0.34003210067749023,2019-06-21 12:36:55:290
-8.737505310058594,-4.904447082519531,0.828381103515625,0.013467478716260008,0.013063832960571866,-0.06365291645495921,0.34502410888671875,2019-06-21 12:36:55:295
-8.725534484863282,-4.886490844726563,0.83316943359375,0.013467478716260008,0.011998568524540171,-0.06431870672747902,0.35001611709594727,2019-06-21 12:36:55:300
-8.730322814941406,-4.914023742675782,0.8152131958007812,0.0128016884437402,0.012531200742556018,-0.06671555170855034,0.3550081253051758,2019-06-21 12:36:55:305
-8.707578247070312,-4.929585815429688,0.8307752685546875,0.013866952879771894,0.01266435879705998,-0.06764765809007808,0.3600001335144043,2019-06-21 12:36:55:310
-8.726731567382812,-4.9224033203125,0.8535198364257812,0.013467478716260008,0.012264884633548094,-0.06778081614458203,0.3649921417236328,2019-06-21 12:36:55:315
-8.727928649902344,-4.958315795898438,0.8726731567382813,0.013201162607252084,0.012398042688052056,-0.067913974199086,0.37004804611206055,2019-06-21 12:36:55:320
-8.702789916992188,-4.958315795898438,0.8846439819335937,0.012668530389236238,0.012398042688052056,-0.06897923863511769,0.37504005432128906,2019-06-21 12:36:55:325
-8.712366577148437,-4.97986328125,0.8583081665039062,0.012269056225724353,0.011599094361028284,-0.06977818696214147,0.3800320625305176,2019-06-21 12:36:55:330
-8.675257019042968,-4.995425354003906,0.8690819091796875,0.012402214280228314,0.011332778252020361,-0.07017765696446415,0.3850240707397461,2019-06-21 12:36:55:335
-8.678848266601562,-4.990637023925781,0.8618994140625,0.013733794825267931,0.011332778252020361,-0.06977818696214147,0.3900160789489746,2019-06-21 12:36:55:340
-8.670468688964844,-5.005002014160156,0.8882352294921875,0.014799059261299628,0.011599094361028284,-0.06991134085545622,0.3950080871582031,2019-06-21 12:36:55:345
-8.682439514160157,-5.015775756835938,0.8451402587890625,0.01626379786084321,0.012930674906067903,-0.07004449890996019,0.40000009536743164,2019-06-21 12:36:55:350
-8.662089111328125,-5.038520324707031,0.8223956909179687,0.016929588133363017,0.012797516851563941,-0.07044397307347207,0.40499210357666016,2019-06-21 12:36:55:355
-8.701592834472656,-5.043308654785156,0.8271840209960938,0.01706274618786698,0.013463307124083751,-0.06911239668962166,0.4100480079650879,2019-06-21 12:36:55:360
-8.688424926757813,-5.080418212890625,0.8235927734374999,0.017994852569394714,0.013596465178587713,-0.06711502587206224,0.4150400161743164,2019-06-21 12:36:55:365
-8.699198669433594,-5.0732357177734375,0.8367606811523437,0.019060117005426407,0.0139959393420996,-0.06711502587206224,0.4200320243835449,2019-06-21 12:36:55:370
-8.654906616210937,-5.124710266113281,0.8008482055664062,0.01972590727794622,0.014661729614619408,-0.06671555170855034,0.42502403259277344,2019-06-21 12:36:55:375
-8.662089111328125,-5.127104431152343,0.8247898559570312,0.022389068368025455,0.014528571560115446,-0.0651176550545028,0.43001604080200195,2019-06-21 12:36:55:380
-8.651315368652343,-5.110345275878906,0.8355635986328125,0.024253281131080925,0.014794887669123371,-0.06351975840045526,0.43500804901123047,2019-06-21 12:36:55:385
-8.654906616210937,-5.1163306884765625,0.8152131958007812,0.026383810003144312,0.016259626268666953,-0.06218817785541564,0.440000057220459,2019-06-21 12:36:55:390
-8.66687744140625,-5.13308984375,0.7960598754882813,0.02718275833016808,0.018390155140730342,-0.0612560714738879,0.4449920654296875,2019-06-21 12:36:55:395
-8.646527038574218,-5.098374450683593,0.8630964965820312,0.02878065498421563,0.01945541957676204,-0.059658174819840364,0.45004796981811523,2019-06-21 12:36:55:400
-8.624979553222657,-5.094783203125,0.89062939453125,0.03171013218330279,0.020520684012793732,-0.057394487893273005,0.45503997802734375,2019-06-21 12:36:55:405
-8.60941748046875,-5.1139365234375,0.8858410644531249,0.03384066105536618,0.020787000121801655,-0.05632922345724131,0.46003198623657227,2019-06-21 12:36:55:410
-8.62857080078125,-5.081615295410156,0.8858410644531249,0.03557171784451229,0.021852264557833352,-0.05553027513021754,0.4650239944458008,2019-06-21 12:36:55:415
-8.623782470703125,-5.091191955566406,0.8918264770507812,0.03716961449855983,0.023050687048369007,-0.05459816874868981,0.4700160026550293,2019-06-21 12:36:55:420
-8.632162048339843,-5.067250305175781,0.8966148071289062,0.03783540477107964,0.02504805786592844,-0.052733955985634344,0.4750080108642578,2019-06-21 12:36:55:425
-8.646527038574218,-5.0756298828125,0.9085856323242187,0.03850119504359945,0.026113322301960132,-0.05166869154960265,0.48000001907348633,2019-06-21 12:36:55:430
-8.639344543457032,-5.052885314941406,0.9205564575195312,0.03916698531611926,0.025447532029440324,-0.051002901277082846,0.48499202728271484,2019-06-21 12:36:55:435
-8.607023315429688,-5.0445057373046875,0.9241477050781249,0.03823487893459153,0.026246480356464093,-0.05033711100456303,0.4900479316711426,2019-06-21 12:36:55:440
-8.621388305664063,-5.0373232421875,0.9277389526367187,0.038767511152607376,0.027178586737991825,-0.04913868851402737,0.4950399398803711,2019-06-21 12:36:55:445
-8.660892028808593,-5.005002014160156,0.9205564575195312,0.039699617534135104,0.028110693119519563,-0.04900553045952341,0.5000319480895996,2019-06-21 12:36:55:450
-8.650118286132813,-5.018169921875,0.8978118896484375,0.038900669207111334,0.02944227366455918,-0.04900553045952341,0.5050239562988281,2019-06-21 12:36:55:455
-8.675257019042968,-5.034929077148437,0.9229506225585937,0.03823487893459153,0.030640696155094835,-0.049671320732043216,0.5100159645080566,2019-06-21 12:36:55:460
-8.686030761718749,-5.0421115722656245,0.8858410644531249,0.0379685628255836,0.030640696155094835,-0.049671320732043216,0.5150079727172852,2019-06-21 12:36:55:465
-8.66687744140625,-5.08520654296875,0.8798556518554688,0.040365407806654915,0.03024122199158295,-0.049671320732043216,0.5199999809265137,2019-06-21 12:36:55:470
-8.660892028808593,-5.069644470214843,0.8726731567382813,0.04129751418818265,0.03197227670013446,-0.04980447878654718,0.5249919891357422,2019-06-21 12:36:55:475
-8.650118286132813,-5.049294067382812,0.84274609375,0.04169698835169454,0.03303754113616615,-0.04900553045952341,0.530048131942749,2019-06-21 12:36:55:480
-8.662089111328125,-5.04689990234375,0.8367606811523437,0.042362778624214344,0.03277122502715823,-0.049271846568531334,0.5350401401519775,2019-06-21 12:36:55:485
-8.64892120361328,-5.032534912109375,0.84274609375,0.04329488500574208,0.03317069919067011,-0.048872372405019446,0.540032148361206,2019-06-21 12:36:55:490
-8.658497863769531,-5.0445057373046875,0.8487315063476563,0.04342804306024604,0.034102805572197845,-0.048872372405019446,0.5450241565704346,2019-06-21 12:36:55:495
-8.660892028808593,-5.052885314941406,0.87147607421875,0.04449330749627773,0.03237175086364634,-0.048206582132499634,0.5500161647796631,2019-06-21 12:36:55:500
-8.653709533691407,-5.054082397460937,0.8786585693359374,0.04595804609582131,0.03383648946318992,-0.04860605629601152,0.5550079345703125,2019-06-21 12:36:55:505
-8.62857080078125,-5.051688232421875,0.8966148071289062,0.04702331053185301,0.0353012280627335,-0.048872372405019446,0.559999942779541,2019-06-21 12:36:55:510
-8.671665771484374,-5.018169921875,0.9444981079101562,0.0474227846953649,0.035967018335253315,-0.04780710796898775,0.5649919509887695,2019-06-21 12:36:55:515
-8.646527038574218,-5.010987426757812,0.9409068603515625,0.0474227846953649,0.03570070222624539,-0.04873921435051549,0.5700480937957764,2019-06-21 12:36:55:520
-8.639344543457032,-5.0289436645507815,0.9313302001953124,0.04675699442284509,0.0353012280627335,-0.04980447878654718,0.5750401020050049,2019-06-21 12:36:55:525
-8.651315368652343,-5.025352416992187,0.8882352294921875,0.04635752025933321,0.035567544171741426,-0.050070794895555104,0.5800321102142334,2019-06-21 12:36:55:530
-8.636950378417968,-5.010987426757812,0.8978118896484375,0.04595804609582131,0.036366492498765196,-0.050470269059066986,0.5850241184234619,2019-06-21 12:36:55:535
-8.660892028808593,-5.012184509277343,0.9073885498046875,0.04662383636834113,0.03689912471678104,-0.05033711100456303,0.5900161266326904,2019-06-21 12:36:55:540
-8.65730078125,-5.010987426757812,0.89062939453125,0.046490678313837165,0.037564914989300854,-0.05126921738609077,0.595008134841919,2019-06-21 12:36:55:545
-8.645329956054688,-5.009790344238281,0.8834468994140625,0.04609120415032527,0.03649965055326916,-0.050869743222578874,0.6000001430511475,2019-06-21 12:36:55:550
-8.663286193847656,-5.033731994628906,0.8798556518554688,0.04489278165978962,0.03543438611723747,-0.04993763684105114,0.604992151260376,2019-06-21 12:36:55:555
-8.670468688964844,-5.0133815917968745,0.9026002197265625,0.04422699138726981,0.03570070222624539,-0.05126921738609077,0.6100480556488037,2019-06-21 12:36:55:560
-8.665680358886718,-5.0421115722656245,0.87147607421875,0.04449330749627773,0.037431756934796896,-0.0522013237676185,0.6150400638580322,2019-06-21 12:36:55:565
-8.687227844238281,-5.018169921875,0.84274609375,0.04342804306024604,0.03689912471678104,-0.053399746258154156,0.6200320720672607,2019-06-21 12:36:55:570
-8.671665771484374,-5.034929077148437,0.857111083984375,0.042229620569710385,0.0353012280627335,-0.05366606236716208,0.6250240802764893,2019-06-21 12:36:55:575
-8.686030761718749,-5.021761169433594,0.8319723510742187,0.04196330446070246,0.03583386028074935,-0.053532904312658114,0.6300160884857178,2019-06-21 12:36:55:580
-8.670468688964844,-5.054082397460937,0.8607023315429687,0.040498565861158874,0.035567544171741426,-0.05446501069418585,0.6350080966949463,2019-06-21 12:36:55:585
-8.689622009277343,-5.0277465820312495,0.8774614868164062,0.04023224975215095,0.03490175389922162,-0.054331852639681884,0.6400001049041748,2019-06-21 12:36:55:590
-8.687227844238281,-5.0445057373046875,0.8834468994140625,0.04063172391566284,0.03436912168120577,-0.05406553653067396,0.6450560092926025,2019-06-21 12:36:55:595
-8.659694946289063,-5.080418212890625,0.8726731567382813,0.040498565861158874,0.033303857245174075,-0.054997642912201695,0.650048017501831,2019-06-21 12:36:55:600
-8.688424926757813,-5.049294067382812,0.8798556518554688,0.0407648819701668,0.032105434754638416,-0.05566343318472151,0.6550400257110596,2019-06-21 12:36:55:605
-8.669271606445312,-5.072038635253906,0.8894323120117187,0.03916698531611926,0.03277122502715823,-0.055130800966705654,0.6600320339202881,2019-06-21 12:36:55:610
-8.640541625976562,-5.070841552734375,0.8918264770507812,0.03916698531611926,0.03303754113616615,-0.0567286976207532,0.6650240421295166,2019-06-21 12:36:55:615
-8.645329956054688,-5.078024047851563,0.904994384765625,0.038101720880087564,0.03343701529967803,-0.05632922345724131,0.6700160503387451,2019-06-21 12:36:55:620
-8.670468688964844,-5.093586120605469,0.8750673217773437,0.03716961449855983,0.032504908918150305,-0.05566343318472151,0.6750080585479736,2019-06-21 12:36:55:625
-8.692016174316405,-5.1019656982421875,0.8259869384765625,0.03743593060756775,0.03157280253662257,-0.056595539566249235,0.6800639629364014,2019-06-21 12:36:55:630
-8.652512451171875,-5.080418212890625,0.8211986083984375,0.037702246716575676,0.03143964448211861,-0.056595539566249235,0.6850559711456299,2019-06-21 12:36:55:635
-8.624979553222657,-5.072038635253906,0.8259869384765625,0.03677014033504794,0.03037438004608691,-0.054997642912201695,0.6900479793548584,2019-06-21 12:36:55:640
-8.642935791015624,-5.103162780761719,0.87147607421875,0.037302772553063794,0.030773854209598796,-0.05566343318472151,0.6950399875640869,2019-06-21 12:36:55:645
-8.656103698730469,-5.107951110839844,0.8595052490234375,0.037302772553063794,0.030773854209598796,-0.05526395902120962,0.7000319957733154,2019-06-21 12:36:55:650
-8.652512451171875,-5.093586120605469,0.8403519287109374,0.037036456444055864,0.03037438004608691,-0.05379922042166604,0.705024003982544,2019-06-21 12:36:55:655
-8.642935791015624,-5.088797790527344,0.85232275390625,0.03597119200802417,0.030108063937078988,-0.05366606236716208,0.7100160121917725,2019-06-21 12:36:55:660
-8.642935791015624,-5.098374450683593,0.8942206420898438,0.035305401735504366,0.027977535065015602,-0.05206816571311454,0.715008020401001,2019-06-21 12:36:55:665
-8.645329956054688,-5.094783203125,0.8607023315429687,0.03490592549139788,0.027578060901503717,-0.05326658820365019,0.7200000286102295,2019-06-21 12:36:55:670
-8.660892028808593,-5.08520654296875,0.9014031372070312,0.0341069771643741,0.026246480356464093,-0.05313343014914623,0.724992036819458,2019-06-21 12:36:55:675
-8.634556213378906,-5.099571533203125,0.8630964965820312,0.033574344946358255,0.025447532029440324,-0.052600797931130386,0.7300479412078857,2019-06-21 12:36:55:680
-8.622585388183593,-5.0732357177734375,0.8642935791015625,0.03224276440131864,0.0269122706289839,-0.051935007658610574,0.7350399494171143,2019-06-21 12:36:55:685
-8.645329956054688,-5.110345275878906,0.8966148071289062,0.03171013218330279,0.02584700619295221,-0.05246763987662642,0.7400319576263428,2019-06-21 12:36:55:690
-8.62019122314453,-5.117527770996094,0.8738702392578125,0.03064486774727109,0.025447532029440324,-0.05300027209464227,0.7450239658355713,2019-06-21 12:36:55:695
-8.626176635742187,-5.12351318359375,0.8343665161132813,0.03064486774727109,0.023450161211880892,-0.052600797931130386,0.7500159740447998,2019-06-21 12:36:55:700
-8.629767883300781,-5.128301513671875,0.8535198364257812,0.030378551638263168,0.023050687048369007,-0.05326658820365019,0.7550079822540283,2019-06-21 12:36:55:705
-8.629767883300781,-5.119921936035156,0.8391548461914062,0.031177499965286945,0.02438226759340863,-0.05300027209464227,0.7599999904632568,2019-06-21 12:36:55:710
-8.639344543457032,-5.106754028320313,0.8774614868164062,0.03184329023780675,0.023050687048369007,-0.052733955985634344,0.7649919986724854,2019-06-21 12:36:55:715
-8.629767883300781,-5.112739440917968,0.8774614868164062,0.030245393583759207,0.023050687048369007,-0.05206816571311454,0.7700481414794922,2019-06-21 12:36:55:720
-8.60941748046875,-5.098374450683593,0.85232275390625,0.02891381303871959,0.022784370939361084,-0.05166869154960265,0.7750401496887207,2019-06-21 12:36:55:725
-8.614205810546874,-5.117527770996094,0.8583081665039062,0.028647496929711667,0.02158594844882543,-0.050470269059066986,0.7800321578979492,2019-06-21 12:36:55:730
-8.615402893066406,-5.117527770996094,0.881052734375,0.02798170665719186,0.021319632339817506,-0.05033711100456303,0.7850241661071777,2019-06-21 12:36:55:735
-8.59026416015625,-5.131892761230469,0.866687744140625,0.02798170665719186,0.02171910650332939,-0.049271846568531334,0.7900159358978271,2019-06-21 12:36:55:740
-8.60941748046875,-5.131892761230469,0.895417724609375,0.028248022766199782,0.022917528993865045,-0.04873921435051549,0.7950079441070557,2019-06-21 12:36:55:745
-8.581884582519532,-5.1306956787109375,0.8966148071289062,0.02798170665719186,0.021852264557833352,-0.04767394991448379,0.7999999523162842,2019-06-21 12:36:55:750
-8.574702087402343,-5.122316101074219,0.8439431762695312,0.02704960027566412,0.020653842067297694,-0.0483397401870036,0.8049919605255127,2019-06-21 12:36:55:755
-8.575899169921875,-5.109148193359375,0.8583081665039062,0.027315916384672043,0.019988051794777886,-0.04794026602349171,0.8100481033325195,2019-06-21 12:36:55:760
-8.59026416015625,-5.137878173828125,0.8930235595703124,0.025718019730624504,0.020520684012793732,-0.047274475750971906,0.815040111541748,2019-06-21 12:36:55:765
-8.585475830078124,-5.158228576660156,0.881052734375,0.024785913349096772,0.021186474285313544,-0.045809737151428324,0.8200321197509766,2019-06-21 12:36:55:770
-8.602234985351563,-5.157031494140625,0.8774614868164062,0.02531854556711262,0.022251738721345237,-0.04434499855188474,0.8250241279602051,2019-06-21 12:36:55:775
-8.586672912597656,-5.177381896972656,0.8559140014648438,0.02531854556711262,0.022251738721345237,-0.04367920827936493,0.8300161361694336,2019-06-21 12:36:55:780
-8.584278747558594,-5.185761474609375,0.8475344238281249,0.025851177785128465,0.021186474285313544,-0.043945524388372854,0.8350081443786621,2019-06-21 12:36:55:785
-8.604629150390625,-5.192943969726563,0.857111083984375,0.026650126112152235,0.020520684012793732,-0.04194815357081343,0.8400001525878906,2019-06-21 12:36:55:790
-8.597446655273437,-5.213294372558594,0.8223956909179687,0.027315916384672043,0.020653842067297694,-0.04181499551630947,0.8449921607971191,2019-06-21 12:36:55:795
-8.587869995117188,-5.1749877319335935,0.8930235595703124,0.027582232493679974,0.02092015817630562,-0.04074973108027777,0.8500480651855469,2019-06-21 12:36:55:800
-8.578293334960938,-5.183367309570312,0.8630964965820312,0.027315916384672043,0.021186474285313544,-0.040483414971269845,0.8550400733947754,2019-06-21 12:36:55:805
-8.566322509765625,-5.194141052246094,0.9109797973632813,0.02718275833016808,0.021852264557833352,-0.03848604415371042,0.8600320816040039,2019-06-21 12:36:55:810
-8.553154602050782,-5.194141052246094,0.9061914672851562,0.028381180820703743,0.022118580666841275,-0.038086569990198535,0.8650240898132324,2019-06-21 12:36:55:815
-8.573505004882811,-5.18097314453125,0.8918264770507812,0.028647496929711667,0.022917528993865045,-0.037021305554166835,0.8700160980224609,2019-06-21 12:36:55:820
-8.543577941894531,-5.171396484375,0.8978118896484375,0.02891381303871959,0.021985422612337314,-0.03662183139065495,0.8750081062316895,2019-06-21 12:36:55:825
-8.557942932128906,-5.18097314453125,0.9109797973632813,0.029180129147727513,0.023716477320888822,-0.03489077668210345,0.880000114440918,2019-06-21 12:36:55:830
-8.557942932128906,-5.197732299804687,0.92893603515625,0.02904697109322355,0.02504805786592844,-0.03449130251859156,0.8850560188293457,2019-06-21 12:36:55:835
-8.565125427246093,-5.196535217285156,0.9061914672851562,0.02984591942024732,0.027178586737991825,-0.032360773646528174,0.8900480270385742,2019-06-21 12:36:55:840
-8.545972106933593,-5.185761474609375,0.876264404296875,0.030245393583759207,0.026246480356464093,-0.030496560883472704,0.8950400352478027,2019-06-21 12:36:55:845
-8.563928344726563,-5.2037177124023435,0.9073885498046875,0.02984591942024732,0.02664595451997598,-0.02849919006591328,0.9000320434570312,2019-06-21 12:36:55:850
-8.572307922363281,-5.18097314453125,0.8750673217773437,0.0295796033112394,0.02664595451997598,-0.02743392562988158,0.9050240516662598,2019-06-21 12:36:55:855
-8.550760437011718,-5.172593566894531,0.876264404296875,0.030778025801775053,0.027178586737991825,-0.026901293411865732,0.9100160598754883,2019-06-21 12:36:55:860
-8.567519592285157,-5.224068115234375,0.8595052490234375,0.03171013218330279,0.02771121895600768,-0.025303396757818192,0.9150080680847168,2019-06-21 12:36:55:865
-8.545972106933593,-5.2180827026367185,0.8774614868164062,0.03224276440131864,0.02851016728303145,-0.02503708064881027,0.9200000762939453,2019-06-21 12:36:55:870
-8.545972106933593,-5.209703125,0.8750673217773437,0.032775396619334485,0.02957543171906314,-0.023572342049266684,0.9249920845031738,2019-06-21 12:36:55:875
-8.553154602050782,-5.220476867675782,0.8547169189453124,0.033574344946358255,0.02944227366455918,-0.02250707761323499,0.9300479888916016,2019-06-21 12:36:55:880
-8.577096252441406,-5.197732299804687,0.9026002197265625,0.034240135218878066,0.028909641446543333,-0.02157497123170726,0.9350399971008301,2019-06-21 12:36:55:885
-8.581884582519532,-5.201323547363281,0.881052734375,0.035305401735504366,0.02930911561005522,-0.020110232632163678,0.9400320053100586,2019-06-21 12:36:55:890
-8.585475830078124,-5.170199401855468,0.8678848266601562,0.03557171784451229,0.030108063937078988,-0.01891181014162802,0.9450240135192871,2019-06-21 12:36:55:895
-8.5806875,-5.194141052246094,0.8259869384765625,0.036104350062528136,0.030773854209598796,-0.01811286181460425,0.9500160217285156,2019-06-21 12:36:55:900
-8.568716674804687,-5.1749877319335935,0.83316943359375,0.03583803395352021,0.031306486427614647,-0.017313913487580476,0.9550080299377441,2019-06-21 12:36:55:905
-8.572307922363281,-5.178578979492188,0.87147607421875,0.03570487589901625,0.032105434754638416,-0.016248649051548783,0.9600000381469727,2019-06-21 12:36:55:910
-8.581884582519532,-5.183367309570312,0.8690819091796875,0.03663698228054398,0.032904383081662186,-0.015716016833532933,0.9649920463562012,2019-06-21 12:36:55:915
-8.557942932128906,-5.166608154296875,0.8798556518554688,0.03583803395352021,0.032904383081662186,-0.01598233294254086,0.9700479507446289,2019-06-21 12:36:55:920
-8.569913757324219,-5.191746887207031,0.8918264770507812,0.03743593060756775,0.032504908918150305,-0.015849174888036895,0.9750399589538574,2019-06-21 12:36:55:925
-8.573505004882811,-5.154637329101562,0.8966148071289062,0.03836803698909549,0.03436912168120577,-0.014384436288493315,0.9800319671630859,2019-06-21 12:36:55:930
-8.5806875,-5.16181982421875,0.8786585693359374,0.03743593060756775,0.03436912168120577,-0.013052855743453695,0.9850239753723145,2019-06-21 12:36:55:935
-8.57111083984375,-5.169002319335937,0.8786585693359374,0.038101720880087564,0.033303857245174075,-0.012387065470933887,0.990015983581543,2019-06-21 12:36:55:940
-8.574702087402343,-5.183367309570312,0.9133739624023437,0.03823487893459153,0.03383648946318992,-0.011721275198414075,0.9950079917907715,2019-06-21 12:36:55:945
-8.566322509765625,-5.1749877319335935,0.8738702392578125,0.03850119504359945,0.03383648946318992,-0.010922326871390305,1.0,2019-06-21 12:36:55:950
-8.568716674804687,-5.143863586425781,0.8547169189453124,0.038767511152607376,0.03370333140868596,-0.009990220489862572,1.0049920082092285,2019-06-21 12:36:55:955
-8.589067077636718,-5.1606227416992185,0.8894323120117187,0.039566459479631146,0.03423596362670181,-0.009457588271846723,1.0100481510162354,2019-06-21 12:36:55:960
-8.581884582519532,-5.164213989257813,0.8690819091796875,0.03996593364314303,0.03583386028074935,-0.008126007726807105,1.0150401592254639,2019-06-21 12:36:55:965
-8.574702087402343,-5.155834411621093,0.8020452880859374,0.03996593364314303,0.034102805572197845,-0.008259165781311067,1.0200319290161133,2019-06-21 12:36:55:970
-8.603432067871093,-5.165411071777344,0.8259869384765625,0.040365407806654915,0.033570173354182,-0.007992849672303142,1.0250239372253418,2019-06-21 12:36:55:975
-8.587869995117188,-5.163016906738281,0.8295781860351562,0.04063172391566284,0.033303857245174075,-0.0070607432907754085,1.0300159454345703,2019-06-21 12:36:55:980
-8.604629150390625,-5.151046081542969,0.8439431762695312,0.0407648819701668,0.034102805572197845,-0.00572916274573579,1.0350079536437988,2019-06-21 12:36:55:985
-8.611811645507812,-5.1306956787109375,0.8211986083984375,0.039699617534135104,0.035168070008229545,-0.005596004691231829,1.0399999618530273,2019-06-21 12:36:55:990
-8.608220397949218,-5.127104431152343,0.8152131958007812,0.03943330142512718,0.03490175389922162,-0.005596004691231829,1.0449919700622559,2019-06-21 12:36:55:995
-8.629767883300781,-5.13308984375,0.8690819091796875,0.04089804002467076,0.0353012280627335,-0.004930214418712019,1.0500481128692627,2019-06-21 12:36:56:000
-8.633359130859375,-5.131892761230469,0.8726731567382813,0.040365407806654915,0.03383648946318992,-0.005596004691231829,1.0550401210784912,2019-06-21 12:36:56:005
-8.621388305664063,-5.134286926269531,0.8439431762695312,0.04143067224268661,0.033969647517693886,-0.0053296885822239045,1.0600321292877197,2019-06-21 12:36:56:010
-8.632162048339843,-5.105556945800781,0.9014031372070312,0.0407648819701668,0.034102805572197845,-0.005596004691231829,1.0650241374969482,2019-06-21 12:36:56:015
-8.641738708496094,-5.094783203125,0.914571044921875,0.039566459479631146,0.03423596362670181,-0.0063949530182556,1.0700161457061768,2019-06-21 12:36:56:020
-8.654906616210937,-5.107951110839844,0.9026002197265625,0.038900669207111334,0.034102805572197845,-0.0053296885822239045,1.0750081539154053,2019-06-21 12:36:56:025
-8.664483276367188,-5.110345275878906,0.87147607421875,0.03823487893459153,0.03423596362670181,-0.0066612691272635235,1.0800001621246338,2019-06-21 12:36:56:030
-8.650118286132813,-5.125907348632812,0.8475344238281249,0.0379685628255836,0.03343701529967803,-0.0063949530182556,1.0849919319152832,2019-06-21 12:36:56:035
-8.62857080078125,-5.13308984375,0.8559140014648438,0.03783540477107964,0.03436912168120577,-0.006794427181767485,1.09004807472229,2019-06-21 12:36:56:040
-8.617797058105468,-5.135484008789063,0.8104248657226563,0.0390338272616153,0.033303857245174075,-0.006528111072759562,1.0950400829315186,2019-06-21 12:36:56:045
-8.626176635742187,-5.1163306884765625,0.8798556518554688,0.03823487893459153,0.03317069919067011,-0.00572916274573579,1.100032091140747,2019-06-21 12:36:56:050
-8.629767883300781,-5.091191955566406,0.9026002197265625,0.03850119504359945,0.031705960591126535,-0.005462846636727866,1.1050240993499756,2019-06-21 12:36:56:055
-8.621388305664063,-5.098374450683593,0.8642935791015625,0.03850119504359945,0.03143964448211861,-0.006128636909247675,1.110016107559204,2019-06-21 12:36:56:060
-8.610614562988282,-5.089994873046875,0.8247898559570312,0.03716961449855983,0.03197227670013446,-0.006128636909247675,1.1150081157684326,2019-06-21 12:36:56:065
-8.629767883300781,-5.118724853515625,0.8535198364257812,0.03663698228054398,0.03024122199158295,-0.0066612691272635235,1.1200001239776611,2019-06-21 12:36:56:070
-8.636950378417968,-5.1139365234375,0.8774614868164062,0.03663698228054398,0.03037438004608691,-0.006927585236271447,1.1249921321868896,2019-06-21 12:36:56:075
-8.624979553222657,-5.088797790527344,0.8618994140625,0.036903298389551906,0.028377009228527487,-0.006528111072759562,1.1300480365753174,2019-06-21 12:36:56:080
-8.632162048339843,-5.0876007080078125,0.9061914672851562,0.03677014033504794,0.028377009228527487,-0.006261794963751639,1.135040044784546,2019-06-21 12:36:56:085
-8.632162048339843,-5.072038635253906,0.8978118896484375,0.03597119200802417,0.02784437701051164,-0.007193901345279372,1.1400320529937744,2019-06-21 12:36:56:090
-8.6381474609375,-5.10435986328125,0.8726731567382813,0.034240135218878066,0.028110693119519563,-0.0077265335632952185,1.145024061203003,2019-06-21 12:36:56:095
-8.646527038574218,-5.081615295410156,0.9109797973632813,0.034639609382389955,0.02851016728303145,-0.00785969161779918,1.1500160694122314,2019-06-21 12:36:56:100
-8.634556213378906,-5.08520654296875,0.8750673217773437,0.03503908562649644,0.02877648339203937,-0.007992849672303142,1.15500807762146,2019-06-21 12:36:56:105
-8.653709533691407,-5.094783203125,0.8535198364257812,0.03397381910987014,0.02771121895600768,-0.008924956053830875,1.1600000858306885,2019-06-21 12:36:56:110
-8.641738708496094,-5.109148193359375,0.8595052490234375,0.03384066105536618,0.02851016728303145,-0.009324430217342762,1.164992094039917,2019-06-21 12:36:56:115
-8.611811645507812,-5.111542358398437,0.8607023315429687,0.034373293273382025,0.028377009228527487,-0.008791797999326913,1.1700479984283447,2019-06-21 12:36:56:120
-8.644132873535156,-5.080418212890625,0.8451402587890625,0.032775396619334485,0.02784437701051164,-0.008259165781311067,1.1750400066375732,2019-06-21 12:36:56:125
-8.629767883300781,-5.079221130371094,0.876264404296875,0.03330802883735033,0.028110693119519563,-0.008924956053830875,1.1800320148468018,2019-06-21 12:36:56:130
-8.633359130859375,-5.103162780761719,0.8786585693359374,0.032775396619334485,0.028377009228527487,-0.009058114108334838,1.1850881576538086,2019-06-21 12:36:56:135
-8.639344543457032,-5.094783203125,0.8894323120117187,0.03224276440131864,0.027178586737991825,-0.008658639944822952,1.1900160312652588,2019-06-21 12:36:56:140
-8.64772412109375,-5.082812377929687,0.8738702392578125,0.0313106580197909,0.027045428683487863,-0.008924956053830875,1.1950080394744873,2019-06-21 12:36:56:145
-8.635753295898438,-5.086403625488281,0.8774614868164062,0.03144381607429487,0.027178586737991825,-0.009058114108334838,1.2000000476837158,2019-06-21 12:36:56:150
-8.639344543457032,-5.097177368164062,0.8403519287109374,0.03250908051032656,0.02771121895600768,-0.009857062435358608,1.2049920558929443,2019-06-21 12:36:56:155
-8.635753295898438,-5.105556945800781,0.8654906616210938,0.031976448292310715,0.027178586737991825,-0.010389694653374457,1.210047960281372,2019-06-21 12:36:56:160
-8.663286193847656,-5.124710266113281,0.8642935791015625,0.030911183856279015,0.0269122706289839,-0.010389694653374457,1.2150399684906006,2019-06-21 12:36:56:165
-8.624979553222657,-5.12351318359375,0.837957763671875,0.031044341910782983,0.027311744792495794,-0.0091912721628388,1.220031976699829,2019-06-21 12:36:56:170
-8.640541625976562,-5.117527770996094,0.8595052490234375,0.031976448292310715,0.027178586737991825,-0.00852548189031899,1.2250239849090576,2019-06-21 12:36:56:175
-8.62857080078125,-5.117527770996094,0.8559140014648438,0.033574344946358255,0.02598016424745617,-0.009058114108334838,1.2300159931182861,2019-06-21 12:36:56:180
-8.627373718261719,-5.122316101074219,0.8690819091796875,0.03290855467383845,0.02677911257447994,-0.008791797999326913,1.2350080013275146,2019-06-21 12:36:56:185
-8.636950378417968,-5.112739440917968,0.8607023315429687,0.032775396619334485,0.027311744792495794,-0.009723904380854647,1.2400000095367432,2019-06-21 12:36:56:190
-8.62019122314453,-5.118724853515625,0.8271840209960938,0.03210960634681467,0.027311744792495794,-0.010123378544366533,1.2449920177459717,2019-06-21 12:36:56:195
-8.598643737792969,-5.1306956787109375,0.8583081665039062,0.032375922455822596,0.027444902846999755,-0.009990220489862572,1.2500481605529785,2019-06-21 12:36:56:200
-8.62019122314453,-5.125907348632812,0.9109797973632813,0.03290855467383845,0.0269122706289839,-0.009324430217342762,1.255039930343628,2019-06-21 12:36:56:205
-8.60941748046875,-5.098374450683593,0.9037973022460938,0.03330802883735033,0.028243851174023525,-0.008392323835815028,1.2600319385528564,2019-06-21 12:36:56:210
-8.62019122314453,-5.10435986328125,0.9157681274414062,0.03290855467383845,0.02864332533753541,-0.008924956053830875,1.265023946762085,2019-06-21 12:36:56:215
-8.622585388183593,-5.106754028320313,0.9133739624023437,0.032375922455822596,0.027178586737991825,-0.008658639944822952,1.2700159549713135,2019-06-21 12:36:56:220
-8.610614562988282,-5.1163306884765625,0.9157681274414062,0.03184329023780675,0.02851016728303145,-0.008392323835815028,1.275007963180542,2019-06-21 12:36:56:225
-8.5998408203125,-5.110345275878906,0.9157681274414062,0.031044341910782983,0.02771121895600768,-0.008924956053830875,1.2799999713897705,2019-06-21 12:36:56:230
-8.617797058105468,-5.103162780761719,0.9325272827148438,0.030778025801775053,0.02771121895600768,-0.008924956053830875,1.284991979598999,2019-06-21 12:36:56:235
-8.642935791015624,-5.105556945800781,0.9385126953125,0.031177499965286945,0.027977535065015602,-0.00852548189031899,1.2900481224060059,2019-06-21 12:36:56:240
-8.646527038574218,-5.105556945800781,0.8834468994140625,0.031576974128798826,0.028110693119519563,-0.007593375508791257,1.2950401306152344,2019-06-21 12:36:56:245
-8.653709533691407,-5.128301513671875,0.8774614868164062,0.030778025801775053,0.028377009228527487,-0.008791797999326913,1.300032138824463,2019-06-21 12:36:56:250
-8.623782470703125,-5.119921936035156,0.9014031372070312,0.031177499965286945,0.028909641446543333,-0.008924956053830875,1.3050241470336914,2019-06-21 12:36:56:255
-8.626176635742187,-5.10435986328125,0.87147607421875,0.03184329023780675,0.02877648339203937,-0.008791797999326913,1.31001615524292,2019-06-21 12:36:56:260
-8.623782470703125,-5.134286926269531,0.8463373413085937,0.03184329023780675,0.02864332533753541,-0.009723904380854647,1.3150081634521484,2019-06-21 12:36:56:265
-8.593855407714843,-5.117527770996094,0.85232275390625,0.030911183856279015,0.03024122199158295,-0.007460217454287295,1.3199999332427979,2019-06-21 12:36:56:270
-8.630964965820313,-5.119921936035156,0.8463373413085937,0.030911183856279015,0.029841747828071065,-0.006528111072759562,1.3249919414520264,2019-06-21 12:36:56:275
-8.630964965820313,-5.158228576660156,0.8630964965820312,0.03144381607429487,0.029841747828071065,-0.007992849672303142,1.3300480842590332,2019-06-21 12:36:56:280
-8.5998408203125,-5.143863586425781,0.8642935791015625,0.03144381607429487,0.029042799501047295,-0.0077265335632952185,1.3350400924682617,2019-06-21 12:36:56:285
-8.618994140625,-5.121119018554688,0.876264404296875,0.03250908051032656,0.028909641446543333,-0.007992849672303142,1.3400321006774902,2019-06-21 12:36:56:290
-8.618994140625,-5.117527770996094,0.8654906616210938,0.033574344946358255,0.02944227366455918,-0.0070607432907754085,1.3450241088867188,2019-06-21 12:36:56:295
-8.645329956054688,-5.118724853515625,0.9002060546874999,0.03317487078284637,0.02930911561005522,-0.0063949530182556,1.3500161170959473,2019-06-21 12:36:56:300
-8.613008728027344,-5.1139365234375,0.9002060546874999,0.0341069771643741,0.02877648339203937,-0.0063949530182556,1.3550081253051758,2019-06-21 12:36:56:305
-8.615402893066406,-5.089994873046875,0.876264404296875,0.035305401735504366,0.03117332837311069,-0.006261794963751639,1.3600001335144043,2019-06-21 12:36:56:310
-8.613008728027344,-5.109148193359375,0.9037973022460938,0.034240135218878066,0.029974905882575027,-0.0070607432907754085,1.3649921417236328,2019-06-21 12:36:56:315
-8.64772412109375,-5.093586120605469,0.837957763671875,0.033441186891854296,0.03117332837311069,-0.006927585236271447,1.3700480461120605,2019-06-21 12:36:56:320
-8.630964965820313,-5.076826965332031,0.8858410644531249,0.033441186891854296,0.030507538100590873,-0.006528111072759562,1.375040054321289,2019-06-21 12:36:56:325
-8.66687744140625,-5.0756298828125,0.8822498168945312,0.034639609382389955,0.03143964448211861,-0.006794427181767485,1.3800320625305176,2019-06-21 12:36:56:330
-8.627373718261719,-5.092389038085938,0.8786585693359374,0.03557171784451229,0.03197227670013446,-0.00506337247321598,1.385024070739746,2019-06-21 12:36:56:335
-8.639344543457032,-5.098374450683593,0.8618994140625,0.03557171784451229,0.03237175086364634,-0.004530740255200133,1.3900160789489746,2019-06-21 12:36:56:340
-8.639344543457032,-5.089994873046875,0.8774614868164062,0.035438559790008324,0.03237175086364634,-0.004530740255200133,1.3950080871582031,2019-06-21 12:36:56:345
-8.656103698730469,-5.128301513671875,0.8487315063476563,0.036237508117032094,0.03343701529967803,-0.00572916274573579,1.4000000953674316,2019-06-21 12:36:56:350
-8.636950378417968,-5.098374450683593,0.881052734375,0.036903298389551906,0.032105434754638416,-0.00572916274573579,1.4049921035766602,2019-06-21 12:36:56:355
-8.646527038574218,-5.088797790527344,0.83316943359375,0.036903298389551906,0.031306486427614647,-0.006261794963751639,1.410048007965088,2019-06-21 12:36:56:360
-8.626176635742187,-5.1163306884765625,0.8750673217773437,0.03637066617153606,0.032105434754638416,-0.005462846636727866,1.4150400161743164,2019-06-21 12:36:56:365
-8.651315368652343,-5.097177368164062,0.8702789916992187,0.03637066617153606,0.03237175086364634,-0.006128636909247675,1.420032024383545,2019-06-21 12:36:56:370
-8.672862854003906,-5.1019656982421875,0.8618994140625,0.037036456444055864,0.03143964448211861,-0.006261794963751639,1.4250240325927734,2019-06-21 12:36:56:375
-8.644132873535156,-5.098374450683593,0.8702789916992187,0.036237508117032094,0.03263806697265426,-0.0066612691272635235,1.430016040802002,2019-06-21 12:36:56:380
-8.624979553222657,-5.097177368164062,0.8583081665039062,0.036237508117032094,0.031306486427614647,-0.0073270593997833335,1.4350080490112305,2019-06-21 12:36:56:385
-8.646527038574218,-5.089994873046875,0.8738702392578125,0.037702246716575676,0.03237175086364634,-0.007193901345279372,1.440000057220459,2019-06-21 12:36:56:390
-8.6381474609375,-5.099571533203125,0.89062939453125,0.037036456444055864,0.031306486427614647,-0.0070607432907754085,1.4449920654296875,2019-06-21 12:36:56:395
-8.654906616210937,-5.095980285644531,0.8822498168945312,0.037036456444055864,0.032504908918150305,-0.006528111072759562,1.4500479698181152,2019-06-21 12:36:56:400
-8.65730078125,-5.06605322265625,0.8630964965820312,0.03783540477107964,0.032904383081662186,-0.007460217454287295,1.4550399780273438,2019-06-21 12:36:56:405
-8.64892120361328,-5.091191955566406,0.8726731567382813,0.03823487893459153,0.03277122502715823,-0.0077265335632952185,1.4600319862365723,2019-06-21 12:36:56:410
-8.686030761718749,-5.092389038085938,0.89062939453125,0.03743593060756775,0.032904383081662186,-0.007593375508791257,1.4650239944458008,2019-06-21 12:36:56:415
-8.675257019042968,-5.069644470214843,0.8547169189453124,0.03743593060756775,0.03183911864563049,-0.00785969161779918,1.4700160026550293,2019-06-21 12:36:56:420
-8.669271606445312,-5.045702819824219,0.8738702392578125,0.038101720880087564,0.03223859280914238,-0.008259165781311067,1.4750080108642578,2019-06-21 12:36:56:425
-8.660892028808593,-5.04689990234375,0.8918264770507812,0.03756908866207172,0.03237175086364634,-0.008658639944822952,1.4800000190734863,2019-06-21 12:36:56:430
-8.682439514160157,-5.043308654785156,0.857111083984375,0.037302772553063794,0.031040170318606727,-0.0091912721628388,1.4849920272827148,2019-06-21 12:36:56:435
-8.689622009277343,-5.051688232421875,0.8618994140625,0.03743593060756775,0.030773854209598796,-0.009058114108334838,1.4900479316711426,2019-06-21 12:36:56:440
-8.662089111328125,-5.076826965332031,0.8834468994140625,0.03663698228054398,0.03117332837311069,-0.009857062435358608,1.495039939880371,2019-06-21 12:36:56:445
-8.690819091796875,-5.031337829589844,0.89062939453125,0.037036456444055864,0.02944227366455918,-0.01065601076238238,1.5000319480895996,2019-06-21 12:36:56:450
-8.684833679199219,-5.045702819824219,0.8642935791015625,0.036903298389551906,0.030640696155094835,-0.011854433252918036,1.5050239562988281,2019-06-21 12:36:56:455
-8.698001586914062,-5.048096984863281,0.8690819091796875,0.03570487589901625,0.03037438004608691,-0.011721275198414075,1.5100159645080566,2019-06-21 12:36:56:460
-8.662089111328125,-5.057673645019531,0.8942206420898438,0.036104350062528136,0.03024122199158295,-0.012387065470933887,1.5150079727172852,2019-06-21 12:36:56:465
-8.66687744140625,-5.039717407226562,0.8547169189453124,0.03570487589901625,0.02944227366455918,-0.013052855743453695,1.5199999809265137,2019-06-21 12:36:56:470
-8.67765118408203,-5.054082397460937,0.8583081665039062,0.035438559790008324,0.02930911561005522,-0.014384436288493315,1.5249919891357422,2019-06-21 12:36:56:475
-8.692016174316405,-5.069644470214843,0.89062939453125,0.03490592549139788,0.029974905882575027,-0.014384436288493315,1.530048131942749,2019-06-21 12:36:56:480
-8.6764541015625,-5.080418212890625,0.8918264770507812,0.035438559790008324,0.030640696155094835,-0.014384436288493315,1.5350401401519775,2019-06-21 12:36:56:485
-8.653709533691407,-5.0421115722656245,0.8918264770507812,0.03503908562649644,0.031306486427614647,-0.015050226561013123,1.540032148361206,2019-06-21 12:36:56:490
-8.66687744140625,-5.060067810058594,0.8511256713867187,0.03503908562649644,0.030640696155094835,-0.015849174888036895,1.5450241565704346,2019-06-21 12:36:56:495
-8.64772412109375,-5.069644470214843,0.857111083984375,0.0341069771643741,0.031306486427614647,-0.015183384615517085,1.550016164779663,2019-06-21 12:36:56:500
-8.636950378417968,-5.060067810058594,0.818804443359375,0.03450645132788599,0.028909641446543333,-0.015316542670021046,1.5550079345703125,2019-06-21 12:36:56:505
-8.650118286132813,-5.091191955566406,0.8223956909179687,0.034373293273382025,0.02851016728303145,-0.017713387651092365,1.559999942779541,2019-06-21 12:36:56:510
-8.64892120361328,-5.057673645019531,0.8690819091796875,0.036104350062528136,0.028909641446543333,-0.01824601986910821,1.5649919509887695,2019-06-21 12:36:56:515
-8.639344543457032,-5.039717407226562,0.857111083984375,0.036237508117032094,0.02930911561005522,-0.017979703760100288,1.5700480937957764,2019-06-21 12:36:56:520
-8.641738708496094,-5.060067810058594,0.8583081665039062,0.036903298389551906,0.027977535065015602,-0.017447071542084438,1.5750401020050049,2019-06-21 12:36:56:525
-8.665680358886718,-5.063659057617188,0.8978118896484375,0.03663698228054398,0.02944227366455918,-0.01824601986910821,1.5800321102142334,2019-06-21 12:36:56:530
-8.686030761718749,-5.039717407226562,0.8846439819335937,0.036237508117032094,0.02944227366455918,-0.018645494032620096,1.585024118423462,2019-06-21 12:36:56:535
-8.660892028808593,-5.064856140136719,0.8918264770507812,0.0351722436810004,0.02771121895600768,-0.01944444235964387,1.5900161266326904,2019-06-21 12:36:56:540
-8.66687744140625,-5.034929077148437,0.8990089721679687,0.03477276743689391,0.02784437701051164,-0.019710758468651793,1.595008134841919,2019-06-21 12:36:56:545
-8.653709533691407,-5.050491149902344,0.9109797973632813,0.035438559790008324,0.02784437701051164,-0.021175497068195374,1.6000001430511475,2019-06-21 12:36:56:550
-8.658497863769531,-5.0421115722656245,0.9277389526367187,0.034639609382389955,0.02851016728303145,-0.021841287340715183,1.604992151260376,2019-06-21 12:36:56:555
-8.6381474609375,-5.039717407226562,0.9121768798828125,0.0341069771643741,0.029175957555551257,-0.021308655122699336,1.6100480556488037,2019-06-21 12:36:56:560
-8.651315368652343,-5.061264892578125,0.92893603515625,0.033441186891854296,0.02944227366455918,-0.022640235667738953,1.6150400638580322,2019-06-21 12:36:56:565
-8.696804504394532,-5.076826965332031,0.8798556518554688,0.03224276440131864,0.028909641446543333,-0.022240761504227068,1.6200320720672607,2019-06-21 12:36:56:570
-8.680045349121093,-5.076826965332031,0.8690819091796875,0.03264223856483052,0.02851016728303145,-0.021841287340715183,1.6250240802764893,2019-06-21 12:36:56:575
-8.645329956054688,-5.070841552734375,0.81401611328125,0.03304171272834241,0.027045428683487863,-0.02237391955873103,1.6300160884857178,2019-06-21 12:36:56:580
-8.646527038574218,-5.0876007080078125,0.8678848266601562,0.03304171272834241,0.0269122706289839,-0.02330602594025876,1.6350080966949463,2019-06-21 12:36:56:585
-8.653709533691407,-5.088797790527344,0.8846439819335937,0.0341069771643741,0.027178586737991825,-0.024238132321786496,1.6400001049041748,2019-06-21 12:36:56:590
-8.654906616210937,-5.082812377929687,0.8726731567382813,0.033441186891854296,0.02864332533753541,-0.0231728678857548,1.6449921131134033,2019-06-21 12:36:56:595
-8.654906616210937,-5.076826965332031,0.8152131958007812,0.03304171272834241,0.027045428683487863,-0.023971816212778572,1.650048017501831,2019-06-21 12:36:56:600
-8.642935791015624,-5.095980285644531,0.8559140014648438,0.03290855467383845,0.02584700619295221,-0.024903922594306308,1.6550400257110596,2019-06-21 12:36:56:605
-8.664483276367188,-5.061264892578125,0.90978271484375,0.03370750300086222,0.0269122706289839,-0.024104974267282534,1.660032033920288,2019-06-21 12:36:56:610
-8.65730078125,-5.074432800292969,0.9109797973632813,0.0341069771643741,0.02771121895600768,-0.024637606485298384,1.6650240421295166,2019-06-21 12:36:56:615
-8.658497863769531,-5.08520654296875,0.87147607421875,0.03330802883735033,0.028243851174023525,-0.024903922594306308,1.6700160503387451,2019-06-21 12:36:56:620
-8.635753295898438,-5.054082397460937,0.8846439819335937,0.03384066105536618,0.028243851174023525,-0.024637606485298384,1.6750080585479736,2019-06-21 12:36:56:625
-8.633359130859375,-5.0588707275390625,0.8870381469726563,0.033574344946358255,0.028909641446543333,-0.024637606485298384,1.6800000667572021,2019-06-21 12:36:56:630
-8.630964965820313,-5.079221130371094,0.881052734375,0.03317487078284637,0.02784437701051164,-0.025436554812322154,1.6849920749664307,2019-06-21 12:36:56:635
-8.641738708496094,-5.0756298828125,0.8559140014648438,0.03264223856483052,0.029708589773567103,-0.02676813535736177,1.6900479793548584,2019-06-21 12:36:56:640
-8.615402893066406,-5.105556945800781,0.8774614868164062,0.03330802883735033,0.029974905882575027,-0.026368661193849886,1.695039987564087,2019-06-21 12:36:56:645
-8.634556213378906,-5.08520654296875,0.8870381469726563,0.03397381910987014,0.029974905882575027,-0.026102345084841962,1.7000319957733154,2019-06-21 12:36:56:650
-8.652512451171875,-5.08520654296875,0.8918264770507812,0.03304171272834241,0.030108063937078988,-0.027567083684385544,1.705024003982544,2019-06-21 12:36:56:655
-8.65730078125,-5.091191955566406,0.8487315063476563,0.03317487078284637,0.02930911561005522,-0.027034451466369694,1.7100160121917725,2019-06-21 12:36:56:660
-8.646527038574218,-5.111542358398437,0.8415490112304688,0.033574344946358255,0.029042799501047295,-0.026102345084841962,1.715008020401001,2019-06-21 12:36:56:665
-8.639344543457032,-5.10435986328125,0.8583081665039062,0.034240135218878066,0.02864332533753541,-0.02676813535736177,1.7200000286102295,2019-06-21 12:36:56:670
-8.6381474609375,-5.060067810058594,0.8463373413085937,0.03570487589901625,0.02851016728303145,-0.026102345084841962,1.724992036819458,2019-06-21 12:36:56:675
-8.64772412109375,-5.089994873046875,0.8319723510742187,0.035305401735504366,0.029841747828071065,-0.026368661193849886,1.7300479412078857,2019-06-21 12:36:56:680
-8.629767883300781,-5.119921936035156,0.8738702392578125,0.034240135218878066,0.031040170318606727,-0.026235503139345924,1.7350399494171143,2019-06-21 12:36:56:685
-8.632162048339843,-5.097177368164062,0.8750673217773437,0.035438559790008324,0.030108063937078988,-0.02676813535736177,1.7400319576263428,2019-06-21 12:36:56:690
-8.669271606445312,-5.107951110839844,0.8499285888671875,0.03490592549139788,0.03037438004608691,-0.02743392562988158,1.7450239658355713,2019-06-21 12:36:56:695
-8.67765118408203,-5.057673645019531,0.866687744140625,0.03570487589901625,0.030507538100590873,-0.026901293411865732,1.7500159740447998,2019-06-21 12:36:56:700
-8.668074523925782,-5.043308654785156,0.85232275390625,0.036237508117032094,0.029974905882575027,-0.027167609520873656,1.7550079822540283,2019-06-21 12:36:56:705
-8.668074523925782,-5.06605322265625,0.8415490112304688,0.03503908562649644,0.030108063937078988,-0.027567083684385544,1.7599999904632568,2019-06-21 12:36:56:710
-8.646527038574218,-5.068447387695312,0.8475344238281249,0.03490592549139788,0.02957543171906314,-0.028765506174921202,1.7649919986724854,2019-06-21 12:36:56:715
-8.658497863769531,-5.0289436645507815,0.866687744140625,0.0351722436810004,0.029175957555551257,-0.02849919006591328,1.7700481414794922,2019-06-21 12:36:56:720
-8.670468688964844,-5.061264892578125,0.895417724609375,0.03503908562649644,0.029042799501047295,-0.02849919006591328,1.7750401496887207,2019-06-21 12:36:56:725
-8.632162048339843,-5.052885314941406,0.9085856323242187,0.034240135218878066,0.02877648339203937,-0.029164980338433087,1.7800321578979492,2019-06-21 12:36:56:730
-8.651315368652343,-5.076826965332031,0.8595052490234375,0.03397381910987014,0.028110693119519563,-0.029963928665456857,1.7850241661071777,2019-06-21 12:36:56:735
-8.645329956054688,-5.070841552734375,0.8475344238281249,0.034240135218878066,0.028909641446543333,-0.03009708671996082,1.7900159358978271,2019-06-21 12:36:56:740
-8.651315368652343,-5.070841552734375,0.8750673217773437,0.03370750300086222,0.028377009228527487,-0.029963928665456857,1.7950079441070557,2019-06-21 12:36:56:745
-8.665680358886718,-5.069644470214843,0.8978118896484375,0.03370750300086222,0.029708589773567103,-0.031162351155992515,1.7999999523162842,2019-06-21 12:36:56:750
-8.678848266601562,-5.0756298828125,0.8690819091796875,0.03397381910987014,0.030108063937078988,-0.03142866726500044,1.8049919605255127,2019-06-21 12:36:56:755
-8.686030761718749,-5.074432800292969,0.8642935791015625,0.03370750300086222,0.028909641446543333,-0.030629718937976665,1.8100481033325195,2019-06-21 12:36:56:760
-8.671665771484374,-5.06605322265625,0.9169652099609374,0.033574344946358255,0.028377009228527487,-0.03129550921049648,1.815040111541748,2019-06-21 12:36:56:765
-8.654906616210937,-5.054082397460937,0.8798556518554688,0.03397381910987014,0.0269122706289839,-0.032360773646528174,1.8200321197509766,2019-06-21 12:36:56:770
-8.665680358886718,-5.084009460449218,0.8499285888671875,0.0341069771643741,0.0269122706289839,-0.03289340586454402,1.825024127960205,2019-06-21 12:36:56:775
-8.64892120361328,-5.064856140136719,0.89062939453125,0.03330802883735033,0.026512796465472017,-0.033159721973551944,1.8300161361694336,2019-06-21 12:36:56:780
-8.660892028808593,-5.081615295410156,0.8463373413085937,0.032775396619334485,0.026379638410968055,-0.03342603808255987,1.835008144378662,2019-06-21 12:36:56:785
-8.651315368652343,-5.064856140136719,0.8547169189453124,0.032375922455822596,0.02677911257447994,-0.03382551224607175,1.8400001525878906,2019-06-21 12:36:56:790
-8.660892028808593,-5.06605322265625,0.837957763671875,0.03250908051032656,0.026379638410968055,-0.033559196137063825,1.8449921607971191,2019-06-21 12:36:56:795
-8.640541625976562,-5.074432800292969,0.8738702392578125,0.03224276440131864,0.0251812159204324,-0.0326270897555361,1.8500480651855469,2019-06-21 12:36:56:800
-8.640541625976562,-5.052885314941406,0.8894323120117187,0.03210960634681467,0.026113322301960132,-0.032760247810040055,1.8550400733947754,2019-06-21 12:36:56:805
-8.644132873535156,-5.072038635253906,0.8774614868164062,0.03171013218330279,0.025580690083944285,-0.03409182835507967,1.860032081604004,2019-06-21 12:36:56:810
-8.605826232910156,-5.095980285644531,0.8487315063476563,0.031576974128798826,0.026379638410968055,-0.03422498640958364,1.8650240898132324,2019-06-21 12:36:56:815
-8.640541625976562,-5.086403625488281,0.895417724609375,0.0313106580197909,0.025314373974936362,-0.034624460573095525,1.870016098022461,2019-06-21 12:36:56:820
-8.64772412109375,-5.06605322265625,0.9026002197265625,0.031044341910782983,0.027178586737991825,-0.03489077668210345,1.8750081062316895,2019-06-21 12:36:56:825
-8.645329956054688,-5.092389038085938,0.8774614868164062,0.031576974128798826,0.02664595451997598,-0.03489077668210345,1.880000114440918,2019-06-21 12:36:56:830
-8.601037902832031,-5.0876007080078125,0.8535198364257812,0.03144381607429487,0.026379638410968055,-0.03395867030057571,1.8849921226501465,2019-06-21 12:36:56:835
-8.635753295898438,-5.1139365234375,0.9121768798828125,0.03064486774727109,0.02584700619295221,-0.034624460573095525,1.8900480270385742,2019-06-21 12:36:56:840
-8.6381474609375,-5.124710266113281,0.8642935791015625,0.03184329023780675,0.025447532029440324,-0.03449130251859156,1.8950400352478027,2019-06-21 12:36:56:845
-8.614205810546874,-5.134286926269531,0.866687744140625,0.031177499965286945,0.02584700619295221,-0.03582288306363118,1.9000320434570312,2019-06-21 12:36:56:850
-8.636950378417968,-5.115133605957031,0.8642935791015625,0.031177499965286945,0.026379638410968055,-0.03382551224607175,1.9050240516662598,2019-06-21 12:36:56:855
-8.626176635742187,-5.135484008789063,0.8583081665039062,0.031576974128798826,0.027178586737991825,-0.034358144464087595,1.9100160598754883,2019-06-21 12:36:56:860
-8.60941748046875,-5.119921936035156,0.8978118896484375,0.03210960634681467,0.02677911257447994,-0.03449130251859156,1.9150080680847168,2019-06-21 12:36:56:865
-8.623782470703125,-5.106754028320313,0.8930235595703124,0.03264223856483052,0.027045428683487863,-0.0332928800280559,1.9200000762939453,2019-06-21 12:36:56:870
-8.636950378417968,-5.098374450683593,0.8966148071289062,0.03290855467383845,0.02598016424745617,-0.03302656391904798,1.9249920845031738,2019-06-21 12:36:56:875
-8.626176635742187,-5.125907348632812,0.8247898559570312,0.03250908051032656,0.027045428683487863,-0.03182814142851233,1.9300479888916016,2019-06-21 12:36:56:880
-8.608220397949218,-5.127104431152343,0.87147607421875,0.03224276440131864,0.027444902846999755,-0.03209445753752025,1.93503999710083,2019-06-21 12:36:56:885
-8.607023315429688,-5.153440246582031,0.8654906616210938,0.032375922455822596,0.027977535065015602,-0.031961299483016285,1.9400320053100586,2019-06-21 12:36:56:890
-8.604629150390625,-5.151046081542969,0.8547169189453124,0.03304171272834241,0.028377009228527487,-0.03089603504698459,1.945024013519287,2019-06-21 12:36:56:895
-8.601037902832031,-5.14266650390625,0.8774614868164062,0.03290855467383845,0.027444902846999755,-0.031162351155992515,1.9500160217285156,2019-06-21 12:36:56:900
-8.617797058105468,-5.118724853515625,0.8750673217773437,0.033441186891854296,0.02677911257447994,-0.031561825319504404,1.9550080299377441,2019-06-21 12:36:56:905
-8.611811645507812,-5.136681091308594,0.8415490112304688,0.03317487078284637,0.0269122706289839,-0.03102919310148855,1.9600000381469727,2019-06-21 12:36:56:910
-8.623782470703125,-5.1522431640625,0.8774614868164062,0.03290855467383845,0.028377009228527487,-0.030363402828968742,1.9649920463562012,2019-06-21 12:36:56:915
-8.601037902832031,-5.14266650390625,0.8702789916992187,0.03384066105536618,0.028377009228527487,-0.028765506174921202,1.970047950744629,2019-06-21 12:36:56:920
-8.601037902832031,-5.173790649414062,0.8463373413085937,0.03490592549139788,0.028377009228527487,-0.02863234812041724,1.9750399589538574,2019-06-21 12:36:56:925
-8.60941748046875,-5.151046081542969,0.8702789916992187,0.0351722436810004,0.028243851174023525,-0.02796655784789743,1.980031967163086,2019-06-21 12:36:56:930
-8.62019122314453,-5.143863586425781,0.8774614868164062,0.03637066617153606,0.029841747828071065,-0.027300767575377617,1.9850239753723145,2019-06-21 12:36:56:935
-8.616599975585938,-5.117527770996094,0.8858410644531249,0.03663698228054398,0.030640696155094835,-0.027567083684385544,1.990015983581543,2019-06-21 12:36:56:940
-8.615402893066406,-5.136681091308594,0.8990089721679687,0.03597119200802417,0.029708589773567103,-0.02743392562988158,1.9950079917907715,2019-06-21 12:36:56:945
-8.587869995117188,-5.109148193359375,0.9157681274414062,0.03557171784451229,0.029974905882575027,-0.027567083684385544,2.0,2019-06-21 12:36:56:950
-8.626176635742187,-5.1139365234375,0.89062939453125,0.036104350062528136,0.029841747828071065,-0.027567083684385544,2.0049920082092285,2019-06-21 12:36:56:955
-8.624979553222657,-5.145060668945312,0.8822498168945312,0.03570487589901625,0.029708589773567103,-0.026501819248353847,2.0100481510162354,2019-06-21 12:36:56:960
-8.611811645507812,-5.1462577514648435,0.8618994140625,0.035438559790008324,0.02957543171906314,-0.024903922594306308,2.015040159225464,2019-06-21 12:36:56:965
-8.613008728027344,-5.121119018554688,0.8798556518554688,0.03597119200802417,0.030640696155094835,-0.024371290376290457,2.0200319290161133,2019-06-21 12:36:56:970
-8.614205810546874,-5.099571533203125,0.9205564575195312,0.03583803395352021,0.02957543171906314,-0.02517023870331423,2.025023937225342,2019-06-21 12:36:56:975
-8.627373718261719,-5.134286926269531,0.87147607421875,0.03570487589901625,0.03024122199158295,-0.025303396757818192,2.0300159454345703,2019-06-21 12:36:56:980
-8.62019122314453,-5.1306956787109375,0.8630964965820312,0.03557171784451229,0.03024122199158295,-0.025303396757818192,2.035007953643799,2019-06-21 12:36:56:985
-8.640541625976562,-5.131892761230469,0.876264404296875,0.03650382422604002,0.03037438004608691,-0.024104974267282534,2.0399999618530273,2019-06-21 12:36:56:990
-8.595052490234375,-5.129498596191406,0.9073885498046875,0.03583803395352021,0.03024122199158295,-0.02450444843079442,2.044991970062256,2019-06-21 12:36:56:995
-8.62857080078125,-5.122316101074219,0.8595052490234375,0.036104350062528136,0.03024122199158295,-0.023705500103770646,2.0500481128692627,2019-06-21 12:36:57:000
-8.623782470703125,-5.134286926269531,0.8595052490234375,0.035305401735504366,0.03024122199158295,-0.023971816212778572,2.055040121078491,2019-06-21 12:36:57:005
-8.615402893066406,-5.1306956787109375,0.8786585693359374,0.035438559790008324,0.030507538100590873,-0.023439183994762722,2.0600321292877197,2019-06-21 12:36:57:010
-8.5998408203125,-5.137878173828125,0.8547169189453124,0.035305401735504366,0.030507538100590873,-0.023039709831250837,2.0650241374969482,2019-06-21 12:36:57:015
-8.607023315429688,-5.137878173828125,0.8535198364257812,0.03490592549139788,0.03037438004608691,-0.023439183994762722,2.0700161457061768,2019-06-21 12:36:57:020
-8.650118286132813,-5.117527770996094,0.8750673217773437,0.03503908562649644,0.029974905882575027,-0.023705500103770646,2.0750081539154053,2019-06-21 12:36:57:025
-8.630964965820313,-5.106754028320313,0.8690819091796875,0.03583803395352021,0.029974905882575027,-0.022773393722242914,2.080000162124634,2019-06-21 12:36:57:030
-8.6381474609375,-5.1163306884765625,0.8750673217773437,0.03583803395352021,0.030507538100590873,-0.022640235667738953,2.084991931915283,2019-06-21 12:36:57:035
-8.64892120361328,-5.122316101074219,0.9002060546874999,0.035438559790008324,0.029974905882575027,-0.022240761504227068,2.09004807472229,2019-06-21 12:36:57:040
-8.62857080078125,-5.106754028320313,0.876264404296875,0.03557171784451229,0.029708589773567103,-0.021441813177203298,2.0950400829315186,2019-06-21 12:36:57:045
-8.602234985351563,-5.1139365234375,0.8930235595703124,0.03557171784451229,0.02930911561005522,-0.02157497123170726,2.100032091140747,2019-06-21 12:36:57:050
-8.5998408203125,-5.12351318359375,0.8738702392578125,0.036104350062528136,0.02957543171906314,-0.020776022904683486,2.1050240993499756,2019-06-21 12:36:57:055
-8.616599975585938,-5.137878173828125,0.8990089721679687,0.03557171784451229,0.029974905882575027,-0.021841287340715183,2.110016107559204,2019-06-21 12:36:57:060
-8.60941748046875,-5.1139365234375,0.8786585693359374,0.034240135218878066,0.029841747828071065,-0.021974445395219144,2.1150081157684326,2019-06-21 12:36:57:065
-8.632162048339843,-5.109148193359375,0.8942206420898438,0.034240135218878066,0.030108063937078988,-0.023439183994762722,2.120000123977661,2019-06-21 12:36:57:070
-8.597446655273437,-5.1019656982421875,0.84274609375,0.03477276743689391,0.030507538100590873,-0.02237391955873103,2.1249921321868896,2019-06-21 12:36:57:075
-8.627373718261719,-5.099571533203125,0.8774614868164062,0.034373293273382025,0.030108063937078988,-0.02237391955873103,2.1300480365753174,2019-06-21 12:36:57:080
-8.614205810546874,-5.109148193359375,0.8858410644531249,0.03490592549139788,0.029708589773567103,-0.021175497068195374,2.135040044784546,2019-06-21 12:36:57:085
-8.614205810546874,-5.127104431152343,0.8786585693359374,0.034240135218878066,0.030773854209598796,-0.020909180959187448,2.1400320529937744,2019-06-21 12:36:57:090
-8.624979553222657,-5.136681091308594,0.8642935791015625,0.03477276743689391,0.031705960591126535,-0.02237391955873103,2.145024061203003,2019-06-21 12:36:57:095
-8.627373718261719,-5.137878173828125,0.87147607421875,0.03450645132788599,0.031040170318606727,-0.0231728678857548,2.1500160694122314,2019-06-21 12:36:57:100
-8.62857080078125,-5.13308984375,0.8882352294921875,0.03450645132788599,0.029175957555551257,-0.021974445395219144,2.15500807762146,2019-06-21 12:36:57:105
-8.610614562988282,-5.086403625488281,0.87147607421875,0.034240135218878066,0.029175957555551257,-0.022107603449723106,2.1600000858306885,2019-06-21 12:36:57:110
-8.603432067871093,-5.117527770996094,0.8535198364257812,0.034240135218878066,0.02944227366455918,-0.0203765487411716,2.164992094039917,2019-06-21 12:36:57:115
-8.610614562988282,-5.139075256347656,0.8607023315429687,0.03490592549139788,0.028909641446543333,-0.021441813177203298,2.1700479984283447,2019-06-21 12:36:57:120
-8.632162048339843,-5.135484008789063,0.8822498168945312,0.0341069771643741,0.029841747828071065,-0.021308655122699336,2.1750400066375732,2019-06-21 12:36:57:125
-8.629767883300781,-5.128301513671875,0.8822498168945312,0.033441186891854296,0.028909641446543333,-0.021175497068195374,2.1800320148468018,2019-06-21 12:36:57:130
-8.632162048339843,-5.145060668945312,0.8894323120117187,0.034639609382389955,0.029042799501047295,-0.020509706795675563,2.1850240230560303,2019-06-21 12:36:57:135
-8.62857080078125,-5.143863586425781,0.8990089721679687,0.03477276743689391,0.029841747828071065,-0.018645494032620096,2.190016031265259,2019-06-21 12:36:57:140
-8.605826232910156,-5.1306956787109375,0.9085856323242187,0.035438559790008324,0.029841747828071065,-0.019710758468651793,2.1950719356536865,2019-06-21 12:36:57:145
-8.621388305664063,-5.124710266113281,0.9133739624023437,0.034639609382389955,0.02864332533753541,-0.01944444235964387,2.200000047683716,2019-06-21 12:36:57:150
-8.630964965820313,-5.135484008789063,0.9325272827148438,0.034373293273382025,0.02877648339203937,-0.020642864850179524,2.2049920558929443,2019-06-21 12:36:57:155
-8.636950378417968,-5.147454833984375,0.866687744140625,0.0341069771643741,0.029175957555551257,-0.021175497068195374,2.210047960281372,2019-06-21 12:36:57:160
-8.636950378417968,-5.153440246582031,0.8690819091796875,0.03397381910987014,0.029042799501047295,-0.020110232632163678,2.2150399684906006,2019-06-21 12:36:57:165
-8.60941748046875,-5.141469421386718,0.8834468994140625,0.03397381910987014,0.027578060901503717,-0.019311284305139904,2.220031976699829,2019-06-21 12:36:57:170
-8.611811645507812,-5.139075256347656,0.8942206420898438,0.034373293273382025,0.027578060901503717,-0.01904496819613198,2.2250239849090576,2019-06-21 12:36:57:175
-8.597446655273437,-5.135484008789063,0.9014031372070312,0.03384066105536618,0.028110693119519563,-0.019311284305139904,2.230015993118286,2019-06-21 12:36:57:180
-8.601037902832031,-5.139075256347656,0.8798556518554688,0.0341069771643741,0.027578060901503717,-0.019710758468651793,2.2350080013275146,2019-06-21 12:36:57:185
-8.62019122314453,-5.124710266113281,0.8654906616210938,0.03450645132788599,0.027578060901503717,-0.01944444235964387,2.240000009536743,2019-06-21 12:36:57:190
-8.596249572753907,-5.125907348632812,0.866687744140625,0.03397381910987014,0.028110693119519563,-0.01811286181460425,2.2449920177459717,2019-06-21 12:36:57:195
-8.610614562988282,-5.125907348632812,0.8642935791015625,0.03370750300086222,0.028243851174023525,-0.01824601986910821,2.2500481605529785,2019-06-21 12:36:57:200
-8.615402893066406,-5.12351318359375,0.8595052490234375,0.03397381910987014,0.029042799501047295,-0.017846545705596326,2.255039930343628,2019-06-21 12:36:57:205
-8.632162048339843,-5.093586120605469,0.8535198364257812,0.033441186891854296,0.02957543171906314,-0.018512335978116135,2.2600319385528564,2019-06-21 12:36:57:210
-8.64772412109375,-5.129498596191406,0.8942206420898438,0.03317487078284637,0.029175957555551257,-0.019311284305139904,2.265023946762085,2019-06-21 12:36:57:215
-8.654906616210937,-5.124710266113281,0.8930235595703124,0.03290855467383845,0.028909641446543333,-0.01944444235964387,2.2700159549713135,2019-06-21 12:36:57:220
-8.634556213378906,-5.137878173828125,0.8870381469726563,0.033441186891854296,0.02930911561005522,-0.019710758468651793,2.275007963180542,2019-06-21 12:36:57:225
-8.614205810546874,-5.1306956787109375,0.8822498168945312,0.033441186891854296,0.028377009228527487,-0.018379177923612173,2.2799999713897705,2019-06-21 12:36:57:230
-8.614205810546874,-5.137878173828125,0.87147607421875,0.032375922455822596,0.02784437701051164,-0.018512335978116135,2.284991979598999,2019-06-21 12:36:57:235
-8.617797058105468,-5.117527770996094,0.8930235595703124,0.031576974128798826,0.029042799501047295,-0.018512335978116135,2.290048122406006,2019-06-21 12:36:57:240
-8.60941748046875,-5.149848999023438,0.9109797973632813,0.03144381607429487,0.028377009228527487,-0.01811286181460425,2.2950401306152344,2019-06-21 12:36:57:245
-8.62857080078125,-5.145060668945312,0.8966148071289062,0.031976448292310715,0.027311744792495794,-0.018645494032620096,2.300032138824463,2019-06-21 12:36:57:250
-8.60941748046875,-5.151046081542969,0.9002060546874999,0.031576974128798826,0.027045428683487863,-0.017979703760100288,2.3050241470336914,2019-06-21 12:36:57:255
-8.614205810546874,-5.109148193359375,0.8750673217773437,0.03184329023780675,0.028243851174023525,-0.01691443932406859,2.31001615524292,2019-06-21 12:36:57:260
-8.624979553222657,-5.14266650390625,0.8702789916992187,0.03210960634681467,0.02851016728303145,-0.017846545705596326,2.3150081634521484,2019-06-21 12:36:57:265
-8.605826232910156,-5.135484008789063,0.8942206420898438,0.033441186891854296,0.027311744792495794,-0.018778652087124058,2.319999933242798,2019-06-21 12:36:57:270
-8.602234985351563,-5.153440246582031,0.9109797973632813,0.03304171272834241,0.027977535065015602,-0.017713387651092365,2.3249919414520264,2019-06-21 12:36:57:275
-8.630964965820313,-5.12351318359375,0.8978118896484375,0.032375922455822596,0.028110693119519563,-0.016381807106052745,2.330048084259033,2019-06-21 12:36:57:280
-8.624979553222657,-5.131892761230469,0.9109797973632813,0.032775396619334485,0.02864332533753541,-0.01598233294254086,2.3350400924682617,2019-06-21 12:36:57:285
-8.627373718261719,-5.149848999023438,0.90978271484375,0.032775396619334485,0.029175957555551257,-0.017047597378572553,2.3400321006774902,2019-06-21 12:36:57:290
-8.610614562988282,-5.137878173828125,0.837957763671875,0.03304171272834241,0.027977535065015602,-0.016514965160556706,2.3450241088867188,2019-06-21 12:36:57:295
-8.632162048339843,-5.14266650390625,0.8343665161132813,0.032375922455822596,0.027578060901503717,-0.016514965160556706,2.3500161170959473,2019-06-21 12:36:57:300
-8.622585388183593,-5.136681091308594,0.8547169189453124,0.03250908051032656,0.028110693119519563,-0.016514965160556706,2.355008125305176,2019-06-21 12:36:57:305
-8.634556213378906,-5.14266650390625,0.8583081665039062,0.033574344946358255,0.029841747828071065,-0.015183384615517085,2.3600001335144043,2019-06-21 12:36:57:310
-8.62019122314453,-5.153440246582031,0.904994384765625,0.0341069771643741,0.028243851174023525,-0.01598233294254086,2.364992141723633,2019-06-21 12:36:57:315
-8.639344543457032,-5.155834411621093,0.8918264770507812,0.033574344946358255,0.02864332533753541,-0.015183384615517085,2.3700480461120605,2019-06-21 12:36:57:320
-8.630964965820313,-5.157031494140625,0.8882352294921875,0.032375922455822596,0.029708589773567103,-0.014118120179485391,2.375040054321289,2019-06-21 12:36:57:325
-8.645329956054688,-5.127104431152343,0.876264404296875,0.03317487078284637,0.03037438004608691,-0.013851804070477465,2.3800320625305176,2019-06-21 12:36:57:330
-8.636950378417968,-5.135484008789063,0.8403519287109374,0.034639609382389955,0.03024122199158295,-0.014517594342997276,2.385024070739746,2019-06-21 12:36:57:335
-8.597446655273437,-5.129498596191406,0.8487315063476563,0.03397381910987014,0.02930911561005522,-0.014118120179485391,2.3900160789489746,2019-06-21 12:36:57:340
-8.617797058105468,-5.117527770996094,0.8702789916992187,0.03450645132788599,0.029042799501047295,-0.013052855743453695,2.395008087158203,2019-06-21 12:36:57:345
-8.636950378417968,-5.139075256347656,0.87147607421875,0.034373293273382025,0.028909641446543333,-0.013851804070477465,2.4000000953674316,2019-06-21 12:36:57:350
-8.608220397949218,-5.140272338867187,0.857111083984375,0.03384066105536618,0.030507538100590873,-0.013319171852461618,2.4050559997558594,2019-06-21 12:36:57:355
-8.597446655273437,-5.117527770996094,0.9265418701171875,0.03450645132788599,0.029974905882575027,-0.012919697688949733,2.410048007965088,2019-06-21 12:36:57:360
-8.618994140625,-5.13308984375,0.9037973022460938,0.034373293273382025,0.030108063937078988,-0.012786539634445772,2.4150400161743164,2019-06-21 12:36:57:365
-8.616599975585938,-5.1163306884765625,0.8678848266601562,0.03570487589901625,0.029841747828071065,-0.01398496212498143,2.420032024383545,2019-06-21 12:36:57:370
-8.5998408203125,-5.125907348632812,0.8559140014648438,0.036903298389551906,0.029974905882575027,-0.015316542670021046,2.4250240325927734,2019-06-21 12:36:57:375
-8.603432067871093,-5.129498596191406,0.8834468994140625,0.03650382422604002,0.030773854209598796,-0.013585487961469541,2.430016040802002,2019-06-21 12:36:57:380
-8.604629150390625,-5.112739440917968,0.8990089721679687,0.03557171784451229,0.031040170318606727,-0.012520223525437848,2.4350080490112305,2019-06-21 12:36:57:385
-8.601037902832031,-5.0756298828125,0.8726731567382813,0.03597119200802417,0.031705960591126535,-0.013052855743453695,2.440000057220459,2019-06-21 12:36:57:390
-8.605826232910156,-5.109148193359375,0.8894323120117187,0.036104350062528136,0.031040170318606727,-0.013851804070477465,2.4449920654296875,2019-06-21 12:36:57:395
-8.595052490234375,-5.128301513671875,0.87147607421875,0.03597119200802417,0.03157280253662257,-0.013186013797957656,2.4500479698181152,2019-06-21 12:36:57:400
-8.607023315429688,-5.122316101074219,0.90978271484375,0.03490592549139788,0.03223859280914238,-0.014251278233989353,2.4550399780273438,2019-06-21 12:36:57:405
-8.640541625976562,-5.115133605957031,0.8822498168945312,0.03570487589901625,0.03117332837311069,-0.012919697688949733,2.4600319862365723,2019-06-21 12:36:57:410
-8.640541625976562,-5.129498596191406,0.8499285888671875,0.03503908562649644,0.029841747828071065,-0.013052855743453695,2.465023994445801,2019-06-21 12:36:57:415
-8.652512451171875,-5.115133605957031,0.895417724609375,0.036237508117032094,0.029841747828071065,-0.01345232990696558,2.4700160026550293,2019-06-21 12:36:57:420
-8.651315368652343,-5.103162780761719,0.8702789916992187,0.03557171784451229,0.029841747828071065,-0.01398496212498143,2.475008010864258,2019-06-21 12:36:57:425
-8.646527038574218,-5.1163306884765625,0.857111083984375,0.0351722436810004,0.029974905882575027,-0.014650752397501238,2.4800000190734863,2019-06-21 12:36:57:430
-8.639344543457032,-5.098374450683593,0.866687744140625,0.03557171784451229,0.030108063937078988,-0.014517594342997276,2.484992027282715,2019-06-21 12:36:57:435
-8.6381474609375,-5.10435986328125,0.89062939453125,0.03557171784451229,0.02944227366455918,-0.014251278233989353,2.4900479316711426,2019-06-21 12:36:57:440
-8.635753295898438,-5.097177368164062,0.8942206420898438,0.035305401735504366,0.03024122199158295,-0.014650752397501238,2.495039939880371,2019-06-21 12:36:57:445
-8.62857080078125,-5.092389038085938,0.8726731567382813,0.035438559790008324,0.030108063937078988,-0.015183384615517085,2.5000319480895996,2019-06-21 12:36:57:450
-8.644132873535156,-5.098374450683593,0.89062939453125,0.03503908562649644,0.03037438004608691,-0.015316542670021046,2.505023956298828,2019-06-21 12:36:57:455
-8.642935791015624,-5.110345275878906,0.895417724609375,0.03450645132788599,0.02930911561005522,-0.01558285877902897,2.5100159645080566,2019-06-21 12:36:57:460
-8.622585388183593,-5.1163306884765625,0.8678848266601562,0.034639609382389955,0.029708589773567103,-0.01558285877902897,2.515007972717285,2019-06-21 12:36:57:465
-8.632162048339843,-5.118724853515625,0.876264404296875,0.034240135218878066,0.030507538100590873,-0.01558285877902897,2.5199999809265137,2019-06-21 12:36:57:470
-8.610614562988282,-5.098374450683593,0.8678848266601562,0.03503908562649644,0.029974905882575027,-0.01558285877902897,2.524991989135742,2019-06-21 12:36:57:475
-8.618994140625,-5.0876007080078125,0.8690819091796875,0.0351722436810004,0.029175957555551257,-0.015716016833532933,2.530048131942749,2019-06-21 12:36:57:480
-8.640541625976562,-5.0756298828125,0.8607023315429687,0.03490592549139788,0.02957543171906314,-0.016648123215060668,2.5350401401519775,2019-06-21 12:36:57:485
-8.623782470703125,-5.084009460449218,0.8870381469726563,0.03503908562649644,0.029042799501047295,-0.017047597378572553,2.540032148361206,2019-06-21 12:36:57:490
-8.641738708496094,-5.107951110839844,0.881052734375,0.034639609382389955,0.030108063937078988,-0.017979703760100288,2.5450241565704346,2019-06-21 12:36:57:495
-8.635753295898438,-5.153440246582031,0.9073885498046875,0.03663698228054398,0.03024122199158295,-0.017313913487580476,2.550016164779663,2019-06-21 12:36:57:500
-8.618994140625,-5.117527770996094,0.8990089721679687,0.0351722436810004,0.02957543171906314,-0.01811286181460425,2.5550079345703125,2019-06-21 12:36:57:505
-8.621388305664063,-5.088797790527344,0.9014031372070312,0.03503908562649644,0.029841747828071065,-0.01811286181460425,2.559999942779541,2019-06-21 12:36:57:510
-8.630964965820313,-5.099571533203125,0.8978118896484375,0.0341069771643741,0.02944227366455918,-0.01824601986910821,2.5649919509887695,2019-06-21 12:36:57:515
-8.627373718261719,-5.086403625488281,0.8894323120117187,0.03490592549139788,0.029841747828071065,-0.018645494032620096,2.5700480937957764,2019-06-21 12:36:57:520
-8.645329956054688,-5.076826965332031,0.8642935791015625,0.03370750300086222,0.02957543171906314,-0.018645494032620096,2.575040102005005,2019-06-21 12:36:57:525
-8.597446655273437,-5.100768615722656,0.8439431762695312,0.033441186891854296,0.028377009228527487,-0.019178126250635943,2.5800321102142334,2019-06-21 12:36:57:530
-8.623782470703125,-5.119921936035156,0.8798556518554688,0.033574344946358255,0.02784437701051164,-0.01904496819613198,2.585024118423462,2019-06-21 12:36:57:535
-8.614205810546874,-5.118724853515625,0.8726731567382813,0.033441186891854296,0.028377009228527487,-0.01904496819613198,2.5900161266326904,2019-06-21 12:36:57:540
-8.642935791015624,-5.109148193359375,0.8786585693359374,0.033574344946358255,0.02957543171906314,-0.01811286181460425,2.595008134841919,2019-06-21 12:36:57:545
-8.636950378417968,-5.088797790527344,0.8654906616210938,0.0341069771643741,0.029042799501047295,-0.0175802295965884,2.6000001430511475,2019-06-21 12:36:57:550
-8.618994140625,-5.099571533203125,0.8918264770507812,0.03384066105536618,0.02784437701051164,-0.017846545705596326,2.604992151260376,2019-06-21 12:36:57:555
-8.623782470703125,-5.088797790527344,0.9061914672851562,0.03397381910987014,0.029175957555551257,-0.019178126250635943,2.6100480556488037,2019-06-21 12:36:57:560
-8.636950378417968,-5.1306956787109375,0.8966148071289062,0.03317487078284637,0.02784437701051164,-0.019710758468651793,2.6150400638580322,2019-06-21 12:36:57:565
-8.623782470703125,-5.115133605957031,0.876264404296875,0.03330802883735033,0.029175957555551257,-0.019977074577659716,2.6200320720672607,2019-06-21 12:36:57:570
-8.633359130859375,-5.110345275878906,0.8200015258789062,0.032375922455822596,0.029841747828071065,-0.0203765487411716,2.6250240802764893,2019-06-21 12:36:57:575
-8.62857080078125,-5.097177368164062,0.8607023315429687,0.032775396619334485,0.03024122199158295,-0.0203765487411716,2.6300160884857178,2019-06-21 12:36:57:580
-8.624979553222657,-5.103162780761719,0.8774614868164062,0.03264223856483052,0.028909641446543333,-0.02024339068666764,2.6350080966949463,2019-06-21 12:36:57:585
-8.607023315429688,-5.1139365234375,0.9002060546874999,0.032375922455822596,0.02877648339203937,-0.019311284305139904,2.640000104904175,2019-06-21 12:36:57:590
-8.60941748046875,-5.118724853515625,0.87147607421875,0.03264223856483052,0.02851016728303145,-0.02024339068666764,2.6449921131134033,2019-06-21 12:36:57:595
-8.618994140625,-5.125907348632812,0.857111083984375,0.03264223856483052,0.02784437701051164,-0.02104233901369141,2.650048017501831,2019-06-21 12:36:57:600
-8.640541625976562,-5.110345275878906,0.8559140014648438,0.03384066105536618,0.028909641446543333,-0.02024339068666764,2.6550400257110596,2019-06-21 12:36:57:605
-8.634556213378906,-5.12351318359375,0.876264404296875,0.03397381910987014,0.029708589773567103,-0.0203765487411716,2.660032033920288,2019-06-21 12:36:57:610
-8.623782470703125,-5.124710266113281,0.9002060546874999,0.03384066105536618,0.02864332533753541,-0.02024339068666764,2.6650240421295166,2019-06-21 12:36:57:615
-8.621388305664063,-5.092389038085938,0.9229506225585937,0.034639609382389955,0.028377009228527487,-0.019710758468651793,2.670016050338745,2019-06-21 12:36:57:620
-8.642935791015624,-5.098374450683593,0.9169652099609374,0.03317487078284637,0.02864332533753541,-0.018645494032620096,2.6750080585479736,2019-06-21 12:36:57:625
-8.634556213378906,-5.088797790527344,0.90978271484375,0.03317487078284637,0.02877648339203937,-0.01904496819613198,2.680000066757202,2019-06-21 12:36:57:630
-8.636950378417968,-5.084009460449218,0.9121768798828125,0.03224276440131864,0.028243851174023525,-0.019843916523155754,2.6849920749664307,2019-06-21 12:36:57:635
-8.623782470703125,-5.109148193359375,0.8642935791015625,0.032375922455822596,0.02930911561005522,-0.020509706795675563,2.6900479793548584,2019-06-21 12:36:57:640
-8.650118286132813,-5.1163306884765625,0.8535198364257812,0.03317487078284637,0.029708589773567103,-0.02104233901369141,2.695039987564087,2019-06-21 12:36:57:645
-8.651315368652343,-5.10435986328125,0.8343665161132813,0.032775396619334485,0.02944227366455918,-0.02157497123170726,2.7000961303710938,2019-06-21 12:36:57:650
-8.640541625976562,-5.106754028320313,0.8403519287109374,0.03317487078284637,0.02877648339203937,-0.020909180959187448,2.705024003982544,2019-06-21 12:36:57:655
-8.6381474609375,-5.0876007080078125,0.8535198364257812,0.03290855467383845,0.028377009228527487,-0.022107603449723106,2.7100160121917725,2019-06-21 12:36:57:660
-8.627373718261719,-5.117527770996094,0.837957763671875,0.032375922455822596,0.02930911561005522,-0.022107603449723106,2.715008020401001,2019-06-21 12:36:57:665
-8.6381474609375,-5.092389038085938,0.837957763671875,0.03370750300086222,0.02877648339203937,-0.02157497123170726,2.7200000286102295,2019-06-21 12:36:57:670
-8.627373718261719,-5.105556945800781,0.857111083984375,0.0341069771643741,0.028377009228527487,-0.02170812928621122,2.724992036819458,2019-06-21 12:36:57:675
-8.604629150390625,-5.099571533203125,0.8595052490234375,0.03450645132788599,0.029974905882575027,-0.021308655122699336,2.7300479412078857,2019-06-21 12:36:57:680
-8.616599975585938,-5.091191955566406,0.8930235595703124,0.0351722436810004,0.030108063937078988,-0.020909180959187448,2.7350399494171143,2019-06-21 12:36:57:685
-8.618994140625,-5.1163306884765625,0.8774614868164062,0.03450645132788599,0.029974905882575027,-0.020776022904683486,2.7400319576263428,2019-06-21 12:36:57:690
-8.615402893066406,-5.129498596191406,0.904994384765625,0.034373293273382025,0.028909641446543333,-0.019843916523155754,2.7450239658355713,2019-06-21 12:36:57:695
-8.615402893066406,-5.095980285644531,0.881052734375,0.03450645132788599,0.02784437701051164,-0.019843916523155754,2.7500159740448,2019-06-21 12:36:57:700
-8.634556213378906,-5.092389038085938,0.8798556518554688,0.033574344946358255,0.02784437701051164,-0.02024339068666764,2.7550079822540283,2019-06-21 12:36:57:705
-8.641738708496094,-5.110345275878906,0.8846439819335937,0.03304171272834241,0.029042799501047295,-0.020110232632163678,2.759999990463257,2019-06-21 12:36:57:710
-8.646527038574218,-5.111542358398437,0.876264404296875,0.034373293273382025,0.029841747828071065,-0.02104233901369141,2.7649919986724854,2019-06-21 12:36:57:715
-8.639344543457032,-5.086403625488281,0.8834468994140625,0.03450645132788599,0.03024122199158295,-0.021441813177203298,2.770048141479492,2019-06-21 12:36:57:720
-8.616599975585938,-5.097177368164062,0.8702789916992187,0.03477276743689391,0.03024122199158295,-0.021308655122699336,2.7750401496887207,2019-06-21 12:36:57:725
-8.621388305664063,-5.118724853515625,0.8630964965820312,0.034373293273382025,0.029974905882575027,-0.020509706795675563,2.780032157897949,2019-06-21 12:36:57:730
-8.634556213378906,-5.103162780761719,0.8690819091796875,0.03370750300086222,0.02930911561005522,-0.020909180959187448,2.7850241661071777,2019-06-21 12:36:57:735
-8.629767883300781,-5.106754028320313,0.857111083984375,0.033574344946358255,0.02957543171906314,-0.021308655122699336,2.790015935897827,2019-06-21 12:36:57:740
-8.629767883300781,-5.117527770996094,0.8307752685546875,0.03370750300086222,0.02930911561005522,-0.021175497068195374,2.7950079441070557,2019-06-21 12:36:57:745
-8.629767883300781,-5.112739440917968,0.8451402587890625,0.034639609382389955,0.030108063937078988,-0.021441813177203298,2.799999952316284,2019-06-21 12:36:57:750
-8.610614562988282,-5.14266650390625,0.8834468994140625,0.03450645132788599,0.029974905882575027,-0.022107603449723106,2.8049919605255127,2019-06-21 12:36:57:755
-8.603432067871093,-5.145060668945312,0.866687744140625,0.0341069771643741,0.027977535065015602,-0.02330602594025876,2.8100481033325195,2019-06-21 12:36:57:760
-8.60941748046875,-5.131892761230469,0.9085856323242187,0.033441186891854296,0.03024122199158295,-0.023039709831250837,2.815040111541748,2019-06-21 12:36:57:765
-8.610614562988282,-5.124710266113281,0.8834468994140625,0.03384066105536618,0.02957543171906314,-0.023705500103770646,2.8200321197509766,2019-06-21 12:36:57:770
-8.605826232910156,-5.112739440917968,0.866687744140625,0.03477276743689391,0.030108063937078988,-0.023971816212778572,2.825024127960205,2019-06-21 12:36:57:775
-8.634556213378906,-5.1139365234375,0.8750673217773437,0.034639609382389955,0.029708589773567103,-0.023039709831250837,2.8300161361694336,2019-06-21 12:36:57:780
-8.635753295898438,-5.125907348632812,0.8894323120117187,0.03477276743689391,0.028909641446543333,-0.02237391955873103,2.835008144378662,2019-06-21 12:36:57:785
-8.624979553222657,-5.137878173828125,0.8942206420898438,0.03503908562649644,0.029042799501047295,-0.023039709831250837,2.8400001525878906,2019-06-21 12:36:57:790
-8.640541625976562,-5.1163306884765625,0.9181622924804688,0.034639609382389955,0.02944227366455918,-0.020909180959187448,2.844992160797119,2019-06-21 12:36:57:795
-8.630964965820313,-5.1139365234375,0.9014031372070312,0.034639609382389955,0.029708589773567103,-0.020909180959187448,2.850048065185547,2019-06-21 12:36:57:800
-8.62019122314453,-5.12351318359375,0.8702789916992187,0.03503908562649644,0.029042799501047295,-0.022773393722242914,2.8550400733947754,2019-06-21 12:36:57:805
-8.617797058105468,-5.1139365234375,0.8846439819335937,0.03570487589901625,0.030108063937078988,-0.022773393722242914,2.860032081604004,2019-06-21 12:36:57:810
-8.614205810546874,-5.109148193359375,0.8834468994140625,0.034373293273382025,0.028909641446543333,-0.02250707761323499,2.8650240898132324,2019-06-21 12:36:57:815
-8.617797058105468,-5.127104431152343,0.9014031372070312,0.03370750300086222,0.02930911561005522,-0.023039709831250837,2.870016098022461,2019-06-21 12:36:57:820
-8.611811645507812,-5.109148193359375,0.90978271484375,0.034240135218878066,0.029974905882575027,-0.023039709831250837,2.8750081062316895,2019-06-21 12:36:57:825
-8.652512451171875,-5.10435986328125,0.9037973022460938,0.034639609382389955,0.029175957555551257,-0.022107603449723106,2.880000114440918,2019-06-21 12:36:57:830
-8.641738708496094,-5.110345275878906,0.866687744140625,0.034240135218878066,0.02864332533753541,-0.021974445395219144,2.8850560188293457,2019-06-21 12:36:57:835
-8.627373718261719,-5.1163306884765625,0.9229506225585937,0.03370750300086222,0.02851016728303145,-0.021175497068195374,2.890048027038574,2019-06-21 12:36:57:840
-8.636950378417968,-5.107951110839844,0.8738702392578125,0.0341069771643741,0.02771121895600768,-0.021308655122699336,2.8950400352478027,2019-06-21 12:36:57:845
-8.654906616210937,-5.121119018554688,0.9026002197265625,0.03370750300086222,0.03024122199158295,-0.02237391955873103,2.9000320434570312,2019-06-21 12:36:57:850
-8.64892120361328,-5.119921936035156,0.8978118896484375,0.03450645132788599,0.02944227366455918,-0.02170812928621122,2.9050240516662598,2019-06-21 12:36:57:855
-8.634556213378906,-5.129498596191406,0.8930235595703124,0.033574344946358255,0.02957543171906314,-0.022240761504227068,2.9100160598754883,2019-06-21 12:36:57:860
-8.627373718261719,-5.141469421386718,0.8618994140625,0.03330802883735033,0.027977535065015602,-0.021974445395219144,2.915008068084717,2019-06-21 12:36:57:865
-8.636950378417968,-5.118724853515625,0.881052734375,0.031976448292310715,0.028243851174023525,-0.022773393722242914,2.9200000762939453,2019-06-21 12:36:57:870
-8.623782470703125,-5.118724853515625,0.9014031372070312,0.032375922455822596,0.028110693119519563,-0.022773393722242914,2.924992084503174,2019-06-21 12:36:57:875
-8.630964965820313,-5.103162780761719,0.9313302001953124,0.03224276440131864,0.02784437701051164,-0.02250707761323499,2.9300479888916016,2019-06-21 12:36:57:880
-8.616599975585938,-5.111542358398437,0.9014031372070312,0.03210960634681467,0.02877648339203937,-0.022240761504227068,2.93503999710083,2019-06-21 12:36:57:885
-8.622585388183593,-5.13308984375,0.8535198364257812,0.032775396619334485,0.02957543171906314,-0.02170812928621122,2.9400320053100586,2019-06-21 12:36:57:890
-8.617797058105468,-5.127104431152343,0.84274609375,0.03250908051032656,0.02957543171906314,-0.020776022904683486,2.945024013519287,2019-06-21 12:36:57:895
-8.611811645507812,-5.107951110839844,0.8630964965820312,0.032375922455822596,0.028243851174023525,-0.020909180959187448,2.9500160217285156,2019-06-21 12:36:57:900
-8.610614562988282,-5.135484008789063,0.8487315063476563,0.03370750300086222,0.028110693119519563,-0.021441813177203298,2.955008029937744,2019-06-21 12:36:57:905
-8.62857080078125,-5.112739440917968,0.881052734375,0.03290855467383845,0.02877648339203937,-0.020909180959187448,2.9600000381469727,2019-06-21 12:36:57:910
-8.605826232910156,-5.137878173828125,0.8690819091796875,0.03290855467383845,0.02864332533753541,-0.021175497068195374,2.964992046356201,2019-06-21 12:36:57:915
-8.630964965820313,-5.107951110839844,0.8403519287109374,0.03317487078284637,0.029175957555551257,-0.020642864850179524,2.970047950744629,2019-06-21 12:36:57:920
-8.610614562988282,-5.10435986328125,0.8690819091796875,0.03330802883735033,0.02944227366455918,-0.02104233901369141,2.9750399589538574,2019-06-21 12:36:57:925
-8.607023315429688,-5.106754028320313,0.8786585693359374,0.03370750300086222,0.02784437701051164,-0.02024339068666764,2.980031967163086,2019-06-21 12:36:57:930
-8.603432067871093,-5.112739440917968,0.8559140014648438,0.03304171272834241,0.027977535065015602,-0.020909180959187448,2.9850239753723145,2019-06-21 12:36:57:935
-8.595052490234375,-5.1163306884765625,0.8774614868164062,0.033574344946358255,0.02851016728303145,-0.02024339068666764,2.990015983581543,2019-06-21 12:36:57:940
-8.611811645507812,-5.125907348632812,0.8930235595703124,0.03384066105536618,0.02864332533753541,-0.021175497068195374,2.9950079917907715,2019-06-21 12:36:57:945
-8.610614562988282,-5.125907348632812,0.8930235595703124,0.03384066105536618,0.028243851174023525,-0.019311284305139904,3.0,2019-06-21 12:36:57:950
-8.632162048339843,-5.106754028320313,0.8654906616210938,0.03317487078284637,0.027444902846999755,-0.020509706795675563,3.0049920082092285,2019-06-21 12:36:57:955
-8.611811645507812,-5.122316101074219,0.8607023315429687,0.03290855467383845,0.027578060901503717,-0.01957760041414783,3.0100481510162354,2019-06-21 12:36:57:960
-8.617797058105468,-5.100768615722656,0.8870381469726563,0.03264223856483052,0.02864332533753541,-0.018778652087124058,3.015040159225464,2019-06-21 12:36:57:965
-8.629767883300781,-5.145060668945312,0.8439431762695312,0.032775396619334485,0.029042799501047295,-0.019311284305139904,3.0200319290161133,2019-06-21 12:36:57:970
-8.598643737792969,-5.14266650390625,0.8678848266601562,0.033574344946358255,0.029175957555551257,-0.01891181014162802,3.025023937225342,2019-06-21 12:36:57:975
-8.62019122314453,-5.141469421386718,0.904994384765625,0.033441186891854296,0.02877648339203937,-0.019977074577659716,3.0300159454345703,2019-06-21 12:36:57:980
-8.626176635742187,-5.131892761230469,0.8702789916992187,0.03397381910987014,0.02864332533753541,-0.01904496819613198,3.035007953643799,2019-06-21 12:36:57:985
-8.616599975585938,-5.143863586425781,0.837957763671875,0.034373293273382025,0.028377009228527487,-0.018379177923612173,3.0399999618530273,2019-06-21 12:36:57:990
-8.603432067871093,-5.136681091308594,0.8343665161132813,0.034639609382389955,0.02864332533753541,-0.019311284305139904,3.044991970062256,2019-06-21 12:36:57:995
-8.624979553222657,-5.112739440917968,0.8499285888671875,0.034240135218878066,0.02864332533753541,-0.018778652087124058,3.0500481128692627,2019-06-21 12:36:58:000
-8.593855407714843,-5.131892761230469,0.8690819091796875,0.03503908562649644,0.029042799501047295,-0.018645494032620096,3.055040121078491,2019-06-21 12:36:58:005
-8.611811645507812,-5.112739440917968,0.8678848266601562,0.03490592549139788,0.028909641446543333,-0.018645494032620096,3.0600321292877197,2019-06-21 12:36:58:010
-8.618994140625,-5.122316101074219,0.8774614868164062,0.03490592549139788,0.02864332533753541,-0.01811286181460425,3.0650241374969482,2019-06-21 12:36:58:015
-8.60941748046875,-5.1163306884765625,0.9085856323242187,0.03503908562649644,0.029175957555551257,-0.017047597378572553,3.0700161457061768,2019-06-21 12:36:58:020
-8.622585388183593,-5.112739440917968,0.895417724609375,0.035438559790008324,0.029042799501047295,-0.01811286181460425,3.0750081539154053,2019-06-21 12:36:58:025
-8.64892120361328,-5.118724853515625,0.8738702392578125,0.03477276743689391,0.02864332533753541,-0.01891181014162802,3.080000162124634,2019-06-21 12:36:58:030
-8.636950378417968,-5.127104431152343,0.8726731567382813,0.03477276743689391,0.028243851174023525,-0.01904496819613198,3.084991931915283,2019-06-21 12:36:58:035
-8.618994140625,-5.12351318359375,0.876264404296875,0.03477276743689391,0.02944227366455918,-0.018512335978116135,3.09004807472229,2019-06-21 12:36:58:040
-8.6381474609375,-5.140272338867187,0.89062939453125,0.03490592549139788,0.029175957555551257,-0.018778652087124058,3.0950400829315186,2019-06-21 12:36:58:045
-8.636950378417968,-5.128301513671875,0.8475344238281249,0.03450645132788599,0.029042799501047295,-0.018778652087124058,3.100032091140747,2019-06-21 12:36:58:050
-8.635753295898438,-5.109148193359375,0.8750673217773437,0.035305401735504366,0.029708589773567103,-0.01957760041414783,3.1050240993499756,2019-06-21 12:36:58:055
-8.62857080078125,-5.119921936035156,0.8630964965820312,0.03450645132788599,0.029708589773567103,-0.018379177923612173,3.110016107559204,2019-06-21 12:36:58:060
-8.624979553222657,-5.13308984375,0.8750673217773437,0.034373293273382025,0.02957543171906314,-0.01904496819613198,3.1150081157684326,2019-06-21 12:36:58:065
-8.630964965820313,-5.141469421386718,0.8738702392578125,0.034373293273382025,0.029175957555551257,-0.019977074577659716,3.120000123977661,2019-06-21 12:36:58:070
-8.621388305664063,-5.1522431640625,0.8930235595703124,0.03450645132788599,0.029841747828071065,-0.019311284305139904,3.1249921321868896,2019-06-21 12:36:58:075
-8.62019122314453,-5.147454833984375,0.87147607421875,0.03490592549139788,0.02930911561005522,-0.01904496819613198,3.1300480365753174,2019-06-21 12:36:58:080
-8.611811645507812,-5.093586120605469,0.8475344238281249,0.03570487589901625,0.02957543171906314,-0.018778652087124058,3.135040044784546,2019-06-21 12:36:58:085
-8.645329956054688,-5.1163306884765625,0.8547169189453124,0.036237508117032094,0.028909641446543333,-0.01891181014162802,3.1400320529937744,2019-06-21 12:36:58:090
-8.607023315429688,-5.098374450683593,0.8439431762695312,0.03597119200802417,0.02930911561005522,-0.018645494032620096,3.145024061203003,2019-06-21 12:36:58:095
-8.626176635742187,-5.092389038085938,0.8738702392578125,0.036104350062528136,0.03024122199158295,-0.01957760041414783,3.1500160694122314,2019-06-21 12:36:58:100
-8.627373718261719,-5.091191955566406,0.8607023315429687,0.0351722436810004,0.02851016728303145,-0.01904496819613198,3.15500807762146,2019-06-21 12:36:58:105
-8.611811645507812,-5.103162780761719,0.8618994140625,0.03384066105536618,0.02851016728303145,-0.019311284305139904,3.1600000858306885,2019-06-21 12:36:58:110
-8.62857080078125,-5.089994873046875,0.8990089721679687,0.0341069771643741,0.028110693119519563,-0.020642864850179524,3.164992094039917,2019-06-21 12:36:58:115
-8.626176635742187,-5.107951110839844,0.87147607421875,0.03477276743689391,0.02930911561005522,-0.021441813177203298,3.1700479984283447,2019-06-21 12:36:58:120
-8.626176635742187,-5.107951110839844,0.87147607421875,0.03477276743689391,0.02930911561005522,-0.021441813177203298,3.1729280948638916,2019-06-21 12:36:58:123
-8.630964965820313,-5.122316101074219,0.8702789916992187,0.03384066105536618,0.029841747828071065,-0.020110232632163678,3.1800320148468018,2019-06-21 12:36:58:130
-8.630964965820313,-5.122316101074219,0.8702789916992187,0.03384066105536618,0.029841747828071065,-0.020110232632163678,3.1829121112823486,2019-06-21 12:36:58:133
-8.645329956054688,-5.103162780761719,0.8918264770507812,0.03503908562649644,0.02864332533753541,-0.019843916523155754,3.190016031265259,2019-06-21 12:36:58:140
-8.645329956054688,-5.103162780761719,0.8918264770507812,0.03503908562649644,0.02864332533753541,-0.019843916523155754,3.1928961277008057,2019-06-21 12:36:58:143
-8.64772412109375,-5.0756298828125,0.8750673217773437,0.0351722436810004,0.028909641446543333,-0.02237391955873103,3.200000047683716,2019-06-21 12:36:58:150
-8.64772412109375,-5.0756298828125,0.8750673217773437,0.0351722436810004,0.028909641446543333,-0.02237391955873103,3.202944040298462,2019-06-21 12:36:58:153
-8.617797058105468,-5.0732357177734375,0.8894323120117187,0.0351722436810004,0.029708589773567103,-0.022107603449723106,3.210047960281372,2019-06-21 12:36:58:160
-8.627373718261719,-5.095980285644531,0.8870381469726563,0.0351722436810004,0.028377009228527487,-0.022107603449723106,3.2150399684906006,2019-06-21 12:36:58:165
-8.5998408203125,-5.103162780761719,0.9205564575195312,0.03477276743689391,0.02957543171906314,-0.023838658158274607,3.220031976699829,2019-06-21 12:36:58:170
-8.605826232910156,-5.119921936035156,0.8630964965820312,0.03490592549139788,0.029042799501047295,-0.0231728678857548,3.2250239849090576,2019-06-21 12:36:58:175
-8.607023315429688,-5.139075256347656,0.8607023315429687,0.03490592549139788,0.028909641446543333,-0.022240761504227068,3.230015993118286,2019-06-21 12:36:58:180
-8.605826232910156,-5.134286926269531,0.8834468994140625,0.034639609382389955,0.029974905882575027,-0.02157497123170726,3.2350080013275146,2019-06-21 12:36:58:185
-8.624979553222657,-5.135484008789063,0.8559140014648438,0.03477276743689391,0.02957543171906314,-0.02104233901369141,3.240000009536743,2019-06-21 12:36:58:190
-8.621388305664063,-5.143863586425781,0.84274609375,0.034639609382389955,0.029708589773567103,-0.022107603449723106,3.2449920177459717,2019-06-21 12:36:58:195
-8.621388305664063,-5.143863586425781,0.84274609375,0.034639609382389955,0.02944227366455918,-0.022640235667738953,3.2500481605529785,2019-06-21 12:36:58:200
-8.621388305664063,-5.121119018554688,0.8690819091796875,0.034639609382389955,0.030640696155094835,-0.021308655122699336,3.255039930343628,2019-06-21 12:36:58:205
-8.611811645507812,-5.117527770996094,0.8774614868164062,0.03490592549139788,0.029841747828071065,-0.02157497123170726,3.2600319385528564,2019-06-21 12:36:58:210
-8.604629150390625,-5.119921936035156,0.8918264770507812,0.03557171784451229,0.02957543171906314,-0.022107603449723106,3.265023946762085,2019-06-21 12:36:58:215
-8.621388305664063,-5.129498596191406,0.895417724609375,0.03557171784451229,0.02957543171906314,-0.021441813177203298,3.2700159549713135,2019-06-21 12:36:58:220
-8.618994140625,-5.148651916503906,0.87147607421875,0.03583803395352021,0.029708589773567103,-0.019977074577659716,3.275007963180542,2019-06-21 12:36:58:225
-8.617797058105468,-5.109148193359375,0.8990089721679687,0.035438559790008324,0.02957543171906314,-0.019710758468651793,3.2799999713897705,2019-06-21 12:36:58:230
-8.597446655273437,-5.12351318359375,0.876264404296875,0.03503908562649644,0.02944227366455918,-0.02024339068666764,3.284991979598999,2019-06-21 12:36:58:235
-8.602234985351563,-5.099571533203125,0.9205564575195312,0.034639609382389955,0.02944227366455918,-0.020642864850179524,3.290048122406006,2019-06-21 12:36:58:240
-8.60941748046875,-5.093586120605469,0.9385126953125,0.0351722436810004,0.029841747828071065,-0.021841287340715183,3.2950401306152344,2019-06-21 12:36:58:245
-8.62857080078125,-5.0876007080078125,0.9037973022460938,0.033574344946358255,0.030507538100590873,-0.021441813177203298,3.300032138824463,2019-06-21 12:36:58:250
-8.622585388183593,-5.10435986328125,0.9217535400390625,0.033574344946358255,0.029708589773567103,-0.021974445395219144,3.3050241470336914,2019-06-21 12:36:58:255
-8.626176635742187,-5.084009460449218,0.881052734375,0.0341069771643741,0.03143964448211861,-0.022240761504227068,3.31001615524292,2019-06-21 12:36:58:260
-8.603432067871093,-5.093586120605469,0.8930235595703124,0.03290855467383845,0.03143964448211861,-0.022107603449723106,3.3150081634521484,2019-06-21 12:36:58:265
-8.605826232910156,-5.105556945800781,0.8702789916992187,0.033441186891854296,0.03037438004608691,-0.02250707761323499,3.319999933242798,2019-06-21 12:36:58:270
-8.604629150390625,-5.0876007080078125,0.8726731567382813,0.03304171272834241,0.029042799501047295,-0.02170812928621122,3.3249919414520264,2019-06-21 12:36:58:275
-8.584278747558594,-5.111542358398437,0.8822498168945312,0.03450645132788599,0.02930911561005522,-0.022107603449723106,3.330048084259033,2019-06-21 12:36:58:280
-8.644132873535156,-5.1139365234375,0.8750673217773437,0.03304171272834241,0.02930911561005522,-0.022906551776746876,3.3350400924682617,2019-06-21 12:36:58:285
-8.652512451171875,-5.14266650390625,0.8547169189453124,0.03290855467383845,0.029708589773567103,-0.021841287340715183,3.3400321006774902,2019-06-21 12:36:58:290
-8.633359130859375,-5.135484008789063,0.8690819091796875,0.032775396619334485,0.02944227366455918,-0.02250707761323499,3.3450241088867188,2019-06-21 12:36:58:295
-8.630964965820313,-5.129498596191406,0.8690819091796875,0.03210960634681467,0.029974905882575027,-0.02237391955873103,3.3500161170959473,2019-06-21 12:36:58:300
-8.62857080078125,-5.145060668945312,0.8499285888671875,0.03304171272834241,0.030640696155094835,-0.023039709831250837,3.355008125305176,2019-06-21 12:36:58:305
-8.634556213378906,-5.1139365234375,0.8870381469726563,0.03184329023780675,0.030108063937078988,-0.022107603449723106,3.3600001335144043,2019-06-21 12:36:58:310
-8.627373718261719,-5.124710266113281,0.8774614868164062,0.03210960634681467,0.028110693119519563,-0.021841287340715183,3.365056037902832,2019-06-21 12:36:58:315
-8.64772412109375,-5.115133605957031,0.8607023315429687,0.032375922455822596,0.02864332533753541,-0.02250707761323499,3.3700480461120605,2019-06-21 12:36:58:320
-8.64892120361328,-5.117527770996094,0.8618994140625,0.03330802883735033,0.028909641446543333,-0.022640235667738953,3.375040054321289,2019-06-21 12:36:58:325
-8.6381474609375,-5.115133605957031,0.876264404296875,0.032375922455822596,0.02930911561005522,-0.024238132321786496,3.3800320625305176,2019-06-21 12:36:58:330
-8.626176635742187,-5.08520654296875,0.8978118896484375,0.032775396619334485,0.029841747828071065,-0.02503708064881027,3.385024070739746,2019-06-21 12:36:58:335
-8.613008728027344,-5.105556945800781,0.9504835205078125,0.03304171272834241,0.02930911561005522,-0.025303396757818192,3.3900160789489746,2019-06-21 12:36:58:340
-8.616599975585938,-5.121119018554688,0.8894323120117187,0.03264223856483052,0.028909641446543333,-0.024371290376290457,3.395008087158203,2019-06-21 12:36:58:345
-8.617797058105468,-5.159425659179687,0.8822498168945312,0.032775396619334485,0.028909641446543333,-0.024238132321786496,3.4000000953674316,2019-06-21 12:36:58:350
-8.60941748046875,-5.122316101074219,0.8499285888671875,0.03290855467383845,0.02851016728303145,-0.02503708064881027,3.40499210357666,2019-06-21 12:36:58:355
-8.64772412109375,-5.122316101074219,0.8403519287109374,0.033441186891854296,0.02957543171906314,-0.024238132321786496,3.410048007965088,2019-06-21 12:36:58:360
-8.626176635742187,-5.14266650390625,0.8295781860351562,0.032375922455822596,0.028377009228527487,-0.02330602594025876,3.4150400161743164,2019-06-21 12:36:58:365
-8.618994140625,-5.105556945800781,0.8463373413085937,0.03184329023780675,0.027977535065015602,-0.0231728678857548,3.420032024383545,2019-06-21 12:36:58:370
-8.627373718261719,-5.136681091308594,0.8607023315429687,0.03330802883735033,0.028243851174023525,-0.02450444843079442,3.4250240325927734,2019-06-21 12:36:58:375
-8.59026416015625,-5.1163306884765625,0.8391548461914062,0.03304171272834241,0.028909641446543333,-0.023971816212778572,3.430016040802002,2019-06-21 12:36:58:380
-8.610614562988282,-5.157031494140625,0.8894323120117187,0.03250908051032656,0.02864332533753541,-0.024238132321786496,3.4350080490112305,2019-06-21 12:36:58:385
-8.602234985351563,-5.143863586425781,0.8702789916992187,0.03224276440131864,0.027977535065015602,-0.024104974267282534,3.440000057220459,2019-06-21 12:36:58:390
-8.610614562988282,-5.136681091308594,0.895417724609375,0.03264223856483052,0.028377009228527487,-0.022640235667738953,3.4449920654296875,2019-06-21 12:36:58:395
-8.5998408203125,-5.1139365234375,0.8786585693359374,0.032775396619334485,0.027311744792495794,-0.02330602594025876,3.4500479698181152,2019-06-21 12:36:58:400
-8.615402893066406,-5.125907348632812,0.8463373413085937,0.03317487078284637,0.028110693119519563,-0.02330602594025876,3.4550399780273438,2019-06-21 12:36:58:405
-8.621388305664063,-5.122316101074219,0.8319723510742187,0.03264223856483052,0.02784437701051164,-0.0231728678857548,3.4600319862365723,2019-06-21 12:36:58:410
-8.62019122314453,-5.121119018554688,0.876264404296875,0.033441186891854296,0.028377009228527487,-0.022773393722242914,3.465023994445801,2019-06-21 12:36:58:415
-8.587869995117188,-5.124710266113281,0.9002060546874999,0.03330802883735033,0.027045428683487863,-0.022906551776746876,3.4700160026550293,2019-06-21 12:36:58:420
-8.589067077636718,-5.129498596191406,0.89062939453125,0.03304171272834241,0.027311744792495794,-0.023971816212778572,3.475008010864258,2019-06-21 12:36:58:425
-8.617797058105468,-5.111542358398437,0.8834468994140625,0.03304171272834241,0.027578060901503717,-0.02503708064881027,3.4800000190734863,2019-06-21 12:36:58:430
-8.62857080078125,-5.136681091308594,0.9085856323242187,0.033574344946358255,0.02771121895600768,-0.02503708064881027,3.484992027282715,2019-06-21 12:36:58:435
-8.618994140625,-5.140272338867187,0.8547169189453124,0.03384066105536618,0.027977535065015602,-0.024770764539802346,3.4900479316711426,2019-06-21 12:36:58:440
-8.627373718261719,-5.128301513671875,0.8307752685546875,0.03370750300086222,0.02771121895600768,-0.023838658158274607,3.495039939880371,2019-06-21 12:36:58:445
-8.630964965820313,-5.110345275878906,0.8583081665039062,0.032775396619334485,0.028110693119519563,-0.023838658158274607,3.5000319480895996,2019-06-21 12:36:58:450
-8.611811645507812,-5.140272338867187,0.8295781860351562,0.0341069771643741,0.028110693119519563,-0.023705500103770646,3.505023956298828,2019-06-21 12:36:58:455
-8.607023315429688,-5.16181982421875,0.8630964965820312,0.03557171784451229,0.027977535065015602,-0.021841287340715183,3.5100159645080566,2019-06-21 12:36:58:460
-8.601037902832031,-5.148651916503906,0.8978118896484375,0.03490592549139788,0.02784437701051164,-0.023039709831250837,3.515007972717285,2019-06-21 12:36:58:465
-8.60941748046875,-5.153440246582031,0.8690819091796875,0.03477276743689391,0.02851016728303145,-0.023971816212778572,3.5199999809265137,2019-06-21 12:36:58:470
-8.651315368652343,-5.165411071777344,0.8846439819335937,0.0351722436810004,0.02851016728303145,-0.022640235667738953,3.524991989135742,2019-06-21 12:36:58:475
-8.632162048339843,-5.147454833984375,0.8834468994140625,0.0351722436810004,0.02851016728303145,-0.024238132321786496,3.530048131942749,2019-06-21 12:36:58:480
-8.645329956054688,-5.12351318359375,0.8918264770507812,0.0351722436810004,0.02877648339203937,-0.023572342049266684,3.5350401401519775,2019-06-21 12:36:58:485
-8.636950378417968,-5.128301513671875,0.8750673217773437,0.034639609382389955,0.028110693119519563,-0.023838658158274607,3.540032148361206,2019-06-21 12:36:58:490
-8.645329956054688,-5.136681091308594,0.8618994140625,0.035438559790008324,0.02784437701051164,-0.024238132321786496,3.5450241565704346,2019-06-21 12:36:58:495
-8.65730078125,-5.143863586425781,0.8978118896484375,0.03477276743689391,0.028243851174023525,-0.024238132321786496,3.550016164779663,2019-06-21 12:36:58:500
-8.621388305664063,-5.129498596191406,0.8870381469726563,0.03317487078284637,0.02771121895600768,-0.023705500103770646,3.5550079345703125,2019-06-21 12:36:58:505
-8.624979553222657,-5.125907348632812,0.8642935791015625,0.033441186891854296,0.028909641446543333,-0.023971816212778572,3.559999942779541,2019-06-21 12:36:58:510
-8.614205810546874,-5.140272338867187,0.85232275390625,0.03370750300086222,0.02851016728303145,-0.024238132321786496,3.5649919509887695,2019-06-21 12:36:58:515
-8.611811645507812,-5.140272338867187,0.8559140014648438,0.034639609382389955,0.02957543171906314,-0.02330602594025876,3.5700480937957764,2019-06-21 12:36:58:520
-8.608220397949218,-5.139075256347656,0.8774614868164062,0.03557171784451229,0.02944227366455918,-0.02450444843079442,3.575040102005005,2019-06-21 12:36:58:525
-8.611811645507812,-5.1163306884765625,0.876264404296875,0.035438559790008324,0.02864332533753541,-0.024104974267282534,3.5800321102142334,2019-06-21 12:36:58:530
-8.60941748046875,-5.131892761230469,0.8511256713867187,0.035305401735504366,0.02877648339203937,-0.022906551776746876,3.585024118423462,2019-06-21 12:36:58:535
-8.60941748046875,-5.134286926269531,0.89062939453125,0.035305401735504366,0.02851016728303145,-0.02330602594025876,3.5900161266326904,2019-06-21 12:36:58:540
-8.60941748046875,-5.141469421386718,0.8618994140625,0.03570487589901625,0.02864332533753541,-0.023838658158274607,3.595008134841919,2019-06-21 12:36:58:545
-8.62857080078125,-5.140272338867187,0.8822498168945312,0.03557171784451229,0.029974905882575027,-0.023971816212778572,3.6000001430511475,2019-06-21 12:36:58:550
-8.608220397949218,-5.1306956787109375,0.85232275390625,0.036237508117032094,0.02851016728303145,-0.024371290376290457,3.605056047439575,2019-06-21 12:36:58:555
-8.596249572753907,-5.121119018554688,0.8894323120117187,0.03597119200802417,0.028909641446543333,-0.024903922594306308,3.6100480556488037,2019-06-21 12:36:58:560
-8.601037902832031,-5.1462577514648435,0.8882352294921875,0.036104350062528136,0.028110693119519563,-0.024371290376290457,3.6150400638580322,2019-06-21 12:36:58:565
-8.598643737792969,-5.131892761230469,0.8726731567382813,0.03557171784451229,0.028110693119519563,-0.021974445395219144,3.6200320720672607,2019-06-21 12:36:58:570
-8.604629150390625,-5.145060668945312,0.8654906616210938,0.03570487589901625,0.029175957555551257,-0.022906551776746876,3.6250240802764893,2019-06-21 12:36:58:575
-8.627373718261719,-5.110345275878906,0.8547169189453124,0.03597119200802417,0.028243851174023525,-0.023838658158274607,3.6300160884857178,2019-06-21 12:36:58:580
-8.604629150390625,-5.135484008789063,0.8535198364257812,0.0351722436810004,0.028909641446543333,-0.023971816212778572,3.6350080966949463,2019-06-21 12:36:58:585
-8.639344543457032,-5.1306956787109375,0.876264404296875,0.03557171784451229,0.029708589773567103,-0.024104974267282534,3.640000104904175,2019-06-21 12:36:58:590
-8.62019122314453,-5.129498596191406,0.8942206420898438,0.03570487589901625,0.028110693119519563,-0.02330602594025876,3.6449921131134033,2019-06-21 12:36:58:595
-8.624979553222657,-5.14266650390625,0.8535198364257812,0.034639609382389955,0.027977535065015602,-0.024371290376290457,3.650048017501831,2019-06-21 12:36:58:600
-8.62857080078125,-5.135484008789063,0.8271840209960938,0.0341069771643741,0.027578060901503717,-0.025436554812322154,3.6550400257110596,2019-06-21 12:36:58:605
-8.634556213378906,-5.131892761230469,0.8319723510742187,0.03477276743689391,0.02771121895600768,-0.02517023870331423,3.660032033920288,2019-06-21 12:36:58:610
-8.616599975585938,-5.140272338867187,0.881052734375,0.03490592549139788,0.02877648339203937,-0.025303396757818192,3.6650240421295166,2019-06-21 12:36:58:615
-8.652512451171875,-5.143863586425781,0.8942206420898438,0.034240135218878066,0.029042799501047295,-0.02583602897583404,3.670016050338745,2019-06-21 12:36:58:620
-8.616599975585938,-5.128301513671875,0.8846439819335937,0.03477276743689391,0.029175957555551257,-0.025969187030338,3.6750080585479736,2019-06-21 12:36:58:625
-8.614205810546874,-5.13308984375,0.87147607421875,0.03477276743689391,0.029708589773567103,-0.024637606485298384,3.680000066757202,2019-06-21 12:36:58:630
-8.595052490234375,-5.140272338867187,0.8834468994140625,0.0351722436810004,0.029175957555551257,-0.024371290376290457,3.6849920749664307,2019-06-21 12:36:58:635
