ACCELEROMETER X (m/s²),ACCELEROMETER Y (m/s²),ACCELEROMETER Z (m/s²),GYROSCOPE X (rad/s),GYROSCOPE Y (rad/s),GYROSCOPE Z (rad/s),Pitch (Deg),Roll (Deg),Heading (Deg),Time since start in ms ,YYYY-MO-DD HH-MI-SS_SSS
0.16856643557548523,-0.11299865692853928,9.907057762145996,-0.005383829294798724,-0.0018641352609065564,0.005129701829115767,-3.5805043763756887,-3.5869303973950797,0,0.0,2019-07-25 11:35:35:026
0.21885617077350616,-0.1441304087638855,9.758583068847656,-0.003785542529263377,-0.003995184281620353,0.0027322714207384203,-7.082471872164085,-7.097579235569514,0,0.0032417774200439453,2019-07-25 11:35:35:029
0.15898743271827698,-0.18005165457725525,9.713083267211914,-0.004584685912031051,-0.004261565409209577,0.004330558186273768,-10.52136252890766,-10.5336299801976,0,0.0061872005462646484,2019-07-25 11:35:35:032
0.18054017424583435,-0.16089364886283875,9.777741432189941,-0.0003225875780198416,-0.003995184281620353,0.0027322714207384203,-13.888926976250735,-13.904034135522004,0,0.00998544692993164,2019-07-25 11:35:35:036
0.17575067281723022,-0.20639389753341675,9.878320693969727,-0.0008553498657075814,-0.005859852174744925,0.0075271319774187885,-17.189702289003243,-17.201859783674728,0,0.013209104537963867,2019-07-25 11:35:35:039
0.09432919323444366,-0.18484115600585938,9.75618839263916,-0.0019208743760644798,-0.005060708791977251,0.0016667467803443596,-20.433996634592503,-20.435798633294212,0,0.016138792037963867,2019-07-25 11:35:35:042
0.08235543966293335,-0.22555188834667206,9.866347312927246,-0.004051923656852602,-0.004527946536798801,0.0064616074670618895,-23.614776831283766,-23.600018245983957,0,0.0199737548828125,2019-07-25 11:35:35:046
0.14940842986106873,-0.13934090733528137,9.820846557617188,-0.0016544932484752553,-0.00612623330233415,0.004064177058684544,-26.723945313445146,-26.711462232623493,0,0.023183345794677734,2019-07-25 11:35:35:049
0.23322467505931854,-0.1632883995771408,9.739425659179688,-0.0051174481672095,-0.004527946536798801,0.004596939573937318,-29.761285397196552,-29.757179978937575,0,0.026116132736206055,2019-07-25 11:35:35:052
0.16617168486118317,-0.17286740243434906,9.758583068847656,-0.004051923656852602,-0.005060708791977251,0.0011339845251659103,-32.74544486714047,-32.740855560102126,0,0.03000044822692871,2019-07-25 11:35:35:056
0.20688243210315704,-0.20639389753341675,9.806478500366211,-0.003252780014010603,-0.0047943276643880265,0.004596939573937318,-35.66549455409176,-35.66133389047243,0,0.033232927322387695,2019-07-25 11:35:35:059
0.14940842986106873,-0.22555188834667206,9.851978302001953,-0.0019208743760644798,-0.003462422026441904,0.004596939573937318,-38.53423532141843,-38.521559515279954,0,0.036177635192871094,2019-07-25 11:35:35:062
0.21167191863059998,-0.17765690386295319,9.77295207977295,-0.0027200177588321533,-0.004527946536798801,0.002465890293149196,-41.3377402650816,-41.329702023065316,0,0.04009079933166504,2019-07-25 11:35:35:066
0.13264518976211548,-0.17765690386295319,9.885504722595215,-0.0051174481672095,-0.0023968975160850053,0.0029986525483276447,-44.095189645239714,-44.081618286840936,0,0.04321646690368652,2019-07-25 11:35:35:069
0.1374346911907196,-0.20639389753341675,9.849583625793457,-0.0051174481672095,-0.004261565409209577,-0.0009970646255850488,-46.7965950107505,-46.77513364431441,0,0.046152353286743164,2019-07-25 11:35:35:072
0.16138218343257904,-0.20639389753341675,9.789714813232422,-0.0027200177588321533,-0.003196040898852679,0.005129701829115767,-49.441088649514434,-49.41489178055408,0,0.04997444152832031,2019-07-25 11:35:35:076
0.11109244078397751,-0.17765690386295319,9.775346755981445,-0.004584685912031051,-0.004527946536798801,0.0032650336759168694,-52.038426176768446,-52.004941698120696,0,0.05319356918334961,2019-07-25 11:35:35:079
0.19490867853164673,-0.17765690386295319,9.851978302001953,-0.0003225875780198416,-0.003995184281620353,0.0056624640842942164,-54.574333148794736,-54.54412820320459,0,0.0561223030090332,2019-07-25 11:35:35:082
0.1182766854763031,-0.10102491080760956,9.808873176574707,-0.0048510670396202755,-0.002130516388495781,0.0014003656527551349,-57.0685677041851,-57.04039227638258,0,0.059983015060424805,2019-07-25 11:35:35:086
0.1374346911907196,-0.19442014396190643,9.87592601776123,-0.005916591549977173,-0.005327089919566476,0.002199509165559971,-59.510288061331224,-59.475959412655286,0,0.0632011890411377,2019-07-25 11:35:35:089
0.20448768138885498,-0.17286740243434906,9.86395263671875,-0.004584685912031051,-0.0047943276643880265,0.004330558186273768,-61.89553934957265,-61.8656038903922,0,0.06613802909851074,2019-07-25 11:35:35:092
0.1518031805753708,-0.22076240181922913,9.828031539916992,-0.005383829294798724,-0.005060708791977251,0.0019331279079335842,-64.23883866207845,-64.20139472295799,0,0.06997942924499512,2019-07-25 11:35:35:096
0.11588193476200104,-0.1824464052915573,9.78492546081543,-0.005916591549977173,-0.0055934710471557,0.004064177058684544,-66.53948306072847,-66.4949361980856,0,0.07319045066833496,2019-07-25 11:35:35:099
0.1254609376192093,-0.13934090733528137,9.746609687805176,-0.002986398886421378,-0.0023968975160850053,0.004064177058684544,-68.79354955265936,-68.74816511662651,0,0.07611894607543945,2019-07-25 11:35:35:102
0.18772442638874054,-0.1968148946762085,9.763373374938965,-0.005383829294798724,-0.0047943276643880265,-0.0004643023378973091,-70.99460396898355,-70.94893229103313,0,0.07999825477600098,2019-07-25 11:35:35:106
0.18054017424583435,-0.1824464052915573,9.808873176574707,-0.005383829294798724,-0.0066589960776612485,0.005396082956704991,-73.1524216344719,-73.10767078500072,0,0.08321070671081543,2019-07-25 11:35:35:109
0.1374346911907196,-0.1513146609067917,9.866347312927246,-0.0005889687381183568,-0.003196040898852679,0.0019331279079335842,-75.27288495946273,-75.22784734856324,0,0.08614778518676758,2019-07-25 11:35:35:112
0.1709611862897873,-0.19442014396190643,9.775346755981445,-5.6206421984987715e-05,-0.0066589960776612485,0.0027322714207384203,-77.34595527128931,-77.30049039702286,0,0.0899806022644043,2019-07-25 11:35:35:116
0.18532967567443848,-0.16089364886283875,9.883110046386719,-0.005650210422387949,-0.0055934710471557,-0.0001979211940534392,-79.37652464821265,-79.33479107763628,0,0.0932462215423584,2019-07-25 11:35:35:119
0.10151343792676926,-0.18723590672016144,9.828031539916992,-0.0016544932484752553,-0.0047943276643880265,0.0016667467803443596,-81.37636547439399,-81.32599316582169,0,0.0961918830871582,2019-07-25 11:35:35:122
0.11588193476200104,-0.1968148946762085,9.878320693969727,-0.003785542529263377,-0.0055934710471557,0.0029986525483276447,-83.33420858671107,-83.27584149184358,0,0.09997296333312988,2019-07-25 11:35:35:126
0.16856643557548523,-0.1441304087638855,9.775346755981445,-0.0027200177588321533,-0.005859852174744925,-0.0004643023378973091,-85.24670799360565,-85.19293901108833,0,0.10318899154663086,2019-07-25 11:35:35:129
0.08475019037723541,-0.16089364886283875,9.878320693969727,-0.004584685912031051,-0.005327089919566476,0.002465890293149196,-87.13106654886982,-87.06966359621387,0,0.10611844062805176,2019-07-25 11:35:35:132
0.07756594568490982,-0.12976190447807312,9.760977745056152,-0.0027200177588321533,-0.004527946536798801,0.0016667467803443596,-88.97835500225753,-88.91244616613818,0,0.10999011993408203,2019-07-25 11:35:35:136
0.09432919323444366,-0.1513146609067917,9.890295028686523,-0.003785542529263377,-0.003462422026441904,0.003531414803506094,-90.7872337626037,-90.71598330442504,0,0.11320614814758301,2019-07-25 11:35:35:139
0.13503994047641754,-0.17765690386295319,9.86395263671875,-0.0051174481672095,-0.006392614429923373,0.006195226339472665,-92.55474889413978,-92.48018390464114,0,0.11614060401916504,2019-07-25 11:35:35:142
0.1973034292459488,-0.170472651720047,9.770557403564453,-0.003519161401674152,-0.003995184281620353,0.0011339845251659103,-94.27965598916,-94.2098305314138,0,0.11997795104980469,2019-07-25 11:35:35:146
0.12785568833351135,-0.15849889814853668,9.799294471740723,-0.002187255503653704,-0.008257282843196597,0.0014003656527551349,-95.97762124800381,-95.90670589771896,0,0.12319421768188477,2019-07-25 11:35:35:149
0.17575067281723022,-0.24470989406108856,9.749004364013672,0.0007429370298649286,-0.0018641352609065564,0.0019331279079335842,-97.63710623090644,-97.55993643929585,0,0.12612509727478027,2019-07-25 11:35:35:152
0.15898743271827698,-0.19442014396190643,9.765768051147461,-0.0051174481672095,-0.0055934710471557,0.0032650336759168694,-99.26448840850686,-99.18480967772425,0,0.13001513481140137,2019-07-25 11:35:35:156
0.13982944190502167,-0.26626265048980713,9.765768051147461,-0.003519161401674152,-0.0015977541333173316,-0.0001979211940534392,-100.86250227885427,-100.76923944940368,0,0.13324642181396484,2019-07-25 11:35:35:159
0.04882894456386566,-0.19442014396190643,9.729846000671387,-0.0051174481672095,-0.004527946536798801,0.0008676033975766858,-102.43873758962698,-102.33009680657896,0,0.13625121116638184,2019-07-25 11:35:35:162
0.13025043904781342,-0.1896306425333023,9.796899795532227,-0.005650210422387949,-0.00266327864367423,0.003797795931095319,-103.97416980241059,-103.86013134348926,0,0.13998866081237793,2019-07-25 11:35:35:166
0.15898743271827698,-0.22076240181922913,9.861557960510254,-0.002453636631242929,-0.004261565409209577,0.0016667467803443596,-105.475444930042,-105.35683776834657,0,0.14320111274719238,2019-07-25 11:35:35:169
0.17335593700408936,-0.1369461566209793,9.758583068847656,-0.004584685912031051,-0.005060708791977251,0.0006012222699874612,-106.9447505315082,-106.83286807090711,0,0.14612579345703125,2019-07-25 11:35:35:172
0.07996068894863129,-0.20639389753341675,9.83521556854248,-0.0019208743760644798,-0.004261565409209577,-0.0015298268807634981,-108.3956157999964,-108.27175067730197,0,0.14998555183410645,2019-07-25 11:35:35:176
0.1374346911907196,-0.18484115600585938,9.811267852783203,-0.005383829294798724,-0.003995184281620353,0.003797795931095319,-109.8109304782525,-109.68375624271899,0,0.15320515632629395,2019-07-25 11:35:35:179
0.12306618690490723,-0.12976190447807312,9.844794273376465,-0.002453636631242929,-0.004261565409209577,0.0008676033975766858,-111.19968399771588,-111.07457264788873,0,0.15614700317382812,2019-07-25 11:35:35:182
0.10151343792676926,-0.16089364886283875,9.768162727355957,-0.004051923656852602,-0.007724520588018147,0.002465890293149196,-112.56212318114277,-112.43333808408325,0,0.1599717140197754,2019-07-25 11:35:35:186
0.07038169354200363,-0.15849889814853668,9.725056648254395,-0.006182972677566398,-0.00612623330233415,-0.0015298268807634981,-113.90148085278862,-113.7648797544999,0,0.16318941116333008,2019-07-25 11:35:35:189
0.13025043904781342,-0.12976190447807312,9.804083824157715,-0.004051923656852602,-0.0015977541333173316,0.0014003656527551349,-115.20796507371334,-115.07374881475727,0,0.1661231517791748,2019-07-25 11:35:35:192
0.10390818864107132,-0.16089364886283875,9.763373374938965,-0.002986398886421378,-0.006392614429923373,0.0008676033975766858,-116.49022101925696,-116.35274246423666,0,0.16999459266662598,2019-07-25 11:35:35:196
0.11588193476200104,-0.17765690386295319,9.851978302001953,-0.002986398886421378,-0.005327089919566476,-0.002595351391120396,-117.74597544043016,-117.60448604067503,0,0.17321467399597168,2019-07-25 11:35:35:199
0.15659268200397491,-0.15610414743423462,9.763373374938965,-0.0019208743760644798,-0.00612623330233415,0.0006012222699874612,-118.97167071649824,-118.83376016054545,0,0.17614412307739258,2019-07-25 11:35:35:202
0.17575067281723022,-0.1824464052915573,9.861557960510254,-0.006982116060334072,-0.005859852174744925,-0.0004643023378973091,-120.17048029910812,-120.03429412703939,0,0.1802072525024414,2019-07-25 11:35:35:206
0.1446189284324646,-0.1896306425333023,9.840004920959473,-0.002187255503653704,-0.00612623330233415,-0.0001979211940534392,-121.34912447798101,-121.21113275610456,0,0.18342208862304688,2019-07-25 11:35:35:209
0.14222417771816254,-0.22794663906097412,9.777741432189941,-0.003785542529263377,-0.006392614429923373,-0.002062589135941947,-122.50440492946363,-122.35956675135506,0,0.1864032745361328,2019-07-25 11:35:35:212
0.07996068894863129,-0.23034138977527618,9.770557403564453,-0.004318304784441826,-0.0066589960776612485,0.0006012222699874612,-123.64360463589452,-123.48450004477891,0,0.1899721622467041,2019-07-25 11:35:35:216
0.1254609376192093,-0.1513146609067917,9.765768051147461,-0.0048510670396202755,-0.0029296597712634544,6.845995791775338e-05,-124.75548327431629,-124.59618110225456,0,0.19318485260009766,2019-07-25 11:35:35:219
0.14940842986106873,-0.14173565804958344,9.895084381103516,-0.004318304784441826,-0.005060708791977251,0.0011339845251659103,-125.84224042844804,-125.6871347217941,0,0.19611287117004395,2019-07-25 11:35:35:222
0.12306618690490723,-0.1824464052915573,9.823241233825684,-0.0048510670396202755,-0.008257282843196597,0.0006012222699874612,-126.90924396605568,-126.75105615159939,0,0.19998717308044434,2019-07-25 11:35:35:226
0.18054017424583435,-0.17286740243434906,9.825636863708496,-0.004318304784441826,-0.00266327864367423,-0.0001979211940534392,-127.94952094713375,-127.79509004748881,0,0.2032303810119629,2019-07-25 11:35:35:229
0.11348719149827957,-0.20160439610481262,9.849583625793457,-0.004318304784441826,-0.005060708791977251,0.002465890293149196,-128.97649595464583,-128.81502671054935,0,0.20615792274475098,2019-07-25 11:35:35:232
0.08235543966293335,-0.19202539324760437,9.739425659179688,-0.002187255503653704,-0.0037288031540311283,0.0011339845251659103,-129.9864764012034,-129.81566654519278,0,0.20997953414916992,2019-07-25 11:35:35:236
0.12067143619060516,-0.15370939671993256,9.840004920959473,-0.0027200177588321533,-0.005060708791977251,6.845995791775338e-05,-130.97178223897083,-130.80096398860886,0,0.21319103240966797,2019-07-25 11:35:35:239
0.15898743271827698,-0.22794663906097412,9.749004364013672,-0.004584685912031051,-0.00266327864367423,6.845995791775338e-05,-131.933223144407,-131.75740330813386,0,0.21611618995666504,2019-07-25 11:35:35:242
0.18772442638874054,-0.1896306425333023,9.832820892333984,-0.004584685912031051,-0.00612623330233415,-0.0012634457531742736,-132.87134272073112,-132.69915470959717,0,0.220015287399292,2019-07-25 11:35:35:246
0.14940842986106873,-0.24710464477539062,9.801689147949219,-0.004584685912031051,-0.003196040898852679,-0.002062589135941947,-133.79585198694951,-133.61543105865908,0,0.22334694862365723,2019-07-25 11:35:35:249
0.19490867853164673,-0.19442014396190643,9.804083824157715,-0.004584685912031051,-0.005327089919566476,0.0008676033975766858,-134.69625874343373,-134.51962845981325,0,0.2263491153717041,2019-07-25 11:35:35:252
0.13982944190502167,-0.19442014396190643,9.806478500366211,-0.0048510670396202755,-0.002130516388495781,-0.0007306834979958244,-135.58555921704337,-135.40552760172022,0,0.22999358177185059,2019-07-25 11:35:35:256
0.2164614200592041,-0.1896306425333023,9.71547794342041,-0.004051923656852602,-0.0029296597712634544,0.0003348411098889459,-136.44779270168323,-136.2743225085352,0,0.23320627212524414,2019-07-25 11:35:35:259
0.08714494109153748,-0.16807790100574493,9.811267852783203,-0.003519161401674152,-0.004261565409209577,0.0016667467803443596,-137.3079587104281,-137.12862892533673,0,0.23613262176513672,2019-07-25 11:35:35:262
0.1781454235315323,-0.1441304087638855,9.83521556854248,-0.0019208743760644798,-0.005327089919566476,0.002199509165559971,-138.1398915183432,-137.96884847637685,0,0.2399916648864746,2019-07-25 11:35:35:266
0.15659268200397491,-0.14891991019248962,9.806478500366211,-0.004584685912031051,-0.0029296597712634544,0.0008676033975766858,-138.95826589493947,-138.79124008818084,0,0.24321985244750977,2019-07-25 11:35:35:269
0.18532967567443848,-0.15370939671993256,9.734636306762695,-0.004584685912031051,5.327623186731574e-07,6.845995791775338e-05,-139.7572871625651,-139.5965665681233,0,0.24615764617919922,2019-07-25 11:35:35:272
0.13503994047641754,-0.14652515947818756,9.806478500366211,-0.0027200177588321533,-0.009589187960994068,0.0008676033975766858,-140.54430724040952,-140.38693160486105,0,0.24997496604919434,2019-07-25 11:35:35:276
0.1901191771030426,-0.17286740243434906,9.85437297821045,-0.002986398886421378,-0.0029296597712634544,-0.002861732518709621,-141.3107884041464,-141.1585555080762,0,0.25318121910095215,2019-07-25 11:35:35:279
0.23322467505931854,-0.17286740243434906,9.725056648254395,-0.0027200177588321533,-0.0023968975160850053,-0.0015298268807634981,-142.0567026786783,-141.91457016830833,0,0.25610923767089844,2019-07-25 11:35:35:282
0.1254609376192093,-0.22794663906097412,9.760977745056152,-0.006715734932744847,-0.003995184281620353,0.0014003656527551349,-142.79996732996094,-142.64805527049953,0,0.26000213623046875,2019-07-25 11:35:35:286
0.13503994047641754,-0.215972900390625,9.861557960510254,-0.0051174481672095,-0.005859852174744925,-0.0031281136462988457,-143.5272178633818,-143.3690768666409,0,0.26322197914123535,2019-07-25 11:35:35:289
0.1781454235315323,-0.15849889814853668,9.808873176574707,-0.006715734932744847,-0.003995184281620353,0.0008676033975766858,-144.23520604779839,-144.08207430670942,0,0.2661552429199219,2019-07-25 11:35:35:292
0.18054017424583435,-0.1896306425333023,9.883110046386719,-0.002453636631242929,-0.004527946536798801,0.004330558186273768,-144.92859817395322,-144.77792117627482,0,0.26998233795166016,2019-07-25 11:35:35:296
0.16856643557548523,-0.17286740243434906,9.77295207977295,-0.003785542529263377,-0.0055934710471557,-0.0015298268807634981,-145.6092390489612,-145.46140244133443,0,0.2732429504394531,2019-07-25 11:35:35:299
0.15898743271827698,-0.19442014396190643,9.71547794342041,-0.0019208743760644798,-0.006392614429923373,0.002465890293149196,-146.2772468826565,-146.12892851658026,0,0.2761874198913574,2019-07-25 11:35:35:302
0.17335593700408936,-0.22315713763237,9.749004364013672,-0.005650210422387949,-0.003462422026441904,0.0014003656527551349,-146.93059177630613,-146.77892359383853,0,0.2799718379974365,2019-07-25 11:35:35:306
0.2092771828174591,-0.17765690386295319,9.72745132446289,-0.005383829294798724,-0.004261565409209577,-0.0001979211940534392,-147.56656292396497,-147.42144945176952,0,0.28317928314208984,2019-07-25 11:35:35:309
0.1973034292459488,-0.21118339896202087,9.79450511932373,-0.003519161401674152,-0.004527946536798801,0.0029986525483276447,-148.1914056616543,-148.04773734914178,0,0.28611135482788086,2019-07-25 11:35:35:312
0.1709611862897873,-0.19920964539051056,9.796899795532227,-0.003519161401674152,-0.003196040898852679,0.0008676033975766858,-148.80688797448752,-148.6627198270106,0,0.28998279571533203,2019-07-25 11:35:35:316
0.18532967567443848,-0.12736715376377106,9.777741432189941,-0.004584685912031051,-0.0023968975160850053,0.0011339845251659103,-149.40859845131936,-149.27370840142993,0,0.293210506439209,2019-07-25 11:35:35:319
0.18772442638874054,-0.16089364886283875,9.708293914794922,-0.0048510670396202755,-0.005327089919566476,0.0011339845251659103,-149.99739193657047,-149.86844420207692,0,0.29615020751953125,2019-07-25 11:35:35:322
0.1709611862897873,-0.15610414743423462,9.777741432189941,-0.004318304784441826,-0.005060708791977251,0.0029986525483276447,-150.57632471262573,-150.45185586400876,0,0.2999699115753174,2019-07-25 11:35:35:326
0.16138218343257904,-0.2494993954896927,9.804083824157715,-0.002986398886421378,-0.006392614429923373,0.0032650336759168694,-151.1447827906187,-151.0131238245337,0,0.30318641662597656,2019-07-25 11:35:35:329
0.1254609376192093,-0.15610414743423462,9.765768051147461,-0.004051923656852602,-0.003995184281620353,0.008059894232597238,-151.70651004870805,-151.57388001579062,0,0.30611205101013184,2019-07-25 11:35:35:332
0.1518031805753708,-0.12736715376377106,9.804083824157715,-0.002453636631242929,-0.006392614429923373,-0.0015298268807634981,-152.25324437761648,-152.1269813784811,0,0.3099954128265381,2019-07-25 11:35:35:336
0.19490867853164673,-0.17765690386295319,9.796899795532227,-0.004051923656852602,-0.004527946536798801,0.0027322714207384203,-152.78456589673777,-152.6629313872564,0,0.3132154941558838,2019-07-25 11:35:35:339
0.18532967567443848,-0.22076240181922913,9.71547794342041,-0.002986398886421378,-0.007990901715607372,0.0029986525483276447,-153.3057017375565,-153.18314693614693,0,0.3161492347717285,2019-07-25 11:35:35:342
0.15898743271827698,-0.12976190447807312,9.825636863708496,-0.003785542529263377,-0.005859852174744925,0.0019331279079335842,-153.81978691639566,-153.70353709655728,0,0.3199801445007324,2019-07-25 11:35:35:346
0.17335593700408936,-0.17765690386295319,9.890295028686523,-0.0051174481672095,-0.003995184281620353,-0.0004643023378973091,-154.32258609738645,-154.20796039149312,0,0.3231971263885498,2019-07-25 11:35:35:349
0.20448768138885498,-0.16568315029144287,9.799294471740723,-0.002986398886421378,-0.0029296597712634544,0.0008676033975766858,-154.81174329494425,-154.70393688987343,0,0.3261275291442871,2019-07-25 11:35:35:352
0.11588193476200104,-0.17526215314865112,9.85437297821045,-0.006715734932744847,-0.005060708791977251,0.0006012222699874612,-155.3009396496672,-155.1880280732576,0,0.32997775077819824,2019-07-25 11:35:35:356
0.17575067281723022,-0.1968148946762085,9.770557403564453,-0.0019208743760644798,-0.005859852174744925,0.0048633207015265426,-155.77325266353085,-155.66084089291311,0,0.3331930637359619,2019-07-25 11:35:35:359
0.14940842986106873,-0.13934090733528137,9.830426216125488,-0.002986398886421378,-0.007191758332839698,0.0032650336759168694,-156.23918903867065,-156.13089092973502,0,0.3361241817474365,2019-07-25 11:35:35:362
0.11588193476200104,-0.12736715376377106,9.799294471740723,-0.006449353805155623,-0.005060708791977251,-0.0015298268807634981,-156.6997595970777,-156.59198406573344,0,0.3399784564971924,2019-07-25 11:35:35:366
0.13503994047641754,-0.22076240181922913,9.729846000671387,-0.002453636631242929,-0.002130516388495781,0.005129701829115767,-157.14947606386383,-157.03370523828622,0,0.3431990146636963,2019-07-25 11:35:35:369
0.17335593700408936,-0.20639389753341675,9.734636306762695,-0.004051923656852602,-0.008257282843196597,0.002465890293149196,-157.58468082797438,-157.46805146006596,0,0.3462212085723877,2019-07-25 11:35:35:372
0.12785568833351135,-0.19202539324760437,9.861557960510254,-0.002986398886421378,-0.003995184281620353,0.002199509165559971,-158.01721242782912,-157.89569308323138,0,0.35031676292419434,2019-07-25 11:35:35:376
0.1254609376192093,-0.1369461566209793,9.801689147949219,-0.003785542529263377,-0.003995184281620353,0.003797795931095319,-158.44154712167474,-158.32114999681573,0,0.35323309898376465,2019-07-25 11:35:35:379
0.12306618690490723,-0.14891991019248962,9.70350456237793,-0.003252780014010603,-0.0066589960776612485,0.0006012222699874612,-158.85708151768762,-158.73660358735614,0,0.35618090629577637,2019-07-25 11:35:35:382
0.09672393649816513,-0.19442014396190643,9.77295207977295,-0.0051174481672095,-0.003995184281620353,0.0016667467803443596,-159.26774631144565,-159.13798579959794,0,0.3599820137023926,2019-07-25 11:35:35:386
0.15898743271827698,-0.16089364886283875,9.866347312927246,-0.002986398886421378,-0.003196040898852679,0.003797795931095319,-159.6633501739202,-159.536001409086,0,0.36319947242736816,2019-07-25 11:35:35:389
0.09672393649816513,-0.15849889814853668,9.72745132446289,-0.004051923656852602,-0.004261565409209577,0.0014003656527551349,-160.05798695997456,-159.92594376612325,0,0.3661344051361084,2019-07-25 11:35:35:392
0.1781454235315323,-0.22315713763237,9.787320137023926,-0.004318304784441826,-0.004527946536798801,0.005129701829115767,-160.43499610025063,-160.30037112984485,0,0.36997270584106445,2019-07-25 11:35:35:396
0.15898743271827698,-0.15610414743423462,9.830426216125488,-0.001121730993296806,-0.005859852174744925,0.0014003656527551349,-160.80670877706007,-160.67596627787324,0,0.3731825351715088,2019-07-25 11:35:35:399
0.14940842986106873,-0.18723590672016144,9.787320137023926,-0.0016544932484752553,-0.004261565409209577,0.0032650336759168694,-161.1723827392444,-161.04025588049726,0,0.37610888481140137,2019-07-25 11:35:35:402
0.19969817996025085,-0.19442014396190643,9.763373374938965,-0.006449353805155623,-0.004527946536798801,-0.0004643023378973091,-161.52467441761215,-161.39545898415153,0,0.37935614585876465,2019-07-25 11:35:35:405
0.17575067281723022,-0.15610414743423462,9.806478500366211,-0.002453636631242929,-0.005859852174744925,0.0019331279079335842,-161.87220680668875,-161.74870743906754,0,0.3837306499481201,2019-07-25 11:35:35:410
0.10630293935537338,-0.12736715376377106,9.823241233825684,-0.003785542529263377,-0.0037288031540311283,6.845995791775338e-05,-162.22174565517733,-162.09825002192346,0,0.3866770267486572,2019-07-25 11:35:35:413
0.1254609376192093,-0.19920964539051056,9.828031539916992,-0.001121730993296806,-0.005859852174744925,0.0056624640842942164,-162.56159193709664,-162.43285212488706,0,0.38999366760253906,2019-07-25 11:35:35:416
0.1829349249601364,-0.20639389753341675,9.765768051147461,-0.0051174481672095,-0.0029296597712634544,0.006727988594651115,-162.8883616273461,-162.7590452147461,0,0.3932483196258545,2019-07-25 11:35:35:419
0.12306618690490723,-0.22076240181922913,9.830426216125488,-0.005650210422387949,-0.0055934710471557,0.003531414803506094,-163.21532243540526,-163.07719824516653,0,0.39620018005371094,2019-07-25 11:35:35:422
0.1446189284324646,-0.17286740243434906,9.770557403564453,-0.002187255503653704,-0.0055934710471557,0.0032650336759168694,-163.53286722093534,-163.3949172323868,0,0.39998507499694824,2019-07-25 11:35:35:426
0.13025043904781342,-0.1896306425333023,9.828031539916992,-0.003519161401674152,-0.003196040898852679,0.002199509165559971,-163.8464417262923,-163.70427019062984,0,0.4032297134399414,2019-07-25 11:35:35:429
0.13025043904781342,-0.18484115600585938,9.74421501159668,-0.002187255503653704,-0.0037288031540311283,0.0011339845251659103,-164.15358206469668,-164.00808978799196,0,0.40616393089294434,2019-07-25 11:35:35:432
0.18054017424583435,-0.14891991019248962,9.801689147949219,-0.0051174481672095,-0.0037288031540311283,0.0003348411098889459,-164.44860706624112,-164.3094228358241,0,0.40997910499572754,2019-07-25 11:35:35:436
0.11588193476200104,-0.170472651720047,9.796899795532227,-0.0013881121208860305,-0.003995184281620353,0.0006012222699874612,-164.74536117118075,-164.6030465255919,0,0.4131886959075928,2019-07-25 11:35:35:439
0.16138218343257904,-0.20399914681911469,9.729846000671387,-0.003252780014010603,-0.005859852174744925,0.0029986525483276447,-165.03048609421032,-164.88642886361876,0,0.41611576080322266,2019-07-25 11:35:35:442
0.16856643557548523,-0.08426166325807571,9.804083824157715,-0.002187255503653704,-0.005859852174744925,0.006727988594651115,-165.3089034583622,-165.1783769039332,0,0.4199833869934082,2019-07-25 11:35:35:446
0.10869769006967545,-0.170472651720047,9.775346755981445,-0.006449353805155623,-0.006392614429923373,0.0008676033975766858,-165.5888313286235,-165.45366500287764,0,0.42319416999816895,2019-07-25 11:35:35:449
0.18054017424583435,-0.1968148946762085,9.895084381103516,-0.002986398886421378,-0.0018641352609065564,0.0006012222699874612,-165.85584143578262,-165.72130906747987,0,0.4261353015899658,2019-07-25 11:35:35:452
0.11348719149827957,-0.14891991019248962,9.681951522827148,-0.003519161401674152,-0.006925377205250474,0.0027322714207384203,-166.1237911496026,-165.9884953840263,0,0.42999839782714844,2019-07-25 11:35:35:456
0.13503994047641754,-0.17526215314865112,9.796899795532227,-0.002187255503653704,-0.004527946536798801,0.0019331279079335842,-166.38470331214577,-166.24783271355787,0,0.4332149028778076,2019-07-25 11:35:35:459
0.1637769341468811,-0.12976190447807312,9.753793716430664,-0.0016544932484752553,-0.0047943276643880265,0.0003348411098889459,-166.63698081017878,-166.50735969956844,0,0.4361460208892822,2019-07-25 11:35:35:462
0.11588193476200104,-0.18005165457725525,9.883110046386719,-0.004584685912031051,-0.004527946536798801,0.0048633207015265426,-166.88982804184698,-166.75534851881844,0,0.4399912357330322,2019-07-25 11:35:35:466
0.1637769341468811,-0.16089364886283875,9.71547794342041,-0.002453636631242929,-0.007191758332839698,0.0027322714207384203,-167.13141572935265,-167.00082259097272,0,0.44321179389953613,2019-07-25 11:35:35:469
0.12785568833351135,-0.19920964539051056,9.775346755981445,-0.004584685912031051,-0.0047943276643880265,0.0016667467803443596,-167.37301087013725,-167.2367020229737,0,0.44614458084106445,2019-07-25 11:35:35:472
0.15898743271827698,-0.21836765110492706,9.897479057312012,-0.002986398886421378,-0.0023968975160850053,0.0032650336759168694,-167.60662967242882,-167.46604784787232,0,0.44997286796569824,2019-07-25 11:35:35:476
0.16856643557548523,-0.21118339896202087,9.765768051147461,-0.004051923656852602,-0.004261565409209577,0.005396082956704991,-167.83395098352793,-167.6912198206578,0,0.4531843662261963,2019-07-25 11:35:35:479
0.07517119497060776,-0.13934090733528137,9.753793716430664,-0.004318304784441826,-0.004527946536798801,0.002465890293149196,-168.0676967135631,-167.92031663938002,0,0.45611071586608887,2019-07-25 11:35:35:482
0.09672393649816513,-0.13934090733528137,9.751399040222168,-0.002986398886421378,-0.005327089919566476,0.0027322714207384203,-168.29381868756994,-168.1448877949791,0,0.45998263359069824,2019-07-25 11:35:35:486
0.16138218343257904,-0.1513146609067917,9.89268970489502,-0.003252780014010603,-0.003196040898852679,0.003797795931095319,-168.5086713116455,-168.36387463352526,0,0.4632091522216797,2019-07-25 11:35:35:489
0.19251392781734467,-0.1896306425333023,9.705899238586426,-0.006182972677566398,-0.009322807353553494,-0.0015298268807634981,-168.71423831834878,-168.5731943612887,0,0.4661388397216797,2019-07-25 11:35:35:492
0.13503994047641754,-0.20639389753341675,9.9046630859375,-0.003785542529263377,-0.006392614429923373,0.0006012222699874612,-168.92295245604777,-168.7770388614039,0,0.46997976303100586,2019-07-25 11:35:35:496
0.1446189284324646,-0.17765690386295319,9.746609687805176,-0.002453636631242929,-0.0055934710471557,0.002465890293149196,-169.12648463665957,-168.9801713901183,0,0.4731862545013428,2019-07-25 11:35:35:499
0.16617168486118317,-0.19442014396190643,9.775346755981445,0.0010093181574541532,-0.005327089919566476,-0.0004643023378973091,-169.3236008060076,-169.17794612899374,0,0.4761166572570801,2019-07-25 11:35:35:502
0.1254609376192093,-0.19920964539051056,9.782530784606934,-0.007781259443101745,-0.003462422026441904,0.0027322714207384203,-169.52180006162772,-169.36963226910748,0,0.4793734550476074,2019-07-25 11:35:35:505
0.11109244078397751,-0.14652515947818756,9.816057205200195,-0.005650210422387949,-0.0029296597712634544,0.0016667467803443596,-169.7176555706339,-169.56370807438395,0,0.4838733673095703,2019-07-25 11:35:35:510
0.14940842986106873,-0.20399914681911469,9.792109489440918,-0.004051923656852602,-0.007990901715607372,0.0014003656527551349,-169.90472705875678,-169.74801060765657,0,0.48630785942077637,2019-07-25 11:35:35:512
0.1374346911907196,-0.2087886482477188,9.804083824157715,-0.004318304784441826,-0.007191758332839698,0.005396082956704991,-170.08909368680344,-169.92776410577034,0,0.4899637699127197,2019-07-25 11:35:35:516
0.12785568833351135,-0.18484115600585938,9.820846557617188,-0.001121730993296806,-0.0037288031540311283,0.0011339845251659103,-170.27172120780804,-170.1074412855601,0,0.493178129196167,2019-07-25 11:35:35:519
0.13264518976211548,-0.19920964539051056,9.758583068847656,-0.003519161401674152,-0.005859852174744925,0.0027322714207384203,-170.44975110990492,-170.28132634884756,0,0.4960975646972656,2019-07-25 11:35:35:522
0.1182766854763031,-0.18484115600585938,9.830426216125488,-0.0005889687381183568,-0.0037288031540311283,0.002199509165559971,-170.62615548164447,-170.4540271836521,0,0.4999852180480957,2019-07-25 11:35:35:526
0.18054017424583435,-0.17286740243434906,9.72745132446289,-0.004584685912031051,-0.005060708791977251,0.007793513105008012,-170.79144979904933,-170.6237538916746,0,0.5032122135162354,2019-07-25 11:35:35:529
0.10869769006967545,-0.23273614048957825,9.658003807067871,-0.004318304784441826,-0.003462422026441904,0.004596939573937318,-170.96215370788124,-170.78295835909014,0,0.5061478614807129,2019-07-25 11:35:35:532
0.1446189284324646,-0.15610414743423462,9.832820892333984,-0.0027200177588321533,-0.0055934710471557,0.0019331279079335842,-171.12485397125351,-170.94852287415293,0,0.5099813938140869,2019-07-25 11:35:35:536
0.15659268200397491,-0.1632883995771408,9.775346755981445,-0.0008553498657075814,-0.004261565409209577,0.0032650336759168694,-171.28323232398935,-171.11025824590422,0,0.5131974220275879,2019-07-25 11:35:35:539
0.1518031805753708,-0.12257765978574753,9.705899238586426,-0.0051174481672095,-0.007458139460428923,0.0019331279079335842,-171.43841870071205,-171.27273928116716,0,0.516129732131958,2019-07-25 11:35:35:542
0.19490867853164673,-0.170472651720047,9.868741989135742,-0.006715734932744847,-0.0037288031540311283,0.0011339845251659103,-171.58621204419072,-171.4260343829811,0,0.5199949741363525,2019-07-25 11:35:35:546
0.017697200179100037,-0.08426166325807571,9.749004364013672,-0.004584685912031051,-0.007990901715607372,0.003797795931095319,-171.75096293968485,-171.5867807912511,0,0.5232148170471191,2019-07-25 11:35:35:549
0.10869769006967545,-0.1513146609067917,9.83521556854248,-0.001121730993296806,-0.0047943276643880265,0.0048633207015265426,-171.90249009408126,-171.7372319333492,0,0.5261478424072266,2019-07-25 11:35:35:552
0.16138218343257904,-0.22076240181922913,9.859163284301758,-0.006715734932744847,-0.0037288031540311283,0.0003348411098889459,-172.04487204385512,-171.87536896441765,0,0.5300295352935791,2019-07-25 11:35:35:556
0.13264518976211548,-0.16807790100574493,9.856768608093262,-0.002187255503653704,-0.007191758332839698,0.0006012222699874612,-172.18725306628392,-172.0179274411569,0,0.5332527160644531,2019-07-25 11:35:35:559
0.1374346911907196,-0.12736715376377106,9.849583625793457,-0.002187255503653704,-0.008257282843196597,0.003797795931095319,-172.32615714436972,-172.16239070953824,0,0.536191463470459,2019-07-25 11:35:35:562
0.14940842986106873,-0.18723590672016144,9.847188949584961,-0.006715734932744847,-0.0047943276643880265,0.0011339845251659103,-172.4612329516587,-172.29593408047805,0,0.5399646759033203,2019-07-25 11:35:35:566
0.1182766854763031,-0.14173565804958344,9.868741989135742,-0.003785542529263377,-0.0066589960776612485,0.002465890293149196,-172.5970751019619,-172.4328765761201,0,0.5431742668151855,2019-07-25 11:35:35:569
0.1374346911907196,-0.19442014396190643,9.760977745056152,-0.002187255503653704,-0.00612623330233415,0.003797795931095319,-172.72799476334256,-172.56103864163086,0,0.5460970401763916,2019-07-25 11:35:35:572
0.15419793128967285,-0.16807790100574493,9.828031539916992,-0.004051923656852602,-0.004527946536798801,0.0027322714207384203,-172.85446824200432,-172.68933730798366,0,0.5499875545501709,2019-07-25 11:35:35:576
0.1374346911907196,-0.17526215314865112,9.789714813232422,-0.002187255503653704,-0.0047943276643880265,0.002465890293149196,-172.9804252349137,-172.81464199700338,0,0.5532102584838867,2019-07-25 11:35:35:579
0.1374346911907196,-0.19442014396190643,9.777741432189941,-0.003785542529263377,-0.0010649918131203013,0.004596939573937318,-173.1045353263598,-172.934942580376,0,0.5561470985412598,2019-07-25 11:35:35:582
0.14222417771816254,-0.18723590672016144,9.729846000671387,-0.003519161401674152,-0.003196040898852679,0.0014003656527551349,-173.22500731145107,-173.0534371842307,0,0.5599825382232666,2019-07-25 11:35:35:586
0.1446189284324646,-0.21836765110492706,9.832820892333984,-0.0051174481672095,-0.0047943276643880265,0.0029986525483276447,-173.34279228288622,-173.1660037485665,0,0.563185453414917,2019-07-25 11:35:35:589
0.1374346911907196,-0.2087886482477188,9.741820335388184,-0.0051174481672095,-0.003995184281620353,0.0011339845251659103,-173.45911577224098,-173.27728830414816,0,0.5661075115203857,2019-07-25 11:35:35:592
0.07996068894863129,-0.18723590672016144,9.737030982971191,-0.005916591549977173,-0.004261565409209577,0.002199509165559971,-173.57959255431538,-173.38841781185647,0,0.5699975490570068,2019-07-25 11:35:35:596
0.14940842986106873,-0.20160439610481262,9.806478500366211,-0.0048510670396202755,-0.005060708791977251,0.0008676033975766858,-173.68962552132845,-173.4962150072893,0,0.5732271671295166,2019-07-25 11:35:35:599
0.17575067281723022,-0.22315713763237,9.828031539916992,-0.002187255503653704,-0.00612623330233415,0.0029986525483276447,-173.7943073491583,-173.59990595150046,0,0.5762386322021484,2019-07-25 11:35:35:602
0.19490867853164673,-0.20160439610481262,9.74421501159668,-0.004584685912031051,-0.005327089919566476,0.003531414803506094,-173.8943815852981,-173.7032374237036,0,0.5799880027770996,2019-07-25 11:35:35:606
0.15659268200397491,-0.13215665519237518,9.72745132446289,-0.002986398886421378,-0.00612623330233415,6.845995791775338e-05,-173.99694238714557,-173.81306603991982,0,0.5832037925720215,2019-07-25 11:35:35:609
0.15419793128967285,-0.1968148946762085,9.787320137023926,-0.005383829294798724,-0.007458139460428923,0.003797795931095319,-174.0977280035349,-173.91288135823763,0,0.5861248970031738,2019-07-25 11:35:35:612
0.11109244078397751,-0.19202539324760437,9.698714256286621,-0.0019208743760644798,-0.0018641352609065564,0.005129701829115767,-174.20224427289352,-174.01152232021266,0,0.5899848937988281,2019-07-25 11:35:35:616
0.20209293067455292,-0.14173565804958344,9.799294471740723,-0.004318304784441826,-0.007191758332839698,0.005129701829115767,-174.29326947390797,-174.1139375934019,0,0.5932061672210693,2019-07-25 11:35:35:619
0.16856643557548523,-0.215972900390625,9.849583625793457,-0.003519161401674152,-0.0010649918131203013,0.002465890293149196,-174.38761881672025,-174.20595498739135,0,0.5961477756500244,2019-07-25 11:35:35:622
0.18772442638874054,-0.1824464052915573,9.873531341552734,-0.0019208743760644798,-0.0055934710471557,0.0011339845251659103,-174.47687893166133,-174.3002505740333,0,0.599977970123291,2019-07-25 11:35:35:626
0.13025043904781342,-0.1513146609067917,9.801689147949219,-0.006182972677566398,-0.005859852174744925,0.0011339845251659103,-174.571059402027,-174.39544331310523,0,0.6031851768493652,2019-07-25 11:35:35:629
0.1254609376192093,-0.170472651720047,9.830426216125488,-0.004584685912031051,-0.007724520588018147,0.002199509165559971,-174.66374427410372,-174.48691098125806,0,0.6061131954193115,2019-07-25 11:35:35:632
0.11588193476200104,-0.1513146609067917,9.739425659179688,-0.003252780014010603,-0.0047943276643880265,0.0056624640842942164,-174.75578807725427,-174.5786601528782,0,0.6100046634674072,2019-07-25 11:35:35:636
0.15419793128967285,-0.16568315029144287,9.787320137023926,-0.006449353805155623,-0.002130516388495781,0.0011339845251659103,-174.8422351051581,-174.6665250338003,0,0.613222599029541,2019-07-25 11:35:35:639
0.21885617077350616,-0.215972900390625,9.856768608093262,-0.0019208743760644798,-0.003196040898852679,0.0032650336759168694,-174.919423446159,-174.74777313077297,0,0.6161627769470215,2019-07-25 11:35:35:642
0.1182766854763031,-0.20160439610481262,9.801689147949219,-0.005916591549977173,-0.0055934710471557,0.004330558186273768,-175.0060017405317,-174.82797556177704,0,0.6200032234191895,2019-07-25 11:35:35:646
0.1446189284324646,-0.1513146609067917,9.820846557617188,-0.0051174481672095,-0.0037288031540311283,6.845995791775338e-05,-175.08833620847182,-174.9128390889716,0,0.6232142448425293,2019-07-25 11:35:35:649
0.18772442638874054,-0.18723590672016144,9.842399597167969,-0.003519161401674152,-0.006392614429923373,0.0027322714207384203,-175.16366393800627,-174.99220653516906,0,0.6261453628540039,2019-07-25 11:35:35:652
0.12067143619060516,-0.16089364886283875,9.775346755981445,-0.004318304784441826,-0.0015977541333173316,0.002465890293149196,-175.24590255412718,-175.07257601167396,0,0.6299698352813721,2019-07-25 11:35:35:656
0.13264518976211548,-0.16089364886283875,9.823241233825684,-0.006449353805155623,-0.0029296597712634544,0.004064177058684544,-175.32498327171902,-175.1511936023084,0,0.633183479309082,2019-07-25 11:35:35:659
0.15659268200397491,-0.22794663906097412,9.751399040222168,-0.007248497187923296,-0.00612623330233415,0.002465890293149196,-175.3990784525766,-175.2201987406326,0,0.6361052989959717,2019-07-25 11:35:35:662
0.16856643557548523,-0.17526215314865112,9.823241233825684,-0.003519161401674152,-0.003196040898852679,6.845995791775338e-05,-175.47073886200752,-175.29458553020018,0,0.639984130859375,2019-07-25 11:35:35:666
0.1637769341468811,-0.19202539324760437,9.849583625793457,-0.002453636631242929,-0.005327089919566476,0.0019331279079335842,-175.541307322572,-175.36591189584917,0,0.6432085037231445,2019-07-25 11:35:35:669
0.13025043904781342,-0.15370939671993256,9.768162727355957,-0.004318304784441826,-0.003462422026441904,0.004596939573937318,-175.61463192154838,-175.43985200843673,0,0.6461420059204102,2019-07-25 11:35:35:672
0.1182766854763031,-0.18484115600585938,9.780136108398438,-0.006449353805155623,-0.003995184281620353,6.845995791775338e-05,-175.68762151696455,-175.50801147195324,0,0.6499767303466797,2019-07-25 11:35:35:676
0.19251392781734467,-0.19920964539051056,9.861557960510254,-0.004051923656852602,-0.003196040898852679,0.0016667467803443596,-175.75092500485752,-175.57397497164968,0,0.6531906127929688,2019-07-25 11:35:35:679
0.07756594568490982,-0.1441304087638855,9.782530784606934,-0.0003225875780198416,-0.003995184281620353,0.0027322714207384203,-175.8261632186528,-175.64556031817264,0,0.6561214923858643,2019-07-25 11:35:35:682
0.1901191771030426,-0.22794663906097412,9.722661972045898,-0.002986398886421378,-0.004261565409209577,0.002199509165559971,-175.8863026531896,-175.70513459580258,0,0.6600191593170166,2019-07-25 11:35:35:686
0.1973034292459488,-0.17286740243434906,9.789714813232422,-0.003252780014010603,-0.004527946536798801,0.002199509165559971,-175.94466699021518,-175.77021188410296,0,0.6632356643676758,2019-07-25 11:35:35:689
0.16856643557548523,-0.1632883995771408,9.83521556854248,-0.002986398886421378,-0.005060708791977251,0.003531414803506094,-176.00525010548043,-175.8352618487602,0,0.6663520336151123,2019-07-25 11:35:35:692
0.13264518976211548,-0.22076240181922913,9.753793716430664,-0.002453636631242929,-0.005859852174744925,0.0027322714207384203,-176.0683655793728,-175.89212385139513,0,0.6699893474578857,2019-07-25 11:35:35:696
0.1518031805753708,-0.19202539324760437,9.792109489440918,-0.0016544932484752553,-0.0015977541333173316,0.0014003656527551349,-176.12894628126253,-175.95151361160575,0,0.6732077598571777,2019-07-25 11:35:35:699
0.1182766854763031,-0.18723590672016144,9.866347312927246,-0.002986398886421378,-0.0015977541333173316,0.0029986525483276447,-176.19236819897858,-176.01024862236844,0,0.6761360168457031,2019-07-25 11:35:35:702
0.14701367914676666,-0.1896306425333023,9.83521556854248,-0.005916591549977173,-0.0066589960776612485,-0.0012634457531742736,-176.24995354538763,-176.06667297608888,0,0.6799867153167725,2019-07-25 11:35:35:706
0.11588193476200104,-0.16568315029144287,9.820846557617188,-0.003252780014010603,-0.003995184281620353,0.00592884521188344,-176.31071157374424,-176.12542112103688,0,0.6832060813903809,2019-07-25 11:35:35:709
0.10390818864107132,-0.1513146609067917,9.83521556854248,-0.006449353805155623,-0.0047943276643880265,0.0003348411098889459,-176.3716005027319,-176.18422041536655,0,0.6861436367034912,2019-07-25 11:35:35:712
0.07996068894863129,-0.21118339896202087,9.799294471740723,-0.002986398886421378,-0.004261565409209577,0.0014003656527551349,-176.4339011841112,-176.23520171279546,0,0.6899759769439697,2019-07-25 11:35:35:716
0.13503994047641754,-0.19442014396190643,9.83521556854248,-0.002986398886421378,-0.007990901715607372,0.00592884521188344,-176.4880510885212,-176.28731052508144,0,0.6931838989257812,2019-07-25 11:35:35:719
0.12785568833351135,-0.15849889814853668,9.777741432189941,-0.004318304784441826,-0.005060708791977251,0.0056624640842942164,-176.54247495169065,-176.34228071733915,0,0.6961109638214111,2019-07-25 11:35:35:722
0.11348719149827957,-0.18484115600585938,9.8136625289917,-0.001121730993296806,-0.0066589960776612485,0.0056624640842942164,-176.59692102013818,-176.39360940462728,0,0.699998140335083,2019-07-25 11:35:35:726
0.17335593700408936,-0.14891991019248962,9.79450511932373,-0.005650210422387949,-0.005060708791977251,0.0019331279079335842,-176.6437853560834,-176.44729123918486,0,0.7032268047332764,2019-07-25 11:35:35:729
0.005723451729863882,-0.1441304087638855,9.830426216125488,-0.003519161401674152,-0.00266327864367423,0.004064177058684544,-176.70980243749926,-176.5009641369116,0,0.7061693668365479,2019-07-25 11:35:35:732
0.13503994047641754,-0.16089364886283875,9.897479057312012,-0.0019208743760644798,-0.0066589960776612485,-0.0004643023378973091,-176.75849719196577,-176.55189285422128,0,0.7101154327392578,2019-07-25 11:35:35:736
0.1709611862897873,-0.1369461566209793,9.887900352478027,-0.003519161401674152,-0.004527946536798801,0.002465890293149196,-176.80270033379054,-176.6043509635994,0,0.7133252620697021,2019-07-25 11:35:35:739
0.1637769341468811,-0.170472651720047,9.801689147949219,-0.0027200177588321533,-0.005327089919566476,0.0019331279079335842,-176.84662028072154,-176.65188632546122,0,0.7162694931030273,2019-07-25 11:35:35:742
0.13503994047641754,-0.17526215314865112,9.823241233825684,-0.0048510670396202755,-0.005327089919566476,0.002199509165559971,-176.89283074934775,-176.69739935010045,0,0.7199645042419434,2019-07-25 11:35:35:746
0.1374346911907196,-0.19202539324760437,9.828031539916992,-0.006449353805155623,-0.004527946536798801,0.0014003656527551349,-176.9381326142059,-176.7398993811688,0,0.7231824398040771,2019-07-25 11:35:35:749
0.1637769341468811,-0.18484115600585938,9.85437297821045,-5.6206421984987715e-05,-0.00612623330233415,0.0029986525483276447,-176.9793194703321,-176.78360042018204,0,0.7261111736297607,2019-07-25 11:35:35:752
0.14701367914676666,-0.17526215314865112,9.775346755981445,-0.0048510670396202755,-0.0055934710471557,0.004064177058684544,-177.02128313195354,-176.82632953874807,0,0.7299878597259521,2019-07-25 11:35:35:756
0.11348719149827957,-0.15370939671993256,9.717872619628906,-0.007781259443101745,-0.0029296597712634544,0.0014003656527551349,-177.0669451311691,-176.87026968392087,0,0.7332141399383545,2019-07-25 11:35:35:759
0.18054017424583435,-0.17765690386295319,9.837610244750977,-0.003252780014010603,-0.0029296597712634544,0.003531414803506094,-177.10409543814063,-176.9116359400484,0,0.736151933670044,2019-07-25 11:35:35:762
0.1637769341468811,-0.15610414743423462,9.777741432189941,-0.0051174481672095,-0.005327089919566476,0.00592884521188344,-177.14167773488788,-176.95401141114007,0,0.7399749755859375,2019-07-25 11:35:35:766
0.1901191771030426,-0.1177881583571434,9.775346755981445,-0.0016544932484752553,-0.003995184281620353,0.0029986525483276447,-177.17583918385756,-177.00082551481958,0,0.7431893348693848,2019-07-25 11:35:35:769
0.09432919323444366,-0.18484115600585938,9.820846557617188,-0.003252780014010603,-0.00612623330233415,0.0014003656527551349,-177.22030459430863,-177.03870678897675,0,0.7461302280426025,2019-07-25 11:35:35:772
0.0991186872124672,-0.16568315029144287,9.763373374938965,-0.003252780014010603,-0.005859852174744925,0.003531414803506094,-177.26299171755994,-177.0777814354373,0,0.7500014305114746,2019-07-25 11:35:35:776
0.07756594568490982,-0.16089364886283875,9.868741989135742,-0.003519161401674152,-0.005327089919566476,0.0008676033975766858,-177.30773552806667,-177.11689123151675,0,0.7533109188079834,2019-07-25 11:35:35:779
0.1446189284324646,-0.17526215314865112,9.758583068847656,0.0004765558697664134,-0.005060708791977251,0.002465890293149196,-177.34376165496474,-177.15405415277002,0,0.7562611103057861,2019-07-25 11:35:35:782
0.07756594568490982,-0.17286740243434906,9.77295207977295,-0.003785542529263377,-0.004527946536798801,-0.0001979211940534392,-177.38684961237382,-177.18991819370348,0,0.7599666118621826,2019-07-25 11:35:35:786
0.16138218343257904,-0.15849889814853668,9.79450511932373,-0.005383829294798724,-0.003995184281620353,0.006195226339472665,-177.41951147400212,-177.22660503491693,0,0.7631843090057373,2019-07-25 11:35:35:789
0.1374346911907196,-0.12018290907144547,9.859163284301758,-0.002986398886421378,-0.00266327864367423,-0.0009970646255850488,-177.45471044691033,-177.26761380154932,0,0.76611328125,2019-07-25 11:35:35:792
0.08475019037723541,-0.1896306425333023,9.780136108398438,-0.003252780014010603,-0.004261565409209577,0.002199509165559971,-177.49475983756082,-177.2993384220708,0,0.7699859142303467,2019-07-25 11:35:35:796
0.1254609376192093,-0.12018290907144547,9.828031539916992,-0.002187255503653704,-0.0055934710471557,0.0029986525483276447,-177.5292248718411,-177.3389436042627,0,0.7732088565826416,2019-07-25 11:35:35:799
0.14222417771816254,-0.23752564191818237,9.734636306762695,-0.004584685912031051,-0.00612623330233415,0.004064177058684544,-177.56088887698695,-177.36345348041343,0,0.7761471271514893,2019-07-25 11:35:35:802
0.13503994047641754,-0.14891991019248962,9.861557960510254,-0.003785542529263377,-0.0055934710471557,0.002465890293149196,-177.5927790172783,-177.39806812077154,0,0.7799723148345947,2019-07-25 11:35:35:806
0.1446189284324646,-0.2351308912038803,9.808873176574707,-0.0048510670396202755,-0.003462422026441904,0.0032650336759168694,-177.62340222224174,-177.42176394010917,0,0.7831995487213135,2019-07-25 11:35:35:809
0.1446189284324646,-0.20399914681911469,9.887900352478027,-0.0016544932484752553,-0.0023968975160850053,0.002199509165559971,-177.6537805144303,-177.44941784757847,0,0.7861335277557373,2019-07-25 11:35:35:812
0.18054017424583435,-0.170472651720047,9.749004364013672,-0.002187255503653704,-0.006392614429923373,0.004330558186273768,-177.6781001022224,-177.4799195727098,0,0.7899954319000244,2019-07-25 11:35:35:816
0.1637769341468811,-0.21118339896202087,9.792109489440918,-0.004318304784441826,-0.0047943276643880265,0.002199509165559971,-177.70450508958402,-177.50482877422502,0,0.7932231426239014,2019-07-25 11:35:35:819
0.15659268200397491,-0.18484115600585938,9.782530784606934,-0.004051923656852602,-0.003196040898852679,0.002199509165559971,-177.73154294569602,-177.53241010332593,0,0.7961792945861816,2019-07-25 11:35:35:822
0.17335593700408936,-0.15610414743423462,9.74421501159668,-0.0027200177588321533,-0.0029296597712634544,0.0016667467803443596,-177.7559176262359,-177.5628393162446,0,0.7998876571655273,2019-07-25 11:35:35:826
0.1518031805753708,-0.18723590672016144,9.780136108398438,-0.003519161401674152,-0.004527946536798801,0.0027322714207384203,-177.78210733705953,-177.58894233385348,0,0.8034548759460449,2019-07-25 11:35:35:829
0.18054017424583435,-0.17765690386295319,9.83521556854248,-0.003252780014010603,-0.005060708791977251,0.0008676033975766858,-177.80459686970156,-177.61592953395527,0,0.8063957691192627,2019-07-25 11:35:35:832
0.2164614200592041,-0.15370939671993256,9.811267852783203,-0.0013881121208860305,-0.00266327864367423,0.0003348411098889459,-177.822692889694,-177.64538128689088,0,0.8099689483642578,2019-07-25 11:35:35:836
0.16856643557548523,-0.2087886482477188,9.816057205200195,-0.0019208743760644798,-0.004261565409209577,0.004064177058684544,-177.84579429732761,-177.66775722518,0,0.8131802082061768,2019-07-25 11:35:35:839
0.1709611862897873,-0.19442014396190643,9.79450511932373,-0.0005889687381183568,-0.0047943276643880265,0.0029986525483276447,-177.86809272936225,-177.6915621794507,0,0.8160998821258545,2019-07-25 11:35:35:842
0.1709611862897873,-0.21836765110492706,9.78492546081543,-0.0027200177588321533,-0.003462422026441904,0.0011339845251659103,-177.8899562888654,-177.71156872274003,0,0.8199849128723145,2019-07-25 11:35:35:846
0.15419793128967285,-0.17286740243434906,9.83521556854248,-0.003519161401674152,-0.0055934710471557,-0.0001979211940534392,-177.91317921877834,-177.73656068103296,0,0.8232121467590332,2019-07-25 11:35:35:849
0.16856643557548523,-0.10820916295051575,9.720267295837402,-0.0027200177588321533,-0.005060708791977251,-0.0004643023378973091,-177.93421308664082,-177.76862591662672,0,0.826141357421875,2019-07-25 11:35:35:852
0.23322467505931854,-0.22076240181922913,9.7322416305542,-0.0013881121208860305,-0.00612623330233415,0.003531414803506094,-177.94675665943552,-177.78696603833978,0,0.8299686908721924,2019-07-25 11:35:35:856
0.17335593700408936,-0.18484115600585938,9.799294471740723,-0.004318304784441826,-0.00266327864367423,0.0008676033975766858,-177.9670705670747,-177.80883418933092,0,0.8331856727600098,2019-07-25 11:35:35:859
0.1374346911907196,-0.23992039263248444,9.830426216125488,-0.003252780014010603,-0.003995184281620353,0.0019331279079335842,-177.99105166151554,-177.82416021531745,0,0.8361189365386963,2019-07-25 11:35:35:862
0.17575067281723022,-0.22555188834667206,9.880715370178223,-0.0051174481672095,-0.005859852174744925,-0.0007306834979958244,-178.00955847261184,-177.84039519482184,0,0.8400444984436035,2019-07-25 11:35:35:866
0.14701367914676666,-0.16568315029144287,9.83521556854248,-0.005650210422387949,-0.003196040898852679,0.0014003656527551349,-178.03162791453983,-177.86320339408655,0,0.843454122543335,2019-07-25 11:35:35:869
0.1901191771030426,-0.19202539324760437,9.86395263671875,-0.002986398886421378,-0.007458139460428923,0.005129701829115767,-178.04768178525805,-177.88314173357156,0,0.8463907241821289,2019-07-25 11:35:35:872
0.19490867853164673,-0.20399914681911469,9.789714813232422,-0.003785542529263377,-0.004527946536798801,0.002199509165559971,-178.06300775477717,-177.90084387985328,0,0.8499650955200195,2019-07-25 11:35:35:876
0.15898743271827698,-0.14173565804958344,9.792109489440918,-0.0027200177588321533,-0.00612623330233415,0.0029986525483276447,-178.08203829347985,-177.92575078040036,0,0.8531789779663086,2019-07-25 11:35:35:879
0.21167191863059998,-0.215972900390625,9.760977745056152,-0.006449353805155623,-0.003995184281620353,0.0006012222699874612,-178.09489587165478,-177.94082659835465,0,0.8561022281646729,2019-07-25 11:35:35:882
0.1901191771030426,-0.215972900390625,9.787320137023926,-0.0013881121208860305,-0.0029296597712634544,0.003797795931095319,-178.1101026694757,-177.9564251206902,0,0.8599843978881836,2019-07-25 11:35:35:886
0.1254609376192093,-0.20639389753341675,9.77295207977295,-0.005383829294798724,-0.0029296597712634544,-0.0004643023378973091,-178.13265930413047,-177.9721232883269,0,0.8632144927978516,2019-07-25 11:35:35:889
0.18772442638874054,-0.17286740243434906,9.787320137023926,-0.005383829294798724,-0.0023968975160850053,0.0016667467803443596,-178.14763495246302,-177.99155659671206,0,0.8661477565765381,2019-07-25 11:35:35:892
0.13982944190502167,-0.17526215314865112,9.806478500366211,-0.0027200177588321533,-0.00612623330233415,0.0003348411098889459,-178.16702831343397,-178.01066364510484,0,0.8699722290039062,2019-07-25 11:35:35:896
0.13025043904781342,-0.22794663906097412,9.763373374938965,-0.002453636631242929,-0.005327089919566476,0.0003348411098889459,-178.1874405628138,-178.02325888595314,0,0.8731842041015625,2019-07-25 11:35:35:899
0.16138218343257904,-0.16568315029144287,9.765768051147461,-0.0008553498657075814,-0.005327089919566476,0.002199509165559971,-178.2038782156161,-178.04321322186547,0,0.8761217594146729,2019-07-25 11:35:35:902
0.1374346911907196,-0.19442014396190643,9.746609687805176,-0.006715734932744847,-0.005859852174744925,0.002465890293149196,-178.22236678723274,-178.0580307697706,0,0.8800017833709717,2019-07-25 11:35:35:906
0.12306618690490723,-0.170472651720047,9.816057205200195,-0.0048510670396202755,-0.001331373005728107,0.002465890293149196,-178.24331207070878,-178.07609133724904,0,0.883232593536377,2019-07-25 11:35:35:909
0.18772442638874054,-0.1896306425333023,9.806478500366211,-0.008314021698280195,-0.007458139460428923,0.0029986525483276447,-178.25525603259683,-178.0910128752998,0,0.8862326145172119,2019-07-25 11:35:35:912
0.1829349249601364,-0.14173565804958344,9.859163284301758,-0.004584685912031051,-0.0047943276643880265,0.0048633207015265426,-178.26788061370874,-178.11175372871224,0,0.8899862766265869,2019-07-25 11:35:35:916
0.21406666934490204,-0.17526215314865112,9.808873176574707,-0.006449353805155623,-0.0018641352609065564,0.002465890293149196,-178.27718248795972,-178.12788252647803,0,0.8931989669799805,2019-07-25 11:35:35:919
0.1182766854763031,-0.23752564191818237,9.763373374938965,-0.0051174481672095,-0.0029296597712634544,0.004596939573937318,-178.297276530182,-178.13661208624256,0,0.896122932434082,2019-07-25 11:35:35:922
0.14701367914676666,-0.17765690386295319,9.808873176574707,-0.0027200177588321533,-0.0037288031540311283,0.002465890293149196,-178.3133484295994,-178.15253726728238,0,0.8999872207641602,2019-07-25 11:35:35:926
0.17575067281723022,-0.09623540937900543,9.741820335388184,-0.005916591549977173,-0.005327089919566476,0.004330558186273768,-178.32543697248852,-178.17708569685263,0,0.9032416343688965,2019-07-25 11:35:35:929
0.2164614200592041,-0.2087886482477188,9.859163284301758,-0.0013881121208860305,-0.005060708791977251,0.0048633207015265426,-178.33293639383538,-178.18905086734122,0,0.9061868190765381,2019-07-25 11:35:35:932
0.15419793128967285,-0.15849889814853668,9.837610244750977,-0.004318304784441826,-0.0055934710471557,0.0056624640842942164,-178.34712849846252,-178.20589092141685,0,0.90997314453125,2019-07-25 11:35:35:936
0.1254609376192093,-0.16089364886283875,9.77295207977295,-0.0019208743760644798,-0.004261565409209577,0.0029986525483276447,-178.3647088117056,-178.22256362772816,0,0.9131791591644287,2019-07-25 11:35:35:939
0.16138218343257904,-0.21118339896202087,9.804083824157715,-0.004051923656852602,-0.0047943276643880265,-0.0001979211940534392,-178.37776687704624,-178.2327677196767,0,0.9161021709442139,2019-07-25 11:35:35:942
0.0727764442563057,-0.15370939671993256,9.801689147949219,-0.003519161401674152,-0.003462422026441904,0.003797795931095319,-178.4009469357114,-178.24937480927997,0,0.9199931621551514,2019-07-25 11:35:35:946
0.2092771828174591,-0.2351308912038803,9.749004364013672,-0.004584685912031051,-0.005327089919566476,0.0019331279079335842,-178.40736963771337,-178.255925893673,0,0.9232137203216553,2019-07-25 11:35:35:949
0.19490867853164673,-0.16568315029144287,9.85437297821045,-0.002986398886421378,-0.005327089919566476,0.0003348411098889459,-178.41568129430706,-178.27104998217524,0,0.926152229309082,2019-07-25 11:35:35:952
0.09672393649816513,-0.1896306425333023,9.749004364013672,-0.005383829294798724,-0.004261565409209577,0.0048633207015265426,-178.43504402716505,-178.28213588592428,0,0.930142879486084,2019-07-25 11:35:35:956
0.20448768138885498,-0.18484115600585938,9.765768051147461,-0.006715734932744847,-0.004261565409209577,0.0032650336759168694,-178.44158205234712,-178.29359304589818,0,0.9333608150482178,2019-07-25 11:35:35:959
0.16856643557548523,-0.19920964539051056,9.722661972045898,-0.0048510670396202755,-0.007724520588018147,0.004064177058684544,-178.45160397551805,-178.3034409993698,0,0.936314582824707,2019-07-25 11:35:35:962
0.10390818864107132,-0.22315713763237,9.816057205200195,-0.006715734932744847,-0.00612623330233415,0.0016667467803443596,-178.46918635876818,-178.3099488396489,0,0.9399654865264893,2019-07-25 11:35:35:966
0.14222417771816254,-0.16568315029144287,9.689135551452637,-0.003519161401674152,-0.0023968975160850053,0.003531414803506094,-178.48255151747153,-178.32352285532272,0,0.9431734085083008,2019-07-25 11:35:35:969
0.13264518976211548,-0.18723590672016144,9.78492546081543,-0.004318304784441826,-0.003462422026441904,0.0027322714207384203,-178.49679927595412,-178.33441935989347,0,0.9460952281951904,2019-07-25 11:35:35:972
0.16138218343257904,-0.09623540937900543,9.770557403564453,-0.004584685912031051,-0.0055934710471557,0.0011339845251659103,-178.50671572330145,-178.35544301186704,0,0.9499859809875488,2019-07-25 11:35:35:976
0.10869769006967545,-0.12976190447807312,9.775346755981445,-0.004584685912031051,-0.005327089919566476,0.0008676033975766858,-178.52287716431184,-178.37229518395898,0,0.9532043933868408,2019-07-25 11:35:35:979
0.15898743271827698,-0.2542888820171356,9.780136108398438,-0.002453636631242929,-0.0015977541333173316,0.0011339845251659103,-178.53353032990577,-178.37465806447074,0,0.9561331272125244,2019-07-25 11:35:35:982
0.11348719149827957,-0.1968148946762085,9.811267852783203,-0.005383829294798724,-0.0066589960776612485,0.002465890293149196,-178.5481706881788,-178.38302078354303,0,0.9599704742431641,2019-07-25 11:35:35:986
0.10390818864107132,-0.15370939671993256,9.840004920959473,-0.003252780014010603,-0.0018641352609065564,0.0027322714207384203,-178.56477014502423,-178.39687363473485,0,0.9631898403167725,2019-07-25 11:35:35:989
0.2236456722021103,-0.16568315029144287,9.825636863708496,-0.003519161401674152,-0.0055934710471557,0.0008676033975766858,-178.5664770920549,-178.40903670056068,0,0.9661173820495605,2019-07-25 11:35:35:992
0.16856643557548523,-0.19202539324760437,9.804083824157715,-0.0048510670396202755,-0.007458139460428923,-0.0015298268807634981,-178.5738211515228,-178.41735698196652,0,0.9700002670288086,2019-07-25 11:35:35:996
0.07038169354200363,-0.17526215314865112,9.859163284301758,-0.0008553498657075814,-0.00266327864367423,0.0006012222699874612,-178.59364510592724,-178.42847471948744,0,0.9734735488891602,2019-07-25 11:35:35:999
0.10151343792676926,-0.1896306425333023,9.849583625793457,-0.0048510670396202755,-0.008257282843196597,-0.0017962080083527227,-178.60878998886312,-178.43715725648752,0,0.9760022163391113,2019-07-25 11:35:36:002
0.1374346911907196,-0.16568315029144287,9.796899795532227,-0.003252780014010603,-0.004261565409209577,0.0027322714207384203,-178.61975699602368,-178.44843889511677,0,0.9792740345001221,2019-07-25 11:35:36:005
0.11588193476200104,-0.16568315029144287,9.758583068847656,-0.004318304784441826,-0.00266327864367423,0.0011339845251659103,-178.63310442623452,-178.4589617216253,0,0.983623743057251,2019-07-25 11:35:36:010
0.15659268200397491,-0.17765690386295319,9.890295028686523,-0.004318304784441826,-0.006392614429923373,0.0014003656527551349,-178.64122505648638,-178.46847434994487,0,0.9866201877593994,2019-07-25 11:35:36:013
0.08714494109153748,-0.18723590672016144,9.78492546081543,-0.0008553498657075814,-0.004261565409209577,0.0011339845251659103,-178.65739580876416,-178.47701982588126,0,0.9899611473083496,2019-07-25 11:35:36:016
0.12067143619060516,-0.1824464052915573,9.804083824157715,-0.003252780014010603,-0.003462422026441904,-0.0004643023378973091,-178.66951813563088,-178.48556898899142,0,0.9931821823120117,2019-07-25 11:35:36:019
0.14940842986106873,-0.14173565804958344,9.830426216125488,-0.0048510670396202755,-0.0018641352609065564,-0.0015298268807634981,-178.6784058818034,-178.49853808879513,0,0.9961147308349609,2019-07-25 11:35:36:022
0.14701367914676666,-0.17286740243434906,9.880715370178223,-0.003252780014010603,-0.0066589960776612485,0.0006012222699874612,-178.68634113216171,-178.50781377182565,0,0.9999873638153076,2019-07-25 11:35:36:026
0.21167191863059998,-0.14891991019248962,9.760977745056152,-0.004584685912031051,-0.006392614429923373,0.0008676033975766858,-178.68661404809882,-178.51934810861732,0,1.0032033920288086,2019-07-25 11:35:36:029
0.07517119497060776,-0.1513146609067917,9.887900352478027,-0.0016544932484752553,-0.0066589960776612485,0.0019331279079335842,-178.70307380839412,-178.53115412222874,0,1.0061359405517578,2019-07-25 11:35:36:032
0.13264518976211548,-0.17286740243434906,9.777741432189941,-0.003785542529263377,-0.004261565409209577,0.0008676033975766858,-178.7125427973398,-178.53945208430548,0,1.0100014209747314,2019-07-25 11:35:36:036
0.13982944190502167,-0.16807790100574493,9.868741989135742,-0.004584685912031051,-0.005327089919566476,0.0016667467803443596,-178.72109353391295,-178.5483195686743,0,1.013221263885498,2019-07-25 11:35:36:039
0.14222417771816254,-0.1824464052915573,9.804083824157715,-0.002187255503653704,-0.004261565409209577,0.0011339845251659103,-178.72930672232394,-178.55564982546406,0,1.0163252353668213,2019-07-25 11:35:36:042
0.1182766854763031,-0.2423151433467865,9.758583068847656,-0.004318304784441826,-0.0047943276643880265,0.0006012222699874612,-178.73983551224606,-178.5551905112621,0,1.0200285911560059,2019-07-25 11:35:36:046
0.1829349249601364,-0.16089364886283875,9.775346755981445,-0.001121730993296806,-0.005327089919566476,0.0027322714207384203,-178.74263307262407,-178.56502471451054,0,1.0232503414154053,2019-07-25 11:35:36:049
0.2092771828174591,-0.1896306425333023,9.763373374938965,-0.002187255503653704,-0.003196040898852679,0.0011339845251659103,-178.74269460471726,-178.57110966716664,0,1.0261867046356201,2019-07-25 11:35:36:052
0.08475019037723541,-0.16568315029144287,9.737030982971191,-0.003252780014010603,-0.005859852174744925,6.845995791775338e-05,-178.7566213669122,-178.57949925158533,0,1.0299725532531738,2019-07-25 11:35:36:056
0.14940842986106873,-0.19920964539051056,9.792109489440918,-0.003519161401674152,-0.006925377205250474,0.002199509165559971,-178.76275667580552,-178.58396531376403,0,1.0331850051879883,2019-07-25 11:35:36:059
0.12306618690490723,-0.18723590672016144,9.770557403564453,-0.006715734932744847,-0.003995184281620353,0.0019331279079335842,-178.77241462760358,-178.5892295717982,0,1.0361011028289795,2019-07-25 11:35:36:062
0.17575067281723022,-0.1632883995771408,9.837610244750977,-0.005383829294798724,-0.0010649918131203013,-0.0004643023378973091,-178.77626424616065,-178.5972521500954,0,1.0399854183197021,2019-07-25 11:35:36:066
0.12067143619060516,-0.170472651720047,9.775346755981445,-0.0027200177588321533,-0.009589187960994068,-0.0007306834979958244,-178.78486222401722,-178.60483425006623,0,1.0432016849517822,2019-07-25 11:35:36:069
0.1518031805753708,-0.14173565804958344,9.796899795532227,-0.0027200177588321533,-0.003462422026441904,-0.0001979211940534392,-178.79084051450948,-178.61571260149412,0,1.046133041381836,2019-07-25 11:35:36:072
0.10151343792676926,-0.18005165457725525,9.78492546081543,-0.003785542529263377,-0.0037288031540311283,-0.0009970646255850488,-178.80233008281155,-178.62149678542113,0,1.0499815940856934,2019-07-25 11:35:36:076
0.1709611862897873,-0.17765690386295319,9.837610244750977,-0.004318304784441826,-0.007191758332839698,0.004064177058684544,-178.80507559603438,-178.62759700421165,0,1.0531904697418213,2019-07-25 11:35:36:079
0.09672393649816513,-0.21118339896202087,9.765768051147461,-0.002187255503653704,-0.003462422026441904,6.845995791775338e-05,-178.8170564035099,-178.62990955359248,0,1.0561144351959229,2019-07-25 11:35:36:082
0.15659268200397491,-0.16089364886283875,9.758583068847656,-0.003519161401674152,-0.0023968975160850053,0.003531414803506094,-178.82179967196222,-178.63764313077317,0,1.0600454807281494,2019-07-25 11:35:36:086
0.13264518976211548,-0.17286740243434906,9.72745132446289,-0.004051923656852602,-0.0055934710471557,0.0003348411098889459,-178.8287313752238,-178.64379850189107,0,1.0632529258728027,2019-07-25 11:35:36:089
0.21167191863059998,-0.15610414743423462,9.7322416305542,-0.003785542529263377,-0.005060708791977251,-0.0004643023378973091,-178.82640211541056,-178.65191883378395,0,1.066192865371704,2019-07-25 11:35:36:092
0.13503994047641754,-0.1632883995771408,9.763373374938965,-0.005650210422387949,-0.002130516388495781,0.0032650336759168694,-178.833573680973,-178.65851875622948,0,1.0699706077575684,2019-07-25 11:35:36:096
0.18532967567443848,-0.19202539324760437,9.89268970489502,-0.0019208743760644798,-0.0066589960776612485,0.0029986525483276447,-178.83423759579748,-178.6627619706259,0,1.073178768157959,2019-07-25 11:35:36:099
0.15659268200397491,-0.17526215314865112,9.9046630859375,-0.0027200177588321533,-0.0047943276643880265,-0.0015298268807634981,-178.83865106865463,-178.66878583398983,0,1.0760998725891113,2019-07-25 11:35:36:102
0.12067143619060516,-0.22315713763237,9.787320137023926,-0.0013881121208860305,-0.004527946536798801,0.0019331279079335842,-178.8467624869011,-178.6689841922464,0,1.0799853801727295,2019-07-25 11:35:36:106
0.19969817996025085,-0.17286740243434906,9.816057205200195,-0.0027200177588321533,-0.0037288031540311283,0.0048633207015265426,-178.84584486327464,-178.6749352850238,0,1.0831999778747559,2019-07-25 11:35:36:109
0.18532967567443848,-0.2087886482477188,9.816057205200195,-0.004051923656852602,-0.006392614429923373,0.0016667467803443596,-178.84624213515156,-178.6763989213004,0,1.0861341953277588,2019-07-25 11:35:36:112
0.16856643557548523,-0.18005165457725525,9.847188949584961,-0.004051923656852602,-0.0047943276643880265,0.0003348411098889459,-178.84866995304802,-178.68104748245182,0,1.0899722576141357,2019-07-25 11:35:36:116
0.1829349249601364,-0.26386788487434387,9.696319580078125,-0.003252780014010603,-0.001331373005728107,0.0016667467803443596,-178.84983945377124,-178.67566302919087,0,1.0931870937347412,2019-07-25 11:35:36:119
0.2236456722021103,-0.21357814967632294,9.890295028686523,-0.003519161401674152,-0.002130516388495781,0.0014003656527551349,-178.8465847161733,-178.67682945163818,0,1.0961143970489502,2019-07-25 11:35:36:122
0.20209293067455292,-0.16568315029144287,9.825636863708496,-0.002453636631242929,-0.00266327864367423,0.002199509165559971,-178.8455055511139,-178.68343598171626,0,1.1000041961669922,2019-07-25 11:35:36:126
0.16856643557548523,-0.22315713763237,9.7322416305542,-0.004584685912031051,-0.0037288031540311283,0.005129701829115767,-178.8480625712596,-178.6826515532449,0,1.1032860279083252,2019-07-25 11:35:36:129
0.10390818864107132,-0.16568315029144287,9.887900352478027,-0.001121730993296806,-0.003995184281620353,0.0029986525483276447,-178.85837870345716,-178.68960796037805,0,1.1063220500946045,2019-07-25 11:35:36:132
0.16617168486118317,-0.18005165457725525,9.816057205200195,-0.0051174481672095,-0.006925377205250474,0.003797795931095319,-178.860389406094,-178.69374622646995,0,1.1099863052368164,2019-07-25 11:35:36:136
0.1374346911907196,-0.14891991019248962,9.720267295837402,-0.0051174481672095,-0.005859852174744925,0.0003348411098889459,-178.86592464384978,-178.7013944218499,0,1.1131956577301025,2019-07-25 11:35:36:139
0.20688243210315704,-0.2087886482477188,9.701109886169434,-0.006182972677566398,-0.0005322295254325613,0.0003348411098889459,-178.86408504034668,-178.70169216543232,0,1.1161210536956787,2019-07-25 11:35:36:142
0.12067143619060516,-0.18005165457725525,9.816057205200195,-0.002986398886421378,-0.006392614429923373,0.0027322714207384203,-178.87132848036973,-178.7059929829371,0,1.1199893951416016,2019-07-25 11:35:36:146
0.1518031805753708,-0.12736715376377106,9.837610244750977,-0.003519161401674152,-0.004527946536798801,0.0027322714207384203,-178.87540193822062,-178.71640139717906,0,1.1232101917266846,2019-07-25 11:35:36:149
0.24040892720222473,-0.13455140590667725,9.77295207977295,-0.0005889687381183568,-0.00266327864367423,0.0014003656527551349,-178.8692725783666,-178.72620081060626,0,1.1261401176452637,2019-07-25 11:35:36:152
0.1637769341468811,-0.20399914681911469,9.66518783569336,-0.007248497187923296,-0.003995184281620353,0.0064616074670618895,-178.8716106316584,-178.7259323042927,0,1.1299772262573242,2019-07-25 11:35:36:156
0.19490867853164673,-0.2087886482477188,9.8136625289917,-0.001121730993296806,-0.00266327864367423,0.0029986525483276447,-178.87094307160277,-178.72683573276154,0,1.1331827640533447,2019-07-25 11:35:36:159
0.1518031805753708,-0.19202539324760437,9.966926574707031,-0.0048510670396202755,-0.004527946536798801,0.0027322714207384203,-178.875327073283,-178.7294256495286,0,1.1361145973205566,2019-07-25 11:35:36:162
0.17335593700408936,-0.1632883995771408,9.799294471740723,-0.0048510670396202755,-0.004261565409209577,0.003531414803506094,-178.8766201584536,-178.7346849847695,0,1.1400032043457031,2019-07-25 11:35:36:166
0.21167191863059998,-0.11539340764284134,9.787320137023926,0.0002101747259225435,-0.003196040898852679,0.0075271319774187885,-178.87373059695972,-178.7465194784444,0,1.1432247161865234,2019-07-25 11:35:36:169
0.1518031805753708,-0.18484115600585938,9.8136625289917,-0.002187255503653704,-0.005327089919566476,0.004596939573937318,-178.87765178840718,-178.7496469242192,0,1.1461665630340576,2019-07-25 11:35:36:172
0.10390818864107132,-0.17765690386295319,9.830426216125488,-0.004318304784441826,-0.003462422026441904,0.003531414803506094,-178.88724183798251,-178.75301796484237,0,1.149998426437378,2019-07-25 11:35:36:176
0.17575067281723022,-0.13455140590667725,9.801689147949219,-0.003519161401674152,-0.003462422026441904,0.002199509165559971,-178.88832884747674,-178.7615946301209,0,1.1532046794891357,2019-07-25 11:35:36:179
0.16856643557548523,-0.22555188834667206,9.78492546081543,-0.006449353805155623,-0.0037288031540311283,0.0048633207015265426,-178.89020866483065,-178.7588897908118,0,1.1561405658721924,2019-07-25 11:35:36:182
0.10630293935537338,-0.1441304087638855,9.770557403564453,-0.0016544932484752553,-0.007458139460428923,0.0011339845251659103,-178.89833222489656,-178.7664531321247,0,1.1599738597869873,2019-07-25 11:35:36:186
0.1901191771030426,-0.20160439610481262,9.861557960510254,-0.0003225875780198416,-0.0047943276643880265,0.005129701829115767,-178.89741444838356,-178.76764285125736,0,1.1631758213043213,2019-07-25 11:35:36:189
0.1973034292459488,-0.19920964539051056,9.85437297821045,-0.0013881121208860305,-0.005859852174744925,0.004064177058684544,-178.8955645895221,-178.7689003626642,0,1.1660971641540527,2019-07-25 11:35:36:192
0.12306618690490723,-0.17765690386295319,9.78492546081543,-0.003785542529263377,-0.004527946536798801,0.0029986525483276447,-178.90225314633307,-178.77189268450417,0,1.1699855327606201,2019-07-25 11:35:36:196
0.18054017424583435,-0.14173565804958344,9.866347312927246,-0.0027200177588321533,-0.0023968975160850053,0.0006012222699874612,-178.90280908955913,-178.77950320374393,0,1.1732006072998047,2019-07-25 11:35:36:199
0.19490867853164673,-0.23273614048957825,9.758583068847656,-0.0051174481672095,-0.004261565409209577,0.003531414803506094,-178.90116554596614,-178.77574478747619,0,1.1761384010314941,2019-07-25 11:35:36:202
0.17335593700408936,-0.15610414743423462,9.830426216125488,-0.004584685912031051,-0.004527946536798801,0.004330558186273768,-178.90196133448742,-178.78104721693157,0,1.17997407913208,2019-07-25 11:35:36:206
0.1374346911907196,-0.1824464052915573,9.79450511932373,-0.0016544932484752553,-0.0018641352609065564,0.0003348411098889459,-178.90750791068177,-178.7837850929153,0,1.1831839084625244,2019-07-25 11:35:36:209
0.13982944190502167,-0.15849889814853668,9.768162727355957,-0.0013881121208860305,-0.003196040898852679,0.0016667467803443596,-178.91242984894586,-178.78928909881367,0,1.1861119270324707,2019-07-25 11:35:36:212
0.1374346911907196,-0.16568315029144287,9.789714813232422,-0.005916591549977173,-0.005060708791977251,0.0029986525483276447,-178.91698964313017,-178.79281896625128,0,1.19000244140625,2019-07-25 11:35:36:216
0.16138218343257904,-0.1896306425333023,9.83521556854248,-0.005383829294798724,-0.0047943276643880265,0.003531414803506094,-178.91898078381058,-178.7938965881045,0,1.1932263374328613,2019-07-25 11:35:36:219
0.14940842986106873,-0.14891991019248962,9.782530784606934,-0.003785542529263377,-0.0005322295254325613,0.003797795931095319,-178.92301327682253,-178.79995188676807,0,1.1961610317230225,2019-07-25 11:35:36:222
0.1518031805753708,-0.18723590672016144,9.70350456237793,-0.004318304784441826,-0.006392614429923373,0.004064177058684544,-178.9252964047203,-178.80094511714736,0,1.1998696327209473,2019-07-25 11:35:36:226
0.11348719149827957,-0.1824464052915573,9.859163284301758,-0.005650210422387949,-0.004527946536798801,0.0003348411098889459,-178.93268651985423,-178.80258250979006,0,1.2034649848937988,2019-07-25 11:35:36:229
0.1182766854763031,-0.1896306425333023,9.806478500366211,-0.0019208743760644798,-0.0055934710471557,0.0019331279079335842,-178.939419946322,-178.8041025594097,0,1.2059884071350098,2019-07-25 11:35:36:232
0.0991186872124672,-0.17286740243434906,9.849583625793457,-0.004318304784441826,-0.005327089919566476,0.0027322714207384203,-178.94811767256857,-178.80711435303124,0,1.2092735767364502,2019-07-25 11:35:36:235
0.1518031805753708,-0.14891991019248962,9.842399597167969,-0.0027200177588321533,-0.005327089919566476,0.0032650336759168694,-178.95027032387915,-178.8130160735697,0,1.213327169418335,2019-07-25 11:35:36:239
0.1518031805753708,-0.17286740243434906,9.725056648254395,-0.003519161401674152,-0.0047943276643880265,0.004596939573937318,-178.95252969195127,-178.8157651454164,0,1.2164828777313232,2019-07-25 11:35:36:242
0.15659268200397491,-0.1968148946762085,9.86395263671875,-0.004584685912031051,-0.0029296597712634544,0.0016667467803443596,-178.9547139702955,-178.81568871465996,0,1.2199780941009521,2019-07-25 11:35:36:246
0.1374346911907196,-0.09384065866470337,9.885504722595215,-0.002986398886421378,-0.007458139460428923,0.0016667467803443596,-178.95837761398926,-178.82797208321077,0,1.2231106758117676,2019-07-25 11:35:36:249
0.11348719149827957,-0.17526215314865112,9.741820335388184,-0.0008553498657075814,-0.00266327864367423,0.0008676033975766858,-178.96540183313354,-178.83065146654394,0,1.2261834144592285,2019-07-25 11:35:36:252
0.13264518976211548,-0.1441304087638855,9.828031539916992,-0.0051174481672095,-0.004527946536798801,0.004330558186273768,-178.9696619793366,-178.8361418819255,0,1.2299859523773193,2019-07-25 11:35:36:256
0.13264518976211548,-0.18723590672016144,9.873531341552734,-0.004051923656852602,-0.004527946536798801,0.0032650336759168694,-178.9740787555109,-178.8369786794501,0,1.2331175804138184,2019-07-25 11:35:36:259
0.16856643557548523,-0.19920964539051056,9.792109489440918,-0.005916591549977173,-0.007191758332839698,0.004596939573937318,-178.97362903505697,-178.83590674641485,0,1.2361974716186523,2019-07-25 11:35:36:262
0.15659268200397491,-0.18484115600585938,9.85437297821045,-0.008580402825869419,-0.002130516388495781,-0.0001979211940534392,-178.97549018206448,-178.83585061875604,0,1.2400295734405518,2019-07-25 11:35:36:266
0.13503994047641754,-0.18005165457725525,9.696319580078125,-5.6206421984987715e-05,-0.0055934710471557,0.0014003656527551349,-178.9790376447914,-178.83784756803283,0,1.2431647777557373,2019-07-25 11:35:36:269
0.16138218343257904,-0.22555188834667206,9.787320137023926,-0.0013881121208860305,-0.005060708791977251,-0.0031281136462988457,-178.97968033807186,-178.83444500056643,0,1.2462735176086426,2019-07-25 11:35:36:272
0.16617168486118317,-0.21357814967632294,9.86395263671875,-0.008846783953458644,-0.003462422026441904,0.0019331279079335842,-178.97999653099396,-178.83093598204817,0,1.2503242492675781,2019-07-25 11:35:36:276
0.12306618690490723,-0.1896306425333023,9.851978302001953,-0.003252780014010603,-0.00266327864367423,-0.002062589135941947,-178.9855906671576,-178.83166197907778,0,1.253617286682129,2019-07-25 11:35:36:280
0.1374346911907196,-0.22555188834667206,9.796899795532227,-0.003785542529263377,-0.003196040898852679,0.002465890293149196,-178.98929609389853,-178.82804898061778,0,1.2564506530761719,2019-07-25 11:35:36:282
0.1254609376192093,-0.16568315029144287,9.787320137023926,0.0007429370298649286,-0.0037288031540311283,6.845995791775338e-05,-178.99406439522875,-178.83224230508074,0,1.2600681781768799,2019-07-25 11:35:36:286
0.15419793128967285,-0.18484115600585938,9.701109886169434,-0.004051923656852602,-0.0018641352609065564,-0.0001979211940534392,-178.9956430894631,-178.83305470273353,0,1.2631957530975342,2019-07-25 11:35:36:289
0.11109244078397751,-0.1896306425333023,9.87592601776123,-0.0048510670396202755,-0.003196040898852679,-0.0007306834979958244,-179.00230811053098,-178.83358503637095,0,1.2661628723144531,2019-07-25 11:35:36:292
0.17335593700408936,-0.16807790100574493,9.837610244750977,-0.002986398886421378,-0.002130516388495781,0.002199509165559971,-179.00160389866844,-178.836682257889,0,1.2700674533843994,2019-07-25 11:35:36:296
0.16856643557548523,-0.18484115600585938,9.87592601776123,-0.0016544932484752553,-0.0029296597712634544,-0.0007306834979958244,-179.00139264785088,-178.83815244741842,0,1.2738492488861084,2019-07-25 11:35:36:300
0.1182766854763031,-0.215972900390625,9.775346755981445,-0.004584685912031051,-0.003462422026441904,-0.0001979211940534392,-179.00702407390673,-178.83544525862763,0,1.2762997150421143,2019-07-25 11:35:36:302
0.1637769341468811,-0.26626265048980713,9.83521556854248,-0.0016544932484752553,-0.004527946536798801,-0.0031281136462988457,-179.0068664535537,-178.82737889278457,0,1.2799851894378662,2019-07-25 11:35:36:306
0.1446189284324646,-0.25907838344573975,9.765768051147461,-0.002453636631242929,-0.0066589960776612485,-0.002062589135941947,-179.00855669118968,-178.81999450873178,0,1.283205509185791,2019-07-25 11:35:36:309
0.13025043904781342,-0.15610414743423462,9.820846557617188,-0.003519161401674152,-0.0066589960776612485,0.0032650336759168694,-179.0120938702626,-178.82480308437425,0,1.2861332893371582,2019-07-25 11:35:36:312
0.09432919323444366,-0.13934090733528137,9.792109489440918,-0.0013881121208860305,-0.003995184281620353,-0.0004643023378973091,-179.01994809040835,-178.83170114939,0,1.2899911403656006,2019-07-25 11:35:36:316
0.1518031805753708,-0.2087886482477188,9.861557960510254,-0.0019208743760644798,-0.003462422026441904,-0.0012634457531742736,-179.02128482947376,-178.83046209625317,0,1.2932116985321045,2019-07-25 11:35:36:319
0.1637769341468811,-0.1632883995771408,9.739425659179688,-0.002986398886421378,-0.00612623330233415,6.845995791775338e-05,-179.02058360422294,-178.83415129681995,0,1.2961413860321045,2019-07-25 11:35:36:322
0.13503994047641754,-0.23034138977527618,9.7322416305542,-0.0013881121208860305,-0.0015977541333173316,0.0014003656527551349,-179.02392913234155,-178.8300534040636,0,1.2999718189239502,2019-07-25 11:35:36:326
0.09432919323444366,-0.19202539324760437,9.710688591003418,-0.005383829294798724,-0.004527946536798801,0.002465890293149196,-179.03150375174863,-178.8298252428878,0,1.303180456161499,2019-07-25 11:35:36:329
0.13025043904781342,-0.1968148946762085,9.660398483276367,-0.002986398886421378,-0.002130516388495781,-0.0004643023378973091,-179.03507455738205,-178.82939553466133,0,1.3061041831970215,2019-07-25 11:35:36:332
0.19490867853164673,-0.22794663906097412,9.832820892333984,-0.005383829294798724,-0.006925377205250474,-0.0009970646255850488,-179.0301496611045,-178.82507226876268,0,1.3099918365478516,2019-07-25 11:35:36:336
0.15419793128967285,-0.22794663906097412,9.753793716430664,-0.0027200177588321533,-0.00612623330233415,0.004330558186273768,-179.03032487041037,-178.82130386769077,0,1.313211441040039,2019-07-25 11:35:36:339
0.18532967567443848,-0.20160439610481262,9.811267852783203,-0.004051923656852602,-0.0055934710471557,0.0019331279079335842,-179.0271549213049,-178.8206678859316,0,1.3161416053771973,2019-07-25 11:35:36:342
0.12306618690490723,-0.24470989406108856,9.878320693969727,-0.0013881121208860305,-0.00612623330233415,-0.0001979211940534392,-179.03102019755906,-178.81557497688428,0,1.3199682235717773,2019-07-25 11:35:36:346
0.1446189284324646,-0.12976190447807312,9.780136108398438,-0.005383829294798724,-0.004527946536798801,0.0019331279079335842,-179.03263895602274,-178.8230885504984,0,1.323183298110962,2019-07-25 11:35:36:349
0.15659268200397491,-0.16568315029144287,9.760977745056152,-0.001121730993296806,-0.0055934710471557,0.0006012222699874612,-179.0326886529831,-178.82699424365904,0,1.3260982036590576,2019-07-25 11:35:36:352
0.14222417771816254,-0.21357814967632294,9.859163284301758,-0.0075148783155125215,-0.0047943276643880265,-0.002328970263531172,-179.03445806791194,-178.82399253622663,0,1.3299891948699951,2019-07-25 11:35:36:356
0.15419793128967285,-0.13455140590667725,9.78492546081543,-0.004584685912031051,-0.0007986106855310765,0.0016667467803443596,-179.03556544532088,-178.830913630467,0,1.3332626819610596,2019-07-25 11:35:36:359
0.15659268200397491,-0.1824464052915573,9.705899238586426,-0.003519161401674152,-0.005859852174744925,0.002199509165559971,-179.03539953989986,-178.83217607522894,0,1.3362054824829102,2019-07-25 11:35:36:362
0.1709611862897873,-0.1369461566209793,9.77295207977295,-0.0016544932484752553,-0.003462422026441904,-0.0001979211940534392,-179.033915895601,-178.8391264395391,0,1.3399698734283447,2019-07-25 11:35:36:366
0.15659268200397491,-0.18484115600585938,9.796899795532227,-0.003252780014010603,-0.003462422026441904,-0.0009970646255850488,-179.03429950041868,-178.84014044246683,0,1.3431766033172607,2019-07-25 11:35:36:369
0.10390818864107132,-0.16807790100574493,9.79450511932373,-0.0013881121208860305,-0.0029296597712634544,0.0011339845251659103,-179.04097580345024,-178.84344709356728,0,1.3461027145385742,2019-07-25 11:35:36:372
0.15659268200397491,-0.16807790100574493,9.804083824157715,-0.003785542529263377,-0.004527946536798801,0.0019331279079335842,-179.04086744001364,-178.8461091943686,0,1.349987268447876,2019-07-25 11:35:36:376
0.16138218343257904,-0.15610414743423462,9.825636863708496,-0.004051923656852602,-0.003196040898852679,0.0003348411098889459,-179.0406533924951,-178.85025113606213,0,1.353203535079956,2019-07-25 11:35:36:379
0.12785568833351135,-0.1824464052915573,9.753793716430664,-0.006449353805155623,-0.003462422026441904,0.0014003656527551349,-179.04424953565044,-178.85075114805406,0,1.3561387062072754,2019-07-25 11:35:36:382
0.1374346911907196,-0.2566836476325989,9.782530784606934,-0.004051923656852602,-0.005859852174744925,0.004596939573937318,-179.0460041222023,-178.8428023646268,0,1.359975814819336,2019-07-25 11:35:36:386
0.1182766854763031,-0.1441304087638855,9.849583625793457,-0.0019208743760644798,-0.005060708791977251,6.845995791775338e-05,-179.0504134669654,-178.84883347460365,0,1.3631808757781982,2019-07-25 11:35:36:389
0.13503994047641754,-0.14652515947818756,9.725056648254395,-0.001121730993296806,-0.006392614429923373,0.0029986525483276447,-179.0524415019629,-178.85440813181808,0,1.3661139011383057,2019-07-25 11:35:36:392
0.1254609376192093,-0.14173565804958344,9.801689147949219,-0.0016544932484752553,-0.005060708791977251,0.002465890293149196,-179.05561956678878,-178.8603891358383,0,1.370007038116455,2019-07-25 11:35:36:396
0.1254609376192093,-0.15849889814853668,9.844794273376465,-0.004584685912031051,-0.0037288031540311283,0.006727988594651115,-179.0592312025107,-178.86390607188545,0,1.373223066329956,2019-07-25 11:35:36:399
0.1781454235315323,-0.15849889814853668,9.677162170410156,-0.0008553498657075814,-0.003462422026441904,6.845995791775338e-05,-179.0563847237407,-178.867720446411,0,1.3761510848999023,2019-07-25 11:35:36:402
0.12306618690490723,-0.22076240181922913,9.818451881408691,-0.005650210422387949,-0.006392614429923373,0.005129701829115767,-179.05952087564177,-178.8633908523432,0,1.3799784183502197,2019-07-25 11:35:36:406
0.1374346911907196,-0.19442014396190643,9.861557960510254,-0.004584685912031051,-0.0015977541333173316,0.0019331279079335842,-179.0620689594895,-178.86269472854283,0,1.38323974609375,2019-07-25 11:35:36:409
0.15419793128967285,-0.15370939671993256,9.729846000671387,-0.0051174481672095,-0.003995184281620353,0.0014003656527551349,-179.06200496975447,-178.86648929825552,0,1.3861985206604004,2019-07-25 11:35:36:412
0.14222417771816254,-0.15849889814853668,9.799294471740723,-0.004318304784441826,-0.007458139460428923,0.002199509165559971,-179.06255681928803,-178.86971298033143,0,1.3899660110473633,2019-07-25 11:35:36:416
0.1637769341468811,-0.1632883995771408,9.820846557617188,-0.002453636631242929,-0.003196040898852679,0.004064177058684544,-179.06162028747107,-178.87282442538125,0,1.3931832313537598,2019-07-25 11:35:36:419
0.14222417771816254,-0.2087886482477188,9.842399597167969,-0.0013881121208860305,-0.005327089919566476,0.0019331279079335842,-179.06295342236237,-178.87083454835005,0,1.3961150646209717,2019-07-25 11:35:36:422
0.16617168486118317,-0.19202539324760437,9.866347312927246,-0.002986398886421378,-0.005859852174744925,0.003797795931095319,-179.0611223820591,-178.8704688377925,0,1.399986982345581,2019-07-25 11:35:36:426
0.07038169354200363,-0.09623540937900543,9.729846000671387,-0.004584685912031051,-0.004527946536798801,0.0029986525483276447,-179.0707915857569,-178.8808961932221,0,1.403209924697876,2019-07-25 11:35:36:429
0.15419793128967285,-0.16568315029144287,9.897479057312012,-0.003252780014010603,-0.005060708791977251,0.004596939573937318,-179.070688574071,-178.88356028794414,0,1.406151294708252,2019-07-25 11:35:36:432
0.09432919323444366,-0.18723590672016144,9.8136625289917,-0.003785542529263377,-0.0055934710471557,0.0014003656527551349,-179.0770600815041,-178.88321622454978,0,1.4099736213684082,2019-07-25 11:35:36:436
0.12306618690490723,-0.1441304087638855,9.763373374938965,-0.005916591549977173,-0.006392614429923373,0.0008676033975766858,-179.07992276250164,-178.88756980257156,0,1.4131851196289062,2019-07-25 11:35:36:439
0.22125092148780823,-0.17286740243434906,9.782530784606934,-0.004318304784441826,-0.00612623330233415,6.845995791775338e-05,-179.07140425486608,-178.88886092541773,0,1.4161136150360107,2019-07-25 11:35:36:442
0.10630293935537338,-0.18005165457725525,9.91663646697998,-0.0027200177588321533,-0.0002658483815886914,0.0032650336759168694,-179.07763455116825,-178.8896839888235,0,1.4200170040130615,2019-07-25 11:35:36:446
0.18772442638874054,-0.10820916295051575,9.825636863708496,-0.0051174481672095,-0.004527946536798801,0.0016667467803443596,-179.07334258009956,-178.89831187234418,0,1.4233546257019043,2019-07-25 11:35:36:449
0.11109244078397751,-0.0986301600933075,9.837610244750977,-0.004584685912031051,-0.0047943276643880265,0.006994369722240339,-179.07812910997055,-178.90808577449795,0,1.426351547241211,2019-07-25 11:35:36:452
0.11109244078397751,-0.16568315029144287,9.792109489440918,-0.002187255503653704,-0.0066589960776612485,0.0032650336759168694,-179.0822051367081,-178.91008975829266,0,1.42999267578125,2019-07-25 11:35:36:456
0.1182766854763031,-0.17765690386295319,9.811267852783203,-0.0048510670396202755,-0.0047943276643880265,0.0014003656527551349,-179.08588364238108,-178.9102665821316,0,1.433201551437378,2019-07-25 11:35:36:459
0.20448768138885498,-0.1896306425333023,9.78492546081543,-0.004584685912031051,-0.004261565409209577,0.0014003656527551349,-179.07951778265803,-178.90909888713355,0,1.4361438751220703,2019-07-25 11:35:36:462
0.1374346911907196,-0.1968148946762085,9.734636306762695,-0.0027200177588321533,-0.005327089919566476,0.0032650336759168694,-179.08059575207693,-178.90716240989636,0,1.4400038719177246,2019-07-25 11:35:36:466
0.11109244078397751,-0.23992039263248444,9.861557960510254,-0.003252780014010603,-0.0055934710471557,0.002199509165559971,-179.08506459738638,-178.90055802738573,0,1.4432222843170166,2019-07-25 11:35:36:469
0.13503994047641754,-0.18723590672016144,9.871136665344238,-0.003252780014010603,-0.003995184281620353,-0.0004643023378973091,-179.0870303525702,-178.90027841935586,0,1.446153163909912,2019-07-25 11:35:36:472
0.264356404542923,-0.12736715376377106,9.799294471740723,-0.003519161401674152,-0.004261565409209577,0.0011339845251659103,-179.07347097378607,-178.90662576954725,0,1.449967861175537,2019-07-25 11:35:36:476
0.1637769341468811,-0.13215665519237518,9.799294471740723,-0.0027200177588321533,-0.004261565409209577,0.0008676033975766858,-179.07208142995194,-178.91254847197837,0,1.45318603515625,2019-07-25 11:35:36:479
0.14940842986106873,-0.1824464052915573,9.83521556854248,-0.0016544932484752553,-0.004527946536798801,-0.002062589135941947,-179.07248951815336,-178.91277104818138,0,1.4561116695404053,2019-07-25 11:35:36:482
0.2428036779165268,-0.15849889814853668,9.804083824157715,-0.006449353805155623,-0.0055934710471557,-0.0004643023378973091,-179.0614442264087,-178.9145826129864,0,1.4600026607513428,2019-07-25 11:35:36:486
0.10151343792676926,-0.1177881583571434,9.799294471740723,0.001275699285043378,-0.00852366397078582,0.0014003656527551349,-179.06679968202164,-178.92274891426965,0,1.4632313251495361,2019-07-25 11:35:36:489
0.1709611862897873,-0.16807790100574493,9.789714813232422,-0.0051174481672095,-0.004527946536798801,0.002465890293149196,-179.06470898283732,-178.92377960520813,0,1.4661624431610107,2019-07-25 11:35:36:492
0.12306618690490723,-0.20399914681911469,9.801689147949219,-0.002986398886421378,-0.00612623330233415,0.0019331279079335842,-179.06770969598557,-178.92081532382292,0,1.4699945449829102,2019-07-25 11:35:36:496
0.13264518976211548,-0.1968148946762085,9.708293914794922,-0.00804764057069097,-0.003196040898852679,-0.0009970646255850488,-179.07012461194802,-178.91772303572034,0,1.4731993675231934,2019-07-25 11:35:36:499
0.15898743271827698,-0.16568315029144287,9.818451881408691,-0.006449353805155623,-0.006925377205250474,0.0011339845251659103,-179.06902975840748,-178.91897322293264,0,1.4761271476745605,2019-07-25 11:35:36:502
0.2236456722021103,-0.17526215314865112,9.770557403564453,-0.002986398886421378,-0.0037288031540311283,0.0027322714207384203,-179.06061793693104,-178.91939518790966,0,1.4799771308898926,2019-07-25 11:35:36:506
0.11109244078397751,-0.14652515947818756,9.760977745056152,-0.0048510670396202755,-0.0007986106855310765,0.0008676033975766858,-179.06621995067314,-178.92293093200334,0,1.4831929206848145,2019-07-25 11:35:36:509
0.12785568833351135,-0.1369461566209793,9.722661972045898,-0.004318304784441826,-0.005859852174744925,0.0019331279079335842,-179.06886461428135,-178.92762342639156,0,1.4861187934875488,2019-07-25 11:35:36:512
0.08235543966293335,-0.15370939671993256,9.828031539916992,-0.0051174481672095,-0.003462422026441904,0.0006012222699874612,-179.0771333480531,-178.93003921539,0,1.4899859428405762,2019-07-25 11:35:36:516
0.15659268200397491,-0.21118339896202087,9.725056648254395,-0.0051174481672095,-0.002130516388495781,0.0008676033975766858,-179.07675503796213,-178.92563183306336,0,1.4932103157043457,2019-07-25 11:35:36:519
0.20448768138885498,-0.16089364886283875,9.792109489440918,-0.002453636631242929,-0.003462422026441904,0.0016667467803443596,-179.07072319336515,-178.92788835618774,0,1.496143102645874,2019-07-25 11:35:36:522
0.1829349249601364,-0.15849889814853668,9.71547794342041,-0.003519161401674152,-0.006392614429923373,0.0027322714207384203,-179.06636000560817,-178.92988100390855,0,1.4999725818634033,2019-07-25 11:35:36:526
0.13503994047641754,-0.23992039263248444,9.828031539916992,-0.0027200177588321533,-0.005327089919566476,-0.0017962080083527227,-179.06832612839423,-178.92282358934435,0,1.503190279006958,2019-07-25 11:35:36:529
0.15419793128967285,-0.215972900390625,9.825636863708496,-0.003785542529263377,-0.005327089919566476,0.0008676033975766858,-179.0680993546641,-178.91855912085907,0,1.506126880645752,2019-07-25 11:35:36:532
0.1709611862897873,-0.14891991019248962,9.780136108398438,-0.002453636631242929,-0.003196040898852679,0.0029986525483276447,-179.06601280104422,-178.92220675836813,0,1.5100023746490479,2019-07-25 11:35:36:536
0.11588193476200104,-0.19442014396190643,9.837610244750977,-0.002187255503653704,-0.004527946536798801,0.0016667467803443596,-179.07036479843404,-178.92071792860543,0,1.5132672786712646,2019-07-25 11:35:36:539
0.12067143619060516,-0.17765690386295319,9.808873176574707,-0.005650210422387949,-0.005859852174744925,0.0014003656527551349,-179.07389085190468,-178.920615887546,0,1.5162153244018555,2019-07-25 11:35:36:542
0.1446189284324646,-0.12497241050004959,9.832820892333984,-0.004051923656852602,-0.0055934710471557,-0.002861732518709621,-179.07438198161373,-178.92678645187783,0,1.5199673175811768,2019-07-25 11:35:36:546
0.1829349249601364,-0.21357814967632294,9.828031539916992,-0.006982116060334072,-0.003196040898852679,0.0003348411098889459,-179.07099096358272,-178.9220932798486,0,1.5231783390045166,2019-07-25 11:35:36:549
0.15898743271827698,-0.20639389753341675,9.8136625289917,-0.0005889687381183568,-0.006392614429923373,0.0003348411098889459,-179.0699562004866,-178.9194579677256,0,1.526109218597412,2019-07-25 11:35:36:552
0.06798694282770157,-0.1632883995771408,9.856768608093262,-0.0048510670396202755,-0.00266327864367423,6.845995791775338e-05,-179.08007428132075,-178.921032576718,0,1.5299808979034424,2019-07-25 11:35:36:556
0.18532967567443848,-0.1369461566209793,9.7322416305542,-0.005650210422387949,-0.0047943276643880265,0.0011339845251659103,-179.07578816977468,-178.9254680529779,0,1.5331969261169434,2019-07-25 11:35:36:559
0.10869769006967545,-0.19920964539051056,9.799294471740723,-0.006182972677566398,-0.003462422026441904,0.0003348411098889459,-179.08099040708782,-178.92264593909752,0,1.5361368656158447,2019-07-25 11:35:36:562
0.19969817996025085,-0.17286740243434906,9.828031539916992,-0.003519161401674152,-0.0066589960776612485,0.0006012222699874612,-179.0746560312859,-178.92328168888145,0,1.539971113204956,2019-07-25 11:35:36:566
0.19490867853164673,-0.21118339896202087,9.782530784606934,-0.0048510670396202755,-0.004261565409209577,6.845995791775338e-05,-179.06956457813246,-178.91920563277583,0,1.5431888103485107,2019-07-25 11:35:36:569
0.14701367914676666,-0.13455140590667725,9.859163284301758,-0.002187255503653704,-0.00266327864367423,-0.0001979211940534392,-179.07065022513635,-178.92482476880824,0,1.546112060546875,2019-07-25 11:35:36:572
0.1446189284324646,-0.20160439610481262,9.840004920959473,-0.0019208743760644798,-0.00612623330233415,0.0006012222699874612,-179.07106013908674,-178.92243463247462,0,1.5499980449676514,2019-07-25 11:35:36:576
0.16856643557548523,-0.22555188834667206,9.746609687805176,-0.0048510670396202755,-0.005327089919566476,0.0011339845251659103,-179.06885726777426,-178.91659345591398,0,1.553224802017212,2019-07-25 11:35:36:579
0.12067143619060516,-0.24470989406108856,9.79450511932373,-0.007781259443101745,-0.0055934710471557,6.845995791775338e-05,-179.07241824424003,-178.90832353279566,0,1.556232213973999,2019-07-25 11:35:36:582
0.12067143619060516,-0.20639389753341675,9.806478500366211,-0.005383829294798724,-0.0055934710471557,0.002199509165559971,-179.07569100923192,-178.90490830117258,0,1.5599853992462158,2019-07-25 11:35:36:586
0.16617168486118317,-0.15610414743423462,9.770557403564453,-0.001121730993296806,-0.0005322295254325613,0.0011339845251659103,-179.07459413789462,-178.90830129382616,0,1.5631942749023438,2019-07-25 11:35:36:589
0.12785568833351135,-0.17765690386295319,9.859163284301758,-0.006715734932744847,-0.006392614429923373,6.845995791775338e-05,-179.0771937589481,-178.90838683812956,0,1.5661163330078125,2019-07-25 11:35:36:592
0.18054017424583435,-0.2423151433467865,9.768162727355957,-0.0016544932484752553,-0.0037288031540311283,0.0032650336759168694,-179.0736620275022,-178.90143884442617,0,1.5699892044067383,2019-07-25 11:35:36:596
0.10630293935537338,-0.21836765110492706,9.8136625289917,-0.003785542529263377,-0.004261565409209577,0.0003348411098889459,-179.0790055796531,-178.89723119914902,0,1.5732111930847168,2019-07-25 11:35:36:599
0.13264518976211548,-0.16568315029144287,9.74421501159668,-0.005650210422387949,-0.006925377205250474,0.002465890293149196,-179.080685488972,-178.89887252172733,0,1.5761477947235107,2019-07-25 11:35:36:602
0.13503994047641754,-0.22076240181922913,9.820846557617188,-0.003252780014010603,-0.0047943276643880265,0.0011339845251659103,-179.08228649646495,-178.8944419060168,0,1.579972267150879,2019-07-25 11:35:36:606
0.21885617077350616,-0.24470989406108856,9.77295207977295,-0.0075148783155125215,-0.004527946536798801,0.003797795931095319,-179.07416520183307,-178.8865080636371,0,1.5831902027130127,2019-07-25 11:35:36:609
0.1781454235315323,-0.18484115600585938,9.765768051147461,-0.007248497187923296,-0.002130516388495781,-0.002595351391120396,-179.07143020907972,-178.88589902868205,0,1.5861194133758545,2019-07-25 11:35:36:612
0.13025043904781342,-0.18723590672016144,9.868741989135742,-0.005916591549977173,-0.005327089919566476,0.0011339845251659103,-179.07371679273797,-178.88515251919029,0,1.5900027751922607,2019-07-25 11:35:36:616
0.1709611862897873,-0.1824464052915573,9.741820335388184,-0.0003225875780198416,-0.0037288031540311283,0.0016667467803443596,-179.07146156913225,-178.88593285588522,0,1.593217372894287,2019-07-25 11:35:36:619
0.13982944190502167,-0.17765690386295319,9.770557403564453,-0.004318304784441826,-0.003196040898852679,0.0006012222699874612,-179.07310657119046,-178.88666793843836,0,1.5961558818817139,2019-07-25 11:35:36:622
0.11588193476200104,-0.170472651720047,9.763373374938965,-0.0051174481672095,-0.006925377205250474,0.0019331279079335842,-179.07654213843492,-178.88781853840115,0,1.6000185012817383,2019-07-25 11:35:36:626
0.20209293067455292,-0.19442014396190643,9.782530784606934,-0.0048510670396202755,-0.003462422026441904,0.0019331279079335842,-179.0707225804018,-178.88642355865807,0,1.6032030582427979,2019-07-25 11:35:36:629
0.08235543966293335,-0.21118339896202087,9.763373374938965,0.0004765558697664134,-0.004527946536798801,0.0011339845251659103,-179.0788969370373,-178.8839910640618,0,1.6061351299285889,2019-07-25 11:35:36:632
0.1374346911907196,-0.2351308912038803,9.825636863708496,-0.002453636631242929,-0.0023968975160850053,0.004596939573937318,-179.08077529387825,-178.87836567511363,0,1.6099722385406494,2019-07-25 11:35:36:636
0.10869769006967545,-0.15849889814853668,9.861557960510254,-0.003519161401674152,-0.006392614429923373,0.0014003656527551349,-179.08537428293994,-178.88174632742547,0,1.6131908893585205,2019-07-25 11:35:36:639
0.14222417771816254,-0.12976190447807312,9.804083824157715,-0.003785542529263377,-0.0055934710471557,0.004596939573937318,-179.08612528328297,-178.88832335593312,0,1.6161179542541504,2019-07-25 11:35:36:642
0.13982944190502167,-0.18484115600585938,9.722661972045898,-0.0005889687381183568,-0.00612623330233415,0.0027322714207384203,-179.0865904573823,-178.88864591928598,0,1.6199934482574463,2019-07-25 11:35:36:646
0.14940842986106873,-0.18005165457725525,9.782530784606934,-0.002986398886421378,-0.004261565409209577,0.0048633207015265426,-179.08658867938266,-178.8892448739921,0,1.6232104301452637,2019-07-25 11:35:36:649
0.08475019037723541,-0.13215665519237518,9.696319580078125,0.0004765558697664134,-0.006925377205250474,-0.002328970263531172,-179.09370053223117,-178.89592111073543,0,1.6261441707611084,2019-07-25 11:35:36:652
0.1446189284324646,-0.16089364886283875,9.828031539916992,-0.005650210422387949,-0.007990901715607372,0.005129701829115767,-179.09324655801035,-178.89802916295707,0,1.6299755573272705,2019-07-25 11:35:36:656
0.08475019037723541,-0.15849889814853668,9.78492546081543,-0.0016544932484752553,-0.003995184281620353,0.004330558186273768,-179.1007372313775,-178.9012103785464,0,1.6331830024719238,2019-07-25 11:35:36:659
0.14940842986106873,-0.14891991019248962,9.830426216125488,-0.0008553498657075814,-0.006925377205250474,0.003531414803506094,-179.1001667368432,-178.90568726420508,0,1.6361167430877686,2019-07-25 11:35:36:662
0.13982944190502167,-0.1632883995771408,9.85437297821045,-0.003252780014010603,-0.003196040898852679,0.0016667467803443596,-179.10120710370975,-178.90787756286426,0,1.6400024890899658,2019-07-25 11:35:36:666
0.19969817996025085,-0.1513146609067917,9.777741432189941,-0.0019208743760644798,-0.007724520588018147,0.0032650336759168694,-179.09438732369114,-178.91164100502476,0,1.643218755722046,2019-07-25 11:35:36:669
0.11348719149827957,-0.19920964539051056,9.87592601776123,-0.003519161401674152,-0.002130516388495781,0.0006012222699874612,-179.09895972343662,-178.90968169477642,0,1.646331548690796,2019-07-25 11:35:36:672
0.0991186872124672,-0.21357814967632294,9.816057205200195,-0.002986398886421378,-0.0023968975160850053,0.0048633207015265426,-179.10491852633436,-178.90594687382904,0,1.6499826908111572,2019-07-25 11:35:36:676
0.17575067281723022,-0.1968148946762085,9.777741432189941,-0.0019208743760644798,-0.005060708791977251,0.003797795931095319,-179.10131239552226,-178.90441865612644,0,1.6531944274902344,2019-07-25 11:35:36:679
0.13503994047641754,-0.18484115600585938,9.816057205200195,-0.001121730993296806,-0.007990901715607372,0.002465890293149196,-179.10221163715198,-178.9045706361783,0,1.6561164855957031,2019-07-25 11:35:36:682
0.13982944190502167,-0.18005165457725525,9.820846557617188,-0.003252780014010603,-0.004527946536798801,0.0011339845251659103,-179.10286906924637,-178.904766010138,0,1.6599862575531006,2019-07-25 11:35:36:686
0.14701367914676666,-0.1441304087638855,9.66518783569336,-0.004584685912031051,-0.0023968975160850053,0.0029986525483276447,-179.10294913070155,-178.90875395055266,0,1.6632094383239746,2019-07-25 11:35:36:689
0.0991186872124672,-0.13934090733528137,9.780136108398438,-0.003252780014010603,-0.005060708791977251,0.0008676033975766858,-179.10844183735978,-178.91371689985928,0,1.6661486625671387,2019-07-25 11:35:36:692
0.18054017424583435,-0.16089364886283875,9.804083824157715,-0.0013881121208860305,-0.0066589960776612485,0.003797795931095319,-179.10374173808813,-178.91634028744804,0,1.669978141784668,2019-07-25 11:35:36:696
0.1781454235315323,-0.16089364886283875,9.782530784606934,-0.0051174481672095,-0.003995184281620353,0.0032650336759168694,-179.10008068474485,-178.91824504848057,0,1.6731910705566406,2019-07-25 11:35:36:699
0.19251392781734467,-0.15370939671993256,9.87592601776123,-0.001121730993296806,-0.0047943276643880265,0.0008676033975766858,-179.09495598757587,-178.9218620646052,0,1.676119327545166,2019-07-25 11:35:36:702
0.1182766854763031,-0.16568315029144287,9.777741432189941,-0.0013881121208860305,-0.003995184281620353,0.0029986525483276447,-179.09832485084675,-178.92370656166227,0,1.6800024509429932,2019-07-25 11:35:36:706
0.17575067281723022,-0.21118339896202087,9.792109489440918,-0.002986398886421378,-0.0010649918131203013,6.845995791775338e-05,-179.09560113175579,-178.91998337104584,0,1.6832184791564941,2019-07-25 11:35:36:709
0.16138218343257904,-0.215972900390625,9.851978302001953,-0.004584685912031051,-0.0066589960776612485,0.002199509165559971,-179.09382537816907,-178.91571364286443,0,1.6861457824707031,2019-07-25 11:35:36:712
0.14940842986106873,-0.16807790100574493,9.75618839263916,-0.0016544932484752553,-0.0007986106855310765,0.0003348411098889459,-179.09422976954735,-178.9173040438882,0,1.689974069595337,2019-07-25 11:35:36:716
0.10151343792676926,-0.18723590672016144,9.823241233825684,-0.0013881121208860305,-0.006925377205250474,-0.0007306834979958244,-179.09921816300673,-178.91686121096586,0,1.6932799816131592,2019-07-25 11:35:36:719
0.2236456722021103,-0.18005165457725525,9.866347312927246,-0.003252780014010603,-0.0023968975160850053,0.0027322714207384203,-179.09086625258905,-178.9170757567297,0,1.6962292194366455,2019-07-25 11:35:36:722
0.19251392781734467,-0.19202539324760437,9.74421501159668,-0.0016544932484752553,-0.003995184281620353,0.0029986525483276447,-179.08557304117588,-178.91580749677277,0,1.6999704837799072,2019-07-25 11:35:36:726
0.12785568833351135,-0.17286740243434906,9.842399597167969,-0.004584685912031051,-0.0047943276643880265,0.0003348411098889459,-179.0881116470567,-178.91653991494167,0,1.703183650970459,2019-07-25 11:35:36:729
0.10630293935537338,-0.18484115600585938,9.78492546081543,-0.0051174481672095,-0.002130516388495781,6.845995791775338e-05,-179.09354780825058,-178.91571716720364,0,1.7061338424682617,2019-07-25 11:35:36:732
0.15659268200397491,-0.19920964539051056,9.75618839263916,-0.004051923656852602,-0.0005322295254325613,0.0003348411098889459,-179.09317080683465,-178.9131324146504,0,1.7099816799163818,2019-07-25 11:35:36:736
0.16138218343257904,-0.19920964539051056,9.780136108398438,-0.005383829294798724,-0.006392614429923373,0.002465890293149196,-179.09124056809685,-178.91055531684873,0,1.7132127285003662,2019-07-25 11:35:36:739
0.1518031805753708,-0.18484115600585938,9.758583068847656,-0.0003225875780198416,-0.004527946536798801,0.0011339845251659103,-179.09084481579353,-178.9105883725947,0,1.7161495685577393,2019-07-25 11:35:36:742
0.14940842986106873,-0.18723590672016144,9.765768051147461,-0.004318304784441826,-0.006925377205250474,0.004064177058684544,-179.09001125756865,-178.90948216237985,0,1.7199721336364746,2019-07-25 11:35:36:746
0.19490867853164673,-0.16807790100574493,9.708293914794922,0.001275699285043378,-0.004527946536798801,0.004064177058684544,-179.08439314722798,-178.9116850895326,0,1.7231776714324951,2019-07-25 11:35:36:749
0.08953969180583954,-0.1896306425333023,9.770557403564453,-0.004584685912031051,-0.00852366397078582,0.002465890293149196,-179.09080095464773,-178.9104590797536,0,1.726109504699707,2019-07-25 11:35:36:752
0.20209293067455292,-0.17526215314865112,9.75618839263916,-0.002453636631242929,-0.0047943276643880265,0.0019331279079335842,-179.08419937385332,-178.9111282191651,0,1.7300176620483398,2019-07-25 11:35:36:756
0.19251392781734467,-0.17286740243434906,9.770557403564453,-0.004051923656852602,-0.007458139460428923,0.0048633207015265426,-179.07859180348206,-178.9119010999051,0,1.73323655128479,2019-07-25 11:35:36:759
0.13503994047641754,-0.10581441223621368,9.789714813232422,-0.0027200177588321533,-0.007191758332839698,0.003531414803506094,-179.08002752060463,-178.9208288702723,0,1.7361750602722168,2019-07-25 11:35:36:762
0.1254609376192093,-0.10820916295051575,9.842399597167969,-0.003252780014010603,-0.0029296597712634544,0.004330558186273768,-179.08319417473433,-178.92911866552856,0,1.7399842739105225,2019-07-25 11:35:36:766
0.17335593700408936,-0.18484115600585938,9.679556846618652,-0.002187255503653704,-0.0055934710471557,0.0006012222699874612,-179.08000025258048,-178.92826176797126,0,1.7431983947753906,2019-07-25 11:35:36:769
0.07038169354200363,-0.11299865692853928,9.816057205200195,-0.0027200177588321533,-0.007191758332839698,0.005129701829115767,-179.08900422949853,-178.93605953233717,0,1.7461202144622803,2019-07-25 11:35:36:772
0.09672393649816513,-0.17765690386295319,9.89268970489502,-0.003252780014010603,-0.0029296597712634544,0.003531414803506094,-179.0953862615152,-178.93605752189987,0,1.7499759197235107,2019-07-25 11:35:36:776
0.08235543966293335,-0.12257765978574753,9.792109489440918,-0.006715734932744847,-0.003995184281620353,0.002465890293149196,-179.1031197202735,-178.94177982104563,0,1.7531919479370117,2019-07-25 11:35:36:779
0.2164614200592041,-0.17286740243434906,9.825636863708496,-0.0051174481672095,-0.003196040898852679,0.0048633207015265426,-179.09529215305668,-178.94194592696707,0,1.7561142444610596,2019-07-25 11:35:36:782
0.14940842986106873,-0.22315713763237,9.74421501159668,-0.004584685912031051,-0.006392614429923373,0.0006012222699874612,-179.0944285418297,-178.93587240008625,0,1.7599833011627197,2019-07-25 11:35:36:786
0.1182766854763031,-0.2087886482477188,9.75618839263916,-0.004318304784441826,-0.002130516388495781,0.002465890293149196,-179.09826225105323,-178.93185262521297,0,1.7632114887237549,2019-07-25 11:35:36:789
0.17335593700408936,-0.1824464052915573,9.86395263671875,-0.004584685912031051,-0.004527946536798801,0.004330558186273768,-179.09541492858045,-178.93126844441062,0,1.7661418914794922,2019-07-25 11:35:36:792
0.1446189284324646,-0.1513146609067917,9.792109489440918,0.0007429370298649286,-0.0023968975160850053,0.004596939573937318,-179.0960683664909,-178.93509677920096,0,1.769972562789917,2019-07-25 11:35:36:796
0.1829349249601364,-0.18484115600585938,9.77295207977295,-0.003785542529263377,-0.004527946536798801,0.0019331279079335842,-179.09188306802307,-178.934041372807,0,1.7731845378875732,2019-07-25 11:35:36:799
0.264356404542923,-0.16807790100574493,9.818451881408691,-0.003785542529263377,-0.004261565409209577,0.0019331279079335842,-179.07849924961693,-178.9351237988119,0,1.7761118412017822,2019-07-25 11:35:36:802
0.11588193476200104,-0.14652515947818756,9.820846557617188,-0.004318304784441826,-0.0015977541333173316,0.003797795931095319,-179.08306004222916,-178.93838379473672,0,1.779996633529663,2019-07-25 11:35:36:806
0.15419793128967285,-0.15849889814853668,9.749004364013672,-0.006182972677566398,-0.0047943276643880265,0.003797795931095319,-179.08238941736047,-178.93984459029448,0,1.7832887172698975,2019-07-25 11:35:36:809
0.16138218343257904,-0.15610414743423462,9.844794273376465,-0.003252780014010603,-0.005060708791977251,-0.002595351391120396,-179.08112169422267,-178.94234098618207,0,1.7862343788146973,2019-07-25 11:35:36:812
0.1973034292459488,-0.18723590672016144,9.749004364013672,-0.006449353805155623,-0.008257282843196597,0.0008676033975766858,-179.0745792786838,-178.9401362444513,0,1.7899694442749023,2019-07-25 11:35:36:816
0.20209293067455292,-0.19202539324760437,9.746609687805176,-0.0013881121208860305,-0.006392614429923373,6.845995791775338e-05,-179.06817737310197,-178.93850940388072,0,1.7931830883026123,2019-07-25 11:35:36:819
0.07996068894863129,-0.16568315029144287,9.830426216125488,-0.004318304784441826,-0.005859852174744925,0.0048633207015265426,-179.0765294340864,-178.9397174547565,0,1.796112060546875,2019-07-25 11:35:36:822
0.1446189284324646,-0.17765690386295319,9.713083267211914,-0.0013881121208860305,-0.006392614429923373,0.0006012222699874612,-179.07654678462478,-178.9396639073016,0,1.7999892234802246,2019-07-25 11:35:36:826
0.07517119497060776,-0.215972900390625,9.696319580078125,-0.005383829294798724,-0.0029296597712634544,0.00592884521188344,-179.0856018113195,-178.93437626616466,0,1.8032138347625732,2019-07-25 11:35:36:829
0.15419793128967285,-0.2542888820171356,9.770557403564453,-0.003785542529263377,-0.003462422026441904,0.002465890293149196,-179.0852301205056,-178.92524160311046,0,1.8061788082122803,2019-07-25 11:35:36:832
0.12067143619060516,-0.16807790100574493,9.89268970489502,-0.003785542529263377,-0.006925377205250474,0.0014003656527551349,-179.0880730650372,-178.92646302681302,0,1.8099725246429443,2019-07-25 11:35:36:836
0.10390818864107132,-0.1369461566209793,9.780136108398438,-0.0048510670396202755,-0.00266327864367423,0.0014003656527551349,-179.09365759050849,-178.93101522979237,0,1.813180923461914,2019-07-25 11:35:36:839
0.09672393649816513,-0.1441304087638855,9.842399597167969,-0.003785542529263377,-0.004261565409209577,0.005129701829115767,-179.0998232276426,-178.9349934139963,0,1.8161077499389648,2019-07-25 11:35:36:842
0.08953969180583954,-0.2423151433467865,9.808873176574707,-0.008580402825869419,-0.005859852174744925,-0.002062589135941947,-179.10608661695315,-178.92611669422547,0,1.819998025894165,2019-07-25 11:35:36:846
0.0919344425201416,-0.17286740243434906,9.851978302001953,-0.004584685912031051,-0.003462422026441904,0.003797795931095319,-179.11264448756668,-178.92665874655648,0,1.823225736618042,2019-07-25 11:35:36:849
0.07038169354200363,-0.18005165457725525,9.796899795532227,-0.0075148783155125215,-0.006925377205250474,-0.0009970646255850488,-179.12098288708822,-178.92579115922348,0,1.8262512683868408,2019-07-25 11:35:36:852
0.0919344425201416,-0.1369461566209793,9.799294471740723,-0.0051174481672095,-0.0037288031540311283,0.0011339845251659103,-179.1270304947247,-178.93018836096343,0,1.8299880027770996,2019-07-25 11:35:36:856
0.1182766854763031,-0.18723590672016144,9.741820335388184,-0.002453636631242929,-0.00266327864367423,0.002199509165559971,-179.13009867416105,-178.92912156150965,0,1.8331923484802246,2019-07-25 11:35:36:859
0.024881448596715927,-0.17526215314865112,9.859163284301758,-0.003252780014010603,-0.006925377205250474,0.002199509165559971,-179.1434681343953,-178.9296369533578,0,1.8361153602600098,2019-07-25 11:35:36:862
0.08953969180583954,-0.19442014396190643,9.787320137023926,-0.006982116060334072,-0.004261565409209577,0.0032650336759168694,-179.14919019633402,-178.92676798690204,0,1.8399827480316162,2019-07-25 11:35:36:866
0.14940842986106873,-0.15610414743423462,9.828031539916992,-0.002453636631242929,-0.005060708791977251,-0.0001979211940534392,-179.1478719280562,-178.92958916997338,0,1.8432037830352783,2019-07-25 11:35:36:869
0.13264518976211548,-0.1824464052915573,9.842399597167969,-0.0027200177588321533,-0.007724520588018147,0.002199509165559971,-179.14820204477508,-178.9293110404963,0,1.8461318016052246,2019-07-25 11:35:36:872
0.12067143619060516,-0.16807790100574493,9.763373374938965,-0.0019208743760644798,-0.003462422026441904,0.0011339845251659103,-179.15024660869685,-178.93053972379113,0,1.8503961563110352,2019-07-25 11:35:36:876
0.09672393649816513,-0.1896306425333023,9.760977745056152,-0.004318304784441826,-0.007724520588018147,0.0016667467803443596,-179.15461205586413,-178.92895686242773,0,1.8533353805541992,2019-07-25 11:35:36:879
0.15419793128967285,-0.1632883995771408,9.681951522827148,-0.003519161401674152,-0.007724520588018147,0.0014003656527551349,-179.1518250524033,-178.93039461127134,0,1.8566694259643555,2019-07-25 11:35:36:883
0.1374346911907196,-0.21118339896202087,9.739425659179688,-0.0027200177588321533,-0.007990901715607372,0.002199509165559971,-179.15112828241107,-178.92643575491192,0,1.8599927425384521,2019-07-25 11:35:36:886
0.1518031805753708,-0.17286740243434906,9.811267852783203,-0.002187255503653704,-0.006392614429923373,0.0029986525483276447,-179.14922465375452,-178.92732460016376,0,1.863203525543213,2019-07-25 11:35:36:889
0.14222417771816254,-0.16568315029144287,9.8136625289917,-0.005650210422387949,-0.003995184281620353,0.0019331279079335842,-179.14889877169267,-178.92839350523676,0,1.8664817810058594,2019-07-25 11:35:36:892
0.07038169354200363,-0.08186691254377365,9.749004364013672,-0.0027200177588321533,-0.00612623330233415,-0.0007306834979958244,-179.15642189118307,-178.93965862417932,0,1.870046615600586,2019-07-25 11:35:36:896
0.1709611862897873,-0.12736715376377106,9.808873176574707,-0.004318304784441826,-0.006925377205250474,-0.0012634457531742736,-179.15208599406063,-178.94521534101625,0,1.873227834701538,2019-07-25 11:35:36:899
0.17335593700408936,-0.20639389753341675,9.820846557617188,-0.003252780014010603,-0.006392614429923373,6.845995791775338e-05,-179.147616650686,-178.94162040748913,0,1.8765771389007568,2019-07-25 11:35:36:903
0.12067143619060516,-0.16089364886283875,9.796899795532227,-0.004318304784441826,-0.007191758332839698,0.0003348411098889459,-179.14919446622972,-178.94315622269548,0,1.8799350261688232,2019-07-25 11:35:36:906
0.1182766854763031,-0.09623540937900543,9.808873176574707,-0.005383829294798724,-0.003462422026441904,0.002199509165559971,-179.15177136925598,-178.95208321959453,0,1.8831357955932617,2019-07-25 11:35:36:909
0.1781454235315323,-0.12497241050004959,9.74421501159668,-0.005650210422387949,-0.004527946536798801,0.0006012222699874612,-179.14695248785463,-178.95730250216403,0,1.8864238262176514,2019-07-25 11:35:36:912
0.14940842986106873,-0.19442014396190643,9.787320137023926,-0.0027200177588321533,-0.0055934710471557,0.0006012222699874612,-179.14525595213846,-178.95478084670484,0,1.8904542922973633,2019-07-25 11:35:36:916
0.15898743271827698,-0.19202539324760437,9.823241233825684,-0.002453636631242929,-0.004261565409209577,0.002199509165559971,-179.14298488481327,-178.95281487534322,0,1.893885850906372,2019-07-25 11:35:36:920
0.10151343792676926,-0.19920964539051056,9.789714813232422,-0.004584685912031051,-0.005060708791977251,0.002199509165559971,-179.1475520562729,-178.94981761052307,0,1.896317958831787,2019-07-25 11:35:36:922
0.1374346911907196,-0.1896306425333023,9.792109489440918,-0.0051174481672095,-0.005327089919566476,0.0006012222699874612,-179.14742867363898,-178.9475853383911,0,1.8999626636505127,2019-07-25 11:35:36:926
