ACCELEROMETER X (m/s²),ACCELEROMETER Y (m/s²),ACCELEROMETER Z (m/s²),GYROSCOPE X (rad/s),GYROSCOPE Y (rad/s),GYROSCOPE Z (rad/s),Pitch (Deg),Roll (Deg),Heading (Deg),Time since start in ms ,YYYY-MO-DD HH-MI-SS_SSS
-0.09916418790817261,0.1551031470298767,9.807247161865234,-0.004213350490134509,-0.004522086542103327,0.012476493588100906,3.588413678712284,3.581878676528631,0,0.0,2019-07-25 15:26:41:624
-0.09437469393014908,0.06889215856790543,9.76893138885498,-0.0004840145413389117,-0.004522086542103327,0.00981268231220866,7.106446122557329,7.102253242028653,0,0.0034291744232177734,2019-07-25 15:26:41:627
-0.06803244352340698,0.14552414417266846,9.783299446105957,-0.006610780898511855,-0.00585399218004945,0.010079062919649233,10.557319845378018,10.544260912666173,0,0.006383657455444336,2019-07-25 15:26:41:630
-0.13029593229293823,0.1167871505022049,9.790483474731445,-0.002615063724599162,-0.00585399218004945,0.008747157801851762,13.932187940458743,13.920271742358969,0,0.010228872299194336,2019-07-25 15:26:41:634
-0.09437469393014908,0.11199765652418137,9.713851928710938,-0.004746113005387283,-0.0018582748760995933,0.010878206822565557,17.24273782834318,17.229488515993214,0,0.013357162475585938,2019-07-25 15:26:41:637
-0.06324294209480286,0.1551031470298767,9.802457809448242,-0.002348682597009937,-0.003989324026850552,0.007948014419084088,20.491146751707387,20.467155214756012,0,0.01628899574279785,2019-07-25 15:26:41:640
-0.07282194495201111,0.18384014070034027,9.881484031677246,-0.004479731877798059,-0.006653135562817124,0.009279920057030211,23.674265426799256,23.637428822448612,0,0.019999980926513672,2019-07-25 15:26:41:644
-0.08719044178724289,0.13355040550231934,9.840773582458496,-0.003946969362545284,-0.005054848797281776,0.010079062919649233,26.791600732870858,26.74988981236707,0,0.023429155349731445,2019-07-25 15:26:41:647
-0.11353268474340439,0.16468214988708496,9.82640552520752,-0.004746113005387283,-0.0071858978179955724,0.007148870516167764,29.843729858640167,29.7964820003344,0,0.02640390396118164,2019-07-25 15:26:41:650
-0.01774270087480545,0.1622873991727829,9.804852485656738,-0.006344399770922631,-0.008251422328352472,0.007148870516167764,32.846558434168934,32.78295334803667,0,0.030238866806030273,2019-07-25 15:26:41:654
-0.07282194495201111,0.17186640202999115,9.725825309753418,-0.006078018643333406,-0.007718660073174022,0.0036859158575078444,35.782412509221125,35.70812170152421,0,0.033388614654541016,2019-07-25 15:26:41:657
-0.01774270087480545,0.1622873991727829,9.780904769897461,-0.0068771620261010805,-0.005054848797281776,0.006083346005810866,38.665540769106286,38.57611119959532,0,0.03640174865722656,2019-07-25 15:26:41:660
-0.03929544612765312,0.12636615335941315,9.778510093688965,-0.004746113005387283,-0.008251422328352472,0.005816964878221641,41.489400201351486,41.390802352281995,0,0.04023313522338867,2019-07-25 15:26:41:664
-0.008163701742887497,0.10241865366697311,9.771326065063477,-0.006610780898511855,-0.0013255126209211442,0.004751440367864743,44.25888865517145,44.15214202064668,0,0.04337501525878906,2019-07-25 15:26:41:667
-0.0536639466881752,0.1096029058098793,9.76893138885498,-0.007143543153690304,-0.006653135562817124,0.00634972713340009,46.9686087465823,46.85752368096286,0,0.046567678451538086,2019-07-25 15:26:41:670
0.013389045372605324,0.15749789774417877,9.816825866699219,-0.004479731877798059,-0.005054848797281776,0.0036859158575078444,42.43184876349152,49.50292000422624,0,0.050264596939086914,2019-07-25 15:26:41:674
0.03733654320240021,0.15031364560127258,9.773720741271973,-0.006078018643333406,-0.006653135562817124,0.002087628961935334,37.98875711558843,52.09630642644286,0,0.0533907413482666,2019-07-25 15:26:41:677
-0.09437469393014908,0.16468214988708496,9.86711597442627,-0.006610780898511855,-0.006120373307638673,0.0007557233239892114,40.81902622787664,54.63634130731299,0,0.05631256103515625,2019-07-25 15:26:41:680
0.001415297039784491,0.1359451562166214,9.845562934875488,-0.0068771620261010805,-0.007452278945584797,0.005816964878221641,36.40416433825489,57.129042384948306,0,0.059548139572143555,2019-07-25 15:26:41:683
-0.003374202409759164,0.14791889488697052,9.756957054138184,4.874775041248943e-05,-0.007985041200763246,0.00341953472991862,39.27745904316006,59.56907955353301,0,0.06350541114807129,2019-07-25 15:26:41:687
0.006204796489328146,0.15031364560127258,9.730615615844727,-0.006344399770922631,-0.007452278945584797,-0.0003098012838955588,34.89392972588871,61.961095355300884,0,0.06658625602722168,2019-07-25 15:26:41:690
-0.005768951959908009,0.11439239978790283,9.847957611083984,-0.010606497812350225,-0.004255705154439777,0.005284202623043192,37.796250780651285,64.3107338794225,0,0.07023096084594727,2019-07-25 15:26:41:694
0.030152292922139168,0.0641026571393013,9.807247161865234,-0.008209067664047203,-0.0037229428992613276,0.0023540102195617214,33.44450106303452,66.61846741484437,0,0.07335090637207031,2019-07-25 15:26:41:697
0.04691554233431816,0.1431293934583664,9.821615219116211,-0.009008211046814877,-0.003989324026850552,-0.0008425635715832987,29.181744917610388,68.87089060602757,0,0.07629799842834473,2019-07-25 15:26:41:700
0.008599545806646347,0.1431293934583664,9.833589553833008,-0.007409924281279529,-0.003190180644082879,0.0036859158575078444,24.999781698623032,71.07835022068086,0,0.08003592491149902,2019-07-25 15:26:41:704
-0.0009794526267796755,0.17186640202999115,9.800063133239746,-0.006078018643333406,-0.007452278945584797,0.002620391347150946,28.101093886453928,73.23784909538183,0,0.08343505859375,2019-07-25 15:26:41:707
0.04691554233431816,0.13833990693092346,9.749773025512695,-0.005811637515744182,-0.006919516690406348,0.002087628961935334,23.945726470837137,75.35779157666876,0,0.08637022972106934,2019-07-25 15:26:41:710
0.020573293790221214,0.13115565478801727,9.862326622009277,-0.007676305408868754,-0.010382471869214918,0.005816964878221641,19.87145306992383,77.43706156779244,0,0.09023094177246094,2019-07-25 15:26:41:714
0.034941792488098145,0.1359451562166214,9.778510093688965,-0.0068771620261010805,-0.007985041200763246,0.0015548667067568852,15.879520247690444,79.47359741315579,0,0.09335684776306152,2019-07-25 15:26:41:717
-0.03211119771003723,0.15749789774417877,9.742588996887207,-0.009540973301993326,-0.0071858978179955724,0.0015548667067568852,19.159340248906883,81.46717870274384,0,0.09629940986633301,2019-07-25 15:26:41:720
0.013389045372605324,0.1167871505022049,9.792879104614258,-0.008475448791636427,-0.004255705154439777,0.001022104451578436,15.178496292150198,83.425715602764,0,0.0995473861694336,2019-07-25 15:26:41:723
-0.0009794526267796755,0.13355040550231934,9.876694679260254,-0.009008211046814877,-0.0037229428992613276,0.0015548667067568852,18.475639867286993,85.3437088121984,0,0.10350418090820312,2019-07-25 15:26:41:727
0.013389045372605324,0.10720815509557724,9.845562934875488,-0.009540973301993326,-0.004522086542103327,0.002620391347150946,14.508457386951957,87.22598604523814,0,0.10654449462890625,2019-07-25 15:26:41:730
0.030152292922139168,0.1167871505022049,9.754562377929688,-0.009008211046814877,-0.0018582748760995933,0.0036859158575078444,10.622216032318487,89.06961700466702,0,0.11024069786071777,2019-07-25 15:26:41:734
-0.0009794526267796755,0.14073464274406433,9.857537269592285,-0.0068771620261010805,-0.003989324026850552,0.0036859158575078444,14.010357841924346,90.87307240949855,0,0.11336565017700195,2019-07-25 15:26:41:737
0.020573293790221214,0.15031364560127258,9.83837890625,-0.005278875260565733,-0.006919516690406348,0.0031531536023293957,10.133698361029865,92.63898310626924,0,0.11632919311523438,2019-07-25 15:26:41:740
0.015783796086907387,0.15749789774417877,9.780904769897461,-0.008209067664047203,-0.010382471869214918,0.004485059240275518,6.335023246300512,94.36945248448879,0,0.12001657485961914,2019-07-25 15:26:41:744
0.05409979075193405,0.0904449075460434,9.864721298217773,-0.008209067664047203,-0.00931694735885802,0.006083346005810866,2.616416909175041,96.07315197138445,0,0.12347602844238281,2019-07-25 15:26:41:747
-0.020137449726462364,0.1167871505022049,9.852746963500977,-0.007676305408868754,-0.007985041200763246,0.00634972713340009,6.163067432400589,97.73937658992982,0,0.12642216682434082,2019-07-25 15:26:41:750
0.006204796489328146,0.08565540611743927,9.835984230041504,-0.011139260067528673,-0.009050565711120145,0.005550583750632416,2.442462694267904,99.37699025745036,0,0.13022732734680176,2019-07-25 15:26:41:754
-0.010558451525866985,0.0904449075460434,9.780904769897461,-0.010606497812350225,-0.0010591314283133382,0.006616108260989315,5.9925627098278476,100.98071984734288,0,0.13335967063903809,2019-07-25 15:26:41:757
-0.0536639466881752,0.07607641071081161,9.723430633544922,-0.0098073549497312,-0.002923799516493654,0.007415251643756989,9.466868533432635,102.55375459370875,0,0.1362917423248291,2019-07-25 15:26:41:760
-0.05845344439148903,0.09762915223836899,9.821615219116211,-0.008209067664047203,-0.004522086542103327,0.008480776674262537,12.871656069982567,104.09300424796848,0,0.14001250267028809,2019-07-25 15:26:41:764
0.013389045372605324,0.08565540611743927,9.833589553833008,-0.0098073549497312,-0.006919516690406348,0.007148870516167764,9.017122745371912,105.60306155075848,0,0.14346027374267578,2019-07-25 15:26:41:767
0.042126040905714035,0.1431293934583664,9.76893138885498,-0.006344399770922631,-0.007452278945584797,0.009546300664470785,5.242948240472886,107.07525632420499,0,0.1463913917541504,2019-07-25 15:26:41:770
0.020573293790221214,0.09283965826034546,9.83837890625,-0.008209067664047203,-0.008251422328352472,0.008214395546673314,1.5422625480007048,108.52470601001816,0,0.15022683143615723,2019-07-25 15:26:41:774
0.02536279335618019,0.11918190121650696,9.699483871459961,-0.008741830439374302,-0.00984970961403647,0.010611825174827684,-2.083855509826283,109.94166833491992,0,0.15335631370544434,2019-07-25 15:26:41:777
-0.020137449726462364,0.07607641071081161,9.833589553833008,-0.009008211046814877,-0.009583327966298594,0.010878206822565557,1.557088777279855,111.33548686140348,0,0.1563553810119629,2019-07-25 15:26:41:780
-0.027321700006723404,0.10720815509557724,9.824010848999023,-0.007942686536457978,-0.009050565711120145,0.010079062919649233,5.124736230927456,112.69800663642718,0,0.16024398803710938,2019-07-25 15:26:41:784
-0.056058697402477264,0.06649740785360336,9.742588996887207,-0.010606497812350225,-0.008517803455941695,0.013808399746195679,8.617145432180076,114.03808987856378,0,0.1633749008178711,2019-07-25 15:26:41:787
0.008599545806646347,0.10481340438127518,9.701878547668457,-0.008741830439374302,-0.006120373307638673,0.013009255843279357,4.846846353193796,115.3464172348592,0,0.1663665771484375,2019-07-25 15:26:41:790
-0.03690069913864136,0.0377604141831398,9.75935173034668,-0.013003928480801896,-0.006120373307638673,0.010878206822565557,8.346905893737926,116.6378793849325,0,0.17023444175720215,2019-07-25 15:26:41:794
-0.010558451525866985,0.13115565478801727,9.780904769897461,-0.010073735557171774,-0.005054848797281776,0.010611825174827684,11.779619611664643,117.8915280961788,0,0.17336606979370117,2019-07-25 15:26:41:797
0.006204796489328146,0.10481340438127518,9.740194320678711,-0.006078018643333406,-0.00931694735885802,0.010611825174827684,7.946294469243321,119.12236976389622,0,0.17630457878112793,2019-07-25 15:26:41:800
-0.05845344439148903,0.10481340438127518,9.71864128112793,-0.011405641715266548,-0.006120373307638673,0.012742875235838782,11.381589799643509,120.32963914247595,0,0.17954421043395996,2019-07-25 15:26:41:803
0.0038100467063486576,0.10481340438127518,9.79766845703125,-0.011672022322707124,-0.0071858978179955724,0.014607542608814701,7.556004271544836,121.51338799521014,0,0.18351125717163086,2019-07-25 15:26:41:807
-0.05126919597387314,0.05931315943598747,9.802457809448242,-0.011139260067528673,-0.010915234124393366,0.011677349685184581,11.000745873978925,122.67807968026227,0,0.1865379810333252,2019-07-25 15:26:41:810
-0.03211119771003723,0.05691841244697571,9.802457809448242,-0.013270309088242468,-0.00931694735885802,0.007948014419084088,14.378909797441239,123.82061706708383,0,0.1902322769165039,2019-07-25 15:26:41:814
-0.041690196841955185,0.2724458873271942,9.682720184326172,-0.006610780898511855,-0.010382471869214918,0.011943731332922456,17.688221319097643,124.91313134174719,0,0.1933603286743164,2019-07-25 15:26:41:817
-0.1518486887216568,0.18384014070034027,9.778510093688965,-0.012471166225623446,-0.01224713924219084,0.011677349685184581,20.918699433545516,125.99540061633878,0,0.1963207721710205,2019-07-25 15:26:41:820
-0.14226968586444855,0.19820864498615265,9.675536155700684,-0.006610780898511855,-0.007985041200763246,0.010878206822565557,24.085133736315314,127.05339274757542,0,0.20001578330993652,2019-07-25 15:26:41:824
-0.14226968586444855,0.20539289712905884,9.639615058898926,-0.0015495390842051007,-0.004522086542103327,0.011410969077744007,27.18739556814677,128.08821243177297,0,0.20346450805664062,2019-07-25 15:26:41:827
-0.16621717810630798,0.03057616390287876,9.754562377929688,-0.011672022322707124,-0.005587611052460225,0.005017821495453967,30.225043728179774,129.12477914355313,0,0.20639848709106445,2019-07-25 15:26:41:830
-0.1710066795349121,0.07607641071081161,9.721035957336426,-0.013803071343420919,-0.005321229924871,0.007681633291494863,33.2015352089547,130.13629513108006,0,0.21024250984191895,2019-07-25 15:26:41:834
-0.09916418790817261,0.08805015683174133,9.891063690185547,-0.010073735557171774,-0.006919516690406348,0.006616108260989315,36.127226142699215,131.1251298241608,0,0.21335625648498535,2019-07-25 15:26:41:837
-0.14226968586444855,0.12157665193080902,9.785694122314453,-0.009540973301993326,-0.005587611052460225,0.003952296985097069,38.988942924471395,132.08996223754212,0,0.21628880500793457,2019-07-25 15:26:41:840
-0.19974367320537567,0.047339413315057755,9.895853042602539,-0.012737546833064021,-0.010915234124393366,0.003952296985097069,41.78830902263828,133.04533214575827,0,0.21999526023864746,2019-07-25 15:26:41:844
-0.1518486887216568,0.11439239978790283,9.783299446105957,-0.010340117204909651,-0.011714376987012389,0.00341953472991862,44.537012590126295,133.97301721635816,0,0.22342252731323242,2019-07-25 15:26:41:847
-0.16861192882061005,0.16707690060138702,9.737799644470215,-0.006344399770922631,-0.009583327966298594,0.002620391347150946,47.22801558092567,134.87494567849618,0,0.2263643741607666,2019-07-25 15:26:41:850
-0.13987493515014648,0.0904449075460434,9.766536712646484,-0.008475448791636427,-0.011980758634750264,0.00341953472991862,49.86964176284477,135.76867227593115,0,0.2302248477935791,2019-07-25 15:26:41:854
-0.21411217749118805,0.0377604141831398,9.886274337768555,-0.008475448791636427,-0.00984970961403647,0.004485059240275518,52.44916815031347,136.65041328626592,0,0.23335838317871094,2019-07-25 15:26:41:857
-0.14226968586444855,0.10720815509557724,9.78808879852295,-0.007143543153690304,-0.010116090221477043,0.0002229610200468263,54.985193127788826,137.5060287593412,0,0.23628616333007812,2019-07-25 15:26:41:860
-0.17579618096351624,0.12397140264511108,9.78808879852295,-0.008741830439374302,-0.005321229924871,0.0028867724747401705,57.465885525974976,138.34299697400016,0,0.2395491600036621,2019-07-25 15:26:41:863
-0.11592743545770645,0.08565540611743927,9.814431190490723,-0.005811637515744182,-0.005587611052460225,-0.0019080880819401969,59.90427872057258,139.16743201927918,0,0.24351978302001953,2019-07-25 15:26:41:867
-0.10395368933677673,0.05931315943598747,9.876694679260254,-0.011139260067528673,-0.0018582748760995933,0.0012884855791676607,62.2944548161555,139.97913296504456,0,0.24660730361938477,2019-07-25 15:26:41:870
-0.08719044178724289,0.10720815509557724,9.852746963500977,-0.010606497812350225,-0.0037229428992613276,0.002087628961935334,64.63918318449454,140.76924101506538,0,0.250232458114624,2019-07-25 15:26:41:874
-0.06084819510579109,0.10241865366697311,9.780904769897461,-0.009540973301993326,-0.005321229924871,-0.0005761824439940741,66.94033030031436,141.54375722915688,0,0.25377869606018066,2019-07-25 15:26:41:878
-0.10155893862247467,0.08805015683174133,9.864721298217773,-0.008741830439374302,-0.007718660073174022,-0.0005761824439940741,69.1908156227002,142.30388743111953,0,0.25629115104675293,2019-07-25 15:26:41:880
-0.07042719423770905,0.08326065540313721,9.790483474731445,-0.008209067664047203,-0.011181614731833942,-0.0019080880819401969,71.40107598366406,143.04976772358378,0,0.25998568534851074,2019-07-25 15:26:41:884
-0.08479569107294083,0.013812916353344917,9.80964183807373,-0.006610780898511855,-0.011447996379571817,0.0015548667067568852,73.56535908467926,143.78843488763994,0,0.26342344284057617,2019-07-25 15:26:41:887
-0.16861192882061005,0.040155161172151566,9.828800201416016,-0.007143543153690304,-0.014378188262904636,-0.0003098012838955588,75.67677160273333,144.50916500836766,0,0.26636624336242676,2019-07-25 15:26:41:890
-0.1326906830072403,0.025786664336919785,9.78808879852295,-0.004479731877798059,-0.00931694735885802,0.0023540102195617214,77.74972066538274,145.21693307683972,0,0.27022361755371094,2019-07-25 15:26:41:894
-0.1518486887216568,0.04973416030406952,9.606088638305664,-0.009008211046814877,-0.007452278945584797,-0.00323999371988632,79.77792276256035,145.9082440935098,0,0.27335214614868164,2019-07-25 15:26:41:897
-0.14945393800735474,0.03057616390287876,9.728219985961914,-0.011139260067528673,-0.006120373307638673,-0.0016417069543509725,81.76576837656008,146.58831088772976,0,0.27628326416015625,2019-07-25 15:26:41:900
-0.17579618096351624,0.01620766520500183,9.80964183807373,-0.008475448791636427,-0.0007927503007241136,-0.0035063751075498696,83.71008481718809,147.25641843107593,0,0.279996395111084,2019-07-25 15:26:41:904
-0.16861192882061005,0.054523661732673645,9.780904769897461,-0.0068771620261010805,6.393147570099056e-06,-0.0021744692095294216,85.61612953477771,147.90622667898663,0,0.28342628479003906,2019-07-25 15:26:41:907
-0.03929544612765312,0.047339413315057755,9.864721298217773,-0.0098073549497312,-0.008517803455941695,-0.0035063751075498696,87.50066286832453,148.54423874439325,0,0.28639650344848633,2019-07-25 15:26:41:910
-0.020137449726462364,0.1622873991727829,9.83837890625,-0.00927459269455275,-0.00984970961403647,-4.3420127860704935e-05,89.35042706630068,149.15645240201158,0,0.2902350425720215,2019-07-25 15:26:41:914
-0.05126919597387314,0.1431293934583664,9.821615219116211,-0.004213350490134509,-0.011447996379571817,-0.004039137362728319,91.15945079820234,149.75736644137154,0,0.2933681011199951,2019-07-25 15:26:41:917
-0.005768951959908009,0.12157665193080902,9.78808879852295,-0.007143543153690304,-0.013579045400285613,-0.0029736125922970955,92.93781308140638,150.3491579615769,0,0.29628849029541016,2019-07-25 15:26:41:920
-0.11592743545770645,0.12157665193080902,9.761747360229492,-0.00927459269455275,-0.013845426007726187,-0.0024408503371186464,94.66798823685785,150.929604855058,0,0.29955482482910156,2019-07-25 15:26:41:923
-0.04408494755625725,0.14791889488697052,9.713851928710938,-0.006610780898511855,-0.011447996379571817,-0.0024408503371186464,96.37196508922314,151.49502964532215,0,0.30350184440612793,2019-07-25 15:26:41:927
-0.1255064308643341,0.054523661732673645,9.699483871459961,-0.007676305408868754,-0.00585399218004945,-0.0027072314647078708,98.03068930792621,152.05998611655093,0,0.3065145015716553,2019-07-25 15:26:41:930
-0.056058697402477264,0.15031364560127258,9.804852485656738,-0.007942686536457978,6.393147570099056e-06,0.0015548667067568852,99.66352255199911,152.60287593590283,0,0.3102269172668457,2019-07-25 15:26:41:934
-0.14945393800735474,0.14073464274406433,9.713851928710938,-0.00927459269455275,0.002936585810617937,-0.0035063751075498696,101.2521072498706,153.1358458772747,0,0.3133537769317627,2019-07-25 15:26:41:937
-0.048874445259571075,0.12397140264511108,9.855142593383789,-0.010340117204909651,-0.0015918937485103685,-0.0019080880819401969,102.82164488877659,153.66042092045834,0,0.31629228591918945,2019-07-25 15:26:41:940
-0.04408494755625725,0.0641026571393013,9.855142593383789,-0.007676305408868754,-0.0037229428992613276,-0.0027072314647078708,104.36086211154668,154.1813592540961,0,0.320004940032959,2019-07-25 15:26:41:944
0.04691554233431816,0.05931315943598747,9.862326622009277,-0.014335833598599369,-0.006120373307638673,0.0002229610200468263,98.68027520255437,154.6936025434862,0,0.32343626022338867,2019-07-25 15:26:41:947
-0.04647969827055931,0.08326065540313721,9.85035228729248,-0.005278875260565733,-0.010648852476655491,-0.0027072314647078708,100.30301539226554,155.19091368532654,0,0.3263676166534424,2019-07-25 15:26:41:950
-0.03929544612765312,0.05212891101837158,9.831194877624512,-0.014335833598599369,-0.01624285667617786,0.005017821495453967,101.89588792142277,155.6841199666603,0,0.3302195072174072,2019-07-25 15:26:41:954
-0.04647969827055931,0.1742611527442932,9.807247161865234,-0.007942686536457978,-0.011980758634750264,-0.0011089446991725232,103.45464155272022,156.15147205086802,0,0.3333444595336914,2019-07-25 15:26:41:957
-0.12311168760061264,0.20299814641475677,9.761747360229492,-0.0036805882349560596,-0.010116090221477043,0.0007557233239892114,104.97278406555424,156.6052300153305,0,0.33631348609924316,2019-07-25 15:26:41:960
-0.048874445259571075,0.15749789774417877,9.840773582458496,-0.003946969362545284,-0.005321229924871,0.0004893421638906962,106.46874671695929,157.05560999417258,0,0.34002685546875,2019-07-25 15:26:41:964
-0.13748018443584442,0.14791889488697052,9.742588996887207,-0.0002176333974950418,-0.0063867544352278986,0.0007557233239892114,107.92445692445874,157.49714377174396,0,0.343524694442749,2019-07-25 15:26:41:967
0.03254704177379608,0.06889215856790543,9.82640552520752,-0.00927459269455275,-0.0013255126209211442,0.0023540102195617214,102.16998473210319,157.94071662733518,0,0.3465001583099365,2019-07-25 15:26:41:970
-0.13508543372154236,0.1167871505022049,9.780904769897461,-0.0034142071073668353,0.001871061170223876,-0.0011089446991725232,103.71036836614357,158.368934326458,0,0.35022449493408203,2019-07-25 15:26:41:974
0.06607353687286377,0.08805015683174133,9.840773582458496,-0.013803071343420919,-0.003989324026850552,0.005017821495453967,98.04455479717947,158.79372463303736,0,0.3533492088317871,2019-07-25 15:26:41:977
0.020573293790221214,0.13833990693092346,9.783299446105957,-0.001815920211794325,-0.002923799516493654,-0.0005761824439940741,92.48655676085332,159.20194767938636,0,0.3562932014465332,2019-07-25 15:26:41:980
0.04691554233431816,0.028181415051221848,9.886274337768555,-0.009540973301993326,-0.011714376987012389,0.0036859158575078444,87.04470167092691,159.6166279999189,0,0.3599998950958252,2019-07-25 15:26:41:984
-0.008163701742887497,0.11439239978790283,9.840773582458496,-0.002615063724599162,-0.013312663752547738,0.002087628961935334,88.90541249076173,160.01147752293244,0,0.3634185791015625,2019-07-25 15:26:41:987
0.12594227492809296,0.13355040550231934,9.852746963500977,-0.005545256388154957,-0.013046283145107163,0.006882489388578539,83.5440966653286,160.39662843470458,0,0.3663475513458252,2019-07-25 15:26:41:990
-0.005768951959908009,0.1287609040737152,9.754562377929688,-0.003946969362545284,-0.014111807655464064,0.005017821495453967,85.47561429735941,160.7744312691467,0,0.37023115158081055,2019-07-25 15:26:41:994
0.020573293790221214,0.11439239978790283,9.828800201416016,-0.002348682597009937,-0.008251422328352472,0.008480776674262537,80.16994910146424,161.14601881970725,0,0.37335753440856934,2019-07-25 15:26:41:997
0.03733654320240021,0.061707910150289536,9.821615219116211,-0.007143543153690304,-0.0037229428992613276,0.007681633291494863,74.97153069966461,161.51709707308876,0,0.3763446807861328,2019-07-25 15:26:42:000
0.10438953340053558,0.06889215856790543,9.761747360229492,-0.006610780898511855,-0.002391037261315205,0.008480776674262537,69.88487545388675,161.88011058367408,0,0.3802306652069092,2019-07-25 15:26:42:004
0.1163632795214653,0.03536566346883774,9.869510650634766,-0.004746113005387283,-0.0015918937485103685,0.009546300664470785,64.90096712544333,162.2392347908634,0,0.38335490226745605,2019-07-25 15:26:42:007
0.0708630383014679,0.0904449075460434,9.80964183807373,-0.00927459269455275,-0.002391037261315205,0.009013538409292336,60.01163075800885,162.58545692416718,0,0.38637328147888184,2019-07-25 15:26:42:010
0.1810215264558792,0.12397140264511108,9.804852485656738,-0.006344399770922631,-0.002923799516493654,0.011144587430006132,55.233082545532696,162.9204106703581,0,0.3896040916442871,2019-07-25 15:26:42:013
0.0972052812576294,0.16468214988708496,9.79766845703125,-0.0036805882349560596,-0.006653135562817124,0.011677349685184581,50.5412928119339,163.2435750508646,0,0.3936283588409424,2019-07-25 15:26:42:017
0.12354753166437149,0.05691841244697571,9.725825309753418,-0.006078018643333406,-0.011447996379571817,0.011677349685184581,45.946991819164545,163.5730427980237,0,0.39669156074523926,2019-07-25 15:26:42:021
0.1618635207414627,0.10002390295267105,9.88866901397705,-0.0034142071073668353,-0.01224713924219084,0.015406686511731027,41.44925926498094,163.8906749411141,0,0.4002571105957031,2019-07-25 15:26:42:024
0.08283678442239761,0.047339413315057755,9.83837890625,-0.004746113005387283,-0.010116090221477043,0.014607542608814701,37.032009232814815,164.2083268419333,0,0.4039313793182373,2019-07-25 15:26:42:028
0.034941792488098145,0.10241865366697311,9.622851371765137,-0.005278875260565733,-0.00984970961403647,0.011677349685184581,32.697196174293595,164.51285744688028,0,0.40694403648376465,2019-07-25 15:26:42:031
0.13073177635669708,0.0904449075460434,9.663561820983887,-0.005545256388154957,-0.010382471869214918,0.014607542608814701,28.460680743350387,164.81290482869446,0,0.4102497100830078,2019-07-25 15:26:42:034
0.04691554233431816,0.15989264845848083,9.682720184326172,-0.005811637515744182,-0.003989324026850552,0.014607542608814701,24.297718347678252,165.0987439885136,0,0.41337013244628906,2019-07-25 15:26:42:037
0.10678428411483765,0.08086590468883514,9.807247161865234,-0.008209067664047203,-0.0010591314283133382,0.017271353884706946,20.224416381267332,165.38868335963176,0,0.41632652282714844,2019-07-25 15:26:42:040
0.08523153513669968,0.07128690928220749,9.766536712646484,-0.006610780898511855,0.001338298915045427,0.014607542608814701,16.229647483243294,165.67393177226083,0,0.4200606346130371,2019-07-25 15:26:42:044
0.09241578727960587,0.13115565478801727,9.833589553833008,-0.0098073549497312,-0.0015918937485103685,0.014607542608814701,12.316105462998689,165.94690751002585,0,0.4232151508331299,2019-07-25 15:26:42:047
0.13073177635669708,0.18384014070034027,9.740194320678711,-0.007409924281279529,-0.005321229924871,0.014074780353636254,8.486183878400956,166.20776538292068,0,0.4266326427459717,2019-07-25 15:26:42:050
0.15228453278541565,0.006628667004406452,9.886274337768555,-0.009540973301993326,-0.010648852476655491,0.017537735532444823,4.736483087736305,166.4849678858716,0,0.4306013584136963,2019-07-25 15:26:42:054
0.12115278095006943,0.10241865366697311,9.804852485656738,-0.009008211046814877,-0.011181614731833942,0.0156730671191716,1.0582897876225998,166.74521458300313,0,0.4343883991241455,2019-07-25 15:26:42:058
0.10438953340053558,0.11439239978790283,9.721035957336426,-0.00208230133938355,-0.010116090221477043,0.0167385916295285,-2.5492881554198386,166.99709040965678,0,0.4366469383239746,2019-07-25 15:26:42:060
0.08762628585100174,0.08565540611743927,9.735404968261719,-0.005278875260565733,-0.011714376987012389,0.015406686511731027,-6.085604203867347,167.2481411608468,0,0.44027185440063477,2019-07-25 15:26:42:064
0.08762628585100174,0.07128690928220749,9.692298889160156,-0.005278875260565733,-0.010648852476655491,0.0156730671191716,-9.551660746560856,167.4956780903996,0,0.4434020519256592,2019-07-25 15:26:42:067
0.10917903482913971,0.06649740785360336,9.701878547668457,-0.007676305408868754,-0.007452278945584797,0.014074780353636254,-12.9462818578795,167.7394048538863,0,0.4468691349029541,2019-07-25 15:26:42:071
0.0972052812576294,0.07368165999650955,9.64919376373291,-0.005012494132976508,-0.0034565617716721033,0.0167385916295285,-16.275149223385906,167.97682885754156,0,0.4502878189086914,2019-07-25 15:26:42:074
0.12833702564239502,0.09762915223836899,9.685114860534668,-0.00927459269455275,-0.002124656003688818,0.012742875235838782,-19.534018284050376,168.20768122488084,0,0.4540126323699951,2019-07-25 15:26:42:078
0.10678428411483765,0.08326065540313721,9.754562377929688,-0.009008211046814877,-0.002391037261315205,0.017271353884706946,-22.73037552887544,168.43532321706178,0,0.45712924003601074,2019-07-25 15:26:42:081
0.2073637694120407,0.061707910150289536,9.78808879852295,-0.007143543153690304,-0.005054848797281776,0.014607542608814701,-25.85060154725602,168.66065527457542,0,0.4602773189544678,2019-07-25 15:26:42:084
0.08283678442239761,0.10720815509557724,9.855142593383789,-0.006344399770922631,-0.005321229924871,0.014873924256552576,-28.923022561094598,168.87609202863877,0,0.4634075164794922,2019-07-25 15:26:42:087
0.15707403421401978,0.10002390295267105,9.771326065063477,-0.007409924281279529,-0.009583327966298594,0.01434116200137413,-31.92426411819025,169.0882933179822,0,0.46689939498901367,2019-07-25 15:26:42:091
0.18581102788448334,0.15270839631557465,9.756957054138184,-0.0034142071073668353,-0.007985041200763246,0.011943731332922456,-34.862434786007945,169.28924551827592,0,0.47029829025268555,2019-07-25 15:26:42:094
0.13312652707099915,0.10002390295267105,9.766536712646484,-0.007409924281279529,-0.008251422328352472,0.010878206822565557,-37.74782167583336,169.49329265895895,0,0.47406578063964844,2019-07-25 15:26:42:098
0.13791602849960327,0.17905063927173615,9.816825866699219,-0.005545256388154957,-0.00984970961403647,0.011410969077744007,-40.575057441203754,169.68349127060276,0,0.4771575927734375,2019-07-25 15:26:42:101
0.12115278095006943,0.07607641071081161,9.754562377929688,-0.007409924281279529,-0.010382471869214918,0.011144587430006132,-43.34749507068505,169.88219030495415,0,0.48029589653015137,2019-07-25 15:26:42:104
0.07804729044437408,0.013812916353344917,9.852746963500977,-0.011139260067528673,-0.006919516690406348,0.010878206822565557,-46.07025038337843,170.08490037337265,0,0.4834301471710205,2019-07-25 15:26:42:107
0.049310289323329926,0.09523440897464752,9.835984230041504,-0.010073735557171774,-0.002923799516493654,0.008747157801851762,-48.742526022739526,170.27408753942473,0,0.48693037033081055,2019-07-25 15:26:42:111
0.0636787861585617,0.10481340438127518,9.737799644470215,-0.00927459269455275,-0.004522086542103327,0.011410969077744007,-51.35932510189095,170.4580297489422,0,0.49030542373657227,2019-07-25 15:26:42:114
0.1498897820711136,0.17905063927173615,9.730615615844727,-0.00927459269455275,-0.006120373307638673,0.008480776674262537,-53.91320955174538,170.62972372328517,0,0.49402666091918945,2019-07-25 15:26:42:118
0.08283678442239761,0.15270839631557465,9.79766845703125,-0.005545256388154957,-0.00585399218004945,0.009013538409292336,-56.4242370465381,170.8002365489218,0,0.4971301555633545,2019-07-25 15:26:42:121
0.08523153513669968,0.0641026571393013,9.773720741271973,-0.007143543153690304,-0.008517803455941695,0.009013538409292336,-58.884252499930824,170.97798020378443,0,0.5002813339233398,2019-07-25 15:26:42:124
0.0972052812576294,0.1096029058098793,9.773720741271973,-0.007942686536457978,-0.010116090221477043,0.007948014419084088,-61.29339005016912,171.1469691409978,0,0.5034167766571045,2019-07-25 15:26:42:127
0.03973129391670227,0.09523440897464752,9.864721298217773,-0.010340117204909651,-0.008251422328352472,0.005816964878221641,-63.661291775038755,171.31499143658579,0,0.5069029331207275,2019-07-25 15:26:42:131
0.02536279335618019,0.13355040550231934,9.824010848999023,-0.005811637515744182,-0.009583327966298594,0.004485059240275518,-65.98327445932733,171.47422629016947,0,0.5103094577789307,2019-07-25 15:26:42:134
0.027757544070482254,0.10002390295267105,9.824010848999023,-0.008741830439374302,-0.00931694735885802,0.005550583750632416,-68.25842546740024,171.63490058469046,0,0.514028787612915,2019-07-25 15:26:42:138
0.05409979075193405,0.08565540611743927,9.78808879852295,-0.006610780898511855,-0.010382471869214918,0.0031531536023293957,-70.4851145863022,171.79332667472374,0,0.5171315670013428,2019-07-25 15:26:42:141
0.001415297039784491,0.1167871505022049,9.773720741271973,-0.007676305408868754,-0.005587611052460225,0.0018212478343461098,-72.67425605100391,171.94512862750133,0,0.5202879905700684,2019-07-25 15:26:42:144
0.07325778901576996,0.1096029058098793,9.802457809448242,-0.008475448791636427,-0.004522086542103327,0.0023540102195617214,-74.8114142055177,172.0949001590783,0,0.5234110355377197,2019-07-25 15:26:42:147
-0.005768951959908009,0.0904449075460434,9.80964183807373,-0.008209067664047203,-0.005321229924871,0.002620391347150946,-69.71481143943565,172.24405445461423,0,0.5269198417663574,2019-07-25 15:26:42:151
0.07565253973007202,0.11439239978790283,9.783299446105957,-0.008209067664047203,-0.006919516690406348,-0.0008425635715832987,-71.9103431915344,172.3873305816733,0,0.5302941799163818,2019-07-25 15:26:42:154
0.02536279335618019,0.0904449075460434,9.790483474731445,-0.007942686536457978,-0.004788467669692552,0.0002229610200468263,-74.06816550953339,172.53066072477407,0,0.5340218544006348,2019-07-25 15:26:42:158
0.06846828758716583,0.06889215856790543,9.843168258666992,-0.008209067664047203,-0.009583327966298594,-0.0003098012838955588,-76.177152067262,172.67346593965217,0,0.5371427536010742,2019-07-25 15:26:42:161
0.08762628585100174,0.13115565478801727,9.754562377929688,-0.005545256388154957,-0.00585399218004945,-0.0035063751075498696,-78.2422730414683,172.80557746418376,0,0.5403139591217041,2019-07-25 15:26:42:164
-0.029716448858380318,0.0377604141831398,9.704273223876953,-0.006344399770922631,-0.004788467669692552,-0.0021744692095294216,-73.0800942681411,172.94612307849704,0,0.5434467792510986,2019-07-25 15:26:42:167
0.015783796086907387,0.05931315943598747,9.819220542907715,-0.005811637515744182,-0.005587611052460225,-0.004039137362728319,-75.21555633669423,173.08141670262253,0,0.5469338893890381,2019-07-25 15:26:42:171
0.0038100467063486576,0.07128690928220749,9.893458366394043,-0.006610780898511855,-0.005054848797281776,-0.004039137362728319,-77.3098507077306,173.21277826969128,0,0.5502922534942627,2019-07-25 15:26:42:174
0.04691554233431816,0.1431293934583664,9.816825866699219,-0.00927459269455275,-0.008784185103679572,-0.006170186383442115,-79.3563438662628,173.33375221750254,0,0.5540094375610352,2019-07-25 15:26:42:178
0.05409979075193405,0.14791889488697052,9.694693565368652,-0.006610780898511855,-0.004788467669692552,-0.003772756235139094,-81.36197934809981,173.45075842088525,0,0.5571451187133789,2019-07-25 15:26:42:181
0.11157378554344177,0.12397140264511108,9.735404968261719,-0.008209067664047203,-0.0013255126209211442,-0.005104661873085217,-83.32137369657941,173.56859941566864,0,0.5602855682373047,2019-07-25 15:26:42:184
0.12115278095006943,0.12397140264511108,9.76893138885498,-0.008741830439374302,-0.0026574183889044294,-0.0024408503371186464,-85.24026656449378,173.68422866040825,0,0.5634281635284424,2019-07-25 15:26:42:187
0.034941792488098145,0.15270839631557465,9.816825866699219,-0.009008211046814877,-0.004522086542103327,-0.005371043000674441,-87.13049295930476,173.79449192749024,0,0.5669314861297607,2019-07-25 15:26:42:191
0.08762628585100174,0.15989264845848083,9.855142593383789,-0.004213350490134509,-0.003190180644082879,-0.004305518490317544,-88.9770923675649,173.90080736638544,0,0.5702931880950928,2019-07-25 15:26:42:194
0.05888928845524788,0.10002390295267105,9.857537269592285,-0.005811637515744182,-0.003989324026850552,-0.007768473148977463,-90.789871890302,174.01237754212906,0,0.5740118026733398,2019-07-25 15:26:42:198
0.07325778901576996,0.11199765652418137,9.80964183807373,-0.008475448791636427,-0.00585399218004945,-0.0035063751075498696,-92.56468816180967,174.12024750451164,0,0.576533317565918,2019-07-25 15:26:42:200
0.1618635207414627,0.11439239978790283,9.728219985961914,-0.006610780898511855,-0.005587611052460225,-0.006170186383442115,-94.29314266590788,174.2257730483241,0,0.5803170204162598,2019-07-25 15:26:42:204
0.10678428411483765,0.1096029058098793,9.78808879852295,-0.008741830439374302,-0.00585399218004945,-0.006170186383442115,-95.9937498331791,174.32996322488924,0,0.5834474563598633,2019-07-25 15:26:42:207
0.08523153513669968,0.10241865366697311,9.773720741271973,-0.008475448791636427,-0.002124656003688818,-0.0048382807454959926,-97.66351313475364,174.43282842950808,0,0.586540699005127,2019-07-25 15:26:42:210
0.07804729044437408,0.12636615335941315,9.76893138885498,-0.012737546833064021,-0.004255705154439777,-0.005371043000674441,-99.30019338836163,174.53202718045884,0,0.5902843475341797,2019-07-25 15:26:42:214
0.10199478268623352,0.10002390295267105,9.79766845703125,-0.007676305408868754,-0.004522086542103327,-0.0019080880819401969,-100.90146380433163,174.63104143977233,0,0.5934233665466309,2019-07-25 15:26:42:217
0.10917903482913971,0.07368165999650955,9.843168258666992,-0.007942686536457978,-0.0013255126209211442,-0.0005761824439940741,-102.47049112186863,174.7312426768426,0,0.5965619087219238,2019-07-25 15:26:42:220
0.09481053799390793,0.12157665193080902,9.814431190490723,-0.008741830439374302,-0.00585399218004945,-0.0029736125922970955,-104.00878189820516,174.8242600012505,0,0.6003034114837646,2019-07-25 15:26:42:224
0.13073177635669708,0.15270839631557465,9.845562934875488,-0.007409924281279529,-0.004255705154439777,-0.0013753258267617478,-105.51264222895924,174.91130709575242,0,0.6034386157989502,2019-07-25 15:26:42:227
0.08762628585100174,0.0377604141831398,9.776115417480469,-0.009008211046814877,-0.006653135562817124,-0.004305518490317544,-106.99077124831449,175.01047896894033,0,0.6070449352264404,2019-07-25 15:26:42:231
0.12354753166437149,0.047339413315057755,9.721035957336426,-0.007676305408868754,-0.006120373307638673,-0.0011089446991725232,-108.43511259972392,175.10629475193548,0,0.6107702255249023,2019-07-25 15:26:42:235
0.08044203370809555,0.10720815509557724,9.692298889160156,-0.010073735557171774,-0.004788467669692552,-0.0008425635715832987,-109.85604934874516,175.19328364955578,0,0.613933801651001,2019-07-25 15:26:42:238
0.09960003197193146,0.09283965826034546,9.711457252502441,-0.007409924281279529,-0.0063867544352278986,-0.0024408503371186464,-111.24604055338772,175.27978132342926,0,0.6171009540557861,2019-07-25 15:26:42:241
0.10678428411483765,0.1359451562166214,9.812036514282227,-0.004746113005387283,-0.0026574183889044294,-0.0005761824439940741,-112.6081801163668,175.3591479861833,0,0.6202449798583984,2019-07-25 15:26:42:244
0.0972052812576294,0.07607641071081161,9.864721298217773,-0.009540973301993326,-0.002923799516493654,-0.0019080880819401969,-113.94421066980215,175.44480703217917,0,0.6233792304992676,2019-07-25 15:26:42:247
0.05409979075193405,0.04973416030406952,9.692298889160156,-0.0098073549497312,-0.002391037261315205,-0.0024408503371186464,-115.25850617773288,175.53177065858995,0,0.6265385150909424,2019-07-25 15:26:42:250
0.07804729044437408,0.006628667004406452,9.814431190490723,-0.006610780898511855,0.002137442297813101,-0.0008425635715832987,-116.54467248418304,175.621749676679,0,0.6302788257598877,2019-07-25 15:26:42:254
0.08044203370809555,0.06889215856790543,9.766536712646484,-0.007409924281279529,0.0002727743071606566,0.0007557233239892114,-117.80438895370077,175.7025364944189,0,0.6334149837493896,2019-07-25 15:26:42:257
0.10917903482913971,0.07368165999650955,9.934168815612793,-0.007409924281279529,-0.0007927503007241136,-0.0005761824439940741,-119.0355691239635,175.78128269338038,0,0.6365299224853516,2019-07-25 15:26:42:260
0.1163632795214653,0.0377604141831398,9.71864128112793,-0.004213350490134509,-0.0037229428992613276,0.0015548667067568852,-120.24034995078264,175.86209675419488,0,0.6403002738952637,2019-07-25 15:26:42:264
0.1953900158405304,0.05931315943598747,9.800063133239746,-0.004213350490134509,-0.002923799516493654,0.0004893421638906962,-121.41218415579975,175.93866156962739,0,0.6434371471405029,2019-07-25 15:26:42:267
0.22891651093959808,-0.002950331661850214,9.819220542907715,-0.002615063724599162,-0.0071858978179955724,0.002620391347150946,-122.55597545139692,168.82068936404374,0,0.6465475559234619,2019-07-25 15:26:42:270
0.1355212777853012,-0.08437182009220123,9.843168258666992,-0.0031478259797776105,-0.002124656003688818,-0.0016417069543509725,-123.68863019639178,161.85476396334033,0,0.6503171920776367,2019-07-25 15:26:42:274
0.18581102788448334,-0.06760857254266739,9.828800201416016,-0.0036805882349560596,-0.006120373307638673,0.0012884855791676607,-124.79212399083127,155.02619610212062,0,0.6534392833709717,2019-07-25 15:26:42:277
0.1953900158405304,-0.13705632090568542,9.812036514282227,-0.003946969362545284,-0.007985041200763246,0.0015548667067568852,-125.87207943202252,148.34236265789013,0,0.6565308570861816,2019-07-25 15:26:42:280
0.13073177635669708,-0.09155607223510742,9.800063133239746,-0.002348682597009937,-0.003190180644082879,0.0002229610200468263,-126.9386815113894,141.7867145850155,0,0.660275936126709,2019-07-25 15:26:42:284
0.1618635207414627,-0.14184580743312836,9.831194877624512,-0.0015495390842051007,-0.004522086542103327,0.0015548667067568852,-127.98024683937174,135.36778535396257,0,0.6634111404418945,2019-07-25 15:26:42:287
0.14510028064250946,-0.07718757539987564,9.756957054138184,-0.003946969362545284,-0.002391037261315205,0.0007557233239892114,-129.00318235813094,129.07018707035115,0,0.6665346622467041,2019-07-25 15:26:42:290
0.13073177635669708,-0.11550356447696686,9.78808879852295,-0.001283157956615876,-0.004522086542103327,0.0004893421638906962,-130.00686438784126,122.90257459367879,0,0.6702766418457031,2019-07-25 15:26:42:294
0.15946877002716064,-0.12268781661987305,9.735404968261719,-0.001815920211794325,-0.002923799516493654,-0.0005761824439940741,-130.9874434421827,116.85928322818968,0,0.6734130382537842,2019-07-25 15:26:42:297
0.11396853625774384,-0.11550356447696686,9.752167701721191,0.006175514266068225,-0.0005263691406255985,0.0012884855791676607,-131.9542112276956,110.93458692040612,0,0.6765336990356445,2019-07-25 15:26:42:300
0.08523153513669968,-0.3501890301704407,9.632430076599121,-0.01726602652222949,-0.0034565617716721033,0.001022104451578436,-132.904262139228,105.16116140309099,0,0.6802723407745361,2019-07-25 15:26:42:304
-0.24524392187595367,0.05691841244697571,9.83837890625,0.00297894021484888,-0.007452278945584797,-0.00323999371988632,-126.67342012833912,106.65078292011911,0,0.6834158897399902,2019-07-25 15:26:42:307
0.885077953338623,0.19581389427185059,9.325902938842773,0.00990485057246602,-0.004788467669692552,-0.004571899617906768,-127.63067924598946,108.09196500981726,0,0.686553955078125,2019-07-25 15:26:42:310
-0.08719044178724289,-0.33821529150009155,9.977273941040039,0.009372087276990269,-0.0005263691406255985,-0.0003098012838955588,-121.48796868034928,102.36698341617421,0,0.6903018951416016,2019-07-25 15:26:42:314
0.20257426798343658,-0.36455753445625305,9.86711597442627,-0.03324889417758296,-0.01810752508945108,0.008214395546673314,-122.63149513738826,96.76782261741012,0,0.6934409141540527,2019-07-25 15:26:42:317
0.7222349643707275,-0.02689782902598381,9.256454467773438,0.007241038776425124,-0.00585399218004945,-0.003772756235139094,-123.68861816750601,91.2345370885426,0,0.6965372562408447,2019-07-25 15:26:42:320
0.2145480215549469,-0.058029573410749435,9.79766845703125,-0.010340117204909651,-0.013579045400285613,-0.0035063751075498696,-124.7869057747644,85.81880420750424,0,0.7002763748168945,2019-07-25 15:26:42:324
-0.2620071768760681,0.0641026571393013,9.531850814819336,-0.00208230133938355,0.0008055365948483964,0.0028867724747401705,-118.72280008392083,87.6950887751408,0,0.7034146785736084,2019-07-25 15:26:42:327
0.3606277406215668,0.16468214988708496,9.646799087524414,-0.009540973301993326,-0.005587611052460225,-0.0011089446991725232,-119.90454632550231,89.52329974294989,0,0.7065374851226807,2019-07-25 15:26:42:330
0.09241578727960587,0.27005112171173096,9.531850814819336,0.013900566966155738,-0.0007927503007241136,-0.005371043000674441,-121.09517905283599,91.29745742953,0,0.7102780342102051,2019-07-25 15:26:42:334
-0.04647969827055931,0.14073464274406433,9.778510093688965,-0.006610780898511855,-0.0010591314283133382,-0.0024408503371186464,-115.0785353914189,93.05618346675013,0,0.7134201526641846,2019-07-25 15:26:42:337
0.34865400195121765,0.22934038937091827,9.589324951171875,-0.0004840145413389117,0.004268491448564059,-0.012030571190405055,-116.3360695377751,94.76774413686095,0,0.7165508270263672,2019-07-25 15:26:42:340
-0.0009794526267796755,0.22934038937091827,9.752167701721191,-0.011139260067528673,-0.00025998799678172854,-0.007235710893799014,-110.40940855411316,96.44778875490788,0,0.7202966213226318,2019-07-25 15:26:42:344
0.042126040905714035,0.21018239855766296,9.91740608215332,-0.02312641236948973,-0.004255705154439777,-0.0011089446991725232,-111.79560505158828,98.09861498375334,0,0.723426342010498,2019-07-25 15:26:42:347
0.38696998357772827,0.32752513885498047,9.802457809448242,0.003245321342438104,0.008264208622476754,-0.010165903817429134,-113.11593005896431,99.69779925453695,0,0.7265527248382568,2019-07-25 15:26:42:350
0.21215327084064484,0.25807738304138184,9.845562934875488,-0.014335833598599369,-0.010116090221477043,-0.005637424128263666,-114.42679474664132,101.27682873193862,0,0.7302994728088379,2019-07-25 15:26:42:354
0.11396853625774384,0.35626211762428284,9.816825866699219,-0.005012494132976508,-0.0063867544352278986,-0.005371043000674441,-115.72383108552374,102.81060682185604,0,0.733436107635498,2019-07-25 15:26:42:357
0.2935747504234314,0.28441962599754333,9.852746963500977,-0.0036805882349560596,-0.007718660073174022,-0.008301235404155912,-116.97387904766184,104.32196438670582,0,0.7365314960479736,2019-07-25 15:26:42:360
0.030152292922139168,0.26286688446998596,9.785694122314453,-0.003946969362545284,-0.008517803455941695,-0.00936675991451281,-118.22906381698587,105.80558772725361,0,0.7403092384338379,2019-07-25 15:26:42:364
0.19778476655483246,0.22215613722801208,9.75935173034668,-0.007676305408868754,-0.004788467669692552,-0.008301235404155912,-119.44042371602028,107.26473999050488,0,0.7434284687042236,2019-07-25 15:26:42:367
0.14031077921390533,0.19820864498615265,9.819220542907715,-0.005811637515744182,-0.002124656003688818,-0.01282971509332138,-120.6348719204677,108.69732916979312,0,0.7465298175811768,2019-07-25 15:26:42:370
0.2744167745113373,0.21976138651371002,9.716246604919434,-0.008475448791636427,-0.0010591314283133382,-0.009100379307072236,-121.78959620054366,110.09925080457003,0,0.7502744197845459,2019-07-25 15:26:42:374
0.06846828758716583,0.21736663579940796,9.840773582458496,-0.007676305408868754,-0.00025998799678172854,-0.00989952216969126,-122.945785723548,111.47331210514868,0,0.7534148693084717,2019-07-25 15:26:42:377
0.2600482702255249,0.23173514008522034,9.828800201416016,-0.005278875260565733,0.004534872836227609,-0.012563333445583505,-124.0573536188415,112.81775878129035,0,0.7565367221832275,2019-07-25 15:26:42:380
0.13312652707099915,0.12157665193080902,9.871905326843262,-0.000750395701437427,0.002137442297813101,-0.011497808935226608,-125.16120349068844,114.14744956518898,0,0.7602789402008057,2019-07-25 15:26:42:384
0.08523153513669968,0.11199765652418137,9.88866901397705,-0.010340117204909651,-0.002391037261315205,-0.00936675991451281,-126.24768120234002,115.45334626187929,0,0.7634198665618896,2019-07-25 15:26:42:387
0.2744167745113373,0.15270839631557465,9.82640552520752,0.0019134157044919816,-0.0015918937485103685,-0.009633141562250685,-127.29045677574916,116.72613869254343,0,0.7665271759033203,2019-07-25 15:26:42:390
0.22652177512645721,-0.022108329460024834,9.792879104614258,-0.008209067664047203,-0.011181614731833942,-0.006702948638620565,-128.3157969396829,110.79592741565193,0,0.770268440246582,2019-07-25 15:26:42:394
0.18341627717018127,-0.04845057427883148,9.85035228729248,-0.007676305408868754,-0.01224713924219084,-0.004305518490317544,-129.32598937989064,104.986997056344,0,0.7734048366546631,2019-07-25 15:26:42:397
0.324706494808197,0.018602415919303894,9.86711597442627,-0.005278875260565733,-0.00585399218004945,-0.00643656751103134,-130.30073696997584,106.48603140073023,0,0.7765581607818604,2019-07-25 15:26:42:400
0.05409979075193405,-0.002950331661850214,9.80964183807373,-0.002348682597009937,-0.008784185103679572,-4.3420127860704935e-05,-131.2865555442915,100.757149279255,0,0.7803030014038086,2019-07-25 15:26:42:404
0.034941792488098145,0.001839167787693441,9.761747360229492,-0.002615063724599162,-0.005321229924871,-0.0003098012838955588,-132.2557819454941,102.34225271643899,0,0.7834515571594238,2019-07-25 15:26:42:407
0.3079432547092438,-0.08437182009220123,9.80964183807373,-0.005811637515744182,-0.004522086542103327,-0.0005761824439940741,-133.17392350288443,96.70626852673361,0,0.786531925201416,2019-07-25 15:26:42:410
0.18581102788448334,-0.017318829894065857,9.589324951171875,0.0013806534493135323,0.009329733652982302,0.0028867724747401705,-134.0902087194447,91.17392192612714,0,0.790283203125,2019-07-25 15:26:42:414
0.40852275490760803,-0.05563482642173767,9.771326065063477,-0.010606497812350225,0.005334016218995283,0.007948014419084088,-134.9614633418902,85.75883649796181,0,0.7934207916259766,2019-07-25 15:26:42:417
-0.2500334084033966,-0.09155607223510742,9.881484031677246,-0.006610780898511855,-0.0007927503007241136,0.005550583750632416,-128.69108361761312,80.455441240158,0,0.7965576648712158,2019-07-25 15:26:42:420
0.6432082056999207,0.040155161172151566,9.804852485656738,-0.009540973301993326,-0.0026574183889044294,0.014607542608814701,-129.64163618798972,82.44365034404339,0,0.8003113269805908,2019-07-25 15:26:42:424
0.06128403916954994,0.04494466260075569,9.845562934875488,0.004044464985280103,-0.002923799516493654,0.007681633291494863,-130.64115543031767,84.3888334483338,0,0.803450345993042,2019-07-25 15:26:42:427
0.2983642518520355,-0.11550356447696686,9.855142593383789,-0.023392792976930303,-0.015976475028439983,0.01860326004280172,-131.59088295221756,79.11853846570443,0,0.8065352439880371,2019-07-25 15:26:42:430
0.2217322736978531,0.11439239978790283,9.723430633544922,0.004577226980384227,-0.008784185103679572,0.011410969077744007,-132.53109350703903,81.12172570365699,0,0.8102757930755615,2019-07-25 15:26:42:434
-0.18776993453502655,0.020997164770960808,9.733010292053223,0.0011142723217243077,-0.012513520889928714,0.011943731332922456,-126.3003653784749,83.09662224891365,0,0.8134219646453857,2019-07-25 15:26:42:437
0.2073637694120407,0.08805015683174133,9.644404411315918,0.0019134157044919816,-0.004522086542103327,0.01966878455315862,-127.34892728700464,85.02389132940878,0,0.8165581226348877,2019-07-25 15:26:42:440
-0.048874445259571075,-0.07239807397127151,9.682720184326172,-0.0034142071073668353,0.002137442297813101,0.015406686511731027,-121.20818248319046,79.73269967722766,0,0.8203048706054688,2019-07-25 15:26:42:444
-0.09437469393014908,-0.19213555753231049,9.819220542907715,-0.02259364907401398,-0.007718660073174022,0.024463645890061964,-115.19367354558715,74.56444209816102,0,0.8234395980834961,2019-07-25 15:26:42:447
0.11157378554344177,0.19581389427185059,9.80964183807373,0.0016470345769027568,0.009063352005244427,0.020467928456074945,-116.47857897931078,76.64995298831865,0,0.8269999027252197,2019-07-25 15:26:42:451
-0.05845344439148903,-0.017318829894065857,9.833589553833008,-0.012737546833064021,-0.002391037261315205,0.023930882594586214,-110.55533179497596,71.52156724228301,0,0.8306283950805664,2019-07-25 15:26:42:454
-0.13748018443584442,0.0377604141831398,9.816825866699219,-0.007409924281279529,0.0002727743071606566,0.02020154576803977,-104.76032049620983,73.68804183369595,0,0.8337857723236084,2019-07-25 15:26:42:458
0.09481053799390793,0.06649740785360336,9.824010848999023,-0.010340117204909651,-0.007452278945584797,0.025262787712383685,-106.25270928536607,75.80839219595651,0,0.8370025157928467,2019-07-25 15:26:42:461
-0.06563769280910492,0.1431293934583664,9.821615219116211,-0.0010167768290266514,-0.008251422328352472,0.02206621418131299,-100.53380761772507,77.87571173814764,0,0.8402519226074219,2019-07-25 15:26:42:464
0.05409979075193405,0.1359451562166214,9.7473783493042,0.004577226980384227,-0.011714376987012389,0.02552917040041886,-102.11471271871858,79.9014122016943,0,0.8433818817138672,2019-07-25 15:26:42:467
-0.14945393800735474,-0.017318829894065857,9.900642395019531,-0.004479731877798059,-0.016509237283618434,0.022865358084229317,-96.48679185400685,74.7061816992117,0,0.8465354442596436,2019-07-25 15:26:42:470
-0.07042719423770905,0.08326065540313721,9.721035957336426,-0.0031478259797776105,-0.010648852476655491,0.023930882594586214,-90.96311795700791,76.80290565154262,0,0.8502814769744873,2019-07-25 15:26:42:474
0.05409979075193405,0.10241865366697311,9.721035957336426,-0.0031478259797776105,-0.006919516690406348,0.02206621418131299,-92.73626053830047,78.85532889659838,0,0.8534159660339355,2019-07-25 15:26:42:477
-0.22608593106269836,0.05212891101837158,9.713851928710938,-0.0068771620261010805,-0.0015918937485103685,0.022865358084229317,-87.30792282363166,80.87327562461925,0,0.8565306663513184,2019-07-25 15:26:42:480
-0.04647969827055931,0.08326065540313721,9.737799644470215,-0.010340117204909651,0.0037357291933856106,0.01860326004280172,-81.96801888987828,82.84818519956757,0,0.8602728843688965,2019-07-25 15:26:42:484
-0.13029593229293823,0.07847116142511368,9.771326065063477,-0.006078018643333406,0.005334016218995283,0.01860326004280172,-76.74487763224816,84.78308999917081,0,0.8634107112884521,2019-07-25 15:26:42:487
-0.09437469393014908,0.15749789774417877,9.857537269592285,-0.004479731877798059,0.0037357291933856106,0.017537735532444823,-71.62161042436222,86.66991225215496,0,0.8665564060211182,2019-07-25 15:26:42:490
-0.07521669566631317,0.13115565478801727,9.891063690185547,-0.004746113005387283,6.393147570099056e-06,0.017804116139885397,-66.59789353126465,88.52232703775803,0,0.8703351020812988,2019-07-25 15:26:42:494
-0.07042719423770905,0.15749789774417877,9.819220542907715,-0.005012494132976508,-0.007452278945584797,0.01966878455315862,-61.672853129551015,90.33437716002709,0,0.8734450340270996,2019-07-25 15:26:42:497
-0.07761144638061523,0.15749789774417877,9.903037071228027,-0.004213350490134509,-0.009583327966298594,0.01434116200137413,-56.84670722224997,92.1102004518642,0,0.8765473365783691,2019-07-25 15:26:42:500
0.03733654320240021,0.17186640202999115,9.855142593383789,-0.004213350490134509,-0.008517803455941695,0.017804116139885397,-59.30363978806826,93.84890094959893,0,0.8802940845489502,2019-07-25 15:26:42:504
-0.19255942106246948,0.047339413315057755,9.876694679260254,-0.005811637515744182,-0.010382471869214918,0.012742875235838782,-54.53808175091757,95.56745130516612,0,0.8834221363067627,2019-07-25 15:26:42:507
-0.07761144638061523,0.1742611527442932,9.828800201416016,-0.006078018643333406,-0.009050565711120145,0.014607542608814701,-49.854787782563214,97.23684924921137,0,0.8865325450897217,2019-07-25 15:26:42:510
0.027757544070482254,0.19102439284324646,9.754562377929688,-0.007143543153690304,-0.004788467669692552,0.012210112980660331,-52.45342408436292,98.87117704518636,0,0.8902783393859863,2019-07-25 15:26:42:514
-0.0800061896443367,0.15989264845848083,9.780904769897461,-0.0036805882349560596,6.393147570099056e-06,0.010878206822565557,-47.81372991965604,100.47567023569044,0,0.8934130668640137,2019-07-25 15:26:42:517
-0.06803244352340698,0.17186640202999115,9.737799644470215,-0.0068771620261010805,0.002137442297813101,0.012742875235838782,-43.26583526653214,102.04713823422777,0,0.8965311050415039,2019-07-25 15:26:42:520
-0.020137449726462364,0.15031364560127258,9.761747360229492,-0.005012494132976508,0.0034693480657963863,0.010345444567387108,-38.80361210730641,103.58960598033532,0,0.9002766609191895,2019-07-25 15:26:42:524
0.05170504003763199,0.14552414417266846,9.76893138885498,-0.0068771620261010805,0.0032029669382071615,0.0156730671191716,-41.62203862663977,105.10195541656871,0,0.9034116268157959,2019-07-25 15:26:42:527
0.03973129391670227,0.1742611527442932,9.778510093688965,-0.004213350490134509,-0.0013255126209211442,0.00981268231220866,-44.38470789941863,106.5802410585058,0,0.9065554141998291,2019-07-25 15:26:42:530
-0.0009794526267796755,0.2149718850851059,9.864721298217773,-0.007942686536457978,-0.00931694735885802,0.012742875235838782,-39.895167049709784,108.02533970725808,0,0.9103028774261475,2019-07-25 15:26:42:534
-0.01774270087480545,0.1742611527442932,9.903037071228027,-0.006078018643333406,-0.010915234124393366,0.011677349685184581,-35.49739597611318,109.44574019255903,0,0.9134368896484375,2019-07-25 15:26:42:537
-0.003374202409759164,0.18384014070034027,9.859931945800781,-0.005012494132976508,-0.011447996379571817,0.012742875235838782,-31.18569752834263,110.83640023786205,0,0.9167702198028564,2019-07-25 15:26:42:541
-0.02492694929242134,0.19820864498615265,9.862326622009277,-0.004479731877798059,-0.01224713924219084,0.013542018098457804,-26.962475470427517,112.19752470601516,0,0.9202666282653809,2019-07-25 15:26:42:544
-0.010558451525866985,0.2413141429424286,9.723430633544922,-0.007409924281279529,-0.006919516690406348,0.013542018098457804,-22.823251237119027,113.52644639084994,0,0.9234042167663574,2019-07-25 15:26:42:547
-0.008163701742887497,0.19102439284324646,9.730615615844727,-0.006344399770922631,-0.0026574183889044294,0.011677349685184581,-18.767279786420673,114.83454144429392,0,0.926539421081543,2019-07-25 15:26:42:550
0.0038100467063486576,0.1742611527442932,9.742588996887207,-0.006344399770922631,-0.0015918937485103685,0.017537735532444823,-21.99115166587272,116.11868903475963,0,0.9302804470062256,2019-07-25 15:26:42:554
0.030152292922139168,0.24370889365673065,9.766536712646484,-0.006610780898511855,-0.002124656003688818,0.012476493588100906,-25.14741653944211,117.3688912822485,0,0.9334180355072021,2019-07-25 15:26:42:557
-0.06803244352340698,0.19341914355754852,9.800063133239746,-0.007143543153690304,-0.0007927503007241136,0.01620582937435005,-21.05228443018235,118.60014934061687,0,0.936532735824585,2019-07-25 15:26:42:560
0.05409979075193405,0.11918190121650696,9.75935173034668,-0.007942686536457978,-0.004788467669692552,0.013808399746195679,-24.223873140920215,119.81583401884173,0,0.9403018951416016,2019-07-25 15:26:42:564
0.07804729044437408,0.2341298907995224,9.859931945800781,-0.003946969362545284,-0.004522086542103327,0.0156730671191716,-27.32953081711747,120.99300541337158,0,0.9434306621551514,2019-07-25 15:26:42:567
-0.03211119771003723,0.10481340438127518,9.847957611083984,-0.006344399770922631,-0.00984970961403647,0.017004973277266376,-23.1849500986178,122.16206172084541,0,0.9465525150299072,2019-07-25 15:26:42:570
0.09241578727960587,0.22934038937091827,9.754562377929688,-0.005278875260565733,-0.010915234124393366,0.017004973277266376,-26.308100159318837,123.29299351414221,0,0.9502966403961182,2019-07-25 15:26:42:574
-0.020137449726462364,0.12397140264511108,9.752167701721191,-0.0010167768290266514,-0.011447996379571817,0.013808399746195679,-22.182290283147317,124.41274621828765,0,0.9534299373626709,2019-07-25 15:26:42:577
-0.027321700006723404,0.09762915223836899,9.795273780822754,-0.005545256388154957,-0.010116090221477043,0.01434116200137413,-18.140079934860925,125.51403557866091,0,0.9565298557281494,2019-07-25 15:26:42:580
-0.029716448858380318,0.08565540611743927,9.776115417480469,-0.005811637515744182,-0.004255705154439777,0.014074780353636254,-14.179862662104245,126.594942503767,0,0.9602916240692139,2019-07-25 15:26:42:584
0.03973129391670227,0.032970912754535675,9.701878547668457,-0.009008211046814877,-0.006653135562817124,0.014074780353636254,-17.490405978362574,127.66072905021653,0,0.9634146690368652,2019-07-25 15:26:42:587
0.027757544070482254,0.06889215856790543,9.75935173034668,-0.007942686536457978,-0.0005263691406255985,0.013275637491017228,-20.737246365709712,128.700818085699,0,0.9665372371673584,2019-07-25 15:26:42:590
0.03254704177379608,0.11918190121650696,9.761747360229492,-0.007143543153690304,-0.0034565617716721033,0.013275637491017228,-23.91795454455883,129.7143127918153,0,0.9702792167663574,2019-07-25 15:26:42:594
0.0708630383014679,0.11918190121650696,9.869510650634766,-0.004746113005387283,-0.0037229428992613276,0.017004973277266376,-27.030711887095805,130.70702573788182,0,0.9734175205230713,2019-07-25 15:26:42:597
0.049310289323329926,0.054523661732673645,9.771326065063477,-0.007143543153690304,-0.004788467669692552,0.0167385916295285,-30.08347682225968,131.68774141066987,0,0.9765346050262451,2019-07-25 15:26:42:600
-0.027321700006723404,0.10241865366697311,9.821615219116211,-0.007409924281279529,-0.00585399218004945,0.014074780353636254,-25.883765142314417,132.6435942549257,0,0.9802761077880859,2019-07-25 15:26:42:604
0.03733654320240021,0.047339413315057755,9.802457809448242,-0.007409924281279529,-0.00984970961403647,0.015406686511731027,-28.95999215454203,133.58649215376838,0,0.9834096431732178,2019-07-25 15:26:42:607
-0.022532200440764427,0.10241865366697311,9.82640552520752,-0.003946969362545284,-0.009583327966298594,0.014873924256552576,-24.781740813482408,134.5035106484281,0,0.986530065536499,2019-07-25 15:26:42:610
-0.020137449726462364,-0.022108329460024834,9.843168258666992,-0.005012494132976508,-0.010648852476655491,0.01434116200137413,-20.686209045547685,128.2170692194919,0,0.9902784824371338,2019-07-25 15:26:42:614
-0.010558451525866985,0.01620766520500183,9.76893138885498,-0.008475448791636427,-0.010382471869214918,0.012742875235838782,-16.67189550927618,129.25231878708706,0,0.9934139251708984,2019-07-25 15:26:42:617
-0.05126919597387314,0.12157665193080902,9.737799644470215,-0.0098073549497312,-0.0013255126209211442,0.010878206822565557,-12.744257140238403,130.25469484106975,0,0.9965527057647705,2019-07-25 15:26:42:620
-0.02492694929242134,0.04973416030406952,9.711457252502441,-0.007676305408868754,-0.002391037261315205,0.010079062919649233,-8.891810732830344,131.24534594584847,0,1.000295877456665,2019-07-25 15:26:42:624
-0.04647969827055931,0.14791889488697052,9.71864128112793,-0.005012494132976508,-0.0013255126209211442,0.009546300664470785,-5.119220709164752,132.20388482531382,0,1.0034418106079102,2019-07-25 15:26:42:627
-0.09437469393014908,0.05691841244697571,9.835984230041504,-0.011672022322707124,-0.00025998799678172854,0.010345444567387108,-1.427785744300503,133.15520036034314,0,1.006530523300171,2019-07-25 15:26:42:630
-0.06084819510579109,0.10481340438127518,9.845562934875488,-0.003946969362545284,-0.005054848797281776,0.007148870516167764,2.19475109555973,134.08072777954644,0,1.0102760791778564,2019-07-25 15:26:42:634
-0.12790118157863617,0.14791889488697052,9.80964183807373,-0.0068771620261010805,-0.00025998799678172854,0.006083346005810866,5.735961886060551,134.98304610989862,0,1.013411521911621,2019-07-25 15:26:42:637
-0.07042719423770905,0.05931315943598747,9.749773025512695,-0.007676305408868754,-0.0071858978179955724,0.002620391347150946,9.214225606283684,135.8777603587158,0,1.0165350437164307,2019-07-25 15:26:42:640
-0.05845344439148903,0.1886296421289444,9.756957054138184,-0.006078018643333406,-0.007452278945584797,0.005284202623043192,12.624641364752751,136.73933076945627,0,1.0202758312225342,2019-07-25 15:26:42:644
-0.08479569107294083,0.19820864498615265,9.773720741271973,-0.0068771620261010805,-0.00585399218004945,0.0028867724747401705,15.963238673274006,137.5825204991693,0,1.0234146118164062,2019-07-25 15:26:42:647
-0.23566491901874542,0.18384014070034027,9.735404968261719,-0.0068771620261010805,-0.005321229924871,0.0004893421638906962,19.217170485769966,138.41043595149924,0,1.0265283584594727,2019-07-25 15:26:42:650
-0.11592743545770645,0.13833990693092346,9.75935173034668,-0.0034142071073668353,-0.002923799516493654,0.002087628961935334,22.419828993372356,139.2267008315693,0,1.0302631855010986,2019-07-25 15:26:42:654
-0.17579618096351624,0.19820864498615265,9.778510093688965,-0.009008211046814877,-0.0007927503007241136,-0.004305518490317544,25.55097293672302,140.02052601773457,0,1.0333938598632812,2019-07-25 15:26:42:657
-0.18058568239212036,0.13115565478801727,9.881484031677246,-0.010340117204909651,-0.0034565617716721033,-0.0016417069543509725,28.619628209656724,140.80674411546065,0,1.0365583896636963,2019-07-25 15:26:42:660
-0.10874319076538086,0.19581389427185059,9.737799644470215,-0.00927459269455275,-0.0026574183889044294,-0.00643656751103134,31.635001937832893,141.56953214162795,0,1.0403270721435547,2019-07-25 15:26:42:664
-0.10874319076538086,0.16707690060138702,9.80964183807373,-0.010340117204909651,-0.003190180644082879,-0.006969329766209789,34.59016047848896,142.3204443315539,0,1.0434584617614746,2019-07-25 15:26:42:667
-0.18298043310642242,0.08086590468883514,9.833589553833008,-0.008741830439374302,-0.008517803455941695,-0.007768473148977463,37.47867821942799,143.06629679906712,0,1.0468902587890625,2019-07-25 15:26:42:671
-0.13987493515014648,0.1167871505022049,9.821615219116211,-0.008209067664047203,-0.004522086542103327,-0.00643656751103134,40.31372515850693,143.79305021830953,0,1.0505883693695068,2019-07-25 15:26:42:674
-0.06324294209480286,0.20539289712905884,9.716246604919434,-0.003946969362545284,-0.004522086542103327,-0.008833997659334361,43.10079322841728,144.49366849559462,0,1.053743839263916,2019-07-25 15:26:42:678
-0.13508543372154236,0.08565540611743927,9.75935173034668,-0.007409924281279529,-0.004255705154439777,-0.008301235404155912,45.82368870930525,145.19508160325253,0,1.0569732189178467,2019-07-25 15:26:42:681
-0.07282194495201111,0.10002390295267105,9.847957611083984,-0.0068771620261010805,-0.0063867544352278986,-0.012030571190405055,48.49991762036268,145.8808079728316,0,1.0602529048919678,2019-07-25 15:26:42:684
-0.06563769280910492,0.13833990693092346,9.807247161865234,-0.0068771620261010805,-0.0037229428992613276,-0.013362477348499829,51.12290626689497,146.54824096069925,0,1.063392162322998,2019-07-25 15:26:42:687
-0.06563769280910492,0.11199765652418137,9.812036514282227,-0.0068771620261010805,-0.00025998799678172854,-0.010432284424869709,53.692828521370416,147.20541038874794,0,1.0665347576141357,2019-07-25 15:26:42:690
-0.03690069913864136,0.05691841244697571,9.881484031677246,-0.007942686536457978,0.002137442297813101,-0.012296952838142932,56.21424358780346,147.85637072033106,0,1.070277214050293,2019-07-25 15:26:42:694
-0.027321700006723404,0.04254991188645363,9.744983673095703,-0.0108728794600881,-0.004522086542103327,-0.010965046680048158,58.68754227358812,148.49615453867335,0,1.073413372039795,2019-07-25 15:26:42:697
0.013389045372605324,0.04254991188645363,9.78808879852295,-0.007143543153690304,-0.0034565617716721033,-0.007768473148977463,53.91596422029285,149.12250101660842,0,1.0765321254730225,2019-07-25 15:26:42:700
-0.02492694929242134,0.006628667004406452,9.852746963500977,-0.006344399770922631,-0.004522086542103327,-0.011231428327786033,56.435696340113324,149.74061359663222,0,1.080275535583496,2019-07-25 15:26:42:704
0.02536279335618019,0.054523661732673645,9.955721855163574,-0.009540973301993326,-0.004522086542103327,-0.010698666072607584,51.71069752691591,150.3412047426266,0,1.0834097862243652,2019-07-25 15:26:42:707
0.0181785449385643,0.01620766520500183,9.82640552520752,-0.006078018643333406,-0.006653135562817124,-0.00989952216969126,47.07978183413801,150.9335670689293,0,1.086564064025879,2019-07-25 15:26:42:710
-0.0009794526267796755,0.03536566346883774,9.687509536743164,-0.007409924281279529,-0.008784185103679572,-0.010965046680048158,49.73992211456241,151.51227448417174,0,1.0903184413909912,2019-07-25 15:26:42:714
0.0181785449385643,0.006628667004406452,9.76893138885498,-0.0098073549497312,-0.004788467669692552,-0.011231428327786033,45.148096902853176,152.0829736052511,0,1.0934457778930664,2019-07-25 15:26:42:717
-0.003374202409759164,0.02339191548526287,9.78808879852295,-0.011938403970444999,-0.004788467669692552,-0.00936675991451281,47.84556995768819,152.64064495754474,0,1.0965328216552734,2019-07-25 15:26:42:720
0.08762628585100174,0.025786664336919785,9.88866901397705,-0.006078018643333406,-0.0015918937485103685,-0.007768473148977463,43.299146857706276,153.186120193341,0,1.1002726554870605,2019-07-25 15:26:42:724
0.0181785449385643,0.07368165999650955,9.737799644470215,-0.010606497812350225,-0.004255705154439777,-0.008034854276566687,38.836052865278646,153.71559591566813,0,1.103410243988037,2019-07-25 15:26:42:727
0.05170504003763199,0.032970912754535675,9.855142593383789,-0.010340117204909651,-0.002923799516493654,-0.003772756235139094,34.465856868474724,154.23926476283512,0,1.1065354347229004,2019-07-25 15:26:42:730
0.08283678442239761,0.011418166570365429,9.778510093688965,-0.004213350490134509,-0.00585399218004945,-0.006170186383442115,30.187475172233167,154.7540254390472,0,1.1102721691131592,2019-07-25 15:26:42:734
0.13073177635669708,-0.02689782902598381,9.862326622009277,-0.008475448791636427,-0.004788467669692552,-0.004305518490317544,25.99975833470142,148.06356349068986,0,1.1134099960327148,2019-07-25 15:26:42:737
0.05409979075193405,-0.01971357874572277,9.85035228729248,-0.005811637515744182,-0.0071858978179955724,-0.007235710893799014,21.887318217400292,141.50560583402705,0,1.1165366172790527,2019-07-25 15:26:42:740
0.06128403916954994,0.06649740785360336,9.816825866699219,-0.008475448791636427,-0.0063867544352278986,-0.0048382807454959926,17.858068216939763,142.26951353564792,0,1.1202809810638428,2019-07-25 15:26:42:744
0.0708630383014679,0.006628667004406452,9.785694122314453,-0.005012494132976508,-0.005054848797281776,-0.006170186383442115,13.910097078197266,143.02423179539664,0,1.1234245300292969,2019-07-25 15:26:42:747
0.08523153513669968,0.01620766520500183,9.752167701721191,-0.007143543153690304,-0.004255705154439777,-0.006170186383442115,10.042662954594249,143.76310676249778,0,1.1265759468078613,2019-07-25 15:26:42:750
0.06128403916954994,0.001839167787693441,9.752167701721191,-0.007942686536457978,-0.005054848797281776,-0.005637424128263666,6.2500731894421016,144.4892980071845,0,1.130319356918335,2019-07-25 15:26:42:754
0.06128403916954994,0.0641026571393013,9.79766845703125,-0.008475448791636427,-0.002923799516493654,-0.004305518490317544,2.532755800058562,145.19351208445946,0,1.1334655284881592,2019-07-25 15:26:42:757
0.022968044504523277,0.018602415919303894,9.766536712646484,-0.007676305408868754,-0.0013255126209211442,-0.0048382807454959926,-1.114958748687449,145.88888218228732,0,1.1367669105529785,2019-07-25 15:26:42:761
0.056494541466236115,0.040155161172151566,9.737799644470215,-0.004746113005387283,-0.002391037261315205,-0.006702948638620565,-4.685541705610459,146.56731182074847,0,1.1402664184570312,2019-07-25 15:26:42:764
-0.03690069913864136,0.03536566346883774,9.78808879852295,-0.008475448791636427,-0.004522086542103327,-0.008833997659334361,-0.9953541665983354,147.23331853435957,0,1.143404245376587,2019-07-25 15:26:42:767
0.07804729044437408,0.01620766520500183,9.828800201416016,-0.007942686536457978,-0.004522086542103327,-0.0048382807454959926,-4.565554644053097,147.8881559032905,0,1.1465284824371338,2019-07-25 15:26:42:770
0.049310289323329926,0.020997164770960808,9.82640552520752,-0.008741830439374302,-0.008251422328352472,-0.00643656751103134,-8.066758408777996,148.52978211534827,0,1.1502728462219238,2019-07-25 15:26:42:774
0.09960003197193146,0.1096029058098793,9.735404968261719,-0.005545256388154957,-0.0063867544352278986,-0.004571899617906768,-11.49257476957003,149.14726318321337,0,1.1534109115600586,2019-07-25 15:26:42:777
0.020573293790221214,0.10002390295267105,9.735404968261719,-0.005278875260565733,-0.008517803455941695,-0.00936675991451281,-14.858806183505436,149.7534717467534,0,1.1565377712249756,2019-07-25 15:26:42:780
0.049310289323329926,0.07128690928220749,9.780904769897461,-0.00927459269455275,-0.004255705154439777,-0.005371043000674441,-18.154958135102234,150.35200078613906,0,1.1602826118469238,2019-07-25 15:26:42:784
0.09481053799390793,0.08326065540313721,9.79766845703125,-0.007409924281279529,-0.004788467669692552,-0.00643656751103134,-21.379928013516015,150.93652666516832,0,1.1634159088134766,2019-07-25 15:26:42:787
0.07565253973007202,0.05212891101837158,9.83837890625,-0.007676305408868754,-0.002124656003688818,-0.005903805255852891,-24.543144698107866,151.51307350777833,0,1.1665456295013428,2019-07-25 15:26:42:790
0.07325778901576996,0.040155161172151566,9.728219985961914,-0.007942686536457978,-0.003989324026850552,-0.007235710893799014,-27.64281387292731,152.07975219706915,0,1.170290470123291,2019-07-25 15:26:42:794
0.0181785449385643,0.11918190121650696,9.776115417480469,-0.005278875260565733,-0.005054848797281776,-0.008034854276566687,-30.68693753139117,152.62511650239327,0,1.1734235286712646,2019-07-25 15:26:42:797
0.07325778901576996,0.05691841244697571,9.80964183807373,-0.006078018643333406,-0.005587611052460225,-0.004571899617906768,-33.66366559295642,153.16702666671137,0,1.1765334606170654,2019-07-25 15:26:42:800
0.027757544070482254,0.10481340438127518,9.85035228729248,-0.007409924281279529,-0.0026574183889044294,-0.007768473148977463,-36.5866030177153,153.69305536413896,0,1.1802875995635986,2019-07-25 15:26:42:804
0.03254704177379608,0.0904449075460434,9.843168258666992,-0.005012494132976508,-0.004788467669692552,-0.009633141562250685,-39.450241462734816,154.20954498541744,0,1.1834135055541992,2019-07-25 15:26:42:807
0.0972052812576294,-0.007739831227809191,9.79766845703125,-0.006610780898511855,-0.005054848797281776,-0.004571899617906768,-42.2489822704312,147.5274177810646,0,1.1865344047546387,2019-07-25 15:26:42:810
0.07325778901576996,0.13833990693092346,9.773720741271973,-0.007143543153690304,-0.005054848797281776,-0.004039137362728319,-44.99435291174144,148.16215003152467,0,1.1902718544006348,2019-07-25 15:26:42:814
0.09241578727960587,0.10481340438127518,9.82640552520752,-0.008741830439374302,-0.00585399218004945,-0.00323999371988632,-47.68265659143819,148.7882263117955,0,1.1934127807617188,2019-07-25 15:26:42:817
0.05170504003763199,0.03057616390287876,9.795273780822754,-0.006610780898511855,-0.0063867544352278986,-0.005637424128263666,-50.321832524918634,149.41004635424372,0,1.1965420246124268,2019-07-25 15:26:42:820
0.0900210365653038,0.061707910150289536,9.771326065063477,-0.005811637515744182,-0.00585399218004945,-0.004305518490317544,-52.90361029323107,150.015828759197,0,1.2002804279327393,2019-07-25 15:26:42:824
0.16665302217006683,0.10720815509557724,9.855142593383789,-0.006344399770922631,-0.006120373307638673,-0.004039137362728319,-55.4250846833291,150.60416391210632,0,1.203415870666504,2019-07-25 15:26:42:827
0.08762628585100174,0.1096029058098793,9.780904769897461,-0.007143543153690304,-0.0007927503007241136,-0.0029736125922970955,-57.906178301658954,151.18049103405832,0,1.2065341472625732,2019-07-25 15:26:42:830
0.056494541466236115,0.14073464274406433,9.76893138885498,-0.008209067664047203,-0.0018582748760995933,-0.004305518490317544,-60.34103721539725,151.7420997042525,0,1.2102782726287842,2019-07-25 15:26:42:834
0.07804729044437408,0.15031364560127258,9.783299446105957,-0.006344399770922631,-0.002391037261315205,-0.0021744692095294216,-62.724653538569534,152.29077121321,0,1.2134175300598145,2019-07-25 15:26:42:837
0.12833702564239502,0.10720815509557724,9.766536712646484,-0.005811637515744182,-0.006120373307638673,-0.004571899617906768,-65.05402420718549,152.8334022750993,0,1.2165579795837402,2019-07-25 15:26:42:840
0.11875803023576736,0.08565540611743927,9.771326065063477,-0.005545256388154957,-0.002923799516493654,-0.003772756235139094,-67.33840309561583,153.36785422129674,0,1.2202990055084229,2019-07-25 15:26:42:844
0.14749503135681152,0.1287609040737152,9.919800758361816,-0.006078018643333406,-0.006653135562817124,0.0012884855791676607,-69.57342290095552,153.8866972505093,0,1.2234444618225098,2019-07-25 15:26:42:847
0.03254704177379608,0.1096029058098793,9.812036514282227,-0.008475448791636427,-0.002923799516493654,-0.0005761824439940741,-71.77764702218947,154.3976315351596,0,1.2265288829803467,2019-07-25 15:26:42:850
0.0708630383014679,0.06889215856790543,9.7473783493042,-0.004213350490134509,-0.004255705154439777,0.0012884855791676607,-73.93286690343152,154.90246762268114,0,1.230280876159668,2019-07-25 15:26:42:854
0.13073177635669708,0.10002390295267105,9.723430633544922,-0.004213350490134509,-0.009583327966298594,-0.0005761824439940741,-76.03711502787692,155.39337317400913,0,1.2334189414978027,2019-07-25 15:26:42:857
0.0900210365653038,0.09762915223836899,9.75935173034668,-0.006344399770922631,-0.003190180644082879,0.0012884855791676607,-78.10524520797114,155.8751520701089,0,1.2365329265594482,2019-07-25 15:26:42:860
0.0636787861585617,0.06649740785360336,9.771326065063477,-0.005811637515744182,-0.005054848797281776,0.0023540102195617214,-80.13460922021494,156.3510733500051,0,1.2402794361114502,2019-07-25 15:26:42:864
0.042126040905714035,0.07847116142511368,9.675536155700684,-0.007409924281279529,-0.004255705154439777,-0.0013753258267617478,-82.12617792067522,156.81606424919923,0,1.2434179782867432,2019-07-25 15:26:42:867
0.16665302217006683,0.061707910150289536,9.709062576293945,-0.0036805882349560596,-0.005054848797281776,0.005017821495453967,-84.06310310378727,157.27310356359558,0,1.2465322017669678,2019-07-25 15:26:42:870
0.03254704177379608,0.07128690928220749,9.790483474731445,-0.007942686536457978,-0.00585399218004945,0.002087628961935334,-85.97680037980717,157.72096849977513,0,1.2502779960632324,2019-07-25 15:26:42:874
0.08523153513669968,0.07847116142511368,9.79766845703125,-0.005012494132976508,-0.0005263691406255985,0.003952296985097069,-87.84720334638487,158.15825490936334,0,1.2534167766571045,2019-07-25 15:26:42:877
0.042126040905714035,0.15749789774417877,9.756957054138184,-0.006610780898511855,-0.0063867544352278986,0.003952296985097069,-89.68418846862801,158.57775662768782,0,1.2565491199493408,2019-07-25 15:26:42:880
0.10438953340053558,0.1167871505022049,9.795273780822754,-0.005012494132976508,-0.0037229428992613276,0.0028867724747401705,-91.4775102548878,158.99359346744038,0,1.2602934837341309,2019-07-25 15:26:42:884
0.11875803023576736,0.12397140264511108,9.792879104614258,-0.005545256388154957,-0.006120373307638673,0.005816964878221641,-93.23298737280311,159.40019151042648,0,1.2634270191192627,2019-07-25 15:26:42:887
0.17623202502727509,0.0641026571393013,9.642009735107422,-0.007409924281279529,-0.003989324026850552,0.0018212478343461098,-94.94667292246555,159.80589293808794,0,1.2666079998016357,2019-07-25 15:26:42:890
0.07325778901576996,0.07847116142511368,9.876694679260254,-0.005278875260565733,-0.006653135562817124,0.006882489388578539,-96.63784334853042,160.20177911059733,0,1.2703468799591064,2019-07-25 15:26:42:894
0.11875803023576736,0.028181415051221848,9.735404968261719,-0.006344399770922631,-0.002391037261315205,0.005017821495453967,-98.29068778471174,160.59554312246155,0,1.2734816074371338,2019-07-25 15:26:42:897
0.0708630383014679,0.10481340438127518,9.855142593383789,-0.007409924281279529,-0.002923799516493654,0.00634972713340009,-99.9160995226481,160.97280128359165,0,1.276740312576294,2019-07-25 15:26:42:901
0.06607353687286377,0.08565540611743927,9.728219985961914,-0.004479731877798059,-0.0026574183889044294,0.008214395546673314,-101.50946945763884,161.3441412678275,0,1.2802600860595703,2019-07-25 15:26:42:904
0.027757544070482254,0.06889215856790543,9.881484031677246,-0.006344399770922631,-0.0037229428992613276,0.005816964878221641,-103.07540396132583,161.71038936190473,0,1.2834038734436035,2019-07-25 15:26:42:907
0.15228453278541565,0.04973416030406952,9.864721298217773,-0.006610780898511855,-0.0007927503007241136,0.006083346005810866,-104.59606805118551,162.07156688594156,0,1.2865357398986816,2019-07-25 15:26:42:910
0.0972052812576294,0.11199765652418137,9.835984230041504,-0.006344399770922631,-0.004255705154439777,0.005017821495453967,-106.0919285806465,162.41842064101274,0,1.290276288986206,2019-07-25 15:26:42:914
0.06128403916954994,0.0904449075460434,9.752167701721191,-0.0068771620261010805,-0.004522086542103327,0.0028867724747401705,-107.56209214274476,162.7606367848013,0,1.29341459274292,2019-07-25 15:26:42:917
0.0636787861585617,0.061707910150289536,9.756957054138184,-0.005012494132976508,-0.0071858978179955724,0.005017821495453967,-109.0021142684213,163.09905383615327,0,1.2965307235717773,2019-07-25 15:26:42:920
0.06607353687286377,0.13355040550231934,9.740194320678711,-0.005278875260565733,-0.005321229924871,0.00981268231220866,-110.41318069348219,163.42247087174496,0,1.3002724647521973,2019-07-25 15:26:42:924
0.0972052812576294,0.0641026571393013,9.780904769897461,-0.005278875260565733,-0.006120373307638673,0.007415251643756989,-111.79244881074727,163.74744309701964,0,1.3034157752990723,2019-07-25 15:26:42:927
0.07804729044437408,0.09283965826034546,9.802457809448242,-0.004479731877798059,-0.0037229428992613276,0.006083346005810866,-113.14682019359702,164.06243092259874,0,1.3065540790557861,2019-07-25 15:26:42:930
0.042126040905714035,0.06649740785360336,9.756957054138184,-0.004479731877798059,-0.0026574183889044294,0.009279920057030211,-114.47837181191106,164.37432412925565,0,1.3103370666503906,2019-07-25 15:26:42:934
0.08523153513669968,0.07368165999650955,9.780904769897461,-0.006078018643333406,-0.002391037261315205,0.009279920057030211,-115.77840147399169,164.6792668199666,0,1.3134472370147705,2019-07-25 15:26:42:937
0.05409979075193405,0.07368165999650955,9.864721298217773,-0.007676305408868754,-0.002391037261315205,0.007948014419084088,-117.0561345942323,164.97845335423077,0,1.3165347576141357,2019-07-25 15:26:42:940
0.12354753166437149,0.05691841244697571,9.802457809448242,-0.006610780898511855,-0.002124656003688818,0.008214395546673314,-118.30012301471145,165.2736208810218,0,1.3202803134918213,2019-07-25 15:26:42:944
0.05888928845524788,0.10241865366697311,9.82640552520752,-0.007143543153690304,-0.002923799516493654,0.008214395546673314,-119.52673845786752,165.55746290176285,0,1.323415756225586,2019-07-25 15:26:42:947
0.05170504003763199,0.05691841244697571,9.91740608215332,-0.007676305408868754,-0.004522086542103327,0.010878206822565557,-120.7294382671632,165.84108004972975,0,1.3265316486358643,2019-07-25 15:26:42:950
0.0900210365653038,0.10720815509557724,9.852746963500977,-0.005012494132976508,-0.005054848797281776,0.007415251643756989,-121.90331802364553,166.11284323412258,0,1.330273151397705,2019-07-25 15:26:42:954
0.12354753166437149,0.07607641071081161,9.7473783493042,-0.004746113005387283,-0.004788467669692552,0.008214395546673314,-123.04988562715577,166.3824778406007,0,1.3334062099456787,2019-07-25 15:26:42:957
0.03973129391670227,0.09523440897464752,9.812036514282227,-0.0036805882349560596,-0.003989324026850552,0.007415251643756989,-124.18354642107796,166.64435366563828,0,1.3365375995635986,2019-07-25 15:26:42:960
0.1163632795214653,0.14791889488697052,9.680325508117676,-0.005545256388154957,-0.004522086542103327,0.008480776674262537,-125.28515088010808,166.89512373896187,0,1.3402817249298096,2019-07-25 15:26:42:964
0.0972052812576294,0.05691841244697571,9.773720741271973,-0.007676305408868754,-0.003989324026850552,0.010079062919649233,-126.36734825412985,167.1519010591237,0,1.3434209823608398,2019-07-25 15:26:42:967
0.042126040905714035,0.09283965826034546,9.697088241577148,-0.003946969362545284,-0.002124656003688818,0.013009255843279357,-127.43464944009337,167.39858681541904,0,1.3465542793273926,2019-07-25 15:26:42:970
0.05888928845524788,0.10720815509557724,9.903037071228027,-0.005012494132976508,-0.0005263691406255985,0.011943731332922456,-128.47903160433304,167.63926371333667,0,1.3502976894378662,2019-07-25 15:26:42:974
0.05409979075193405,0.11199765652418137,9.824010848999023,-0.007143543153690304,-0.0005263691406255985,0.013275637491017228,-129.50304714791497,167.87468337787791,0,1.3534595966339111,2019-07-25 15:26:42:977
0.0636787861585617,0.14073464274406433,9.824010848999023,-0.007409924281279529,-0.0026574183889044294,0.008480776674262537,-130.5050618699124,168.10215983111152,0,1.356788158416748,2019-07-25 15:26:42:981
0.12115278095006943,0.06649740785360336,9.728219985961914,-0.007143543153690304,-0.0034565617716721033,0.01434116200137413,-131.48001395500367,168.33368187335512,0,1.3602735996246338,2019-07-25 15:26:42:984
0.10199478268623352,0.10241865366697311,9.843168258666992,-0.005811637515744182,-0.0037229428992613276,0.008214395546673314,-132.43788404881792,168.5561095350494,0,1.3634121417999268,2019-07-25 15:26:42:987
0.05170504003763199,0.08565540611743927,9.807247161865234,-0.005012494132976508,-0.005587611052460225,0.011677349685184581,-133.38210457896437,168.7758588200087,0,1.366537094116211,2019-07-25 15:26:42:990
0.08523153513669968,0.07847116142511368,9.83837890625,-0.0068771620261010805,-0.003989324026850552,0.00981268231220866,-134.30369732574275,168.99264686516597,0,1.3702788352966309,2019-07-25 15:26:42:994
0.08762628585100174,0.11918190121650696,9.819220542907715,-0.005811637515744182,-0.006919516690406348,0.010611825174827684,-135.206177021958,169.1999110416188,0,1.373420238494873,2019-07-25 15:26:42:997
0.006204796489328146,0.08086590468883514,9.795273780822754,-0.005545256388154957,-0.005054848797281776,0.011144587430006132,-136.10044173409403,169.40742462422054,0,1.3765413761138916,2019-07-25 15:26:43:000
0.027757544070482254,0.11918190121650696,9.859931945800781,-0.002348682597009937,-0.0026574183889044294,0.012210112980660331,-136.97464883668766,169.60591882008234,0,1.380281686782837,2019-07-25 15:26:43:004
0.07804729044437408,0.10002390295267105,9.740194320678711,-0.004479731877798059,-0.005054848797281776,0.012210112980660331,-137.82508238526702,169.80282334984028,0,1.3834228515625,2019-07-25 15:26:43:007
-0.010558451525866985,0.07847116142511368,9.756957054138184,-0.006344399770922631,-0.005321229924871,0.013542018098457804,-131.46888331641597,169.9986686831148,0,1.3865604400634766,2019-07-25 15:26:43:010
0.11157378554344177,0.09523440897464752,9.730615615844727,-0.005811637515744182,0.001871061170223876,0.012476493588100906,-132.42675978914093,170.18870095903023,0,1.3903005123138428,2019-07-25 15:26:43:014
0.001415297039784491,0.12157665193080902,9.819220542907715,-0.006078018643333406,-0.0018582748760995933,0.010079062919649233,-133.37773249228485,170.3718088454376,0,1.3934338092803955,2019-07-25 15:26:43:017
0.0636787861585617,0.08326065540313721,9.761747360229492,-0.005012494132976508,-0.0034565617716721033,0.00981268231220866,-134.30210059528625,170.55547235302112,0,1.3965365886688232,2019-07-25 15:26:43:020
0.042126040905714035,0.15749789774417877,9.761747360229492,-0.006344399770922631,-0.002124656003688818,0.010611825174827684,-135.2106644751536,170.7272169349651,0,1.4003005027770996,2019-07-25 15:26:43:024
0.0900210365653038,0.054523661732673645,9.807247161865234,-0.005278875260565733,-0.0071858978179955724,0.010611825174827684,-136.09466980186698,170.90722994049125,0,1.4034314155578613,2019-07-25 15:26:43:027
0.07325778901576996,0.12157665193080902,9.795273780822754,-0.005012494132976508,-0.006653135562817124,0.012210112980660331,-136.96304691753284,171.07573678346907,0,1.4065351486206055,2019-07-25 15:26:43:030
0.07325778901576996,0.047339413315057755,9.819220542907715,-0.0068771620261010805,-0.006120373307638673,0.008214395546673314,-137.81394975137908,171.25014378129754,0,1.410280466079712,2019-07-25 15:26:43:034
0.05170504003763199,0.13355040550231934,9.814431190490723,-0.00208230133938355,-0.003989324026850552,0.010345444567387108,-138.6509300956455,171.40991608304552,0,1.4134221076965332,2019-07-25 15:26:43:037
0.07325778901576996,0.0641026571393013,9.843168258666992,-0.004213350490134509,-0.004255705154439777,0.008747157801851762,-139.4686404882781,171.57499049876847,0,1.4165301322937012,2019-07-25 15:26:43:040
0.04691554233431816,0.10481340438127518,9.740194320678711,-0.002881444852188386,-0.005321229924871,0.011677349685184581,-140.2726303569844,171.7317653737182,0,1.420271396636963,2019-07-25 15:26:43:044
-0.02492694929242134,0.10002390295267105,9.874300003051758,-0.005811637515744182,-0.004788467669692552,0.009546300664470785,-133.86922659431414,171.8865469133832,0,1.423410177230835,2019-07-25 15:26:43:047
0.0445207916200161,0.061707910150289536,9.778510093688965,-0.007676305408868754,-0.002391037261315205,0.008480776674262537,-134.7862060577442,172.04292915942008,0,1.4265294075012207,2019-07-25 15:26:43:050
0.006204796489328146,0.09523440897464752,9.749773025512695,-0.006078018643333406,-0.003190180644082879,0.010345444567387108,-135.68908165106356,172.1921562359356,0,1.4302754402160645,2019-07-25 15:26:43:054
0.034941792488098145,0.10002390295267105,9.740194320678711,-0.005545256388154957,-0.004522086542103327,0.009279920057030211,-136.57039264105998,172.3375226883008,0,1.4334125518798828,2019-07-25 15:26:43:057
-0.05126919597387314,0.11439239978790283,9.869510650634766,-0.004213350490134509,-0.004255705154439777,0.007148870516167764,-130.24418568451816,172.47823537546014,0,1.436558485031128,2019-07-25 15:26:43:060
0.02536279335618019,0.08086590468883514,9.721035957336426,-0.005278875260565733,-0.004522086542103327,0.007415251643756989,-131.23536085806353,172.62024898259767,0,1.440305233001709,2019-07-25 15:26:43:064
0.07325778901576996,0.08565540611743927,9.773720741271973,-0.005545256388154957,-0.004255705154439777,0.005550583750632416,-132.20131457611538,172.75877908573867,0,1.4434444904327393,2019-07-25 15:26:43:067
0.03733654320240021,0.10481340438127518,9.764142036437988,-0.004213350490134509,-0.004255705154439777,0.008747157801851762,-133.15216877648297,172.89203350585186,0,1.4465317726135254,2019-07-25 15:26:43:070
0.08283678442239761,0.10720815509557724,9.733010292053223,-0.002881444852188386,-0.004788467669692552,0.007681633291494863,-134.07836513539488,173.02217758765647,0,1.450279712677002,2019-07-25 15:26:43:074
0.034941792488098145,0.10241865366697311,9.821615219116211,-0.0031478259797776105,-0.002391037261315205,0.007948014419084088,-134.99229969082262,173.1503397748575,0,1.453418493270874,2019-07-25 15:26:43:077
0.008599545806646347,0.1359451562166214,9.752167701721191,-0.005545256388154957,-0.0026574183889044294,0.005816964878221641,-135.89097810733935,173.27233051009142,0,1.4565355777740479,2019-07-25 15:26:43:080
-0.07761144638061523,0.08326065540313721,9.699483871459961,-0.003946969362545284,-0.0007927503007241136,0.004751440367864743,-129.58216104378758,173.39787639696354,0,1.460275411605835,2019-07-25 15:26:43:084
0.020573293790221214,0.07847116142511368,9.82640552520752,-0.008209067664047203,-0.003989324026850552,0.005017821495453967,-130.58741524497853,173.5222155174342,0,1.4634156227111816,2019-07-25 15:26:43:087
0.06846828758716583,0.07128690928220749,9.735404968261719,-0.006610780898511855,-0.003190180644082879,0.004485059240275518,-131.56705001390807,173.64453661947368,0,1.4665303230285645,2019-07-25 15:26:43:090
-0.0009794526267796755,0.10241865366697311,9.756957054138184,-0.006078018643333406,-0.0013255126209211442,0.005017821495453967,-125.33554538108255,173.76089546233376,0,1.4702744483947754,2019-07-25 15:26:43:094
0.07325778901576996,0.05691841244697571,9.88866901397705,-0.005012494132976508,-0.0037229428992613276,0.00341953472991862,-126.41969010099342,173.87996409635605,0,1.4734091758728027,2019-07-25 15:26:43:097
0.049310289323329926,0.0377604141831398,9.802457809448242,-0.007143543153690304,-0.004522086542103327,0.002087628961935334,-127.48473355874455,173.9992118045808,0,1.4765534400939941,2019-07-25 15:26:43:100
0.008599545806646347,0.07607641071081161,9.78808879852295,-0.005278875260565733,-0.004255705154439777,0.0031531536023293957,-128.5331370331235,174.11143157949328,0,1.4802992343902588,2019-07-25 15:26:43:104
0.11396853625774384,0.12636615335941315,9.754562377929688,-0.003946969362545284,-0.004255705154439777,0.003952296985097069,-129.54833660329376,174.21505439909657,0,1.4834372997283936,2019-07-25 15:26:43:107
0.03733654320240021,0.06649740785360336,9.76893138885498,-0.005545256388154957,-0.004255705154439777,0.0042186781126862935,-130.5522045410252,174.32397692886917,0,1.4867253303527832,2019-07-25 15:26:43:111
0.042126040905714035,0.09762915223836899,9.824010848999023,-0.005012494132976508,0.0005391554347498812,0.0007557233239892114,-131.53635908085346,174.42715453515942,0,1.4904370307922363,2019-07-25 15:26:43:114
-0.027321700006723404,0.15031364560127258,9.704273223876953,-0.003946969362545284,-0.0026574183889044294,0.0036859158575078444,-125.3083897866053,174.5215589084145,0,1.4935758113861084,2019-07-25 15:26:43:117
0.006204796489328146,0.1551031470298767,9.752167701721191,-0.006344399770922631,-0.0026574183889044294,0.0023540102195617214,-126.40101324259633,174.61404923543452,0,1.4967904090881348,2019-07-25 15:26:43:121
-0.022532200440764427,0.16468214988708496,9.709062576293945,-0.007942686536457978,0.001071917722437621,0.0015548667067568852,-120.2758599590156,174.70387182851496,0,1.5002398490905762,2019-07-25 15:26:43:124
0.0445207916200161,0.1287609040737152,9.828800201416016,-0.005811637515744182,0.0005391554347498812,0.002087628961935334,-121.4652471756804,174.79580681139473,0,1.5033762454986572,2019-07-25 15:26:43:127
0.015783796086907387,0.09762915223836899,9.881484031677246,-0.0068771620261010805,-0.003190180644082879,0.0042186781126862935,-122.63354584855821,174.88978953434724,0,1.5065360069274902,2019-07-25 15:26:43:130
0.06607353687286377,0.10481340438127518,9.780904769897461,-0.007409924281279529,-0.007452278945584797,-0.0011089446991725232,-123.77156816593423,174.98127134962346,0,1.5102779865264893,2019-07-25 15:26:43:134
0.05888928845524788,0.13833990693092346,9.7473783493042,-0.008475448791636427,-0.002923799516493654,0.0015548667067568852,-124.88869750366139,175.06688014675072,0,1.5134227275848389,2019-07-25 15:26:43:137
0.042126040905714035,0.04494466260075569,9.859931945800781,-0.004746113005387283,-0.008251422328352472,-0.0011089446991725232,-125.98458352338355,175.16114982035924,0,1.5165398120880127,2019-07-25 15:26:43:140
-0.02492694929242134,0.07847116142511368,9.773720741271973,-0.006610780898511855,-0.006120373307638673,-4.3420127860704935e-05,-119.86652843408184,175.25011570687116,0,1.5202817916870117,2019-07-25 15:26:43:144
0.03973129391670227,0.08326065540313721,9.857537269592285,-0.006344399770922631,-0.00585399218004945,0.0018212478343461098,-121.06354891140526,175.33655138851492,0,1.52341628074646,2019-07-25 15:26:43:147
0.022968044504523277,0.06649740785360336,9.82640552520752,-0.004479731877798059,-0.002923799516493654,0.0015548667067568852,-122.23908435777354,175.42285509838186,0,1.5265541076660156,2019-07-25 15:26:43:150
0.0038100467063486576,0.10481340438127518,9.814431190490723,-0.009540973301993326,-0.002391037261315205,0.003952296985097069,-123.39335037410976,175.50418548471995,0,1.5303337574005127,2019-07-25 15:26:43:154
0.022968044504523277,0.11918190121650696,9.76893138885498,-0.005012494132976508,-0.003190180644082879,-4.3420127860704935e-05,-124.52223158406417,175.58099828658925,0,1.5334465503692627,2019-07-25 15:26:43:157
0.03254704177379608,0.032970912754535675,9.761747360229492,-0.007942686536457978,-0.002923799516493654,0.002620391347150946,-125.62746030236349,175.66688256948592,0,1.5365288257598877,2019-07-25 15:26:43:160
0.07565253973007202,0.14791889488697052,9.771326065063477,-0.007143543153690304,-0.002923799516493654,-4.3420127860704935e-05,-126.70542386993598,175.73770283067222,0,1.5402772426605225,2019-07-25 15:26:43:164
0.05888928845524788,0.13355040550231934,9.776115417480469,-0.005545256388154957,-0.002391037261315205,0.00341953472991862,-127.76399278954375,175.8082694174758,0,1.5434050559997559,2019-07-25 15:26:43:167
0.042126040905714035,0.07128690928220749,9.828800201416016,-0.009008211046814877,-0.004255705154439777,0.0018212478343461098,-128.8029570987883,175.88558058147936,0,1.5469391345977783,2019-07-25 15:26:43:171
-0.008163701742887497,0.10241865366697311,9.845562934875488,-0.005278875260565733,-0.006120373307638673,0.0015548667067568852,-122.62669989214021,175.9569393495466,0,1.5502803325653076,2019-07-25 15:26:43:174
0.06607353687286377,0.05931315943598747,9.754562377929688,-0.005811637515744182,-0.005587611052460225,0.0012884855791676607,-123.76541829051475,176.0318581115413,0,1.553422212600708,2019-07-25 15:26:43:177
-0.010558451525866985,0.10002390295267105,9.790483474731445,-0.002881444852188386,-0.003989324026850552,-0.0003098012838955588,-117.69064247865609,176.10002212448296,0,1.5565617084503174,2019-07-25 15:26:43:180
0.020573293790221214,0.054523661732673645,9.800063133239746,-0.009540973301993326,-0.004522086542103327,0.0018212478343461098,-118.93347398756535,176.1736507423753,0,1.5603032112121582,2019-07-25 15:26:43:184
-0.027321700006723404,0.10720815509557724,9.673141479492188,-0.006610780898511855,-0.004255705154439777,0.0018212478343461098,-112.9572901813781,176.2386444926864,0,1.563445806503296,2019-07-25 15:26:43:187
0.042126040905714035,0.12636615335941315,9.821615219116211,-0.006344399770922631,-0.0015918937485103685,0.0012884855791676607,-114.29294952433197,176.30024452258397,0,1.566577434539795,2019-07-25 15:26:43:190
0.0445207916200161,0.04973416030406952,9.773720741271973,-0.005545256388154957,-0.006120373307638673,0.002087628961935334,-115.60058405019664,176.36957441376717,0,1.5703215599060059,2019-07-25 15:26:43:194
0.10917903482913971,0.06649740785360336,9.766536712646484,-0.005278875260565733,-0.002923799516493654,0.002620391347150946,-116.87524679872999,176.4353125546192,0,1.5734648704528809,2019-07-25 15:26:43:197
0.020573293790221214,0.025786664336919785,9.773720741271973,-0.006610780898511855,-0.003190180644082879,0.003952296985097069,-118.1346597643833,176.50497134697522,0,1.5772051811218262,2019-07-25 15:26:43:201
0.027757544070482254,0.05931315943598747,9.754562377929688,-0.008741830439374302,-0.005321229924871,0.002087628961935334,-119.36778033537911,176.5694245180295,0,1.5803024768829346,2019-07-25 15:26:43:204
0.020573293790221214,0.06649740785360336,9.78808879852295,-0.005012494132976508,-0.006919516690406348,0.004485059240275518,-120.57680314031451,176.63112984790544,0,1.5834245681762695,2019-07-25 15:26:43:207
0.03254704177379608,0.08086590468883514,9.778510093688965,-0.005811637515744182,-0.005587611052460225,0.0023540102195617214,-121.76045707912152,176.6900668708372,0,1.5865988731384277,2019-07-25 15:26:43:210
-0.012953201308846474,0.1167871505022049,9.819220542907715,-0.007676305408868754,-0.007985041200763246,0.001022104451578436,-115.72510696249088,176.74422569788425,0,1.590284824371338,2019-07-25 15:26:43:214
0.0181785449385643,0.1096029058098793,9.802457809448242,-0.008475448791636427,-0.007985041200763246,0.007148870516167764,-117.00707254487446,176.79802266310173,0,1.5934233665466309,2019-07-25 15:26:43:217
-0.005768951959908009,0.10241865366697311,9.685114860534668,-0.009008211046814877,-0.003989324026850552,0.003952296985097069,-111.066900799979,176.85155446889553,0,1.5966057777404785,2019-07-25 15:26:43:220
0.0038100467063486576,0.08326065540313721,9.749773025512695,-0.005278875260565733,-0.003190180644082879,0.0028867724747401705,-112.44445732684854,176.9058260161441,0,1.6002771854400635,2019-07-25 15:26:43:224
0.020573293790221214,0.06889215856790543,9.737799644470215,-0.011139260067528673,-0.0034565617716721033,0.005284202623043192,-113.79254053260678,176.9615576095469,0,1.603402853012085,2019-07-25 15:26:43:227
-0.05126919597387314,0.08565540611743927,9.835984230041504,-0.008209067664047203,-0.0005263691406255985,0.006616108260989315,-107.9225757315745,177.01370322028555,0,1.6063437461853027,2019-07-25 15:26:43:230
0.034941792488098145,0.14791889488697052,9.701878547668457,-0.007143543153690304,-0.006653135562817124,0.002620391347150946,-109.35878906325824,177.05725655161757,0,1.6095776557922363,2019-07-25 15:26:43:233
-0.05126919597387314,0.12636615335941315,9.876694679260254,-0.005278875260565733,-0.0071858978179955724,0.0036859158575078444,-103.57578037440638,177.1027594556431,0,1.6139922142028809,2019-07-25 15:26:43:238
0.02536279335618019,0.12397140264511108,9.790483474731445,-0.006344399770922631,-0.006919516690406348,0.0031531536023293957,-105.1000223297263,177.14736296172336,0,1.6172709465026855,2019-07-25 15:26:43:241
-0.05126919597387314,0.15749789774417877,9.756957054138184,-0.005811637515744182,-0.007718660073174022,0.0042186781126862935,-99.40273067914474,177.18690804373998,0,1.6202993392944336,2019-07-25 15:26:43:244
-0.03211119771003723,0.08326065540313721,9.831194877624512,-0.007942686536457978,-0.007718660073174022,0.004485059240275518,-93.81706165278896,177.23486197061925,0,1.6234309673309326,2019-07-25 15:26:43:247
-0.022532200440764427,0.07847116142511368,9.646799087524414,-0.007143543153690304,-0.00585399218004945,0.0028867724747401705,-88.34241734540633,177.282038970536,0,1.6264111995697021,2019-07-25 15:26:43:250
-0.06084819510579109,0.15270839631557465,9.76893138885498,-0.007676305408868754,-0.004255705154439777,0.005816964878221641,-82.98192606627454,177.31989440761822,0,1.6296772956848145,2019-07-25 15:26:43:254
-0.03690069913864136,0.14552414417266846,9.771326065063477,-0.008475448791636427,-0.003989324026850552,0.004751440367864743,-77.72564038914953,177.35850225852792,0,1.6340281963348389,2019-07-25 15:26:43:258
-0.08719044178724289,0.1287609040737152,9.881484031677246,-0.007942686536457978,-0.0037229428992613276,0.0042186781126862935,-72.5805558364146,177.3978574760991,0,1.6372935771942139,2019-07-25 15:26:43:261
-0.027321700006723404,0.1287609040737152,9.847957611083984,-0.006610780898511855,-0.0026574183889044294,0.0042186781126862935,-67.53167307425969,177.4360399343735,0,1.6403148174285889,2019-07-25 15:26:43:264
-0.03929544612765312,0.09762915223836899,9.79766845703125,-0.007676305408868754,-0.006919516690406348,0.0018212478343461098,-62.584419051156296,177.47725050136273,0,1.6434457302093506,2019-07-25 15:26:43:267
-0.03929544612765312,0.12397140264511108,9.802457809448242,-0.008475448791636427,-0.006919516690406348,0.002620391347150946,-57.736170019622925,177.5146277558121,0,1.6464166641235352,2019-07-25 15:26:43:270
-0.020137449726462364,0.10002390295267105,9.740194320678711,-0.007143543153690304,-0.003989324026850552,0.00341953472991862,-52.98308494459211,177.55387661576884,0,1.649679183959961,2019-07-25 15:26:43:274
-0.056058697402477264,0.10720815509557724,9.821615219116211,-0.007143543153690304,-0.010116090221477043,0.007681633291494863,-48.32749001308644,177.59203811296507,0,1.65403413772583,2019-07-25 15:26:43:278
-0.056058697402477264,0.12397140264511108,9.75935173034668,-0.006610780898511855,-0.00585399218004945,0.0028867724747401705,-43.76666143961143,177.6266140178653,0,1.6566534042358398,2019-07-25 15:26:43:280
-0.11592743545770645,0.14552414417266846,9.766536712646484,-0.006610780898511855,-0.005587611052460225,0.00341953472991862,-39.30379647541677,177.65834895207578,0,1.660264492034912,2019-07-25 15:26:43:284
-0.0800061896443367,0.13355040550231934,9.704273223876953,-0.008475448791636427,-0.00585399218004945,-0.0005761824439940741,-34.92611448016009,177.6909377878909,0,1.663468837738037,2019-07-25 15:26:43:287
-0.08479569107294083,0.13115565478801727,9.83837890625,-0.009540973301993326,-0.0026574183889044294,0.0012884855791676607,-30.63702111745235,177.72344974472978,0,1.6664667129516602,2019-07-25 15:26:43:290
-0.0800061896443367,0.14552414417266846,9.831194877624512,-0.009540973301993326,-0.002124656003688818,0.002620391347150946,-26.433165784183476,177.75399638960454,0,1.6701562404632568,2019-07-25 15:26:43:294
-0.1063484400510788,0.1622873991727829,9.790483474731445,-0.006078018643333406,-0.004255705154439777,-4.3420127860704935e-05,-22.316214184947555,177.78097351125223,0,1.6732330322265625,2019-07-25 15:26:43:297
0.001415297039784491,0.13833990693092346,9.776115417480469,-0.008475448791636427,-0.005054848797281776,0.0042186781126862935,-25.46862477252141,177.8109825760138,0,1.6771059036254883,2019-07-25 15:26:43:301
-0.09916418790817261,0.10241865366697311,9.756957054138184,-0.005811637515744182,-0.004522086542103327,-0.0008425635715832987,-21.37003486071738,177.84384438607708,0,1.6805064678192139,2019-07-25 15:26:43:304
-0.08479569107294083,0.11439239978790283,9.807247161865234,-0.009008211046814877,-0.00931694735885802,0.0007557233239892114,-17.350378114544704,177.87569401894882,0,1.6846423149108887,2019-07-25 15:26:43:308
-0.027321700006723404,0.13833990693092346,9.802457809448242,-0.011139260067528673,-0.007718660073174022,-0.0005761824439940741,-13.40551153067139,177.90352872541257,0,1.6870718002319336,2019-07-25 15:26:43:311
-0.03211119771003723,0.16707690060138702,9.804852485656738,-0.007143543153690304,-0.007985041200763246,0.0042186781126862935,-9.539489273449146,177.9274228458993,0,1.6907851696014404,2019-07-25 15:26:43:315
-0.11113794147968292,0.09523440897464752,9.835984230041504,-0.006610780898511855,-0.006120373307638673,-0.0011089446991725232,-5.760565482529721,177.95894763010887,0,1.6939315795898438,2019-07-25 15:26:43:318
-0.1446644365787506,0.13833990693092346,9.687509536743164,-0.007942686536457978,-0.006919516690406348,-0.0024408503371186464,-2.0614848127672776,177.98453092527868,0,1.6964542865753174,2019-07-25 15:26:43:320
-0.11592743545770645,0.1167871505022049,9.852746963500977,-0.0108728794600881,-0.007718660073174022,-0.0003098012838955588,1.5679200906457944,178.0135928456469,0,1.7002785205841064,2019-07-25 15:26:43:324
-0.048874445259571075,0.12397140264511108,9.821615219116211,-0.008209067664047203,-0.0034565617716721033,0.001022104451578436,5.131470505252172,178.04030895218435,0,1.7034270763397217,2019-07-25 15:26:43:327
-0.11592743545770645,0.08565540611743927,9.75935173034668,-0.008741830439374302,-0.0034565617716721033,-0.0021744692095294216,8.615943724940832,178.07125101163152,0,1.7071051597595215,2019-07-25 15:26:43:331
-0.05126919597387314,0.11439239978790283,9.735404968261719,-0.007942686536457978,-0.0034565617716721033,-0.0005761824439940741,12.038204403442238,178.09777325848646,0,1.7102696895599365,2019-07-25 15:26:43:334
-0.04647969827055931,0.10481340438127518,9.82640552520752,-0.007942686536457978,-0.004788467669692552,-0.0024408503371186464,15.392867216561143,178.12500049466547,0,1.7134203910827637,2019-07-25 15:26:43:337
0.006204796489328146,0.0904449075460434,9.778510093688965,-0.006078018643333406,-0.0063867544352278986,-0.0019080880819401969,11.487001718926754,178.1531053950119,0,1.716947078704834,2019-07-25 15:26:43:341
-0.008163701742887497,0.11918190121650696,9.831194877624512,-0.010606497812350225,-0.006120373307638673,-0.005371043000674441,14.857444841387782,178.17811866135267,0,1.7202489376068115,2019-07-25 15:26:43:344
-0.04408494755625725,0.05931315943598747,9.915010452270508,-0.006078018643333406,-0.00585399218004945,-0.0008425635715832987,18.15623725616227,178.20877732521126,0,1.7234017848968506,2019-07-25 15:26:43:347
-0.13748018443584442,0.12157665193080902,9.716246604919434,-0.008741830439374302,-0.0071858978179955724,-0.0048382807454959926,21.37832010676781,178.23199228361196,0,1.7269227504730225,2019-07-25 15:26:43:351
-0.027321700006723404,0.08326065540313721,9.778510093688965,-0.0098073549497312,-0.003190180644082879,-0.0029736125922970955,24.548148499458563,178.25942949292212,0,1.730252981185913,2019-07-25 15:26:43:354
-0.07282194495201111,0.040155161172151566,9.754562377929688,-0.0068771620261010805,-0.0063867544352278986,-0.00323999371988632,27.649754420058915,178.29073345269663,0,1.7333858013153076,2019-07-25 15:26:43:357
-0.08958519250154495,0.14073464274406433,9.819220542907715,-0.007143543153690304,-0.006120373307638673,-0.0027072314647078708,30.687530409283866,178.3099263607073,0,1.7369518280029297,2019-07-25 15:26:43:361
-0.034505948424339294,0.08565540611743927,9.756957054138184,-0.0068771620261010805,-0.003989324026850552,-0.0011089446991725232,33.67047112119129,178.33495059071097,0,1.7402727603912354,2019-07-25 15:26:43:364
-0.08479569107294083,0.1551031470298767,9.840773582458496,-0.0098073549497312,-0.006653135562817124,-0.003772756235139094,36.588370211004275,178.3519348935827,0,1.7434377670288086,2019-07-25 15:26:43:367
-0.10155893862247467,0.1287609040737152,9.773720741271973,-0.009008211046814877,-0.005587611052460225,-0.0024408503371186464,39.445800084211044,178.37158052765048,0,1.7469568252563477,2019-07-25 15:26:43:371
0.05170504003763199,0.09523440897464752,9.761747360229492,-0.009540973301993326,-0.007985041200763246,-0.0027072314647078708,35.064450262467965,178.39475816058837,0,1.7502949237823486,2019-07-25 15:26:43:374
-0.08240094035863876,0.11439239978790283,9.78808879852295,-0.007942686536457978,-0.006120373307638673,-0.0027072314647078708,37.954582784531084,178.41485763343908,0,1.7534031867980957,2019-07-25 15:26:43:377
-0.06084819510579109,0.07607641071081161,9.764142036437988,-0.007676305408868754,-0.004522086542103327,-0.003772756235139094,40.78923613613289,178.43913642003477,0,1.7568926811218262,2019-07-25 15:26:43:381
-0.056058697402477264,0.12397140264511108,9.800063133239746,-0.007409924281279529,-0.006919516690406348,-0.0008425635715832987,43.568198713136624,178.45725298713393,0,1.7602441310882568,2019-07-25 15:26:43:384
-0.04408494755625725,0.08326065540313721,9.785694122314453,-0.005811637515744182,-0.0071858978179955724,-0.0048382807454959926,46.292937584906106,178.47938149174598,0,1.7633798122406006,2019-07-25 15:26:43:387
-0.05845344439148903,0.12397140264511108,9.79766845703125,-0.008475448791636427,-0.0037229428992613276,-0.004039137362728319,48.96097974486192,178.4969739777066,0,1.7669074535369873,2019-07-25 15:26:43:391
-0.027321700006723404,0.08565540611743927,9.804852485656738,-0.007409924281279529,-0.004255705154439777,-0.0029736125922970955,51.57936632358612,178.51841575594915,0,1.7702524662017822,2019-07-25 15:26:43:394
-0.020137449726462364,0.1287609040737152,9.639615058898926,-0.006078018643333406,-0.007718660073174022,-0.006170186383442115,54.146748910803915,178.53381570169654,0,1.7733991146087646,2019-07-25 15:26:43:397
-0.06084819510579109,0.09762915223836899,9.816825866699219,-0.005811637515744182,-0.004255705154439777,-0.005637424128263666,56.657549285124745,178.55288799556467,0,1.7769062519073486,2019-07-25 15:26:43:401
-0.012953201308846474,0.1167871505022049,9.831194877624512,-0.006610780898511855,-0.006120373307638673,-0.0027072314647078708,59.12403901033602,178.56946097857409,0,1.7802541255950928,2019-07-25 15:26:43:404
-0.0536639466881752,0.06889215856790543,9.744983673095703,-0.0068771620261010805,-0.005321229924871,-0.007502092021388238,61.536182838192595,178.59117911490773,0,1.7833831310272217,2019-07-25 15:26:43:407
-0.04647969827055931,0.07607641071081161,9.682720184326172,-0.007942686536457978,-0.003989324026850552,-0.0021744692095294216,63.90075500978122,178.61193815162034,0,1.7869389057159424,2019-07-25 15:26:43:411
0.013389045372605324,0.10241865366697311,9.737799644470215,-0.0108728794600881,-0.004255705154439777,-0.007768473148977463,59.02511287006544,178.6296847244573,0,1.7902758121490479,2019-07-25 15:26:43:414
-0.012953201308846474,0.13115565478801727,9.7473783493042,-0.008741830439374302,-0.0013255126209211442,-0.005903805255852891,61.443323007312294,178.64322421015393,0,1.79343581199646,2019-07-25 15:26:43:417
-0.09676943719387054,0.10481340438127518,9.735404968261719,-0.007143543153690304,-0.0034565617716721033,-0.007768473148977463,63.80375068741846,178.6594368568792,0,1.7969605922698975,2019-07-25 15:26:43:421
-0.015347951091825962,0.006628667004406452,9.816825866699219,-0.007143543153690304,-0.006653135562817124,-0.007768473148977463,66.127115013965,178.68679598916324,0,1.800255537033081,2019-07-25 15:26:43:424
-0.015347951091825962,0.040155161172151566,9.814431190490723,-0.007143543153690304,-0.0026574183889044294,-0.004039137362728319,68.40324913573704,178.70963083442902,0,1.8033947944641113,2019-07-25 15:26:43:427
0.006204796489328146,0.05691841244697571,9.730615615844727,-0.005811637515744182,-0.002923799516493654,-0.009100379307072236,63.436493912099536,178.7298863516056,0,1.8069219589233398,2019-07-25 15:26:43:431
-0.0009794526267796755,0.00902341678738594,9.828800201416016,-0.007942686536457978,-0.005321229924871,-0.00643656751103134,65.76864429943389,178.75572097515678,0,1.8102502822875977,2019-07-25 15:26:43:434
-0.03690069913864136,0.06649740785360336,9.795273780822754,-0.008209067664047203,-0.0071858978179955724,-0.0048382807454959926,68.05022264036045,178.77427602234908,0,1.8133931159973145,2019-07-25 15:26:43:437
-0.02492694929242134,0.07368165999650955,9.756957054138184,-0.005545256388154957,-0.004788467669692552,-0.008301235404155912,70.28723449120814,178.79123009053802,0,1.8169035911560059,2019-07-25 15:26:43:441
0.0181785449385643,0.07607641071081161,9.752167701721191,-0.005811637515744182,-0.00585399218004945,-0.005104661873085217,65.28472590196512,178.80755850988095,0,1.8202502727508545,2019-07-25 15:26:43:444
0.027757544070482254,0.028181415051221848,9.773720741271973,-0.0068771620261010805,-0.004788467669692552,-0.005104661873085217,60.38312837965276,178.8293133433444,0,1.8233840465545654,2019-07-25 15:26:43:447
0.03973129391670227,0.09283965826034546,9.795273780822754,-0.005545256388154957,-0.0026574183889044294,-0.00323999371988632,55.580643958132235,178.84297266183108,0,1.826936960220337,2019-07-25 15:26:43:451
0.006204796489328146,0.0904449075460434,9.845562934875488,-0.007143543153690304,-0.0034565617716721033,-0.006702948638620565,50.87040020012322,178.85692373763547,0,1.8302702903747559,2019-07-25 15:26:43:454
-0.010558451525866985,0.06649740785360336,9.658772468566895,-0.007143543153690304,-0.0026574183889044294,-0.0035063751075498696,53.45221198338269,178.87316613388077,0,1.8334364891052246,2019-07-25 15:26:43:457
0.08044203370809555,0.10481340438127518,9.859931945800781,-0.007676305408868754,-0.005054848797281776,-0.0021744692095294216,48.79351446193972,178.88503748039142,0,1.8369526863098145,2019-07-25 15:26:43:461
0.0900210365653038,0.0377604141831398,9.697088241577148,-0.0036805882349560596,-0.0037229428992613276,-0.005371043000674441,44.22900128744596,178.90358591307267,0,1.8403947353363037,2019-07-25 15:26:43:464
-0.022532200440764427,0.028181415051221848,9.780904769897461,-0.0068771620261010805,-0.002391037261315205,-0.00643656751103134,46.942205999157395,178.9234336732001,0,1.8435571193695068,2019-07-25 15:26:43:467
0.049310289323329926,0.03057616390287876,9.824010848999023,-0.005012494132976508,-0.00585399218004945,-0.005371043000674441,42.41027149168128,178.94238992229486,0,1.8470797538757324,2019-07-25 15:26:43:471
0.010994295589625835,0.04973416030406952,9.744983673095703,-0.007143543153690304,-0.00931694735885802,-0.004571899617906768,37.96501576483564,178.95896429286395,0,1.8502469062805176,2019-07-25 15:26:43:474
0.03733654320240021,0.06649740785360336,9.76893138885498,-0.005811637515744182,-0.005587611052460225,-0.0035063751075498696,33.611077609190126,178.9730067669957,0,1.8533785343170166,2019-07-25 15:26:43:477
0.0972052812576294,0.032970912754535675,9.776115417480469,-0.0031478259797776105,-0.005321229924871,-0.0029736125922970955,29.351300343242883,178.99030346303982,0,1.8568949699401855,2019-07-25 15:26:43:481
0.03973129391670227,0.011418166570365429,9.766536712646484,-0.005811637515744182,-0.0037229428992613276,0.001022104451578436,25.169637757849113,179.0102531352277,0,1.8602519035339355,2019-07-25 15:26:43:484
0.06846828758716583,0.054523661732673645,9.776115417480469,-0.004479731877798059,-0.002124656003688818,-0.005637424128263666,21.07464557586425,179.02444805859415,0,1.863396406173706,2019-07-25 15:26:43:487
0.0708630383014679,0.1167871505022049,9.687509536743164,-0.005012494132976508,-0.0034565617716721033,-4.3420127860704935e-05,17.062214424370843,179.03113086517877,0,1.8668982982635498,2019-07-25 15:26:43:491
0.08044203370809555,0.08805015683174133,9.697088241577148,-0.006078018643333406,-0.002923799516493654,-0.004571899617906768,13.131026247916273,179.04124773928692,0,1.870250940322876,2019-07-25 15:26:43:494
0.06846828758716583,0.07368165999650955,9.78808879852295,-0.006078018643333406,-0.002391037261315205,-0.0024408503371186464,9.276841719914646,179.05286545360036,0,1.8733820915222168,2019-07-25 15:26:43:497
0.10199478268623352,0.0377604141831398,9.76893138885498,-0.005545256388154957,-0.004255705154439777,0.001022104451578436,5.5041212307504885,179.06848972411382,0,1.8769500255584717,2019-07-25 15:26:43:501
0.06846828758716583,0.07368165999650955,9.82640552520752,-0.005012494132976508,-0.005321229924871,0.004751440367864743,1.8030139244105765,179.07946090419637,0,1.8802659511566162,2019-07-25 15:26:43:504
0.10199478268623352,0.04494466260075569,9.749773025512695,-0.003946969362545284,-0.006919516690406348,-0.003772756235139094,-1.8198326278216248,179.0932888482536,0,1.883422613143921,2019-07-25 15:26:43:507
0.16425827145576477,0.047339413315057755,9.761747360229492,-0.004479731877798059,-0.006919516690406348,-0.0003098012838955588,-5.362790748160066,179.10674975009346,0,1.8869359493255615,2019-07-25 15:26:43:511
0.10438953340053558,0.061707910150289536,9.852746963500977,-0.0036805882349560596,-0.005587611052460225,-0.0011089446991725232,-8.842353949030628,179.11812334419812,0,1.8902523517608643,2019-07-25 15:26:43:514
0.1690477728843689,0.05931315943598747,9.761747360229492,-0.004213350490134509,-0.002923799516493654,-0.0027072314647078708,-12.245149432093527,179.12954068855427,0,1.893390417098999,2019-07-25 15:26:43:517
0.10917903482913971,0.047339413315057755,9.773720741271973,-0.004479731877798059,-0.00585399218004945,0.0042186781126862935,-15.586292196599727,179.14228282145882,0,1.8969016075134277,2019-07-25 15:26:43:521
0.0900210365653038,0.028181415051221848,9.733010292053223,-0.005545256388154957,-0.00025998799678172854,0.0023540102195617214,-18.863919092250594,179.15716305896316,0,1.9002540111541748,2019-07-25 15:26:43:524
0.1355212777853012,0.02339191548526287,9.725825309753418,-0.002881444852188386,-0.0037229428992613276,0.003952296985097069,-22.070017975575023,179.17177174704656,0,1.9033939838409424,2019-07-25 15:26:43:527
0.10917903482913971,0.06889215856790543,9.80964183807373,-0.007676305408868754,0.0005391554347498812,0.004485059240275518,-25.21597026737833,179.18179654447582,0,1.9068920612335205,2019-07-25 15:26:43:531
0.0972052812576294,0.040155161172151566,9.771326065063477,-0.004746113005387283,-0.0034565617716721033,0.003952296985097069,-28.29959822530618,179.19434871842478,0,1.9102587699890137,2019-07-25 15:26:43:534
0.05409979075193405,0.09523440897464752,9.814431190490723,-0.0036805882349560596,-0.007985041200763246,0.005816964878221641,-31.325883925200383,179.19999067703054,0,1.9133942127227783,2019-07-25 15:26:43:537
0.1427055299282074,0.10002390295267105,9.90782642364502,-0.00208230133938355,-0.005321229924871,0.00634972713340009,-34.28179429064196,179.20484070485452,0,1.9169690608978271,2019-07-25 15:26:43:541
0.10917903482913971,0.025786664336919785,9.819220542907715,-0.0004840145413389117,-0.005054848797281776,0.006616108260989315,-37.18247853861017,179.21782447818717,0,1.9202775955200195,2019-07-25 15:26:43:544
