ACCELEROMETER X (m/s²),ACCELEROMETER Y (m/s²),ACCELEROMETER Z (m/s²),GYROSCOPE X (rad/s),GYROSCOPE Y (rad/s),GYROSCOPE Z (rad/s),Pitch (Deg),Roll (Deg),Heading (Deg),Time since start in ms ,YYYY-MO-DD HH-MI-SS_SSS
-0.07042719423770905,-0.04126632586121559,9.835984230041504,-0.005545256388154957,-0.003190180644082879,0.004751440367864743,3.5917952043391663,-3.5951924029558047,0,0.0,2019-07-25 15:12:12:523
-0.1326906830072403,-0.043661076575517654,9.790483474731445,-0.00208230133938355,-0.004522086542103327,0.005284202623043192,7.105413791946166,-7.1177251474223855,0,0.0038759708404541016,2019-07-25 15:12:12:526
-0.08958519250154495,-0.04605582728981972,9.795273780822754,-0.004746113005387283,-0.0037229428992613276,0.004485059240275518,10.55347963877435,-10.56914891048434,0,0.007004976272583008,2019-07-25 15:12:12:530
-0.056058697402477264,-0.002950331661850214,9.895853042602539,-0.004746113005387283,-0.00585399218004945,0.00634972713340009,13.936891050342346,-13.956635923680844,0,0.009963274002075195,2019-07-25 15:12:12:533
-0.06563769280910492,-0.017318829894065857,9.76893138885498,-0.005545256388154957,-0.002923799516493654,0.00341953472991862,17.2510942240828,-17.274257258062725,0,0.013863563537597656,2019-07-25 15:12:12:536
-0.06563769280910492,-0.036476828157901764,9.785694122314453,-0.005811637515744182,-0.004255705154439777,0.0031531536023293957,20.49913464775697,-20.523478579037945,0,0.016995668411254883,2019-07-25 15:12:12:540
-0.14705918729305267,-0.029292577877640724,9.76893138885498,-0.004746113005387283,-0.002391037261315205,0.00634972713340009,23.672314201395817,-23.70875655134606,0,0.02005910873413086,2019-07-25 15:12:12:543
-0.09676943719387054,0.020997164770960808,9.852746963500977,-0.004479731877798059,-0.003989324026850552,0.005816964878221641,26.788467601382326,-19.63606447928017,0,0.023871660232543945,2019-07-25 15:12:12:546
-0.11113794147968292,-0.04126632586121559,9.814431190490723,-0.004213350490134509,-0.004255705154439777,0.004485059240275518,29.840471202008548,-22.837783818986995,0,0.027004718780517578,2019-07-25 15:12:12:550
-0.09676943719387054,0.04254991188645363,9.87908935546875,-0.003946969362545284,-0.006120373307638673,0.0015548667067568852,32.83346786601112,-18.78529914856277,0,0.030003070831298828,2019-07-25 15:12:12:553
-0.08479569107294083,-0.014924080111086369,9.893458366394043,-0.004746113005387283,-0.002391037261315205,0.003952296985097069,35.76749575618329,-22.00683534033933,0,0.03386521339416504,2019-07-25 15:12:12:556
-0.1063484400510788,0.018602415919303894,9.761747360229492,-0.005012494132976508,-0.004522086542103327,0.005017821495453967,38.64045670457334,-17.968001743954957,0,0.036993980407714844,2019-07-25 15:12:12:560
-0.13748018443584442,-0.0604243241250515,9.771326065063477,-0.004213350490134509,-0.0026574183889044294,0.00634972713340009,41.451979714479606,-21.200836083319878,0,0.04003548622131348,2019-07-25 15:12:12:563
-0.12790118157863617,-0.04845057427883148,9.790483474731445,-0.002348682597009937,-0.004255705154439777,0.0028867724747401705,44.20888583974605,-24.370643637096663,0,0.04386425018310547,2019-07-25 15:12:12:566
-0.13029593229293823,-0.017318829894065857,9.80964183807373,-0.005811637515744182,-0.004522086542103327,0.0031531536023293957,46.91028115219016,-27.480188931998445,0,0.04698610305786133,2019-07-25 15:12:12:570
-0.10155893862247467,-0.007739831227809191,9.881484031677246,-0.0034142071073668353,-0.0026574183889044294,0.004485059240275518,49.560748131202615,-30.52911000276301,0,0.04999899864196777,2019-07-25 15:12:12:573
-0.08240094035863876,-0.036476828157901764,9.78808879852295,-0.005278875260565733,-0.003190180644082879,0.00341953472991862,52.160583886695036,-33.513103433193635,0,0.05389213562011719,2019-07-25 15:12:12:576
-0.03211119771003723,-0.036476828157901764,9.812036514282227,-0.004479731877798059,-0.003989324026850552,0.005284202623043192,54.7143223705551,-36.437794976049744,0,0.05701851844787598,2019-07-25 15:12:12:580
-0.11592743545770645,-0.022108329460024834,9.819220542907715,-0.005545256388154957,-0.00585399218004945,0.006882489388578539,57.207483906821345,-39.30553426151678,0,0.05998849868774414,2019-07-25 15:12:12:583
-0.13508543372154236,-0.043661076575517654,9.859931945800781,-0.002881444852188386,-0.002391037261315205,0.010079062919649233,59.64815875458695,-42.1137189616231,0,0.06388473510742188,2019-07-25 15:12:12:586
-0.1063484400510788,-0.007739831227809191,9.840773582458496,-0.005012494132976508,-0.002391037261315205,0.0028867724747401705,62.0432312776935,-44.86966486577343,0,0.06700587272644043,2019-07-25 15:12:12:590
-0.09197994321584702,-0.04126632586121559,9.845562934875488,-0.004746113005387283,-0.0063867544352278986,0.005017821495453967,64.39273855725462,-47.566668272741104,0,0.07000923156738281,2019-07-25 15:12:12:593
-0.07521669566631317,0.013812916353344917,9.83837890625,-0.002348682597009937,-0.0018582748760995933,0.004485059240275518,66.69652525315131,-43.016435551671904,0,0.07386279106140137,2019-07-25 15:12:12:596
-0.08958519250154495,-0.002950331661850214,9.744983673095703,-0.006610780898511855,-0.007452278945584797,0.004751440367864743,68.95337290296467,-45.754595874319044,0,0.07699871063232422,2019-07-25 15:12:12:600
-0.07521669566631317,-0.010134580545127392,9.824010848999023,-0.005278875260565733,-0.0037229428992613276,0.006882489388578539,71.16616073946544,-48.437430323438065,0,0.08000636100769043,2019-07-25 15:12:12:603
-0.11353268474340439,0.018602415919303894,9.790483474731445,-0.006078018643333406,-0.005054848797281776,0.0042186781126862935,73.33064621244337,-43.869540696372255,0,0.08386921882629395,2019-07-25 15:12:12:606
-0.07042719423770905,-0.03887157887220383,9.843168258666992,-0.005012494132976508,-0.0015918937485103685,0.002620391347150946,75.45611610484293,-46.58673781199984,0,0.0870199203491211,2019-07-25 15:12:12:610
-0.10874319076538086,0.01620766520500183,9.761747360229492,-0.004479731877798059,-0.004788467669692552,0.005017821495453967,77.53512504303568,-42.05606749158024,0,0.09035205841064453,2019-07-25 15:12:12:613
-0.06084819510579109,-0.029292577877640724,9.670746803283691,-0.005012494132976508,-0.005587611052460225,0.006882489388578539,79.5783120725199,-44.810488838884666,0,0.0938565731048584,2019-07-25 15:12:12:616
-0.07282194495201111,-0.03887157887220383,9.776115417480469,-0.005012494132976508,-0.002124656003688818,0.005550583750632416,81.57858728780488,-47.50883286690327,0,0.09701824188232422,2019-07-25 15:12:12:620
-0.08719044178724289,-0.02689782902598381,9.845562934875488,-0.0034142071073668353,-0.0026574183889044294,0.005816964878221641,83.53749338764756,-50.15472185483506,0,0.1012108325958252,2019-07-25 15:12:12:624
-0.1063484400510788,0.00902341678738594,9.79766845703125,-0.001283157956615876,-0.004255705154439777,0.006083346005810866,85.45520512339318,-45.55241159132065,0,0.10497474670410156,2019-07-25 15:12:12:628
-0.11592743545770645,0.006628667004406452,9.83837890625,-0.005012494132976508,-0.0063867544352278986,0.0023540102195617214,87.33370950670799,-41.041263958749546,0,0.10807108879089355,2019-07-25 15:12:12:631
-0.06803244352340698,0.04494466260075569,9.783299446105957,-0.0031478259797776105,-0.005587611052460225,0.0042186781126862935,89.17977819062445,-36.625302244422095,0,0.11033844947814941,2019-07-25 15:12:12:633
-0.08479569107294083,-0.058029573410749435,9.82640552520752,-0.006610780898511855,-0.0071858978179955724,0.007948014419084088,90.98771452589413,-39.48472258414186,0,0.11385822296142578,2019-07-25 15:12:12:636
-0.07042719423770905,-0.04126632586121559,9.905431747436523,-0.004479731877798059,-0.0026574183889044294,0.005017821495453967,92.76030016595823,-42.28943293938225,0,0.11712336540222168,2019-07-25 15:12:12:640
-0.07761144638061523,-0.050845324993133545,9.76893138885498,-0.004746113005387283,-0.004522086542103327,0.005550583750632416,94.49685309936146,-45.03677460790635,0,0.12052106857299805,2019-07-25 15:12:12:643
-0.15424343943595886,-0.07479282468557358,9.76893138885498,-0.00208230133938355,-0.0063867544352278986,0.007415251643756989,96.19002575345806,-47.72687427664107,0,0.123870849609375,2019-07-25 15:12:12:646
-0.12311168760061264,0.0377604141831398,9.749773025512695,-0.004479731877798059,-0.005587611052460225,0.006882489388578539,97.85276755551212,-43.17596415920879,0,0.12709379196166992,2019-07-25 15:12:12:650
-0.1518486887216568,-0.06760857254266739,9.843168258666992,-0.004213350490134509,-0.003989324026850552,0.004751440367864743,99.47880664298869,-45.903760041267454,0,0.13053512573242188,2019-07-25 15:12:12:653
-0.1326906830072403,-0.01252933032810688,9.79766845703125,-0.001283157956615876,-0.004255705154439777,0.005816964878221641,101.07451022825532,-48.5839788257635,0,0.13387465476989746,2019-07-25 15:12:12:656
-0.11592743545770645,-0.005345081444829702,9.852746963500977,-0.004746113005387283,-0.005054848797281776,0.006882489388578539,102.64046806247424,-51.21080415054362,0,0.13715219497680664,2019-07-25 15:12:12:660
-0.11113794147968292,0.006628667004406452,9.831194877624512,-0.004213350490134509,-0.004788467669692552,0.00341953472991862,104.1756289137025,-46.58654784893509,0,0.14058804512023926,2019-07-25 15:12:12:663
-0.04647969827055931,-0.07239807397127151,9.831194877624512,-0.007409924281279529,-0.005054848797281776,0.0018212478343461098,105.68764179312511,-49.24499596523711,0,0.14391064643859863,2019-07-25 15:12:12:666
-0.08719044178724289,-0.0340820774435997,9.857537269592285,-0.004479731877798059,-0.004522086542103327,0.005284202623043192,107.16459949442859,-51.85529606628893,0,0.14724230766296387,2019-07-25 15:12:12:670
-0.1063484400510788,0.05691841244697571,9.926984786987305,-0.004746113005387283,-0.0018582748760995933,0.005550583750632416,108.6093008250233,-47.224073072543725,0,0.14982151985168457,2019-07-25 15:12:12:672
-0.08719044178724289,-0.010134580545127392,9.792879104614258,-0.003946969362545284,-0.0063867544352278986,0.006083346005810866,110.02826816923204,-49.87756790040176,0,0.15360188484191895,2019-07-25 15:12:12:676
-0.1326906830072403,-0.014924080111086369,9.905431747436523,-0.003946969362545284,-0.004522086542103327,0.001022104451578436,111.41331805835837,-52.47744800451046,0,0.15740132331848145,2019-07-25 15:12:12:680
-0.18776993453502655,-0.0005555819370783865,9.795273780822754,-0.0010167768290266514,-0.0026574183889044294,0.004485059240275518,112.76351728978327,-55.02766972756133,0,0.1602795124053955,2019-07-25 15:12:12:683
-0.1590329259634018,0.004233917687088251,9.82640552520752,-0.004746113005387283,-0.005587611052460225,0.003952296985097069,114.09084127868472,-50.32664304177676,0,0.1639082431793213,2019-07-25 15:12:12:686
-0.18298043310642242,-0.01971357874572277,9.852746963500977,-0.003946969362545284,-0.0026574183889044294,0.006616108260989315,115.38821378911727,-52.91712189601775,0,0.16704654693603516,2019-07-25 15:12:12:690
-0.18058568239212036,-0.002950331661850214,9.883878707885742,-0.002881444852188386,-0.004522086542103327,0.004485059240275518,116.66028710771583,-55.4579455023386,0,0.17008686065673828,2019-07-25 15:12:12:693
-0.07761144638061523,-0.03887157887220383,9.821615219116211,-0.0010167768290266514,-0.0026574183889044294,0.0031531536023293957,117.91859209042212,-57.944034918389725,0,0.17387795448303223,2019-07-25 15:12:12:696
-0.08719044178724289,-0.010134580545127392,9.82640552520752,-0.005012494132976508,-0.004788467669692552,0.005550583750632416,119.15089709780771,-60.383088484498565,0,0.177018404006958,2019-07-25 15:12:12:700
-0.11353268474340439,0.006628667004406452,9.812036514282227,-0.005278875260565733,-0.0018582748760995933,0.005816964878221641,120.35493749622036,-55.575300741328945,0,0.1800551414489746,2019-07-25 15:12:12:703
-0.16142767667770386,-0.017318829894065857,9.845562934875488,-0.0036805882349560596,-0.006120373307638673,0.007415251643756989,121.53037747191003,-58.060981922772,0,0.18391203880310059,2019-07-25 15:12:12:706
-0.12790118157863617,0.025786664336919785,9.843168258666992,-0.006344399770922631,-0.0010591314283133382,0.004485059240275518,122.68506773385111,-53.30164478334802,0,0.18705463409423828,2019-07-25 15:12:12:710
-0.09676943719387054,0.018602415919303894,9.831194877624512,-0.005012494132976508,-0.005321229924871,0.0031531536023293957,123.82101373706551,-48.636907557731405,0,0.190155029296875,2019-07-25 15:12:12:713
-0.11353268474340439,-0.01971357874572277,9.804852485656738,-0.006078018643333406,-0.002391037261315205,0.0042186781126862935,124.93183913822205,-51.26055908374696,0,0.19398283958435059,2019-07-25 15:12:12:717
-0.07761144638061523,-0.01971357874572277,9.876694679260254,-0.005545256388154957,-0.0034565617716721033,0.0018212478343461098,126.0248484986166,-53.832016944605535,0,0.19733500480651855,2019-07-25 15:12:12:720
-0.09916418790817261,-0.014924080111086369,9.903037071228027,-0.0034142071073668353,-0.0071858978179955724,0.00634972713340009,127.09393545903174,-56.35314691639845,0,0.19995760917663574,2019-07-25 15:12:12:723
-0.07761144638061523,-0.010134580545127392,9.857537269592285,-0.0034142071073668353,-0.005587611052460225,0.0042186781126862935,128.14426715558508,-58.824152841464155,0,0.20388555526733398,2019-07-25 15:12:12:726
-0.1255064308643341,0.05212891101837158,9.812036514282227,-0.00208230133938355,-0.002923799516493654,0.0012884855791676607,129.16723967988827,-54.05339123252666,0,0.20701980590820312,2019-07-25 15:12:12:730
-0.11113794147968292,-0.0005555819370783865,9.833589553833008,-0.00208230133938355,-0.0018582748760995933,0.00341953472991862,130.17125419378218,-56.57191157987967,0,0.20998835563659668,2019-07-25 15:12:12:733
-0.11592743545770645,0.004233917687088251,9.821615219116211,-0.005012494132976508,-0.003989324026850552,0.004751440367864743,131.1551685822866,-51.83988120036866,0,0.21384739875793457,2019-07-25 15:12:12:736
-0.18298043310642242,-0.03168732672929764,9.80964183807373,-0.004479731877798059,-0.0018582748760995933,0.0015548667067568852,132.11101909954849,-54.39859538803913,0,0.21697473526000977,2019-07-25 15:12:12:740
-0.09197994321584702,0.004233917687088251,9.862326622009277,-0.004479731877798059,-0.004522086542103327,0.00341953472991862,133.05887890402906,-49.71035547253897,0,0.21999597549438477,2019-07-25 15:12:12:743
-0.11832218617200851,-0.022108329460024834,9.728219985961914,-0.007409924281279529,-0.004522086542103327,0.005550583750632416,133.9847520509994,-52.311925946845456,0,0.22388529777526855,2019-07-25 15:12:12:746
-0.17340143024921417,-0.022108329460024834,9.86711597442627,-0.005012494132976508,-0.00585399218004945,0.0031531536023293957,134.88595152901905,-54.862237613917515,0,0.2270200252532959,2019-07-25 15:12:12:750
-0.07761144638061523,0.04494466260075569,9.730615615844727,-0.001815920211794325,-0.005321229924871,0.002087628961935334,135.7799927899648,-50.16997857569062,0,0.23003196716308594,2019-07-25 15:12:12:753
-0.15424343943595886,0.001839167787693441,9.922195434570312,-0.0034142071073668353,-0.005321229924871,0.002620391347150946,136.647729743681,-45.566054208566314,0,0.23387742042541504,2019-07-25 15:12:12:756
-0.08479569107294083,0.032970912754535675,9.795273780822754,-0.0068771620261010805,-0.005587611052460225,0.00634972713340009,137.50583362833032,-41.057386320471444,0,0.23699522018432617,2019-07-25 15:12:12:760
-0.0800061896443367,-0.022108329460024834,9.85035228729248,-0.0034142071073668353,-0.004522086542103327,0.00341953472991862,138.34717419665708,-43.83308959110622,0,0.2400054931640625,2019-07-25 15:12:12:763
-0.10874319076538086,0.013812916353344917,9.78808879852295,-0.002881444852188386,-0.0034565617716721033,0.005550583750632416,139.16824901811898,-39.35742085369453,0,0.24386262893676758,2019-07-25 15:12:12:766
-0.16142767667770386,-0.007739831227809191,9.807247161865234,-0.002615063724599162,-0.0010591314283133382,0.0012884855791676607,139.96620985116587,-42.16890902196115,0,0.24698901176452637,2019-07-25 15:12:12:770
-0.10395368933677673,0.07368165999650955,9.785694122314453,-0.004479731877798059,-0.003190180644082879,0.0036859158575078444,140.75525318454913,-37.73340036984674,0,0.25000452995300293,2019-07-25 15:12:12:773
-0.05126919597387314,0.004233917687088251,9.840773582458496,-0.0036805882349560596,-0.003989324026850552,0.00341953472991862,141.53504407281744,-33.37842642761702,0,0.25387048721313477,2019-07-25 15:12:12:776
-0.07761144638061523,0.025786664336919785,9.780904769897461,-0.007942686536457978,-0.0037229428992613276,0.00341953472991862,142.29590788128755,-29.112476629848917,0,0.2570149898529053,2019-07-25 15:12:12:780
-0.05845344439148903,-0.01252933032810688,9.893458366394043,-0.002348682597009937,-0.004522086542103327,0.00341953472991862,143.04397188477728,-32.128385054296274,0,0.2599785327911377,2019-07-25 15:12:12:783
-0.11353268474340439,-0.03168732672929764,9.83837890625,-0.005278875260565733,-0.0026574183889044294,0.002087628961935334,143.77044709720414,-35.0809790889436,0,0.26384997367858887,2019-07-25 15:12:12:786
-0.07042719423770905,-0.0604243241250515,9.821615219116211,-0.005012494132976508,-0.006120373307638673,0.005284202623043192,144.48790239996876,-37.97142436103486,0,0.2669956684112549,2019-07-25 15:12:12:790
-0.10874319076538086,-0.024503078311681747,9.773720741271973,-0.005012494132976508,-0.0026574183889044294,0.004485059240275518,145.18584692347,-40.80827122025043,0,0.2700221538543701,2019-07-25 15:12:12:793
-0.12790118157863617,-0.02689782902598381,9.792879104614258,-0.005012494132976508,-0.004788467669692552,0.0036859158575078444,145.8682028122342,-43.587871412981926,0,0.2738840579986572,2019-07-25 15:12:12:796
-0.06563769280910492,0.018602415919303894,9.871905326843262,-0.004746113005387283,-0.0015918937485103685,0.0015548667067568852,146.54350968133488,-39.11740890077195,0,0.277127742767334,2019-07-25 15:12:12:800
-0.09676943719387054,-0.029292577877640724,9.910221099853516,-0.007409924281279529,-0.004255705154439777,0.003952296985097069,147.20218484941705,-41.9303948811127,0,0.2802011966705322,2019-07-25 15:12:12:803
-0.06563769280910492,-0.0340820774435997,9.804852485656738,-0.004746113005387283,-0.004522086542103327,0.0023540102195617214,147.85139796498834,-44.686829853476205,0,0.283855676651001,2019-07-25 15:12:12:806
-0.0800061896443367,-0.04605582728981972,9.744983673095703,-0.002348682597009937,-0.0037229428992613276,0.0036859158575078444,148.48561860356,-47.38726351547758,0,0.28699541091918945,2019-07-25 15:12:12:810
-0.07761144638061523,0.018602415919303894,9.833589553833008,-0.002881444852188386,-0.003989324026850552,0.0015548667067568852,149.10753665358118,-42.84119891723021,0,0.2900059223175049,2019-07-25 15:12:12:813
-0.11832218617200851,-0.017318829894065857,9.83837890625,-0.005278875260565733,-0.0026574183889044294,0.0031531536023293957,149.71218158601675,-45.581212623352506,0,0.2938692569732666,2019-07-25 15:12:12:816
-0.09676943719387054,-0.01252933032810688,9.776115417480469,-0.004746113005387283,-0.005587611052460225,0.006616108260989315,150.30758085932152,-48.26728269892667,0,0.2970101833343506,2019-07-25 15:12:12:820
-0.14226968586444855,0.004233917687088251,9.795273780822754,-0.005012494132976508,-0.002124656003688818,0.0036859158575078444,150.88514762623115,-43.70158101925256,0,0.3000349998474121,2019-07-25 15:12:12:823
-0.08240094035863876,-0.0867665708065033,9.886274337768555,-0.0031478259797776105,-0.006919516690406348,0.004485059240275518,151.45938048547507,-46.416816252889205,0,0.3038613796234131,2019-07-25 15:12:12:826
-0.16621717810630798,-0.014924080111086369,9.778510093688965,-0.002615063724599162,-0.003989324026850552,0.004751440367864743,152.01141830860035,-49.086270799813576,0,0.3069956302642822,2019-07-25 15:12:12:830
-0.06324294209480286,-0.010134580545127392,9.862326622009277,-0.004746113005387283,-0.0037229428992613276,0.006083346005810866,152.56446446652015,-51.702574003536554,0,0.30997443199157715,2019-07-25 15:12:12:833
-0.13508543372154236,-0.03168732672929764,9.88866901397705,-0.006344399770922631,-0.002391037261315205,0.006616108260989315,153.09804605460818,-54.26346061757802,0,0.3138761520385742,2019-07-25 15:12:12:836
-0.07521669566631317,-0.036476828157901764,9.843168258666992,-0.0004840145413389117,-0.004788467669692552,-0.0005761824439940741,153.62817578197243,-56.77385927413779,0,0.31702637672424316,2019-07-25 15:12:12:840
-0.16621717810630798,-0.036476828157901764,9.859931945800781,-0.005278875260565733,-0.0071858978179955724,0.0036859158575078444,154.13751151918515,-59.23325016939214,0,0.320037841796875,2019-07-25 15:12:12:843
-0.1063484400510788,-0.029292577877640724,9.886274337768555,-0.001815920211794325,-0.0026574183889044294,0.005017821495453967,154.64300585574298,-61.64479975312618,0,0.3238639831542969,2019-07-25 15:12:12:846
-0.07042719423770905,-0.036476828157901764,9.824010848999023,-0.005811637515744182,-0.004255705154439777,0.005017821495453967,155.142681718469,-64.00662369421367,0,0.32700586318969727,2019-07-25 15:12:12:850
-0.027321700006723404,-0.04845057427883148,9.869510650634766,-0.005012494132976508,-0.003989324026850552,0.0023540102195617214,155.63733059017284,-66.32001805201601,0,0.3300180435180664,2019-07-25 15:12:12:853
-0.13029593229293823,0.001839167787693441,9.883878707885742,-0.004213350490134509,-0.0034565617716721033,0.0023540102195617214,156.11022464654155,-61.39292156125035,0,0.3338618278503418,2019-07-25 15:12:12:856
-0.12311168760061264,-0.0005555819370783865,9.795273780822754,-0.0031478259797776105,-0.005321229924871,0.005816964878221641,156.5745538992063,-63.764444787699276,0,0.3369925022125244,2019-07-25 15:12:12:860
-0.03690069913864136,-0.050845324993133545,9.819220542907715,-0.0036805882349560596,-0.005054848797281776,0.003952296985097069,157.03960831425292,-66.08260198626594,0,0.3399937152862549,2019-07-25 15:12:12:863
-0.09437469393014908,-0.03887157887220383,9.713851928710938,-0.004479731877798059,-0.0026574183889044294,0.0028867724747401705,157.48826141067727,-68.35538999322775,0,0.34386754035949707,2019-07-25 15:12:12:866
-0.09437469393014908,0.025786664336919785,9.773720741271973,-0.004213350490134509,-0.004788467669692552,0.0042186781126862935,157.92827739547576,-63.39056132697596,0,0.3470132350921631,2019-07-25 15:12:12:870
-0.0800061896443367,-0.0340820774435997,9.855142593383789,-0.002881444852188386,-0.007985041200763246,0.005017821495453967,158.36175701885864,-65.71830084598902,0,0.3500192165374756,2019-07-25 15:12:12:873
-0.14945393800735474,0.028181415051221848,9.835984230041504,-0.005545256388154957,-0.0034565617716721033,0.004485059240275518,158.77785574283664,-60.80602402158894,0,0.3538539409637451,2019-07-25 15:12:12:876
-0.09916418790817261,-0.002950331661850214,9.773720741271973,-0.0031478259797776105,-0.0018582748760995933,0.0028867724747401705,159.19100037009693,-63.189002345672314,0,0.3569955825805664,2019-07-25 15:12:12:880
-0.09916418790817261,-0.02689782902598381,9.876694679260254,-0.004479731877798059,-0.005587611052460225,0.004485059240275518,159.59660941134803,-65.52135282473832,0,0.3599722385406494,2019-07-25 15:12:12:883
-0.11353268474340439,0.03536566346883774,9.833589553833008,-0.001815920211794325,-0.0063867544352278986,0.004485059240275518,159.992846636592,-60.614649201385454,0,0.3638730049133301,2019-07-25 15:12:12:886
-0.022532200440764427,-0.01252933032810688,9.790483474731445,-0.002615063724599162,-0.003190180644082879,0.005017821495453967,160.39091854151363,-63.000425702390295,0,0.3670332431793213,2019-07-25 15:12:12:890
-0.11113794147968292,0.01620766520500183,9.859931945800781,-0.002881444852188386,-0.003989324026850552,0.004751440367864743,160.77085718954424,-58.14181483333174,0,0.3700370788574219,2019-07-25 15:12:12:893
-0.08479569107294083,-0.043661076575517654,9.874300003051758,-0.004479731877798059,-0.0063867544352278986,0.00341953472991862,161.1469672174402,-60.572952513008225,0,0.37385034561157227,2019-07-25 15:12:12:896
-0.09437469393014908,-0.010134580545127392,9.778510093688965,-0.004213350490134509,-0.005587611052460225,0.004751440367864743,161.51395797684467,-62.959559866664115,0,0.37700343132019043,2019-07-25 15:12:12:900
-0.12311168760061264,-0.002950331661850214,9.845562934875488,-0.005278875260565733,-0.0037229428992613276,0.002620391347150946,161.8699789921706,-65.29913442708646,0,0.3800089359283447,2019-07-25 15:12:12:903
-0.03929544612765312,-0.050845324993133545,9.778510093688965,-0.003946969362545284,-0.006120373307638673,0.0015548667067568852,162.22930259236273,-67.58633691089253,0,0.38387346267700195,2019-07-25 15:12:12:906
-0.09676943719387054,-0.04845057427883148,9.824010848999023,-0.001815920211794325,-0.0034565617716721033,0.0036859158575078444,162.5740400602147,-69.828637863476,0,0.3870203495025635,2019-07-25 15:12:12:910
-0.07761144638061523,-0.04126632586121559,9.871905326843262,-0.004746113005387283,-0.0015918937485103685,0.0028867724747401705,162.91381962722724,-72.02647240275266,0,0.3900320529937744,2019-07-25 15:12:12:913
-0.09437469393014908,-0.05563482642173767,9.737799644470215,-0.007143543153690304,-0.0037229428992613276,0.0042186781126862935,163.24523692573334,-74.17786281820348,0,0.39385461807250977,2019-07-25 15:12:12:916
-0.11353268474340439,-0.007739831227809191,9.922195434570312,-0.0036805882349560596,-0.0037229428992613276,0.0042186781126862935,163.5678762471516,-76.29276375242361,0,0.3969898223876953,2019-07-25 15:12:12:920
-0.09437469393014908,0.00902341678738594,9.752167701721191,-0.006078018643333406,-0.004255705154439777,0.005550583750632416,163.88614993270207,-71.16694011414828,0,0.40000391006469727,2019-07-25 15:12:12:923
-0.08719044178724289,0.04494466260075569,9.869510650634766,-0.006610780898511855,-0.0037229428992613276,0.0036859158575078444,164.1991139531818,-66.14738108710553,0,0.40387940406799316,2019-07-25 15:12:12:926
-0.14945393800735474,0.061707910150289536,9.876694679260254,-0.0036805882349560596,-0.005054848797281776,0.0031531536023293957,164.4986842421289,-61.23094393713176,0,0.40701937675476074,2019-07-25 15:12:12:930
-0.08958519250154495,-0.029292577877640724,9.780904769897461,-0.0031478259797776105,-0.0018582748760995933,0.0042186781126862935,164.79852518178373,-63.602368083214586,0,0.4099903106689453,2019-07-25 15:12:12:933
-0.12311168760061264,-0.03168732672929764,9.795273780822754,-0.0031478259797776105,-0.004522086542103327,0.006616108260989315,165.089135672941,-65.92592971812853,0,0.4138603210449219,2019-07-25 15:12:12:936
-0.08240094035863876,0.01620766520500183,9.783299446105957,-0.0036805882349560596,-0.005321229924871,0.002087628961935334,165.37875025301193,-61.00858417921197,0,0.417370080947876,2019-07-25 15:12:12:940
-0.08958519250154495,0.006628667004406452,9.9293794631958,-0.0036805882349560596,-0.005587611052460225,0.0042186781126862935,165.66164519749066,-56.188644997541104,0,0.41994667053222656,2019-07-25 15:12:12:943
-0.06084819510579109,0.00902341678738594,9.790483474731445,-0.004746113005387283,-0.007985041200763246,0.0015548667067568852,165.94277496018162,-51.465045893795335,0,0.42325758934020996,2019-07-25 15:12:12:946
-0.1063484400510788,-0.04126632586121559,9.766536712646484,-0.0031478259797776105,-0.0026574183889044294,0.0012884855791676607,166.21197801955583,-54.030268262930896,0,0.4268498420715332,2019-07-25 15:12:12:949
-0.020137449726462364,-0.03887157887220383,9.71864128112793,-0.00208230133938355,-0.006120373307638673,0.004485059240275518,166.48659505901688,-56.544660800976246,0,0.4304318428039551,2019-07-25 15:12:12:953
-0.15424343943595886,0.018602415919303894,9.833589553833008,-0.005545256388154957,-0.0005263691406255985,0.0028867724747401705,166.73900351269847,-51.81474504718785,0,0.43425464630126953,2019-07-25 15:12:12:957
-0.16861192882061005,0.001839167787693441,9.795273780822754,-0.005012494132976508,-0.006653135562817124,0.003952296985097069,166.98582590360604,-47.17766640722379,0,0.4378037452697754,2019-07-25 15:12:12:960
-0.11832218617200851,-0.017318829894065857,9.764142036437988,-0.005012494132976508,0.0002727743071606566,0.005284202623043192,167.23218657989108,-49.83139616597117,0,0.4402353763580322,2019-07-25 15:12:12:963
-0.09676943719387054,0.025786664336919785,9.824010848999023,-0.006610780898511855,-0.004522086542103327,0.0028867724747401705,167.47718631333734,-45.236415511386134,0,0.44390082359313965,2019-07-25 15:12:12:966
-0.1255064308643341,-0.014924080111086369,9.835984230041504,-0.0034142071073668353,-0.0034565617716721033,0.002087628961935334,167.71363095922845,-47.92934660174562,0,0.4470405578613281,2019-07-25 15:12:12:970
-0.022532200440764427,-0.050845324993133545,9.70666790008545,-0.0036805882349560596,-0.005587611052460225,0.0023540102195617214,167.9576497282077,-50.56413050741957,0,0.4500730037689209,2019-07-25 15:12:12:973
-0.11353268474340439,0.004233917687088251,9.749773025512695,-0.004213350490134509,-0.004788467669692552,0.0015548667067568852,168.18617819077448,-45.9524439453376,0,0.4538838863372803,2019-07-25 15:12:12:976
-0.11592743545770645,0.020997164770960808,9.881484031677246,-0.002348682597009937,-0.005321229924871,0.003952296985097069,168.4099502179363,-41.435415736103614,0,0.45702528953552246,2019-07-25 15:12:12:980
-0.10874319076538086,-0.029292577877640724,9.766536712646484,-0.004746113005387283,-0.005587611052460225,0.005017821495453967,168.6299270957163,-44.202476932571116,0,0.460003137588501,2019-07-25 15:12:12:983
-0.09437469393014908,0.011418166570365429,9.780904769897461,-0.001815920211794325,-0.004522086542103327,0.0018212478343461098,168.84725953897546,-39.71936860698397,0,0.46389198303222656,2019-07-25 15:12:12:986
-0.06563769280910492,-0.06281907111406326,9.78808879852295,-0.002348682597009937,-0.0026574183889044294,0.0042186781126862935,169.0631020396207,-42.51720984048465,0,0.4670548439025879,2019-07-25 15:12:12:990
-0.1063484400510788,-0.002950331661850214,9.730615615844727,-0.003946969362545284,-0.00585399218004945,0.004751440367864743,169.27030847373035,-45.265849368083806,0,0.47007274627685547,2019-07-25 15:12:12:993
-0.12071693688631058,0.013812916353344917,9.869510650634766,-0.0036805882349560596,-0.004255705154439777,0.006083346005810866,169.4717922495258,-40.76135320818069,0,0.4738612174987793,2019-07-25 15:12:12:996
-0.1063484400510788,-0.0005555819370783865,9.80964183807373,-0.006078018643333406,-0.003190180644082879,0.004485059240275518,169.67049657281808,-43.54498898301777,0,0.4770030975341797,2019-07-25 15:12:13:000
-0.12311168760061264,-0.0340820774435997,9.802457809448242,-0.0031478259797776105,-0.005054848797281776,0.007148870516167764,169.86354818137949,-46.26957402569907,0,0.4800071716308594,2019-07-25 15:12:13:003
-0.05845344439148903,-0.0005555819370783865,9.744983673095703,-0.005545256388154957,-0.005321229924871,0.0031531536023293957,170.06055997688955,-48.94291230107545,0,0.48387694358825684,2019-07-25 15:12:13:006
-0.0536639466881752,-0.03168732672929764,9.90782642364502,-0.002615063724599162,-0.0026574183889044294,0.0036859158575078444,170.25361217934136,-51.55992669214917,0,0.4870266914367676,2019-07-25 15:12:13:010
-0.12311168760061264,-0.06281907111406326,9.893458366394043,-0.0036805882349560596,-0.002391037261315205,0.006616108260989315,170.43468520904653,-54.12083028095059,0,0.4900360107421875,2019-07-25 15:12:13:013
-0.07761144638061523,0.00902341678738594,9.752167701721191,-0.003946969362545284,-0.005587611052460225,0.002620391347150946,170.61806905331127,-49.43862843398143,0,0.4938511848449707,2019-07-25 15:12:13:016
-0.10395368933677673,-0.002950331661850214,9.792879104614258,-0.005545256388154957,-0.002124656003688818,0.0023540102195617214,170.7939179673562,-52.048534511813855,0,0.49698615074157715,2019-07-25 15:12:13:020
-0.12790118157863617,-0.043661076575517654,9.80964183807373,-0.0068771620261010805,-0.0037229428992613276,0.00341953472991862,170.96373350926999,-54.601292684339654,0,0.5000183582305908,2019-07-25 15:12:13:023
-0.07761144638061523,-0.07479282468557358,9.756957054138184,-0.004213350490134509,-0.003989324026850552,0.0028867724747401705,171.13620750187678,-57.09957076181275,0,0.5038738250732422,2019-07-25 15:12:13:026
-0.07282194495201111,-0.06521382182836533,9.833589553833008,-0.005278875260565733,-0.003989324026850552,0.005550583750632416,171.30570508385804,-59.549043745959594,0,0.5070326328277588,2019-07-25 15:12:13:030
-0.04408494755625725,-0.002950331661850214,9.802457809448242,-0.003946969362545284,-0.005321229924871,0.007681633291494863,171.47532989663864,-61.9570560108935,0,0.5100195407867432,2019-07-25 15:12:13:033
-0.09676943719387054,-0.01252933032810688,9.83837890625,-0.005278875260565733,-0.004522086542103327,0.005550583750632416,171.6355233833383,-64.31532222789701,0,0.5138430595397949,2019-07-25 15:12:13:036
-0.07761144638061523,-0.005345081444829702,9.785694122314453,-0.002348682597009937,-0.00585399218004945,0.0028867724747401705,171.79475455918302,-66.6279766863128,0,0.5169761180877686,2019-07-25 15:12:13:040
-0.09676943719387054,-0.024503078311681747,9.876694679260254,-0.0036805882349560596,-0.003989324026850552,0.004751440367864743,171.94830443144795,-68.89195426007795,0,0.5199761390686035,2019-07-25 15:12:13:043
-0.14226968586444855,-0.043661076575517654,9.812036514282227,-0.0036805882349560596,-0.002923799516493654,0.007415251643756989,172.09336511970773,-71.10820948243233,0,0.5238795280456543,2019-07-25 15:12:13:046
-0.06084819510579109,-0.0005555819370783865,9.893458366394043,-0.005811637515744182,-0.003190180644082879,0.007415251643756989,172.24501463610375,-73.28495256348926,0,0.5270309448242188,2019-07-25 15:12:13:050
-0.07521669566631317,0.03536566346883774,9.790483474731445,-0.005278875260565733,-0.0034565617716721033,0.007948014419084088,172.39189368293057,-68.22250274795013,0,0.5300338268280029,2019-07-25 15:12:13:053
-0.0536639466881752,0.040155161172151566,9.78808879852295,-0.0034142071073668353,-0.005321229924871,0.006616108260989315,172.5389174270376,-63.26201963665893,0,0.5338630676269531,2019-07-25 15:12:13:056
-0.14705918729305267,0.018602415919303894,9.859931945800781,-0.004479731877798059,-0.002124656003688818,0.0042186781126862935,172.6714239501957,-58.3981510863064,0,0.5370042324066162,2019-07-25 15:12:13:060
-0.11113794147968292,-0.03168732672929764,9.740194320678711,-0.0036805882349560596,-0.002124656003688818,0.005550583750632416,172.80528283555702,-60.82583307927186,0,0.5400383472442627,2019-07-25 15:12:13:063
-0.08719044178724289,-0.036476828157901764,9.88866901397705,-0.005545256388154957,-0.003190180644082879,0.006083346005810866,172.93976108549563,-63.20389454938998,0,0.5438759326934814,2019-07-25 15:12:13:066
-0.07521669566631317,0.006628667004406452,9.835984230041504,-0.006344399770922631,-0.005321229924871,0.006616108260989315,173.07314841495167,-58.33946184539602,0,0.5470397472381592,2019-07-25 15:12:13:070
-0.09676943719387054,-0.0604243241250515,9.816825866699219,-0.004213350490134509,-0.005054848797281776,0.004485059240275518,173.20131668302832,-60.764846917232745,0,0.5503048896789551,2019-07-25 15:12:13:073
-0.09197994321584702,-0.02689782902598381,9.847957611083984,-0.0036805882349560596,0.0002727743071606566,0.005816964878221641,173.3265333164233,-63.145684888822686,0,0.5538625717163086,2019-07-25 15:12:13:076
-0.10395368933677673,0.047339413315057755,9.783299446105957,-0.002881444852188386,-0.004255705154439777,0.004485059240275518,173.4485776979527,-58.287807746030566,0,0.5570039749145508,2019-07-25 15:12:13:080
-0.11832218617200851,-0.05324007570743561,9.819220542907715,-0.002615063724599162,-0.004788467669692552,0.005284202623043192,173.56659399295546,-60.71540401403661,0,0.5599627494812012,2019-07-25 15:12:13:083
-0.14226968586444855,0.004233917687088251,9.824010848999023,-0.002881444852188386,-0.006653135562817124,0.006083346005810866,173.68012402022217,-55.90095933650055,0,0.5638594627380371,2019-07-25 15:12:13:086
-0.08240094035863876,0.08326065540313721,9.821615219116211,-0.002348682597009937,-0.0037229428992613276,0.0042186781126862935,173.79756270820636,-51.19224102222044,0,0.5669922828674316,2019-07-25 15:12:13:090
-0.13029593229293823,-0.02689782902598381,9.819220542907715,-0.002881444852188386,-0.0018582748760995933,0.005816964878221641,173.90672071721664,-53.764770196865776,0,0.5700023174285889,2019-07-25 15:12:13:093
-0.06324294209480286,0.05212891101837158,9.83837890625,-0.004213350490134509,-0.00585399218004945,0.005816964878221641,174.02249137964915,-49.09463151364695,0,0.5738694667816162,2019-07-25 15:12:13:096
-0.08479569107294083,-0.03887157887220383,9.742588996887207,-0.0036805882349560596,-0.0015918937485103685,0.005284202623043192,174.1323484409992,-51.707518927837775,0,0.5770046710968018,2019-07-25 15:12:13:100
-0.05845344439148903,0.004233917687088251,9.800063133239746,-0.0031478259797776105,-0.004255705154439777,0.006616108260989315,174.24359147939404,-47.073327465365715,0,0.5800380706787109,2019-07-25 15:12:13:103
-0.16142767667770386,-0.002950331661850214,9.900642395019531,-0.005278875260565733,-0.005054848797281776,0.003952296985097069,174.34112900421468,-49.73037947520124,0,0.5838840007781982,2019-07-25 15:12:13:106
-0.16861192882061005,-0.007739831227809191,9.80964183807373,-0.0036805882349560596,-0.002124656003688818,0.004485059240275518,174.43498794007505,-52.33421637109373,0,0.5870358943939209,2019-07-25 15:12:13:110
-0.10395368933677673,-0.01252933032810688,9.90782642364502,-0.001815920211794325,-0.004788467669692552,0.005550583750632416,174.5350752204296,-54.88577589623121,0,0.5900471210479736,2019-07-25 15:12:13:113
-0.07042719423770905,-0.007739831227809191,9.665956497192383,-0.005811637515744182,-0.003989324026850552,0.0015548667067568852,174.63688731672744,-57.385886004785156,0,0.5938985347747803,2019-07-25 15:12:13:116
-0.11113794147968292,0.006628667004406452,9.816825866699219,-0.004213350490134509,-0.006120373307638673,0.004485059240275518,174.73224659365286,-52.6382057383733,0,0.5970108509063721,2019-07-25 15:12:13:120
-0.11592743545770645,0.011418166570365429,9.835984230041504,-0.00208230133938355,-0.0037229428992613276,0.0036859158575078444,174.8247269864441,-47.98641920576959,0,0.6000270843505859,2019-07-25 15:12:13:123
-0.06563769280910492,-0.01971357874572277,9.752167701721191,-0.004213350490134509,-0.0005263691406255985,0.002620391347150946,174.92063445625953,-50.623457376836186,0,0.6039032936096191,2019-07-25 15:12:13:126
-0.07282194495201111,-0.0005555819370783865,9.773720741271973,-0.007676305408868754,-0.002923799516493654,0.006616108260989315,175.01419807054435,-53.20957328504969,0,0.6070349216461182,2019-07-25 15:12:13:130
-0.07761144638061523,0.02339191548526287,9.824010848999023,-0.0034142071073668353,-0.0015918937485103685,-4.3420127860704935e-05,175.10512552950968,-48.54754377083137,0,0.6099903583526611,2019-07-25 15:12:13:133
-0.06324294209480286,-0.022108329460024834,9.814431190490723,-0.004479731877798059,-0.004522086542103327,0.0028867724747401705,175.19662139706566,-51.17303836207498,0,0.6138594150543213,2019-07-25 15:12:13:136
-0.11592743545770645,0.03057616390287876,9.771326065063477,-0.004746113005387283,-0.004522086542103327,0.003952296985097069,175.27989315240816,-46.552325043063796,0,0.6170051097869873,2019-07-25 15:12:13:140
-0.08479569107294083,-0.03168732672929764,9.843168258666992,-0.001815920211794325,-0.0037229428992613276,0.0023540102195617214,175.3650536676202,-49.21728239435625,0,0.6200180053710938,2019-07-25 15:12:13:143
-0.18058568239212036,-0.05324007570743561,9.778510093688965,-0.004479731877798059,-0.004522086542103327,0.0036859158575078444,175.43756909722194,-51.82573048491425,0,0.6238634586334229,2019-07-25 15:12:13:146
-0.13748018443584442,0.004233917687088251,9.76893138885498,-0.002348682597009937,-0.004522086542103327,0.003952296985097069,175.51348923723614,-47.18929849128361,0,0.6270029544830322,2019-07-25 15:12:13:150
-0.11832218617200851,-0.02689782902598381,9.812036514282227,-0.004479731877798059,-0.005321229924871,0.0036859158575078444,175.5903028712053,-49.84161252771232,0,0.6300191879272461,2019-07-25 15:12:13:153
-0.04408494755625725,0.001839167787693441,9.864721298217773,-0.0036805882349560596,-0.004255705154439777,0.0015548667067568852,175.67429823949337,-45.244196146707104,0,0.6338794231414795,2019-07-25 15:12:13:156
-0.15424343943595886,-0.01252933032810688,9.795273780822754,-0.0034142071073668353,-0.002923799516493654,0.005816964878221641,175.74328742889153,-47.937241488846,0,0.6370351314544678,2019-07-25 15:12:13:160
-0.14226968586444855,-0.017318829894065857,9.852746963500977,-0.005012494132976508,-0.003989324026850552,0.002087628961935334,175.8125707070906,-50.57560986714654,0,0.6401352882385254,2019-07-25 15:12:13:163
-0.13508543372154236,0.018602415919303894,9.821615219116211,-0.0036805882349560596,-0.00025998799678172854,0.0028867724747401705,175.88061407575563,-45.965495271168585,0,0.6438746452331543,2019-07-25 15:12:13:166
-0.11113794147968292,-0.024503078311681747,9.831194877624512,-0.00208230133938355,-0.005054848797281776,0.003952296985097069,175.95094084008477,-48.6429616000513,0,0.647019624710083,2019-07-25 15:12:13:170
-0.10155893862247467,0.018602415919303894,9.80964183807373,-0.002881444852188386,-0.0015918937485103685,0.0018212478343461098,176.02032863409244,-44.07178702057635,0,0.6500382423400879,2019-07-25 15:12:13:173
-0.07282194495201111,-0.09874031692743301,9.833589553833008,-0.0036805882349560596,-0.004788467669692552,0.002620391347150946,176.0924650261371,-46.7780546064416,0,0.6538646221160889,2019-07-25 15:12:13:176
-0.09437469393014908,-0.04126632586121559,9.709062576293945,-0.0036805882349560596,-0.005321229924871,0.0028867724747401705,176.1604205655586,-49.43697074995254,0,0.6570210456848145,2019-07-25 15:12:13:180
-0.10874319076538086,-0.010134580545127392,9.795273780822754,-0.004213350490134509,-0.004522086542103327,0.0023540102195617214,176.2252477859627,-52.04634077772595,0,0.6600008010864258,2019-07-25 15:12:13:183
-0.17579618096351624,-0.014924080111086369,9.859931945800781,-0.005278875260565733,-0.004255705154439777,0.005284202623043192,176.28123410264783,-54.602538258548634,0,0.6638510227203369,2019-07-25 15:12:13:186
-0.1063484400510788,-0.036476828157901764,9.728219985961914,-0.0034142071073668353,-0.003989324026850552,0.0023540102195617214,176.3437857512768,-57.10558921092226,0,0.6669890880584717,2019-07-25 15:12:13:190
-0.03929544612765312,-0.02689782902598381,9.800063133239746,-0.002348682597009937,-0.005587611052460225,0.0028867724747401705,176.413265556046,-59.55993284545062,0,0.6700179576873779,2019-07-25 15:12:13:193
-0.08719044178724289,-0.017318829894065857,9.79766845703125,-0.005545256388154957,-0.003989324026850552,0.004751440367864743,176.47566721431338,-61.96550719114946,0,0.6738765239715576,2019-07-25 15:12:13:196
-0.041690196841955185,-0.007739831227809191,9.812036514282227,-0.005278875260565733,-0.005587611052460225,0.0031531536023293957,176.5422713062264,-64.32436136452574,0,0.6770200729370117,2019-07-25 15:12:13:200
-0.10874319076538086,-0.03887157887220383,9.845562934875488,-0.006078018643333406,-0.003989324026850552,0.003952296985097069,176.59944386016494,-66.6323230775887,0,0.6800289154052734,2019-07-25 15:12:13:203
-0.09916418790817261,-0.007739831227809191,9.874300003051758,-0.005278875260565733,-0.0013255126209211442,0.0031531536023293957,176.6562341451658,-68.89763618004265,0,0.683882474899292,2019-07-25 15:12:13:206
-0.1063484400510788,-0.043661076575517654,9.800063133239746,-0.002881444852188386,-0.0026574183889044294,0.001022104451578436,176.71114332372701,-71.11407008584274,0,0.6870231628417969,2019-07-25 15:12:13:210
-0.08958519250154495,-0.007739831227809191,9.80964183807373,-0.0034142071073668353,-0.0034565617716721033,0.004485059240275518,176.767039851976,-73.29030769146512,0,0.6900322437286377,2019-07-25 15:12:13:213
-0.10155893862247467,0.004233917687088251,9.82640552520752,-0.003946969362545284,-0.002923799516493654,0.0018212478343461098,176.82048493054668,-68.22414637252373,0,0.6938626766204834,2019-07-25 15:12:13:216
-0.04408494755625725,0.018602415919303894,9.754562377929688,-0.005811637515744182,-0.005054848797281776,-0.0021744692095294216,176.87978524240515,-63.2608268369576,0,0.6969943046569824,2019-07-25 15:12:13:220
-0.06324294209480286,0.018602415919303894,9.82640552520752,-0.006078018643333406,-0.003190180644082879,0.0042186781126862935,176.93535483897742,-58.3967501747088,0,0.7000107765197754,2019-07-25 15:12:13:223
-0.08719044178724289,-0.06281907111406326,9.88866901397705,-0.004479731877798059,-0.00585399218004945,0.0012884855791676607,176.98781512926863,-60.82056314090058,0,0.7038772106170654,2019-07-25 15:12:13:226
-0.041690196841955185,-0.05324007570743561,9.812036514282227,-0.006078018643333406,-0.0013255126209211442,0.0031531536023293957,177.04342413799066,-63.19686056131472,0,0.7070231437683105,2019-07-25 15:12:13:230
-0.10395368933677673,-0.005345081444829702,9.800063133239746,-0.006078018643333406,-0.005054848797281776,0.004485059240275518,177.091242954662,-65.53128581609529,0,0.7099900245666504,2019-07-25 15:12:13:233
-0.11353268474340439,-0.029292577877640724,9.833589553833008,-0.0031478259797776105,-0.004522086542103327,0.0018212478343461098,177.13716844081253,-67.81656457999486,0,0.7138488292694092,2019-07-25 15:12:13:236
-0.12071693688631058,-0.014924080111086369,9.82640552520752,-0.007409924281279529,-0.002923799516493654,0.0015548667067568852,177.1808637915831,-70.05718636816366,0,0.7169890403747559,2019-07-25 15:12:13:240
-0.09197994321584702,-0.007739831227809191,9.790483474731445,-0.002881444852188386,-0.004255705154439777,0.0031531536023293957,177.22720229820789,-72.25464846688914,0,0.7200069427490234,2019-07-25 15:12:13:243
-0.09437469393014908,0.028181415051221848,9.733010292053223,-0.0036805882349560596,-0.003989324026850552,0.0007557233239892114,177.27241476248778,-67.2120731887665,0,0.7238790988922119,2019-07-25 15:12:13:246
-0.10395368933677673,0.03536566346883774,9.831194877624512,-0.000750395701437427,-0.005587611052460225,0.0042186781126862935,177.31584526151357,-62.271820260802436,0,0.72705078125,2019-07-25 15:12:13:250
-0.13029593229293823,0.011418166570365429,9.790483474731445,-0.005012494132976508,-0.0015918937485103685,0.0036859158575078444,177.35454980635845,-57.426867333124555,0,0.73008131980896,2019-07-25 15:12:13:253
-0.13508543372154236,0.011418166570365429,9.85035228729248,-0.004746113005387283,-0.004788467669692552,0.002087628961935334,177.39276121740076,-52.67865103666789,0,0.733860969543457,2019-07-25 15:12:13:256
-0.08958519250154495,0.018602415919303894,9.852746963500977,-0.006078018643333406,-0.002923799516493654,0.004751440367864743,177.43500170129786,-48.026171895161326,0,0.7369952201843262,2019-07-25 15:12:13:260
-0.13029593229293823,-0.05563482642173767,9.778510093688965,-0.004479731877798059,-0.004788467669692552,0.0018212478343461098,177.47184313357658,-50.65837146869945,0,0.7400062084197998,2019-07-25 15:12:13:263
-0.13029593229293823,-0.014924080111086369,9.828800201416016,-0.0034142071073668353,-0.00585399218004945,-0.0024408503371186464,177.50848482824725,-53.24272422663927,0,0.7438654899597168,2019-07-25 15:12:13:266
-0.12790118157863617,0.020997164770960808,9.795273780822754,-0.007409924281279529,-0.0037229428992613276,0.0031531536023293957,177.54400969833733,-48.579019589035184,0,0.7470057010650635,2019-07-25 15:12:13:270
-0.06563769280910492,-0.01971357874572277,9.773720741271973,-0.004746113005387283,-0.003190180644082879,0.0007557233239892114,177.58597160226316,-51.20432802290629,0,0.750007152557373,2019-07-25 15:12:13:273
-0.1446644365787506,-0.017318829894065857,9.79766845703125,-0.0034142071073668353,-0.003989324026850552,0.0015548667067568852,177.61819885810868,-53.77747548827239,0,0.7538692951202393,2019-07-25 15:12:13:276
-0.06084819510579109,0.05691841244697571,9.792879104614258,-0.0068771620261010805,-0.0018582748760995933,0.006083346005810866,177.6590750789193,-49.107252926163994,0,0.7573220729827881,2019-07-25 15:12:13:280
-0.0536639466881752,-0.022108329460024834,9.87908935546875,-0.0036805882349560596,-0.006653135562817124,0.0015548667067568852,177.7008741010219,-51.72187672882998,0,0.7605481147766113,2019-07-25 15:12:13:283
-0.15663819015026093,-0.022108329460024834,9.840773582458496,-0.004213350490134509,-0.004522086542103327,0.0028867724747401705,177.72945682938757,-54.284083515610895,0,0.7638504505157471,2019-07-25 15:12:13:286
-0.16142767667770386,-0.010134580545127392,9.792879104614258,-0.0034142071073668353,-0.005321229924871,0.0002229610200468263,177.75692464817743,-56.79660978529435,0,0.767012357711792,2019-07-25 15:12:13:290
-0.0800061896443367,0.006628667004406452,9.778510093688965,-0.005278875260565733,-0.0071858978179955724,0.001022104451578436,177.7937541812225,-52.06046741785839,0,0.7703421115875244,2019-07-25 15:12:13:293
-0.11113794147968292,0.02339191548526287,9.807247161865234,-0.000750395701437427,-0.0018582748760995933,-0.0003098012838955588,177.82526195969044,-47.42184262776034,0,0.7738697528839111,2019-07-25 15:12:13:296
-0.13029593229293823,-0.022108329460024834,9.780904769897461,-0.005012494132976508,-0.0037229428992613276,0.0012884855791676607,177.85414969006388,-50.06993057913951,0,0.7770142555236816,2019-07-25 15:12:13:300
-0.13987493515014648,0.020997164770960808,9.795273780822754,-0.007143543153690304,-0.0034565617716721033,0.0036859158575078444,177.88128708743403,-45.469783963019275,0,0.7800168991088867,2019-07-25 15:12:13:303
-0.17340143024921417,0.006628667004406452,9.862326622009277,-0.006610780898511855,-0.0034565617716721033,0.0012884855791676607,177.9042632041635,-40.95972885304167,0,0.7838683128356934,2019-07-25 15:12:13:306
-0.0536639466881752,-0.014924080111086369,9.83837890625,-0.005811637515744182,-0.005587611052460225,0.00341953472991862,177.9409118697115,-43.73777222122413,0,0.7870056629180908,2019-07-25 15:12:13:310
-0.10395368933677673,-0.014924080111086369,9.80964183807373,-0.004213350490134509,-0.004522086542103327,-0.0013753258267617478,177.97071324842958,-46.460562942862765,0,0.7900087833404541,2019-07-25 15:12:13:313
-0.1255064308643341,0.00902341678738594,9.833589553833008,-0.005811637515744182,-0.006653135562817124,0.004485059240275518,177.99811649701044,-41.93114350705188,0,0.7938690185546875,2019-07-25 15:12:13:316
-0.14945393800735474,0.032970912754535675,9.82640552520752,-0.006078018643333406,-0.00585399218004945,0.0015548667067568852,178.0217575776852,-37.495295330331174,0,0.7970049381256104,2019-07-25 15:12:13:320
-0.13508543372154236,-0.05324007570743561,9.740194320678711,-0.005278875260565733,-0.004255705154439777,0.0015548667067568852,178.0461547814425,-40.33822796815534,0,0.8000342845916748,2019-07-25 15:12:13:323
-0.027321700006723404,-0.024503078311681747,9.744983673095703,-0.003946969362545284,-0.005587611052460225,0.0031531536023293957,178.08322586239356,-43.12772953716479,0,0.8038811683654785,2019-07-25 15:12:13:326
-0.13748018443584442,-0.0005555819370783865,9.814431190490723,-0.0034142071073668353,-0.003190180644082879,0.001022104451578436,178.10607367870236,-45.86450729936667,0,0.8070254325866699,2019-07-25 15:12:13:330
-0.11113794147968292,-0.002950331661850214,9.845562934875488,-0.002348682597009937,-0.002391037261315205,0.001022104451578436,178.1314171516595,-48.54648121107369,0,0.8100020885467529,2019-07-25 15:12:13:333
-0.1518486887216568,0.04254991188645363,9.859931945800781,-0.006078018643333406,-0.005054848797281776,0.00341953472991862,178.1522476929721,-43.97916770736891,0,0.8138961791992188,2019-07-25 15:12:13:336
-0.13029593229293823,-0.007739831227809191,9.778510093688965,-0.0015495390842051007,-0.003989324026850552,0.002620391347150946,178.17463227503566,-46.69840636661287,0,0.8170106410980225,2019-07-25 15:12:13:340
-0.1590329259634018,-0.022108329460024834,9.795273780822754,-0.0036805882349560596,-0.004788467669692552,0.00341953472991862,178.19334489758245,-49.36123053751223,0,0.8200170993804932,2019-07-25 15:12:13:343
-0.09197994321584702,0.04973416030406952,9.857537269592285,-0.004746113005387283,-0.004788467669692552,0.001022104451578436,178.21981972710614,-44.77876263206434,0,0.8238623142242432,2019-07-25 15:12:13:346
-0.13508543372154236,-0.07718757539987564,9.749773025512695,-0.002881444852188386,-0.005587611052460225,0.004485059240275518,178.24053300937675,-47.473607260921575,0,0.8270037174224854,2019-07-25 15:12:13:350
-0.13748018443584442,-0.04605582728981972,9.735404968261719,-0.002881444852188386,-0.0010591314283133382,0.0012884855791676607,178.25972060018032,-50.11822598848933,0,0.8300206661224365,2019-07-25 15:12:13:353
-0.09916418790817261,-0.007739831227809191,9.800063133239746,-0.002615063724599162,-0.004255705154439777,0.002620391347150946,178.28385101363602,-52.71439135096265,0,0.833869218826294,2019-07-25 15:12:13:356
-0.07761144638061523,0.028181415051221848,9.835984230041504,-0.0031478259797776105,-0.007985041200763246,-4.3420127860704935e-05,178.31054063207668,-48.06283151605968,0,0.837010383605957,2019-07-25 15:12:13:360
-0.10155893862247467,-0.06521382182836533,9.814431190490723,-0.003946969362545284,-0.004255705154439777,0.0023540102195617214,178.33319810843216,-50.69328768751352,0,0.8400473594665527,2019-07-25 15:12:13:363
-0.21411217749118805,-0.005345081444829702,9.819220542907715,-0.004213350490134509,-0.003989324026850552,0.0007557233239892114,178.3424047918894,-53.27789635536458,0,0.8438591957092285,2019-07-25 15:12:13:366
-0.16382242739200592,-0.0340820774435997,9.876694679260254,-0.005811637515744182,-0.004255705154439777,0.0007557233239892114,178.3573008123745,-55.80736076782381,0,0.8469953536987305,2019-07-25 15:12:13:370
-0.13029593229293823,-0.010134580545127392,9.756957054138184,-0.0034142071073668353,-0.003989324026850552,0.0004893421638906962,178.37553164989146,-58.28944244779882,0,0.8500251770019531,2019-07-25 15:12:13:373
-0.11592743545770645,-0.07239807397127151,9.876694679260254,-0.000750395701437427,-0.005054848797281776,0.0023540102195617214,178.39566679003178,-60.71509136803327,0,0.853884220123291,2019-07-25 15:12:13:376
-0.09437469393014908,-0.005345081444829702,9.790483474731445,-0.003946969362545284,-0.004255705154439777,0.0007557233239892114,178.4175361353545,-63.09939570935335,0,0.8573505878448486,2019-07-25 15:12:13:380
-0.11353268474340439,0.03057616390287876,9.85035228729248,-0.004746113005387283,-0.006653135562817124,0.001022104451578436,178.4369396697722,-58.24027909214681,0,0.8599236011505127,2019-07-25 15:12:13:382
-0.08479569107294083,0.013812916353344917,9.752167701721191,-0.0034142071073668353,-0.005321229924871,0.005284202623043192,178.45922714893055,-53.47646148487756,0,0.8632364273071289,2019-07-25 15:12:13:386
-0.08958519250154495,-0.014924080111086369,9.761747360229492,-0.005811637515744182,-0.0026574183889044294,-0.0005761824439940741,178.48006212125418,-56.00400927670822,0,0.8668251037597656,2019-07-25 15:12:13:389
-0.034505948424339294,0.03057616390287876,9.82640552520752,-0.0031478259797776105,-0.0013255126209211442,-0.0011089446991725232,178.5066670668949,-51.28694827019292,0,0.8699169158935547,2019-07-25 15:12:13:392
-0.15424343943595886,-0.010134580545127392,9.833589553833008,-0.002615063724599162,-0.003190180644082879,0.0028867724747401705,178.51915400346397,-53.85954229461658,0,0.8732268810272217,2019-07-25 15:12:13:396
-0.14945393800735474,-0.0005555819370783865,9.773720741271973,-0.000750395701437427,-0.0037229428992613276,0.0018212478343461098,178.53197464543643,-56.382140175324345,0,0.8766951560974121,2019-07-25 15:12:13:399
-0.08240094035863876,-0.04126632586121559,9.807247161865234,-0.0034142071073668353,-0.006919516690406348,0.0004893421638906962,178.5529483447185,-58.849063356814774,0,0.8798892498016357,2019-07-25 15:12:13:402
-0.1255064308643341,-0.0005555819370783865,9.821615219116211,-0.004746113005387283,-0.002923799516493654,0.0015548667067568852,178.56786577143276,-61.27101281153146,0,0.8836584091186523,2019-07-25 15:12:13:406
-0.09197994321584702,0.00902341678738594,9.883878707885742,-0.002348682597009937,-0.006919516690406348,0.001022104451578436,178.58717631067108,-56.44618676010165,0,0.8870854377746582,2019-07-25 15:12:13:410
-0.06563769280910492,-0.043661076575517654,9.75935173034668,-0.0034142071073668353,-0.002923799516493654,0.0031531536023293957,178.60822676105587,-58.91155163715744,0,0.8901362419128418,2019-07-25 15:12:13:413
-0.13029593229293823,0.013812916353344917,9.713851928710938,-0.004213350490134509,-0.004788467669692552,0.0042186781126862935,178.62169682349827,-54.134066379254705,0,0.893871545791626,2019-07-25 15:12:13:416
-0.08719044178724289,-0.007739831227809191,9.831194877624512,-0.002348682597009937,-0.002124656003688818,0.0002229610200468263,178.63947590238962,-56.650067709358524,0,0.8970198631286621,2019-07-25 15:12:13:420
-0.07042719423770905,0.040155161172151566,9.790483474731445,-0.0015495390842051007,-0.0034565617716721033,0.004751440367864743,178.6590280790826,-51.921504163300746,0,0.9000320434570312,2019-07-25 15:12:13:423
-0.09916418790817261,0.004233917687088251,9.785694122314453,-0.004213350490134509,-0.005054848797281776,0.0023540102195617214,178.6753274011402,-47.28265989711674,0,0.9038784503936768,2019-07-25 15:12:13:426
-0.11832218617200851,0.01620766520500183,9.804852485656738,-0.005545256388154957,-0.0026574183889044294,0.0015548667067568852,178.68846100356356,-42.73792421067559,0,0.907015323638916,2019-07-25 15:12:13:430
-0.08479569107294083,-0.029292577877640724,9.874300003051758,-0.005811637515744182,-0.003190180644082879,0.004751440367864743,178.7053845339542,-45.47879520677575,0,0.9099912643432617,2019-07-25 15:12:13:433
-0.13029593229293823,0.02339191548526287,9.828800201416016,-0.0004840145413389117,-0.0034565617716721033,0.0023540102195617214,178.71683532664008,-40.97184169597057,0,0.9138476848602295,2019-07-25 15:12:13:436
-0.08719044178724289,0.01620766520500183,9.843168258666992,-0.006610780898511855,-0.002124656003688818,0.0012884855791676607,178.73272320032765,-36.553125553896166,0,0.9169893264770508,2019-07-25 15:12:13:440
-0.08240094035863876,-0.03168732672929764,9.82640552520752,-0.002881444852188386,-0.0026574183889044294,0.001022104451578436,178.74890940536238,-39.41788018907996,0,0.9200031757354736,2019-07-25 15:12:13:443
-0.1255064308643341,0.025786664336919785,9.754562377929688,-0.0036805882349560596,-0.0063867544352278986,0.005284202623043192,178.7605725234745,-35.031754088648164,0,0.923863410949707,2019-07-25 15:12:13:446
-0.13748018443584442,0.025786664336919785,9.869510650634766,-0.005278875260565733,-0.002391037261315205,0.001022104451578436,178.76982223460135,-30.733180239844554,0,0.9270102977752686,2019-07-25 15:12:13:450
-0.12071693688631058,-0.002950331661850214,9.761747360229492,-0.0010167768290266514,-0.005587611052460225,0.004751440367864743,178.78120080030686,-33.7179983294001,0,0.9300224781036377,2019-07-25 15:12:13:453
-0.09916418790817261,-0.02689782902598381,9.824010848999023,-0.004479731877798059,-0.003989324026850552,0.002620391347150946,178.7948698517072,-36.63953559805765,0,0.9338600635528564,2019-07-25 15:12:13:456
-0.06563769280910492,0.028181415051221848,9.723430633544922,-0.005811637515744182,-0.0010591314283133382,0.0042186781126862935,178.81142355822732,-32.30904299528806,0,0.936995267868042,2019-07-25 15:12:13:460
-0.11592743545770645,0.006628667004406452,9.891063690185547,-0.0036805882349560596,-0.0034565617716721033,0.005550583750632416,178.82235100438402,-28.063006199911122,0,0.940014123916626,2019-07-25 15:12:13:463
-0.056058697402477264,-0.0005555819370783865,9.886274337768555,-0.0031478259797776105,-0.005054848797281776,0.004751440367864743,178.84050310168652,-31.100998665585397,0,0.9438784122467041,2019-07-25 15:12:13:466
-0.11113794147968292,-0.02689782902598381,9.855142593383789,-0.005545256388154957,-0.003989324026850552,0.0018212478343461098,178.8514757723223,-34.07487137330551,0,0.9470250606536865,2019-07-25 15:12:13:470
-0.1853751838207245,-0.03168732672929764,9.821615219116211,-0.005811637515744182,-0.005587611052460225,0.001022104451578436,178.85376779982852,-36.9886917098273,0,0.9500441551208496,2019-07-25 15:12:13:473
-0.0536639466881752,0.047339413315057755,9.833589553833008,-0.0034142071073668353,-0.003989324026850552,0.004485059240275518,178.87129376504222,-32.653702796761166,0,0.9538600444793701,2019-07-25 15:12:13:476
-0.048874445259571075,0.0641026571393013,9.85035228729248,-0.005012494132976508,-0.005587611052460225,0.002087628961935334,178.88916298556077,-28.407206065614407,0,0.9569859504699707,2019-07-25 15:12:13:480
-0.022532200440764427,-0.03887157887220383,9.886274337768555,-0.005012494132976508,-0.0063867544352278986,0.0031531536023293957,178.90983157026304,-31.433721676870906,0,0.959951639175415,2019-07-25 15:12:13:483
-0.022532200440764427,0.004233917687088251,9.785694122314453,-0.006344399770922631,-0.002124656003688818,0.002620391347150946,178.9294626093508,-27.204150893705975,0,0.9638595581054688,2019-07-25 15:12:13:486
-0.08958519250154495,0.02339191548526287,9.82640552520752,-0.0034142071073668353,-0.005054848797281776,-0.0003098012838955588,178.94132767985968,-23.06218711233175,0,0.9670343399047852,2019-07-25 15:12:13:490
-0.04647969827055931,-0.036476828157901764,9.824010848999023,-0.006610780898511855,-0.005054848797281776,0.005550583750632416,178.9579309292634,-26.195575158739814,0,0.9700338840484619,2019-07-25 15:12:13:493
-0.09916418790817261,-0.014924080111086369,9.893458366394043,-0.0034142071073668353,-0.003190180644082879,0.006616108260989315,178.96797158916573,-29.269202344504457,0,0.9738559722900391,2019-07-25 15:12:13:496
-0.056058697402477264,-0.06521382182836533,9.824010848999023,-0.006078018643333406,-0.003190180644082879,0.003952296985097069,178.98263532732804,-32.27514078800568,0,0.9769935607910156,2019-07-25 15:12:13:500
-0.13508543372154236,0.0377604141831398,9.76893138885498,-0.004479731877798059,-0.005054848797281776,0.0036859158575078444,178.9879935222872,-28.03330899135705,0,0.9800083637237549,2019-07-25 15:12:13:503
-0.1446644365787506,-0.01971357874572277,9.893458366394043,-0.002881444852188386,-0.0018582748760995933,0.0036859158575078444,178.99188258333587,-31.069733685387575,0,0.9838762283325195,2019-07-25 15:12:13:506
-0.1063484400510788,-0.029292577877640724,9.88866901397705,-0.005278875260565733,-0.004788467669692552,0.0042186781126862935,179.00056806451246,-34.04401136159023,0,0.9870245456695557,2019-07-25 15:12:13:510
-0.11353268474340439,0.02339191548526287,9.843168258666992,-0.0036805882349560596,-0.007985041200763246,0.004751440367864743,179.0086306835146,-29.765259485242492,0,0.9899029731750488,2019-07-25 15:12:13:512
-0.11832218617200851,0.02339191548526287,9.807247161865234,-0.002881444852188386,-0.004788467669692552,0.0015548667067568852,179.01563336260352,-25.572085844781963,0,0.9936215877532959,2019-07-25 15:12:13:516
-0.13029593229293823,-0.01971357874572277,9.886274337768555,-0.005278875260565733,-0.005321229924871,0.006083346005810866,179.02125242446266,-28.657333936772968,0,0.9970803260803223,2019-07-25 15:12:13:520
-0.09676943719387054,0.03057616390287876,9.86711597442627,-0.004746113005387283,-0.004522086542103327,0.005550583750632416,179.03035729982858,-24.48693229987701,0,1.0001044273376465,2019-07-25 15:12:13:523
-0.06563769280910492,-0.05324007570743561,9.9293794631958,-0.0031478259797776105,-0.005054848797281776,0.0007557233239892114,179.04324226593053,-27.590384987277336,0,1.00386381149292,2019-07-25 15:12:13:526
-0.01774270087480545,-0.017318829894065857,9.752167701721191,-0.004213350490134509,-0.004522086542103327,0.005816964878221641,179.06109387050842,-30.635795688934195,0,1.0070195198059082,2019-07-25 15:12:13:530
-0.05126919597387314,-0.03887157887220383,9.754562377929688,-0.008475448791636427,-0.004255705154439777,0.005550583750632416,179.07456118553154,-33.61709542895716,0,1.0099990367889404,2019-07-25 15:12:13:533
-0.08479569107294083,0.006628667004406452,9.864721298217773,0.0003151289064473433,-0.005321229924871,0.00341953472991862,179.08437254227496,-29.345591775964873,0,1.0138561725616455,2019-07-25 15:12:13:536
-0.11113794147968292,0.004233917687088251,9.728219985961914,-0.005545256388154957,-0.004255705154439777,0.005284202623043192,179.0903412405376,-25.158205515535197,0,1.016981601715088,2019-07-25 15:12:13:540
-0.08719044178724289,-0.002950331661850214,9.847957611083984,-0.004746113005387283,-0.0034565617716721033,0.0015548667067568852,179.0989751918032,-28.253893406047208,0,1.0200011730194092,2019-07-25 15:12:13:543
-0.11592743545770645,-0.014924080111086369,9.814431190490723,-0.004479731877798059,-0.004255705154439777,0.004485059240275518,179.10438913487482,-31.286095863701927,0,1.02388596534729,2019-07-25 15:12:13:546
-0.11832218617200851,-0.014924080111086369,9.682720184326172,-0.004213350490134509,-0.004255705154439777,0.005284202623043192,179.10905004101397,-34.257864207245106,0,1.0270287990570068,2019-07-25 15:12:13:550
-0.08958519250154495,-0.014924080111086369,9.792879104614258,-0.003946969362545284,-0.0037229428992613276,0.0042186781126862935,179.11701538143657,-37.170293861027055,0,1.0300371646881104,2019-07-25 15:12:13:553
-0.09676943719387054,-0.043661076575517654,9.843168258666992,-0.004746113005387283,-0.003989324026850552,0.004485059240275518,179.1242771046128,-40.02077326890246,0,1.0339090824127197,2019-07-25 15:12:13:556
-0.041690196841955185,0.001839167787693441,9.785694122314453,-0.0036805882349560596,-0.004788467669692552,0.004751440367864743,179.13774592519187,-35.619930360936486,0,1.0370194911956787,2019-07-25 15:12:13:560
-0.09676943719387054,-0.007739831227809191,9.766536712646484,-0.002615063724599162,-0.0013255126209211442,0.0042186781126862935,179.1438615133621,-38.506181373385786,0,1.0400314331054688,2019-07-25 15:12:13:563
-0.14226968586444855,-0.02689782902598381,9.773720741271973,-0.004746113005387283,-0.0026574183889044294,0.005816964878221641,179.14487620481984,-41.33188416987667,0,1.0438587665557861,2019-07-25 15:12:13:566
-0.10874319076538086,0.03536566346883774,9.804852485656738,-0.005811637515744182,-0.007452278945584797,0.005284202623043192,179.15058274294498,-36.9083561019215,0,1.0469956398010254,2019-07-25 15:12:13:570
-0.10395368933677673,-0.014924080111086369,9.754562377929688,-0.002881444852188386,-0.003190180644082879,0.0002229610200468263,179.15589648391776,-39.767950858715416,0,1.0499927997589111,2019-07-25 15:12:13:573
-0.15424343943595886,0.025786664336919785,9.819220542907715,-0.0068771620261010805,-0.0015918937485103685,0.00634972713340009,179.15512665556025,-35.37410197276635,0,1.053875207901001,2019-07-25 15:12:13:576
-0.10155893862247467,-0.014924080111086369,9.86711597442627,-0.004479731877798059,-0.005054848797281776,0.00341953472991862,179.16112251264948,-38.26409577282769,0,1.0570197105407715,2019-07-25 15:12:13:580
-0.08479569107294083,-0.03168732672929764,9.773720741271973,-0.003946969362545284,-0.005054848797281776,0.006882489388578539,179.16880259544652,-41.094439593096695,0,1.0599937438964844,2019-07-25 15:12:13:583
-0.18058568239212036,-0.03887157887220383,9.7473783493042,-0.005012494132976508,-0.0037229428992613276,0.005550583750632416,179.16500532003158,-43.86689550055747,0,1.0638506412506104,2019-07-25 15:12:13:586
-0.13029593229293823,-0.0604243241250515,9.876694679260254,-0.0036805882349560596,-0.006120373307638673,0.00341953472991862,179.1676678683707,-46.58189824484907,0,1.0669903755187988,2019-07-25 15:12:13:590
-0.19255942106246948,0.03536566346883774,9.819220542907715,-0.0036805882349560596,-0.0037229428992613276,0.004751440367864743,179.16247623130363,-42.05376388541829,0,1.0700078010559082,2019-07-25 15:12:13:593
-0.08958519250154495,0.032970912754535675,9.852746963500977,-0.004479731877798059,-0.002923799516493654,0.004485059240275518,179.16944445781857,-37.61554788084928,0,1.073885440826416,2019-07-25 15:12:13:596
-0.1446644365787506,-0.03887157887220383,9.85035228729248,-0.005811637515744182,-0.004255705154439777,0.0031531536023293957,179.16998003771127,-40.45768739792001,0,1.0770342350006104,2019-07-25 15:12:13:600
-0.08958519250154495,0.03536566346883774,9.776115417480469,-0.006344399770922631,-0.0034565617716721033,0.00634972713340009,179.17668708287007,-36.05156463458149,0,1.080162525177002,2019-07-25 15:12:13:603
-0.10874319076538086,-0.010134580545127392,9.90782642364502,-0.002881444852188386,-0.005054848797281776,0.002620391347150946,179.18162778494604,-38.92876214052351,0,1.0838651657104492,2019-07-25 15:12:13:606
-0.12311168760061264,-0.02689782902598381,9.773720741271973,-0.004746113005387283,-0.004255705154439777,0.00341953472991862,179.18431202223874,-41.74619662598967,0,1.0870046615600586,2019-07-25 15:12:13:610
-0.08958519250154495,0.03536566346883774,9.83837890625,-0.005545256388154957,-0.0034565617716721033,0.0012884855791676607,179.19077088237668,-37.31446272795452,0,1.0899887084960938,2019-07-25 15:12:13:613
-0.11353268474340439,-0.04126632586121559,9.886274337768555,-0.0036805882349560596,-0.0018582748760995933,0.00341953472991862,179.19420119776726,-40.16258876396077,0,1.093867301940918,2019-07-25 15:12:13:616
-0.17340143024921417,-0.0005555819370783865,9.833589553833008,-0.004746113005387283,-0.007985041200763246,0.003952296985097069,179.19152595533626,-42.95843222328878,0,1.0970194339752197,2019-07-25 15:12:13:620
-0.11353268474340439,-0.043661076575517654,9.816825866699219,-0.005012494132976508,-0.007985041200763246,0.003952296985097069,179.19579381677354,-45.693319352396,0,1.1000313758850098,2019-07-25 15:12:13:623
-0.10155893862247467,0.01620766520500183,9.776115417480469,-0.002881444852188386,-0.005321229924871,0.002620391347150946,179.20111639617278,-41.180734179727814,0,1.1038546562194824,2019-07-25 15:12:13:626
-0.16621717810630798,-0.0005555819370783865,9.776115417480469,-0.005012494132976508,-0.002124656003688818,0.003952296985097069,179.19798736885053,-43.95617035669288,0,1.1069955825805664,2019-07-25 15:12:13:630
-0.09437469393014908,-0.022108329460024834,9.766536712646484,-0.002881444852188386,-0.005321229924871,0.00341953472991862,179.2038431518759,-46.67397198182936,0,1.1099684238433838,2019-07-25 15:12:13:633
-0.1063484400510788,-0.0340820774435997,9.85035228729248,-0.006078018643333406,-0.0018582748760995933,0.0028867724747401705,179.20780258065557,-49.3351945818432,0,1.1138746738433838,2019-07-25 15:12:13:636
-0.1518486887216568,0.03057616390287876,9.785694122314453,-0.0036805882349560596,-0.007452278945584797,0.006616108260989315,179.20718250561538,-44.75142112687319,0,1.1170201301574707,2019-07-25 15:12:13:640
-0.08240094035863876,-0.0604243241250515,9.843168258666992,-0.005012494132976508,-0.0034565617716721033,0.005550583750632416,179.21403353083795,-47.448506613007176,0,1.1200463771820068,2019-07-25 15:12:13:643
-0.1326906830072403,0.04494466260075569,9.824010848999023,-0.004479731877798059,-0.005054848797281776,0.005816964878221641,179.2153719620644,-42.90380787681904,0,1.1239070892333984,2019-07-25 15:12:13:646
-0.08958519250154495,-0.04605582728981972,9.740194320678711,-0.006078018643333406,-0.004788467669692552,0.004751440367864743,179.22136627098234,-45.639245918093394,0,1.1270349025726318,2019-07-25 15:12:13:650
-0.14945393800735474,0.001839167787693441,9.802457809448242,-0.005278875260565733,-0.002923799516493654,0.0036859158575078444,179.21996234592623,-41.12578528534063,0,1.130039930343628,2019-07-25 15:12:13:653
-0.08479569107294083,0.054523661732673645,9.752167701721191,-0.005012494132976508,-0.004788467669692552,0.00341953472991862,179.22662674741957,-36.70860098345186,0,1.1338603496551514,2019-07-25 15:12:13:656
-0.04647969827055931,-0.005345081444829702,9.804852485656738,-0.005811637515744182,-0.006120373307638673,0.002620391347150946,179.23773925690114,-39.57278141712714,0,1.1369948387145996,2019-07-25 15:12:13:660
-0.12311168760061264,-0.0340820774435997,9.821615219116211,-0.004213350490134509,-0.005587611052460225,0.0031531536023293957,179.23957000364288,-42.37663408269192,0,1.1400182247161865,2019-07-25 15:12:13:663
-0.04408494755625725,-0.010134580545127392,9.843168258666992,-0.0036805882349560596,-0.0018582748760995933,0.0023540102195617214,179.25004901994268,-45.12712408236315,0,1.1438770294189453,2019-07-25 15:12:13:666
-0.08719044178724289,0.03057616390287876,9.83837890625,-0.005545256388154957,-0.003989324026850552,0.0018212478343461098,179.25559789317174,-40.627162938008134,0,1.147024393081665,2019-07-25 15:12:13:670
-0.08240094035863876,-0.0604243241250515,9.864721298217773,-0.005012494132976508,-0.0063867544352278986,0.0007557233239892114,179.2619926364572,-43.406754324860245,0,1.150031566619873,2019-07-25 15:12:13:673
-0.08479569107294083,0.02339191548526287,9.764142036437988,-0.0034142071073668353,-0.005054848797281776,0.002620391347150946,179.2678880942159,-38.94063054228529,0,1.153860092163086,2019-07-25 15:12:13:676
-0.12071693688631058,-0.007739831227809191,9.831194877624512,-0.002881444852188386,-0.0034565617716721033,0.002620391347150946,179.2690689213326,-41.76040849171824,0,1.1569955348968506,2019-07-25 15:12:13:680
-0.12311168760061264,-0.022108329460024834,9.749773025512695,-0.005811637515744182,-0.002923799516493654,0.0012884855791676607,179.2697093199842,-44.52162663786891,0,1.1599841117858887,2019-07-25 15:12:13:683
-0.09437469393014908,-0.005345081444829702,9.900642395019531,-0.00208230133938355,-0.0034565617716721033,0.003952296985097069,179.27414642008856,-47.23012121578328,0,1.1638691425323486,2019-07-25 15:12:13:686
-0.1063484400510788,-0.04126632586121559,9.761747360229492,-0.005278875260565733,-0.003989324026850552,0.003952296985097069,179.2768864739825,-49.8797396801052,0,1.1670234203338623,2019-07-25 15:12:13:690
-0.1326906830072403,-0.01252933032810688,9.821615219116211,-0.004479731877798059,-0.004522086542103327,0.0042186781126862935,179.27665376933996,-52.479904932045436,0,1.170116901397705,2019-07-25 15:12:13:693
-0.06324294209480286,0.00902341678738594,9.75935173034668,-0.005278875260565733,0.0008055365948483964,0.004751440367864743,179.2835255646153,-47.830256053411304,0,1.1738626956939697,2019-07-25 15:12:13:696
-0.048874445259571075,0.02339191548526287,9.845562934875488,-0.003946969362545284,-0.005587611052460225,0.0015548667067568852,179.29315246997874,-43.27567712781651,0,1.1770048141479492,2019-07-25 15:12:13:700
-0.08479569107294083,-0.017318829894065857,9.845562934875488,-0.005545256388154957,-0.006120373307638673,0.006083346005810866,179.2984532418409,-46.00721205528386,0,1.1800103187561035,2019-07-25 15:12:13:703
-0.056058697402477264,0.018602415919303894,9.824010848999023,-0.004746113005387283,-0.006653135562817124,0.0018212478343461098,179.30738775093116,-41.48820869660942,0,1.1838715076446533,2019-07-25 15:12:13:706
-0.10395368933677673,0.03536566346883774,9.783299446105957,-0.000750395701437427,-0.003989324026850552,0.002620391347150946,179.30976960574029,-37.0624542234325,0,1.1870198249816895,2019-07-25 15:12:13:710
-0.09197994321584702,0.018602415919303894,9.766536712646484,-0.004479731877798059,-0.004788467669692552,0.006882489388578539,179.3135917014589,-32.72263069962101,0,1.1900296211242676,2019-07-25 15:12:13:713
-0.13029593229293823,-0.01971357874572277,9.831194877624512,-0.004746113005387283,-0.0037229428992613276,0.0023540102195617214,179.31293474786284,-35.66485893330132,0,1.1938621997833252,2019-07-25 15:12:13:716
-0.03690069913864136,-0.022108329460024834,9.83837890625,-0.002615063724599162,-0.004522086542103327,0.007148870516167764,179.32317362923968,-38.548526668720804,0,1.1969952583312988,2019-07-25 15:12:13:720
-0.13029593229293823,-0.007739831227809191,9.776115417480469,-0.003946969362545284,-0.003190180644082879,0.004485059240275518,179.32198052793547,-41.37597806390273,0,1.2000222206115723,2019-07-25 15:12:13:723
-0.10874319076538086,-0.05563482642173767,9.773720741271973,-0.005811637515744182,-0.003190180644082879,0.0031531536023293957,179.32348320203462,-44.14067632131586,0,1.2038815021514893,2019-07-25 15:12:13:726
-0.08240094035863876,0.004233917687088251,9.733010292053223,-0.002615063724599162,-0.00585399218004945,0.002620391347150946,179.3283453504004,-39.65789979552114,0,1.207024335861206,2019-07-25 15:12:13:730
-0.12790118157863617,-0.002950331661850214,9.833589553833008,-0.005278875260565733,-0.004788467669692552,0.0036859158575078444,179.3276723170268,-42.46351887034715,0,1.2099902629852295,2019-07-25 15:12:13:733
-0.09676943719387054,-0.007739831227809191,9.845562934875488,-0.001283157956615876,-0.005054848797281776,0.003952296985097069,179.33096382097534,-45.21306652885149,0,1.2138922214508057,2019-07-25 15:12:13:736
-0.08479569107294083,0.018602415919303894,9.895853042602539,-0.004213350490134509,-0.004788467669692552,0.003952296985097069,179.3353627857237,-40.71022271918513,0,1.217005729675293,2019-07-25 15:12:13:740
-0.10155893862247467,-0.01971357874572277,9.80964183807373,-0.005811637515744182,-0.0037229428992613276,0.00341953472991862,179.33742010334998,-43.492735435388944,0,1.2200088500976562,2019-07-25 15:12:13:743
-0.10874319076538086,-0.04605582728981972,9.752167701721191,-0.002881444852188386,-0.0013255126209211442,0.005017821495453967,179.33818129825545,-46.216845598373325,0,1.2238621711730957,2019-07-25 15:12:13:746
-0.09437469393014908,0.018602415919303894,9.80964183807373,-0.004746113005387283,-0.0026574183889044294,0.005550583750632416,179.34086334704344,-41.693842786456074,0,1.2270102500915527,2019-07-25 15:12:13:750
-0.03211119771003723,-0.08437182009220123,9.785694122314453,-0.005811637515744182,-0.003989324026850552,0.005816964878221641,179.3509578949889,-44.44910708959859,0,1.2300105094909668,2019-07-25 15:12:13:753
-0.06803244352340698,-0.007739831227809191,9.881484031677246,-0.001283157956615876,-0.003989324026850552,0.0028867724747401705,179.3569121855224,-47.15894988293917,0,1.2338621616363525,2019-07-25 15:12:13:756
-0.05845344439148903,0.028181415051221848,9.83837890625,-0.004746113005387283,-0.003989324026850552,0.0023540102195617214,179.36366709185276,-42.61821884738963,0,1.2369933128356934,2019-07-25 15:12:13:760
-0.07761144638061523,-0.04605582728981972,9.802457809448242,-0.006078018643333406,-0.0015918937485103685,0.004485059240275518,179.36764636509764,-45.35922863323263,0,1.2406322956085205,2019-07-25 15:12:13:763
-0.1853751838207245,-0.02689782902598381,9.776115417480469,-0.005811637515744182,-0.007452278945584797,0.002620391347150946,179.35998449381438,-48.0477858926127,0,1.2440195083618164,2019-07-25 15:12:13:767
-0.09916418790817261,-0.08437182009220123,9.824010848999023,-0.004479731877798059,-0.005054848797281776,0.003952296985097069,179.36210852035157,-50.67619994099605,0,1.2471561431884766,2019-07-25 15:12:13:770
-0.09916418790817261,-0.0340820774435997,9.912615776062012,-0.005545256388154957,-0.006120373307638673,0.0023540102195617214,179.36451347425415,-53.25773004791617,0,1.2503869533538818,2019-07-25 15:12:13:773
-0.11113794147968292,-0.014924080111086369,9.819220542907715,-0.006610780898511855,-0.0007927503007241136,0.005550583750632416,179.3644092308603,-55.789537800154946,0,1.2538783550262451,2019-07-25 15:12:13:776
-0.11592743545770645,-0.04126632586121559,9.903037071228027,-0.003946969362545284,-0.004788467669692552,0.002620391347150946,179.36460153495082,-58.268234898063916,0,1.257204294204712,2019-07-25 15:12:13:780
-0.13508543372154236,0.004233917687088251,9.831194877624512,-0.005278875260565733,-0.0034565617716721033,0.005284202623043192,179.36214842454467,-53.50247277520127,0,1.2602100372314453,2019-07-25 15:12:13:783
-0.09676943719387054,0.01620766520500183,9.852746963500977,-0.003946969362545284,-0.005321229924871,0.0012884855791676607,179.3647414700151,-48.83349958714787,0,1.2638592720031738,2019-07-25 15:12:13:786
-0.07042719423770905,-0.024503078311681747,9.749773025512695,-0.004479731877798059,-0.0026574183889044294,0.0015548667067568852,179.36963729079284,-51.45316077477232,0,1.2669956684112549,2019-07-25 15:12:13:790
-0.07521669566631317,-0.0005555819370783865,9.737799644470215,-0.005545256388154957,-0.005054848797281776,0.00341953472991862,179.37441309515378,-54.0229136026167,0,1.2705881595611572,2019-07-25 15:12:13:793
-0.14945393800735474,0.047339413315057755,9.792879104614258,-0.003946969362545284,-0.006120373307638673,0.0036859158575078444,179.37056981696614,-49.3472646975588,0,1.2738821506500244,2019-07-25 15:12:13:796
-0.11592743545770645,0.032970912754535675,9.85035228729248,-0.004746113005387283,-0.0063867544352278986,0.005284202623043192,179.37079810844494,-44.76331882900731,0,1.277019739151001,2019-07-25 15:12:13:800
-0.10395368933677673,-0.11310882121324539,9.749773025512695,-0.002881444852188386,-0.0026574183889044294,0.002087628961935334,179.37161291701088,-47.45427304433169,0,1.2800238132476807,2019-07-25 15:12:13:803
-0.14705918729305267,0.004233917687088251,9.82640552520752,-0.005012494132976508,-0.006919516690406348,0.004485059240275518,179.36852953027676,-42.90459687229613,0,1.283876895904541,2019-07-25 15:12:13:806
-0.04408494755625725,0.028181415051221848,9.852746963500977,-0.004479731877798059,-0.0063867544352278986,0.003952296985097069,179.377155359028,-38.44899440405534,0,1.2870101928710938,2019-07-25 15:12:13:810
-0.07042719423770905,-0.03168732672929764,9.847957611083984,-0.001283157956615876,-0.002124656003688818,0.004751440367864743,179.38178141820183,-41.276107543049875,0,1.2900612354278564,2019-07-25 15:12:13:813
-0.06563769280910492,-0.06521382182836533,9.86711597442627,-0.006610780898511855,-0.0005263691406255985,0.008214395546673314,179.38663616534902,-44.04159166554729,0,1.2938873767852783,2019-07-25 15:12:13:816
-0.056058697402477264,-0.024503078311681747,9.790483474731445,-0.005278875260565733,-0.003190180644082879,0.0007557233239892114,179.39290567229378,-46.75695949483957,0,1.2970330715179443,2019-07-25 15:12:13:820
-0.09676943719387054,-0.04605582728981972,9.78808879852295,-0.004479731877798059,-0.00585399218004945,0.0042186781126862935,179.39470625568765,-49.41567290212465,0,1.300036907196045,2019-07-25 15:12:13:823
-0.12790118157863617,-0.01971357874572277,9.828800201416016,-0.0068771620261010805,-0.0037229428992613276,0.006083346005810866,179.3926979259843,-52.02358951077878,0,1.3038477897644043,2019-07-25 15:12:13:826
-0.13508543372154236,0.02339191548526287,9.852746963500977,-0.0036805882349560596,-0.005054848797281776,0.005550583750632416,179.39002584432623,-47.385188879142284,0,1.306990146636963,2019-07-25 15:12:13:830
-0.08240094035863876,-0.02689782902598381,9.840773582458496,-0.005545256388154957,-0.004255705154439777,0.004485059240275518,179.39333642712427,-50.03343290107985,0,1.3099451065063477,2019-07-25 15:12:13:833
-0.07282194495201111,-0.02689782902598381,9.800063133239746,-0.004479731877798059,-0.0037229428992613276,0.002087628961935334,179.39777204942212,-52.62863576027252,0,1.313854455947876,2019-07-25 15:12:13:836
-0.13508543372154236,-0.02689782902598381,9.79766845703125,-0.004479731877798059,-0.004522086542103327,0.0018212478343461098,179.39481823730574,-55.172124681060914,0,1.317004919052124,2019-07-25 15:12:13:840
-0.13748018443584442,-0.005345081444829702,9.816825866699219,-0.002615063724599162,-0.004255705154439777,0.004485059240275518,179.3916018554018,-57.667611551534264,0,1.32004714012146,2019-07-25 15:12:13:843
-0.13029593229293823,0.01620766520500183,9.802457809448242,-0.005278875260565733,-0.005321229924871,0.002087628961935334,179.3896771517979,-52.91502492663522,0,1.3238563537597656,2019-07-25 15:12:13:846
-0.09437469393014908,-0.005345081444829702,9.744983673095703,-0.003946969362545284,-0.002923799516493654,0.004751440367864743,179.39130236873618,-55.45539937797419,0,1.3269991874694824,2019-07-25 15:12:13:850
-0.07042719423770905,0.004233917687088251,9.845562934875488,-0.004479731877798059,-0.005054848797281776,0.0036859158575078444,179.39613370781404,-50.74602715886641,0,1.3300087451934814,2019-07-25 15:12:13:853
-0.12071693688631058,0.018602415919303894,9.833589553833008,-0.005012494132976508,-0.0037229428992613276,0.0028867724747401705,179.39496267280592,-46.13217280189306,0,1.3339226245880127,2019-07-25 15:12:13:856
-0.08479569107294083,-0.017318829894065857,9.795273780822754,-0.002881444852188386,-0.004522086542103327,0.001022104451578436,179.39793378986897,-48.80699984284885,0,1.3370342254638672,2019-07-25 15:12:13:860
-0.11353268474340439,0.018602415919303894,9.816825866699219,-0.004746113005387283,-0.0010591314283133382,0.005550583750632416,179.39690201372048,-44.23222939788214,0,1.340043306350708,2019-07-25 15:12:13:863
-0.12790118157863617,0.025786664336919785,9.824010848999023,-0.005545256388154957,-0.0018582748760995933,0.004751440367864743,179.39444295045777,-39.74940772855473,0,1.3438489437103271,2019-07-25 15:12:13:866
-0.1326906830072403,-0.06521382182836533,9.749773025512695,-0.005811637515744182,-0.003989324026850552,0.0031531536023293957,179.391665017888,-42.54572726366914,0,1.3469982147216797,2019-07-25 15:12:13:870
-0.08958519250154495,-0.024503078311681747,9.819220542907715,-0.005545256388154957,-0.004522086542103327,0.0042186781126862935,179.3941409267347,-45.291016779765904,0,1.3500056266784668,2019-07-25 15:12:13:873
-0.04408494755625725,-0.04126632586121559,9.859931945800781,-0.003946969362545284,-0.004522086542103327,0.0004893421638906962,179.40211617746033,-47.97954379609976,0,1.3538713455200195,2019-07-25 15:12:13:876
-0.029716448858380318,0.040155161172151566,9.859931945800781,0.0003151289064473433,-0.005587611052460225,0.0042186781126862935,179.41160800027808,-43.424675411721715,0,1.3570196628570557,2019-07-25 15:12:13:880
-0.13987493515014648,0.011418166570365429,9.783299446105957,-0.004479731877798059,-0.005054848797281776,0.004485059240275518,179.40783701359464,-38.95677171239256,0,1.3599917888641357,2019-07-25 15:12:13:883
-0.1255064308643341,0.006628667004406452,9.778510093688965,-0.005012494132976508,-0.002923799516493654,0.0042186781126862935,179.40560555366162,-34.57732922301333,0,1.3638427257537842,2019-07-25 15:12:13:886
-0.04647969827055931,-0.043661076575517654,9.778510093688965,-0.005278875260565733,-0.005054848797281776,0.0036859158575078444,179.4129373350686,-37.479736007973266,0,1.366980791091919,2019-07-25 15:12:13:890
-0.14226968586444855,-0.0005555819370783865,9.790483474731445,-0.0031478259797776105,-0.0026574183889044294,0.0028867724747401705,179.40847881867467,-40.3295422140282,0,1.370002269744873,2019-07-25 15:12:13:893
-0.11113794147968292,-0.07479282468557358,9.807247161865234,-0.0034142071073668353,-0.005054848797281776,0.005017821495453967,179.4084284000887,-43.1134665333561,0,1.3738932609558105,2019-07-25 15:12:13:896
-0.11832218617200851,-0.002950331661850214,9.785694122314453,-0.005012494132976508,-0.002391037261315205,0.0031531536023293957,179.4068260579528,-45.84996870571341,0,1.377030611038208,2019-07-25 15:12:13:900
-0.11592743545770645,0.013812916353344917,9.819220542907715,-0.0015495390842051007,-0.005054848797281776,0.003952296985097069,179.40601758314938,-41.33431882166104,0,1.3800475597381592,2019-07-25 15:12:13:903
-0.11592743545770645,-0.04605582728981972,9.862326622009277,-0.007676305408868754,-0.0015918937485103685,-0.0005761824439940741,179.4047681412444,-44.10064149960318,0,1.3838517665863037,2019-07-25 15:12:13:906
-0.06803244352340698,-0.01252933032810688,9.847957611083984,-0.005278875260565733,-0.007452278945584797,0.0031531536023293957,179.41007239886036,-46.81623869216662,0,1.3869962692260742,2019-07-25 15:12:13:910
-0.0800061896443367,0.03536566346883774,9.752167701721191,-0.002615063724599162,-0.0010591314283133382,0.002620391347150946,179.4126517418297,-42.28362110933399,0,1.390049934387207,2019-07-25 15:12:13:913
-0.09197994321584702,-0.04845057427883148,9.869510650634766,-0.006344399770922631,-0.006653135562817124,0.0018212478343461098,179.41514967861275,-45.03095952136421,0,1.3938782215118408,2019-07-25 15:12:13:916
-0.07282194495201111,-0.043661076575517654,9.819220542907715,-0.0034142071073668353,-0.0015918937485103685,0.0042186781126862935,179.41862971004562,-47.72464177999905,0,1.3970251083374023,2019-07-25 15:12:13:920
-0.13987493515014648,-0.017318829894065857,9.761747360229492,-0.002615063724599162,-0.00585399218004945,0.0042186781126862935,179.41485898395393,-50.367660074222265,0,1.4001295566558838,2019-07-25 15:12:13:923
-0.10874319076538086,-0.007739831227809191,9.886274337768555,-0.005278875260565733,-0.0026574183889044294,0.002620391347150946,179.4145148835809,-52.95830335394856,0,1.4038622379302979,2019-07-25 15:12:13:926
-0.09916418790817261,-0.043661076575517654,9.821615219116211,-0.004213350490134509,-0.005587611052460225,0.005017821495453967,179.41564335154516,-55.4932981513235,0,1.4070117473602295,2019-07-25 15:12:13:930
-0.13987493515014648,0.04254991188645363,9.756957054138184,-0.0036805882349560596,-0.0015918937485103685,0.005017821495453967,179.4111844806064,-50.78778065119192,0,1.4101512432098389,2019-07-25 15:12:13:933
-0.04647969827055931,0.025786664336919785,9.764142036437988,-0.004479731877798059,-0.006653135562817124,0.004485059240275518,179.41890407380757,-46.17410997940327,0,1.413893699645996,2019-07-25 15:12:13:936
-0.11592743545770645,-0.01971357874572277,9.845562934875488,-0.005811637515744182,-0.004788467669692552,0.0015548667067568852,179.41791626116236,-48.84726248018436,0,1.41717529296875,2019-07-25 15:12:13:940
-0.05845344439148903,-0.04845057427883148,9.88866901397705,-0.0015495390842051007,-0.00025998799678172854,0.002087628961935334,179.4228229963394,-51.46447229702712,0,1.4198238849639893,2019-07-25 15:12:13:942
-0.03929544612765312,-0.024503078311681747,9.771326065063477,-0.0036805882349560596,-0.007452278945584797,0.0018212478343461098,179.43133932948987,-54.031528427246315,0,1.4236023426055908,2019-07-25 15:12:13:946
-0.07761144638061523,0.006628667004406452,9.76893138885498,-0.007942686536457978,-0.005587611052460225,0.005284202623043192,179.43468074518094,-49.350151598072436,0,1.4270191192626953,2019-07-25 15:12:13:950
-0.0800061896443367,-0.03168732672929764,9.792879104614258,-0.001815920211794325,-0.002124656003688818,0.003952296985097069,179.4369842946806,-51.9591339365458,0,1.4300274848937988,2019-07-25 15:12:13:953
-0.08958519250154495,-0.022108329460024834,9.795273780822754,-0.004213350490134509,-0.0034565617716721033,0.0028867724747401705,179.43851473036986,-54.516450561832485,0,1.4338922500610352,2019-07-25 15:12:13:956
-0.11592743545770645,0.025786664336919785,9.816825866699219,-0.005278875260565733,-0.005587611052460225,0.005550583750632416,179.43719174759053,-49.82820683724034,0,1.4370121955871582,2019-07-25 15:12:13:960
-0.08479569107294083,-0.002950331661850214,9.87908935546875,-0.0034142071073668353,-0.0015918937485103685,0.004751440367864743,179.43890414807183,-52.43067466517998,0,1.4402766227722168,2019-07-25 15:12:13:963
-0.09916418790817261,-0.0340820774435997,9.869510650634766,-0.0034142071073668353,-0.005321229924871,0.002620391347150946,179.43972233719796,-54.977392152674334,0,1.4439899921417236,2019-07-25 15:12:13:967
-0.19255942106246948,-0.024503078311681747,9.859931945800781,-0.002881444852188386,-0.005587611052460225,0.005816964878221641,179.42951571724475,-57.47449939651988,0,1.4470629692077637,2019-07-25 15:12:13:970
-0.09676943719387054,-0.017318829894065857,9.711457252502441,-0.005278875260565733,-0.0037229428992613276,0.004751440367864743,179.4301440513798,-59.92206305459165,0,1.4501087665557861,2019-07-25 15:12:13:973
-0.16861192882061005,0.018602415919303894,9.87908935546875,-0.004213350490134509,-0.0026574183889044294,0.004751440367864743,179.42254365651408,-55.124893948089664,0,1.4538521766662598,2019-07-25 15:12:13:976
-0.15424343943595886,-0.03168732672929764,9.75935173034668,-0.004746113005387283,-0.002923799516493654,0.002620391347150946,179.41649950118713,-57.61783777341215,0,1.4569954872131348,2019-07-25 15:12:13:980
-0.1326906830072403,0.01620766520500183,9.85035228729248,-0.004479731877798059,-0.0026574183889044294,0.005284202623043192,179.41318299540978,-52.86660996025042,0,1.460003137588501,2019-07-25 15:12:13:983
-0.13508543372154236,-0.05563482642173767,9.819220542907715,-0.006078018643333406,-0.005321229924871,0.003952296985097069,179.4103044423109,-55.401473043275615,0,1.4638478755950928,2019-07-25 15:12:13:986
-0.12790118157863617,-0.024503078311681747,9.807247161865234,-0.00208230133938355,-0.0037229428992613276,0.0015548667067568852,179.40781791291454,-57.89020963697325,0,1.4670202732086182,2019-07-25 15:12:13:990
-0.11113794147968292,-0.01971357874572277,9.740194320678711,-0.005278875260565733,-0.0026574183889044294,0.004751440367864743,179.40704953751924,-60.32916727017429,0,1.4701204299926758,2019-07-25 15:12:13:993
-0.12790118157863617,-0.04845057427883148,9.771326065063477,-0.000750395701437427,-0.005587611052460225,0.006083346005810866,179.40510280802678,-62.71674182457464,0,1.4739222526550293,2019-07-25 15:12:13:996
-0.10155893862247467,-0.010134580545127392,9.843168258666992,-0.004213350490134509,-0.0018582748760995933,0.005284202623043192,179.40550224574957,-65.06049185393555,0,1.4770302772521973,2019-07-25 15:12:14:000
-0.1590329259634018,0.001839167787693441,9.761747360229492,-0.004479731877798059,-0.003989324026850552,0.004751440367864743,179.3994000183757,-60.158740180986975,0,1.4800426959991455,2019-07-25 15:12:14:003
-0.10155893862247467,0.00902341678738594,9.711457252502441,-0.004479731877798059,-0.00585399218004945,0.0042186781126862935,179.40068183423767,-55.35567129113321,0,1.4838545322418213,2019-07-25 15:12:14:006
-0.1063484400510788,-0.043661076575517654,9.874300003051758,-0.0036805882349560596,-0.0034565617716721033,0.006083346005810866,179.40093544902663,-57.842843032004346,0,1.486989974975586,2019-07-25 15:12:14:010
-0.13748018443584442,0.020997164770960808,9.80964183807373,-0.005012494132976508,0.001338298915045427,0.002620391347150946,179.39663162466465,-53.08759104133849,0,1.4900026321411133,2019-07-25 15:12:14:013
-0.1446644365787506,0.028181415051221848,9.910221099853516,-0.003946969362545284,-0.003989324026850552,0.005550583750632416,179.39283876041225,-48.42824093338043,0,1.4938690662384033,2019-07-25 15:12:14:016
-0.1255064308643341,-0.03887157887220383,9.795273780822754,-0.0034142071073668353,-0.004788467669692552,0.005284202623043192,179.3911448551218,-51.0545264556572,0,1.4970104694366455,2019-07-25 15:12:14:020
-0.08240094035863876,0.03057616390287876,9.816825866699219,-0.004479731877798059,-0.003989324026850552,0.003952296985097069,179.3943777374078,-46.43624798975765,0,1.5000202655792236,2019-07-25 15:12:14:023
-0.08240094035863876,0.004233917687088251,9.862326622009277,-0.002348682597009937,-0.0037229428992613276,0.00341953472991862,179.39771940708442,-41.90750821974043,0,1.5038628578186035,2019-07-25 15:12:14:026
-0.0536639466881752,-0.01971357874572277,9.862326622009277,-0.005811637515744182,-0.0034565617716721033,0.003952296985097069,179.4041395952526,-44.66604224733803,0,1.507004737854004,2019-07-25 15:12:14:030
-0.08479569107294083,0.001839167787693441,9.812036514282227,-0.0034142071073668353,-0.007985041200763246,0.007415251643756989,179.40749998050072,-40.17236070129946,0,1.5100066661834717,2019-07-25 15:12:14:033
-0.08479569107294083,0.01620766520500183,9.852746963500977,-0.006078018643333406,-0.004788467669692552,0.0036859158575078444,179.4105255913139,-35.769481653484085,0,1.5138652324676514,2019-07-25 15:12:14:036
-0.08958519250154495,0.006628667004406452,9.790483474731445,-0.004746113005387283,-0.002923799516493654,0.007681633291494863,179.41234785882858,-31.454027206424854,0,1.5170197486877441,2019-07-25 15:12:14:040
-0.1590329259634018,0.00902341678738594,9.76893138885498,-0.0015495390842051007,-0.004522086542103327,0.0031531536023293957,179.40621243842324,-27.2257430689524,0,1.5200316905975342,2019-07-25 15:12:14:043
-0.0800061896443367,0.011418166570365429,9.828800201416016,-0.003946969362545284,-0.0034565617716721033,0.004485059240275518,179.40950447277322,-23.08171009275837,0,1.5238640308380127,2019-07-25 15:12:14:046
-0.13029593229293823,0.020997164770960808,9.85035228729248,-0.0034142071073668353,-0.002391037261315205,0.004485059240275518,179.4065813286561,-19.021913520857066,0,1.52701997756958,2019-07-25 15:12:14:050
-0.11353268474340439,-0.01252933032810688,9.780904769897461,-0.0036805882349560596,-0.005321229924871,0.0018212478343461098,179.40604962611033,-22.23938438010748,0,1.5300343036651611,2019-07-25 15:12:14:053
-0.06563769280910492,0.04494466260075569,9.812036514282227,-0.0010167768290266514,-0.004788467669692552,0.005017821495453967,179.411292455363,-18.199627031544658,0,1.533862590789795,2019-07-25 15:12:14:056
-0.10395368933677673,-0.010134580545127392,9.821615219116211,-0.005811637515744182,-0.002923799516493654,0.003952296985097069,179.4114541765476,-21.433427027961745,0,1.537003755569458,2019-07-25 15:12:14:060
-0.03211119771003723,0.001839167787693441,9.773720741271973,-0.003946969362545284,-0.006120373307638673,0.005017821495453967,179.42049581323485,-17.404306290820628,0,1.5400171279907227,2019-07-25 15:12:14:063
-0.06563769280910492,-0.007739831227809191,9.752167701721191,-0.006610780898511855,-0.006653135562817124,0.005284202623043192,179.42581301652,-20.653880198157054,0,1.5438709259033203,2019-07-25 15:12:14:066
-0.12790118157863617,-0.0005555819370783865,9.852746963500977,-0.005012494132976508,-0.004255705154439777,0.002087628961935334,179.42317469167736,-23.83985161265062,0,1.5470201969146729,2019-07-25 15:12:14:070
-0.11832218617200851,-0.050845324993133545,9.783299446105957,-0.0010167768290266514,-0.002124656003688818,0.004751440367864743,179.4212177771864,-26.95692448036076,0,1.550079345703125,2019-07-25 15:12:14:073
-0.1063484400510788,0.040155161172151566,9.790483474731445,-0.004213350490134509,-0.005587611052460225,0.00341953472991862,179.42152948187706,-22.821593835290983,0,1.5538499355316162,2019-07-25 15:12:14:076
-0.09676943719387054,-0.04845057427883148,9.835984230041504,-0.004213350490134509,-0.003190180644082879,0.004485059240275518,179.42238784372384,-25.9587745451582,0,1.5569899082183838,2019-07-25 15:12:14:080
-0.056058697402477264,-0.058029573410749435,9.79766845703125,-0.005278875260565733,-0.007718660073174022,0.004751440367864743,179.42866836051286,-29.031933481241087,0,1.5599541664123535,2019-07-25 15:12:14:083
-0.08240094035863876,-0.07239807397127151,9.82640552520752,-0.006078018643333406,-0.004255705154439777,0.003952296985097069,179.43141983739474,-32.04151841876252,0,1.5638623237609863,2019-07-25 15:12:14:086
-0.08240094035863876,0.0377604141831398,9.833589553833008,-0.005545256388154957,-0.003989324026850552,0.005017821495453967,179.43389368358208,-27.80410933741335,0,1.5670063495635986,2019-07-25 15:12:14:090
-0.11113794147968292,-0.014924080111086369,9.802457809448242,-0.004746113005387283,-0.0026574183889044294,0.004485059240275518,179.43268380931232,-30.84546174316062,0,1.5700862407684326,2019-07-25 15:12:14:093
-0.05845344439148903,0.006628667004406452,9.795273780822754,-0.0036805882349560596,-0.004522086542103327,0.0042186781126862935,179.43815903935433,-26.628540842473548,0,1.57389497756958,2019-07-25 15:12:14:096
-0.09676943719387054,-0.014924080111086369,9.76893138885498,-0.003946969362545284,-0.007718660073174022,0.00341953472991862,179.43938879726144,-29.69353223394761,0,1.576995611190796,2019-07-25 15:12:14:100
-0.11592743545770645,-0.03168732672929764,9.881484031677246,-0.007409924281279529,-0.006120373307638673,0.004751440367864743,179.43819218098164,-32.69473487504641,0,1.5800049304962158,2019-07-25 15:12:14:103
-0.08719044178724289,-0.0604243241250515,9.812036514282227,-0.004479731877798059,-0.002923799516493654,0.0031531536023293957,179.43987852275598,-35.6328142576834,0,1.5838582515716553,2019-07-25 15:12:14:106
-0.0800061896443367,-0.043661076575517654,9.852746963500977,-0.003946969362545284,-0.004522086542103327,0.005816964878221641,179.4425715716597,-38.514385739138696,0,1.5869910717010498,2019-07-25 15:12:14:110
-0.07042719423770905,-0.04126632586121559,9.804852485656738,-0.005012494132976508,-0.005587611052460225,0.008747157801851762,179.44649486147887,-41.338373095540774,0,1.590196132659912,2019-07-25 15:12:14:113
-0.13029593229293823,-0.010134580545127392,9.79766845703125,-0.003946969362545284,-0.0037229428992613276,0.004485059240275518,179.44309648617337,-44.109604219364044,0,1.5938785076141357,2019-07-25 15:12:14:116
-0.07521669566631317,0.011418166570365429,9.742588996887207,-0.005811637515744182,-0.003989324026850552,0.007415251643756989,179.44609169207507,-39.627729707817565,0,1.5970208644866943,2019-07-25 15:12:14:120
-0.07761144638061523,-0.03168732672929764,9.831194877624512,-0.003946969362545284,-0.006120373307638673,0.005017821495453967,179.44927736046108,-42.4307377093541,0,1.6003777980804443,2019-07-25 15:12:14:123
-0.08240094035863876,-0.01252933032810688,9.833589553833008,-0.003946969362545284,-0.0034565617716721033,0.003952296985097069,179.45137357913535,-45.179882105414436,0,1.6039009094238281,2019-07-25 15:12:14:126
-0.10155893862247467,0.03057616390287876,9.857537269592285,-0.006344399770922631,-0.005054848797281776,0.0036859158575078444,179.45142985756752,-40.67872266236784,0,1.6070342063903809,2019-07-25 15:12:14:130
-0.13508543372154236,0.025786664336919785,9.847957611083984,-0.003946969362545284,-0.0071858978179955724,0.005816964878221641,179.4478833015055,-36.26748980540241,0,1.6100075244903564,2019-07-25 15:12:14:133
-0.07761144638061523,-0.022108329460024834,9.792879104614258,-0.002348682597009937,-0.005321229924871,0.006083346005810866,179.45099222167133,-39.13904624918011,0,1.6138501167297363,2019-07-25 15:12:14:136
-0.12790118157863617,-0.005345081444829702,9.833589553833008,-0.006344399770922631,-0.005587611052460225,0.0023540102195617214,179.44805394301935,-41.95452388286786,0,1.616990089416504,2019-07-25 15:12:14:140
-0.11113794147968292,-0.06521382182836533,9.82640552520752,-0.003946969362545284,-0.006919516690406348,0.005284202623043192,179.4473045794464,-44.707160240694144,0,1.6200056076049805,2019-07-25 15:12:14:143
-0.11592743545770645,-0.03887157887220383,9.776115417480469,-0.005545256388154957,-0.004255705154439777,0.0042186781126862935,179.445693138086,-47.40725860296423,0,1.623866319656372,2019-07-25 15:12:14:146
-0.08958519250154495,0.01620766520500183,9.821615219116211,-0.005278875260565733,-0.003190180644082879,0.006616108260989315,179.44689221431165,-42.860069823038046,0,1.6270194053649902,2019-07-25 15:12:14:150
-0.1326906830072403,-0.0340820774435997,9.9293794631958,-0.00208230133938355,-0.0034565617716721033,0.007948014419084088,179.44322435095756,-45.598584269722686,0,1.6300203800201416,2019-07-25 15:12:14:153
-0.09916418790817261,-0.0005555819370783865,9.742588996887207,-0.003946969362545284,-0.006653135562817124,0.005550583750632416,179.44412929082804,-48.28569732588125,0,1.6338553428649902,2019-07-25 15:12:14:156
-0.07042719423770905,-0.03887157887220383,9.814431190490723,-0.004746113005387283,-0.0037229428992613276,0.004485059240275518,179.4476778879594,-50.91461109359778,0,1.636983871459961,2019-07-25 15:12:14:160
-0.1063484400510788,0.0377604141831398,9.785694122314453,-0.0036805882349560596,-0.004522086542103327,0.003952296985097069,179.4470452782816,-46.30011068498798,0,1.6400320529937744,2019-07-25 15:12:14:163
-0.09916418790817261,-0.03168732672929764,9.855142593383789,-0.00208230133938355,-0.005587611052460225,0.004485059240275518,179.44779153956037,-48.9699704112172,0,1.643911600112915,2019-07-25 15:12:14:166
-0.12311168760061264,-0.007739831227809191,9.874300003051758,-0.004213350490134509,-0.0063867544352278986,0.005017821495453967,179.44567645336556,-51.5889292083134,0,1.647054672241211,2019-07-25 15:12:14:170
-0.09916418790817261,-0.005345081444829702,9.780904769897461,-0.006078018643333406,-0.006120373307638673,0.00634972713340009,179.44618629598912,-54.15549071039692,0,1.6500835418701172,2019-07-25 15:12:14:173
-0.11113794147968292,-0.005345081444829702,9.780904769897461,-0.008475448791636427,-0.006120373307638673,0.006083346005810866,179.4455435016219,-56.669952893810624,0,1.65386962890625,2019-07-25 15:12:14:176
-0.09916418790817261,0.013812916353344917,9.800063133239746,-0.0034142071073668353,-0.0010591314283133382,0.005284202623043192,179.44522548766267,-51.93756399880233,0,1.6570253372192383,2019-07-25 15:12:14:180
-0.08958519250154495,-0.01971357874572277,9.735404968261719,-0.006078018643333406,-0.0015918937485103685,0.0042186781126862935,179.44604271323414,-54.49547611709443,0,1.6600029468536377,2019-07-25 15:12:14:183
-0.09916418790817261,0.00902341678738594,9.821615219116211,-0.0015495390842051007,-0.0063867544352278986,0.007148870516167764,179.44693528693378,-49.80628389016911,0,1.6638588905334473,2019-07-25 15:12:14:186
-0.14945393800735474,-0.002950331661850214,9.824010848999023,-0.004746113005387283,-0.003190180644082879,0.005550583750632416,179.44112921633888,-52.40897462160949,0,1.667008876800537,2019-07-25 15:12:14:190
-0.09916418790817261,-0.07239807397127151,9.821615219116211,-0.0036805882349560596,-0.0063867544352278986,0.004485059240275518,179.4418218339802,-54.95172337063963,0,1.6700332164764404,2019-07-25 15:12:14:193
-0.08479569107294083,-0.02689782902598381,9.9293794631958,-0.006344399770922631,-0.0026574183889044294,0.006882489388578539,179.44377149322798,-57.448219502633876,0,1.673865556716919,2019-07-25 15:12:14:196
-0.09437469393014908,-0.0604243241250515,9.871905326843262,-0.0002176333974950418,-0.005587611052460225,0.008480776674262537,179.44493078818616,-59.89220270656403,0,1.677018642425537,2019-07-25 15:12:14:200
-0.10155893862247467,-0.04845057427883148,9.85035228729248,-0.002348682597009937,-0.005587611052460225,0.004485059240275518,179.44516394105952,-62.28832470574669,0,1.6800336837768555,2019-07-25 15:12:14:203
-0.1326906830072403,-0.01971357874572277,9.778510093688965,-0.002881444852188386,-0.0063867544352278986,0.004485059240275518,179.44209109968457,-64.63962583195172,0,1.6838793754577637,2019-07-25 15:12:14:206
-0.10395368933677673,-0.014924080111086369,9.80964183807373,-0.003946969362545284,-0.006653135562817124,0.0031531536023293957,179.44227731725533,-66.94439528568815,0,1.687013864517212,2019-07-25 15:12:14:210
-0.09916418790817261,0.02339191548526287,9.900642395019531,-0.004746113005387283,-0.002124656003688818,0.005284202623043192,179.44231334995973,-62.00741371642551,0,1.6900198459625244,2019-07-25 15:12:14:213
-0.06324294209480286,-0.010134580545127392,9.843168258666992,-0.007676305408868754,-0.004788467669692552,0.004485059240275518,179.4471355935645,-64.36443284788113,0,1.6938543319702148,2019-07-25 15:12:14:216
-0.20213842391967773,-0.014924080111086369,9.792879104614258,-0.004213350490134509,-0.004522086542103327,0.006083346005810866,179.4355499020622,-66.6744596664884,0,1.6978199481964111,2019-07-25 15:12:14:220
-0.11832218617200851,-0.02689782902598381,9.812036514282227,-0.004213350490134509,-0.002923799516493654,0.00634972713340009,179.43344736327836,-68.9372149229849,0,1.7004163265228271,2019-07-25 15:12:14:223
-0.17579618096351624,-0.03887157887220383,9.845562934875488,-0.004213350490134509,-0.006919516690406348,0.005816964878221641,179.42571062988415,-71.15309956008886,0,1.703995943069458,2019-07-25 15:12:14:227
-0.10874319076538086,-0.024503078311681747,9.807247161865234,-0.00208230133938355,-0.006120373307638673,0.007148870516167764,179.42558586564786,-73.32680203451118,0,1.7071819305419922,2019-07-25 15:12:14:230
-0.13987493515014648,0.025786664336919785,9.792879104614258,-0.006078018643333406,-0.006919516690406348,0.005816964878221641,179.4219609052816,-68.26218267904216,0,1.7104072570800781,2019-07-25 15:12:14:233
-0.08958519250154495,-0.022108329460024834,9.83837890625,-0.0036805882349560596,-0.0026574183889044294,0.005284202623043192,179.42360126397776,-70.49365258496645,0,1.7138495445251465,2019-07-25 15:12:14:236
-0.13508543372154236,-0.0340820774435997,9.761747360229492,-0.002881444852188386,-0.0034565617716721033,0.005550583750632416,179.41989096100323,-72.6792633947449,0,1.7170345783233643,2019-07-25 15:12:14:240
-0.1255064308643341,0.032970912754535675,9.78808879852295,-0.004213350490134509,-0.004522086542103327,0.007148870516167764,179.41759280046642,-67.62879998419751,0,1.7201545238494873,2019-07-25 15:12:14:243
-0.10395368933677673,-0.024503078311681747,9.843168258666992,-0.006344399770922631,-0.0063867544352278986,0.006616108260989315,179.4184978141416,-69.8720219824454,0,1.723942518234253,2019-07-25 15:12:14:247
-0.13748018443584442,0.001839167787693441,9.847957611083984,-0.005545256388154957,-0.004788467669692552,0.007948014419084088,179.41499200595092,-64.87379916359097,0,1.727142572402954,2019-07-25 15:12:14:250
-0.13987493515014648,-0.022108329460024834,9.783299446105957,-0.004213350490134509,-0.003190180644082879,0.006882489388578539,179.41089340398767,-67.17296281265784,0,1.730400800704956,2019-07-25 15:12:14:253
-0.12790118157863617,0.020997164770960808,9.740194320678711,-0.003946969362545284,-0.006653135562817124,0.0023540102195617214,179.408921780139,-62.231206927965474,0,1.7338612079620361,2019-07-25 15:12:14:256
-0.11832218617200851,0.001839167787693441,9.912615776062012,-0.003946969362545284,-0.0018582748760995933,0.006083346005810866,179.40745016894854,-57.385978883144,0,1.7375454902648926,2019-07-25 15:12:14:260
-0.11353268474340439,-0.036476828157901764,9.86711597442627,-0.004479731877798059,-0.002124656003688818,0.0036859158575078444,179.4064301798309,-59.83336203582752,0,1.740173578262329,2019-07-25 15:12:14:263
-0.16861192882061005,0.013812916353344917,9.840773582458496,-0.004746113005387283,-0.0037229428992613276,0.004751440367864743,179.39945005485455,-55.03730800455398,0,1.743908166885376,2019-07-25 15:12:14:266
-0.09916418790817261,-0.03168732672929764,9.9293794631958,-0.005811637515744182,-0.006120373307638673,0.004751440367864743,179.40111278174484,-57.53186464899704,0,1.747096061706543,2019-07-25 15:12:14:270
-0.13029593229293823,-0.02689782902598381,9.800063133239746,-0.004479731877798059,-0.005054848797281776,0.006882489388578539,179.3987322578069,-59.97730565301755,0,1.750183343887329,2019-07-25 15:12:14:273
-0.11832218617200851,-0.02689782902598381,9.795273780822754,-0.004213350490134509,-0.002923799516493654,0.007148870516167764,179.39753966123808,-62.37371439007362,0,1.753981113433838,2019-07-25 15:12:14:277
-0.13508543372154236,0.01620766520500183,9.828800201416016,-0.002881444852188386,-0.005054848797281776,0.0031531536023293957,179.39474654939522,-57.527613278307314,0,1.7571730613708496,2019-07-25 15:12:14:280
-0.09197994321584702,-0.03887157887220383,9.78808879852295,-0.0036805882349560596,-0.00585399218004945,0.005017821495453967,179.39714355006663,-59.971843832706945,0,1.7603976726531982,2019-07-25 15:12:14:283
-0.06563769280910492,-0.022108329460024834,9.773720741271973,-0.002615063724599162,-0.0015918937485103685,0.0042186781126862935,179.4018144181951,-62.369306803582916,0,1.7638578414916992,2019-07-25 15:12:14:286
-0.13748018443584442,0.018602415919303894,9.795273780822754,-0.0031478259797776105,-0.004255705154439777,0.004485059240275518,179.39845596750177,-57.52353465959605,0,1.7670388221740723,2019-07-25 15:12:14:290
-0.07761144638061523,0.03057616390287876,9.773720741271973,-0.0015495390842051007,-0.0018582748760995933,0.004485059240275518,179.401717712499,-52.776373509226715,0,1.7702033519744873,2019-07-25 15:12:14:293
-0.10155893862247467,-0.002950331661850214,9.835984230041504,-0.004479731877798059,-0.005587611052460225,0.007148870516167764,179.40304711164904,-55.319544102776675,0,1.774012804031372,2019-07-25 15:12:14:297
-0.0800061896443367,0.001839167787693441,9.934168815612793,-0.0031478259797776105,-0.0034565617716721033,0.005550583750632416,179.4063841250392,-50.61279478827672,0,1.7772409915924072,2019-07-25 15:12:14:300
-0.10874319076538086,-0.050845324993133545,9.864721298217773,-0.005811637515744182,-0.006919516690406348,0.006882489388578539,179.40688436148187,-53.193574889666664,0,1.780482292175293,2019-07-25 15:12:14:303
-0.07042719423770905,-0.002950331661850214,9.843168258666992,-0.002881444852188386,-0.004255705154439777,0.007948014419084088,179.41135606933832,-55.72881270572445,0,1.7838644981384277,2019-07-25 15:12:14:306
-0.08958519250154495,-0.06521382182836533,9.86711597442627,-0.002881444852188386,-0.002124656003688818,0.004485059240275518,179.41310521830727,-58.206147690637835,0,1.7870492935180664,2019-07-25 15:12:14:310
-0.08958519250154495,-0.002950331661850214,9.778510093688965,-0.003946969362545284,-0.002124656003688818,0.006083346005810866,179.414713201214,-60.640995315294774,0,1.7901341915130615,2019-07-25 15:12:14:313
-0.03690069913864136,0.011418166570365429,9.869510650634766,-0.006344399770922631,-0.004522086542103327,0.006616108260989315,179.4230957023978,-55.828152643019926,0,1.793919563293457,2019-07-25 15:12:14:316
-0.06563769280910492,-0.002950331661850214,9.819220542907715,-0.004213350490134509,-0.003190180644082879,0.007415251643756989,179.42754455730054,-58.31049160118724,0,1.797105312347412,2019-07-25 15:12:14:320
-0.11832218617200851,-0.06760857254266739,9.754562377929688,-0.002615063724599162,-0.006120373307638673,0.005017821495453967,179.42616436918144,-60.73588245209988,0,1.8002185821533203,2019-07-25 15:12:14:323
-0.08719044178724289,-0.017318829894065857,9.816825866699219,-0.00208230133938355,-0.004788467669692552,0.007415251643756989,179.42848397519882,-63.11869947828029,0,1.8040134906768799,2019-07-25 15:12:14:327
-0.13987493515014648,-0.0005555819370783865,9.82640552520752,-0.004479731877798059,-0.005054848797281776,0.003952296985097069,179.42451682216867,-65.45545151116583,0,1.8072304725646973,2019-07-25 15:12:14:330
-0.1255064308643341,-0.01252933032810688,9.795273780822754,-0.004213350490134509,-0.004522086542103327,0.005816964878221641,179.42215810871159,-67.7441188627594,0,1.8104338645935059,2019-07-25 15:12:14:333
-0.09197994321584702,-0.017318829894065857,9.857537269592285,-0.004746113005387283,-0.004522086542103327,0.005550583750632416,179.42389019181826,-69.98631285571695,0,1.813849925994873,2019-07-25 15:12:14:336
-0.10395368933677673,-0.01252933032810688,9.843168258666992,-0.0034142071073668353,-0.0013255126209211442,0.004751440367864743,179.42354786046442,-72.18451741951309,0,1.8170347213745117,2019-07-25 15:12:14:340
-0.14945393800735474,-0.010134580545127392,9.883878707885742,-0.005012494132976508,-0.00585399218004945,0.005284202623043192,179.41876361102896,-74.33878491655919,0,1.8201158046722412,2019-07-25 15:12:14:343
-0.08479569107294083,-0.036476828157901764,9.824010848999023,-0.0031478259797776105,-0.0034565617716721033,0.005284202623043192,179.42123348668605,-76.44708430303912,0,1.8239071369171143,2019-07-25 15:12:14:346
-0.06563769280910492,-0.01252933032810688,9.821615219116211,-0.0036805882349560596,-0.002923799516493654,0.0004893421638906962,179.4256764258422,-78.5160191028162,0,1.8271088600158691,2019-07-25 15:12:14:350
-0.09916418790817261,-0.002950331661850214,9.804852485656738,-0.004213350490134509,-0.0026574183889044294,0.006882489388578539,179.42604287812242,-80.54461009808598,0,1.8302528858184814,2019-07-25 15:12:14:353
-0.12311168760061264,0.001839167787693441,9.85035228729248,-0.004746113005387283,-0.003989324026850552,0.004485059240275518,179.4240947879178,-75.33286836828219,0,1.8342435359954834,2019-07-25 15:12:14:357
-0.08958519250154495,-0.06281907111406326,9.85035228729248,-0.005278875260565733,-0.002923799516493654,0.005284202623043192,179.42577761814977,-77.41784500302431,0,1.8378136157989502,2019-07-25 15:12:14:360
-0.12071693688631058,0.01620766520500183,9.792879104614258,-0.004479731877798059,-0.006653135562817124,0.0036859158575078444,179.424111811688,-72.27072832230452,0,1.8404228687286377,2019-07-25 15:12:14:363
-0.10874319076538086,0.047339413315057755,9.847957611083984,-0.0031478259797776105,-0.0026574183889044294,0.008214395546673314,179.42355418168785,-67.23013805376252,0,1.8442933559417725,2019-07-25 15:12:14:367
-0.08958519250154495,0.032970912754535675,9.816825866699219,-0.005012494132976508,-0.005321229924871,0.004751440367864743,179.42567722189068,-62.288393858027014,0,1.847811222076416,2019-07-25 15:12:14:370
-0.14705918729305267,0.011418166570365429,9.79766845703125,-0.007409924281279529,-0.002124656003688818,0.004751440367864743,179.4202779260451,-57.44287084409918,0,1.8504323959350586,2019-07-25 15:12:14:373
-0.12311168760061264,-0.022108329460024834,9.766536712646484,-0.005278875260565733,-0.006919516690406348,0.005284202623043192,179.4189327879463,-59.89027170505822,0,1.854304552078247,2019-07-25 15:12:14:377
-0.029716448858380318,-0.022108329460024834,9.756957054138184,-0.0068771620261010805,-0.003190180644082879,0.0042186781126862935,179.42769259106498,-62.28851480897967,0,1.8578133583068848,2019-07-25 15:12:14:380
-0.008163701742887497,-0.07000332325696945,9.895853042602539,-0.005545256388154957,-0.0013255126209211442,0.008480776674262537,179.4383857748225,-64.63383364948862,0,1.8603980541229248,2019-07-25 15:12:14:383
-0.048874445259571075,-0.014924080111086369,9.800063133239746,-0.005811637515744182,-0.0071858978179955724,0.0036859158575078444,179.44546859425057,-66.93814592986195,0,1.8642776012420654,2019-07-25 15:12:14:387
-0.07042719423770905,-0.010134580545127392,9.833589553833008,-0.004479731877798059,-0.0034565617716721033,0.004751440367864743,179.4490381569632,-69.19731331209023,0,1.8678107261657715,2019-07-25 15:12:14:390
-0.09676943719387054,-0.06281907111406326,9.912615776062012,-0.00208230133938355,-0.004788467669692552,0.0036859158575078444,179.449781824381,-71.40570908543468,0,1.8711981773376465,2019-07-25 15:12:14:394
-0.05845344439148903,0.00902341678738594,9.764142036437988,-0.004213350490134509,-0.003989324026850552,0.006083346005810866,179.45483981064,-66.37768897017072,0,1.875276803970337,2019-07-25 15:12:14:398
-0.09676943719387054,-0.04126632586121559,9.804852485656738,-0.004213350490134509,-0.006919516690406348,0.005816964878221641,179.45554827289524,-68.64463366606111,0,1.878145456314087,2019-07-25 15:12:14:401
-0.13029593229293823,-0.007739831227809191,9.857537269592285,-0.005012494132976508,-0.005054848797281776,0.0042186781126862935,179.45194109073097,-70.87019719999819,0,1.8804337978363037,2019-07-25 15:12:14:403
-0.10155893862247467,-0.029292577877640724,9.792879104614258,-0.0034142071073668353,-0.005321229924871,0.006083346005810866,179.45207447731647,-73.04868821829061,0,1.8839671611785889,2019-07-25 15:12:14:407
-0.07761144638061523,-0.03168732672929764,9.869510650634766,-0.002881444852188386,-0.006653135562817124,0.00341953472991862,179.4551853590049,-75.18353149920752,0,1.8870813846588135,2019-07-25 15:12:14:410
-0.1063484400510788,-0.005345081444829702,9.843168258666992,-0.004746113005387283,-0.008251422328352472,0.0036859158575078444,179.4552350007575,-77.27835646099365,0,1.8903915882110596,2019-07-25 15:12:14:413
-0.11592743545770645,0.02339191548526287,9.833589553833008,-0.004213350490134509,-0.002923799516493654,0.0028867724747401705,179.45319179234664,-72.13469383682857,0,1.8938634395599365,2019-07-25 15:12:14:416
-0.10155893862247467,-0.043661076575517654,9.864721298217773,-0.002881444852188386,-0.004522086542103327,0.005284202623043192,179.4531287516338,-74.28641985833522,0,1.897005319595337,2019-07-25 15:12:14:420
-0.1063484400510788,0.004233917687088251,9.814431190490723,-0.009540973301993326,-0.003989324026850552,0.004751440367864743,179.45233186580532,-69.19955409805019,0,1.9000511169433594,2019-07-25 15:12:14:423
-0.09197994321584702,-0.017318829894065857,9.790483474731445,-0.002615063724599162,-0.005054848797281776,0.00634972713340009,179.45361442550433,-71.41296969685848,0,1.9039075374603271,2019-07-25 15:12:14:426
