ACCELEROMETER X (m/s²),ACCELEROMETER Y (m/s²),ACCELEROMETER Z (m/s²),GYROSCOPE X (rad/s),GYROSCOPE Y (rad/s),GYROSCOPE Z (rad/s),Pitch (Deg),Roll (Deg),Heading (Deg),Time since start in ms ,YYYY-MO-DD HH-MI-SS_SSS
0.2976697683,-0.122613579,9.9066362381,0.0043398816,-0.005483456,0.0046294379,-3.5655784446,-3.5858178261,0,0,2019-07-25 11:50:21:495
0.2401957959,-0.0387973413,9.8012676239,-0.0007213602,-0.0041515501,0.0062277247,-7.0654160778,-7.1094310273,0,0.0033199787,2019-07-25 11:50:21:498
0.2856960297,-0.0627448335,9.8132410049,0.0035407382,-0.005483456,0.0054285813,-10.4897248278,-10.5605813346,0,0.0066683292,2019-07-25 11:50:21:502
0.1755375415,-0.1058503315,9.8419780731,0.0016760702,-0.0025532633,0.0062277247,-13.8590168685,-13.9373593566,0,0.0099992752,2019-07-25 11:50:21:505
0.2282220423,-0.0603500865,9.7749252319,0.0027415948,-0.0060162182,0.0091579171,-17.1539732667,-17.2520448932,0,0.0132958889,2019-07-25 11:50:21:508
0.2401957959,-0.0699290857,9.8347940445,0.0040735005,-0.0041515501,0.0080923926,-20.3821205044,-20.4996334409,0,0.0166938305,2019-07-25 11:50:21:512
0.2090640366,-0.1058503315,9.8204250336,0.0027415948,-0.0038851689,0.0118217284,-23.5493639801,-23.6777999102,0,0.0200068951,2019-07-25 11:50:21:515
0.2952750325,-0.1010608301,9.7533721924,0.0046062627,-0.0038851689,0.0126208723,-26.6429779696,-26.7932216969,0,0.023296833,2019-07-25 11:50:21:518
0.2401957959,-0.0962713361,9.8395833969,0.0016760702,-0.0057498371,0.0160838275,-29.6810729506,-29.8464600804,0,0.0266354084,2019-07-25 11:50:21:522
0.2401957959,-0.0819028318,9.8443727493,0.0011433079,-0.0020205009,0.015018303,-32.6591206569,-32.840210593,0,0.029957056,2019-07-25 11:50:21:525
0.2330115438,-0.0986660793,9.7198457718,0.0067373117,-0.0020205009,0.0176821142,-35.5781021748,-35.7730102519,0,0.0332233906,2019-07-25 11:50:21:528
0.2617485225,-0.0387973413,9.6791353226,-0.000454979,0.0011760727,0.0179484948,-38.4357813359,-38.6528709069,0,0.0365872383,2019-07-25 11:50:21:531
0.2665380239,-0.043586839,9.8252153397,0.0035407382,-0.0052170748,0.0192804,-41.2349868466,-41.4754087605,0,0.0400013924,2019-07-25 11:50:21:535
0.3000645339,-0.0411920883,9.8635311127,0.0006105456,-0.007614505,0.0203459245,-43.9740433742,-44.2412268035,0,0.043261528,2019-07-25 11:50:21:538
0.2569590509,-0.019639343,9.7797145844,0.0048726438,-0.0046843126,0.0200795439,-46.6635832238,-46.9550139823,0,0.046598196,2019-07-25 11:50:21:541
0.2952750325,-0.019639343,9.8108463287,0.0019424513,-0.0028196444,0.0208786878,-49.2952955714,-49.6139904469,0,0.049996376,2019-07-25 11:50:21:545
0.2162482888,0.0234661531,9.7342147827,0.0035407382,-0.0041515501,0.0208786878,-51.8831690985,-45.0251280096,0,0.0532906055,2019-07-25 11:50:21:548
0.3096435368,0.0067029046,9.8347940445,0.0024752137,-0.0078808861,0.0230097368,-54.4079371181,-40.5258781738,0,0.0566847324,2019-07-25 11:50:21:552
0.2617485225,0.0450189002,9.7821092606,0.0064709306,-0.0044179315,0.0251407858,-56.8882990732,-36.1218416814,0,0.0600078106,2019-07-25 11:50:21:555
0.1946955472,0.0234661531,9.7797145844,0.0022088326,-0.0028196444,0.0243416419,-59.3272010217,-31.802563418,0,0.063305378,2019-07-25 11:50:21:558
0.2186430395,-0.0316130891,9.8108463287,0.0032743571,-0.0006885953,0.0254071664,-61.7149932617,-34.7634391491,0,0.0666744709,2019-07-25 11:50:21:562
0.2282220423,0.0138871539,9.8228206635,-0.0015205036,-0.0052170748,0.0294028838,-64.0530651374,-30.4694963475,0,0.0701189041,2019-07-25 11:50:21:565
0.2833012938,0.0258609019,9.8156356812,0.0070036929,-0.0057498371,0.030734789,-66.3379279539,-26.2643574239,0,0.0732514858,2019-07-25 11:50:21:568
0.1851165444,0.0761506483,9.8778991699,0.0038071193,-0.0044179315,0.0304684084,-68.5888612042,-22.1486243443,0,0.0766203403,2019-07-25 11:50:21:571
0.2066693008,0.0665716454,9.856347084,0.0027415948,-0.0049506937,0.0262063103,-70.7921303264,-18.1139061835,0,0.0799639225,2019-07-25 11:50:21:575
0.1899060458,0.0378346518,9.8635311127,0.0022088326,-0.0065489805,0.0291365032,-72.9530731713,-14.1564129627,0,0.0831036568,2019-07-25 11:50:21:578
0.1970902979,-0.019639343,9.8084516525,0.007270074,-0.0102783163,0.0254071664,-75.069182345,-17.4722680431,0,0.0862338543,2019-07-25 11:50:21:581
0.2066693008,0.0737558976,9.7366094589,0.003007976,-0.0052170748,0.030734789,-77.1423716597,-13.5321414883,0,0.0900144577,2019-07-25 11:50:21:585
0.2090640366,0.059387397,9.8371887207,0.0003441644,-0.0081472672,0.0286037399,-79.1737368886,-9.6684772259,0,0.0931568146,2019-07-25 11:50:21:588
0.2114587873,0.083334893,9.8491621017,0.0035407382,-0.0068153616,0.0243416419,-81.1643629267,-5.8854788198,0,0.096555233,2019-07-25 11:50:21:591
0.1946955472,0.0354399011,9.8156356812,0.0035407382,-0.0022868822,0.0310011717,-83.11790745,-2.1725904643,0,0.0999948978,2019-07-25 11:50:21:595
0.2833012938,0.0522031486,9.8778991699,0.003007976,-0.000155833,0.0280709787,-85.0226654483,1.4642719831,0,0.1031532288,2019-07-25 11:50:21:598
0.2378010452,-0.0076655936,9.7461881638,0.0043398816,-0.0033524067,0.0275382154,-86.8936159123,-2.1649434453,0,0.1065645218,2019-07-25 11:50:21:601
0.2186430395,0.0258609019,9.7773199081,-0.0028524094,-0.0041515501,0.0280709787,-88.7293202768,1.4758757453,0,0.1100063324,2019-07-25 11:50:21:605
0.2066693008,0.1072823927,9.8850841522,0.0008769267,-0.0036187878,0.0262063103,-90.5301337136,5.0337656577,0,0.1131844521,2019-07-25 11:50:21:608
0.2521695495,-0.0579553358,9.9186105728,0.0003441644,-0.0073481239,0.0288701226,-92.2889841093,1.3397194672,0,0.1166250706,2019-07-25 11:50:21:611
0.2545642853,0.0522031486,9.8108463287,-0.000454979,-0.0036187878,0.0262063103,-94.0127885786,4.90691441,0,0.1200168133,2019-07-25 11:50:21:615
0.1994850487,0.0953086466,9.856347084,0.0019424513,-0.0046843126,0.0254071664,-95.7085120986,8.3973509626,0,0.1231777668,2019-07-25 11:50:21:618
0.1923007965,0.0761506483,9.8395833969,0.0024752137,-0.0065489805,0.0227433562,-97.3707073475,11.8200661944,0,0.1265554428,2019-07-25 11:50:21:621
0.1946955472,0.0282556508,9.8850841522,0.0006105456,-0.0068153616,0.0259399297,-98.9994225834,15.1802725888,0,0.1299622059,2019-07-25 11:50:21:625
0.2186430395,0.1072823927,9.7725305557,-0.0031187905,-0.0046843126,0.0240752613,-100.5929687351,18.4646416709,0,0.1331248283,2019-07-25 11:50:21:628
0.1683533043,0.0258609019,9.8539524078,-0.0001885979,-0.0017541198,0.0224769735,-102.1611983467,21.6923775128,0,0.1365272999,2019-07-25 11:50:21:631
0.1611690521,0.0929138958,9.8132410049,0.0006105456,-0.0020205009,0.0222105929,-103.6987623084,24.8475615524,0,0.1399972439,2019-07-25 11:50:21:635
0.2641432881,0.0210714024,9.8036623001,-0.0020532659,-0.0004222141,0.021411449,-105.1938451634,27.9485100871,0,0.1431434155,2019-07-25 11:50:21:638
0.2497747838,0.083334893,9.8731098175,-0.0001885979,-0.0028196444,0.0206123072,-106.6604358532,30.9799046068,0,0.1466088295,2019-07-25 11:50:21:641
0.2665380239,0.0450189002,9.8108463287,0.0019424513,-0.0033524067,0.0227433562,-108.0954614544,33.9546766298,0,0.1500165462,2019-07-25 11:50:21:645
0.2665380239,0.0641768947,9.8371887207,0.0006105456,-0.0046843126,0.0224769735,-109.5016840412,36.8679995331,0,0.1531617641,2019-07-25 11:50:21:648
0.1683533043,0.0474136509,9.8036623001,-0.0012541225,-0.0041515501,0.0192804,-110.8911820895,39.7253368162,0,0.1565592289,2019-07-25 11:50:21:651
0.1875112951,0.143203631,9.8300046921,7.77832973833762E-005,-0.0049506937,0.021411449,-112.2505378522,42.5141223951,0,0.1600286961,2019-07-25 11:50:21:655
0.2018797994,0.1072823927,9.7725305557,0.0003441644,-0.0025532633,0.0203459245,-113.5814080389,45.2511999552,0,0.1631691456,2019-07-25 11:50:21:658
0.1803270429,-0.0220340919,9.8539524078,-0.0001885979,-0.0014877387,0.0198131633,-114.8885280653,40.7487742886,0,0.1665680408,2019-07-25 11:50:21:661
0.2162482888,0.0090976544,9.9042415619,-0.0031187905,-0.0014877387,0.0211450684,-116.1654537298,43.5333498147,0,0.1700148582,2019-07-25 11:50:21:665
0.1994850487,0.0977033898,9.8587417603,-0.0039179339,-0.000155833,0.0195467826,-117.4189334311,46.2520194957,0,0.1731636524,2019-07-25 11:50:21:668
0.2162482888,0.0857296437,9.7461881638,-0.004184315,-0.0009549764,0.0155510652,-118.6449530882,48.9176895764,0,0.1765258312,2019-07-25 11:50:21:671
0.2641432881,0.1024928913,9.786898613,-0.0009877413,-0.0004222141,0.0158174458,-119.8410518659,51.52752751,0,0.179984808,2019-07-25 11:50:21:675
0.1827217937,0.1144666374,9.8156356812,-0.0001885979,-0.0038851689,0.01208811,-121.0222146184,54.0836476339,0,0.183134079,2019-07-25 11:50:21:678
0.213853538,0.0426241495,9.8874788284,-0.0020532659,-0.0049506937,0.0147519213,-122.1761237386,56.5973938273,0,0.1862485409,2019-07-25 11:50:21:681
0.2330115438,0.0785453916,9.8204250336,-0.0055162207,-0.0057498371,0.0158174458,-123.3041935291,59.0574546405,0,0.1900379658,2019-07-25 11:50:21:685
0.213853538,0.0737558976,9.7964782715,-0.0015205036,-0.0009549764,0.0139527774,-124.4129301115,61.4679467662,0,0.19318223,2019-07-25 11:50:21:688
0.1803270429,0.0186766535,9.9042415619,-0.0049834584,-0.0004222141,0.0112889661,-125.503727959,63.8373961146,0,0.1966457367,2019-07-25 11:50:21:692
0.2665380239,0.1096771434,9.7437934875,-0.0049834584,-0.0030860256,0.0086251549,-126.5617314271,66.1486927342,0,0.2000141144,2019-07-25 11:50:21:695
0.2689327896,0.0498083979,9.856347084,-0.004184315,-0.0017541198,0.0091579171,-127.5989269447,68.420670054,0,0.2031719685,2019-07-25 11:50:21:698
0.3096435368,0.0354399011,9.8108463287,-0.0033851716,0.0006433105,0.0072932492,-128.610916489,70.6487630385,0,0.2065694332,2019-07-25 11:50:21:701
0.3311962783,0.083334893,9.8228206635,-0.0052498395,-0.0017541198,0.0088915365,-129.599736884,72.8270809967,0,0.2100117207,2019-07-25 11:50:21:705
0.2425905317,-0.0004813447,9.7366094589,-0.0068481263,0.0027743595,0.0107562039,-130.5796874075,67.7718059804,0,0.2131583691,2019-07-25 11:50:21:708
0.2880907953,0.001913405,9.8347940445,-0.0060489829,-0.0022868822,0.0054285813,-131.5340978616,70.0173056427,0,0.2165699005,2019-07-25 11:50:21:711
0.2880907953,0.0258609019,9.7940835953,-0.0031187905,-0.0036187878,0.0043630568,-132.4690188299,72.2145370205,0,0.2200145721,2019-07-25 11:50:21:715
0.3455647826,0.0306504015,9.8371887207,-0.004184315,0.003307122,0.006760487,-133.3799870713,74.3674176498,0,0.223171711,2019-07-25 11:50:21:718
0.316827774,0.0258609019,9.7413988113,-0.0012541225,-0.0057498371,0.0038302946,-134.2740483923,76.4772632994,0,0.2265245914,2019-07-25 11:50:21:721
0.3240120411,-0.0052708439,9.7461881638,-0.0020532659,-0.0036187878,0.0051622002,-135.1497851103,71.3487351425,0,0.2299714088,2019-07-25 11:50:21:725
0.2928802967,-0.0028760943,9.8419780731,-0.0036515528,-0.0017541198,0.0051622002,-136.012387029,66.3227447309,0,0.2331387997,2019-07-25 11:50:21:728
0.3072487712,-0.0076655936,9.8300046921,-0.0033851716,-0.0046843126,0.0019656264,-136.8554237265,61.3978412281,0,0.2365994453,2019-07-25 11:50:21:731
0.2689327896,-0.0220340919,9.7629518509,-0.0068481263,-0.0028196444,0.0040966757,-137.6862165928,56.5737844497,0,0.240016222,2019-07-25 11:50:21:735
0.2880907953,-0.0364025906,9.7533721924,-0.0039179339,-0.0028196444,0.001166483,-138.4981570451,51.8472769426,0,0.2431585789,2019-07-25 11:50:21:738
0.3311962783,-0.0579553358,9.8228206635,-0.004184315,-0.0041515501,0.0070268681,-139.2887624081,47.2179079593,0,0.2466301918,2019-07-25 11:50:21:742
0.3958545327,-0.0316130891,9.8300046921,-0.0033851716,-0.0012213575,0.0009001019,-140.0566339191,42.6778783604,0,0.250014782,2019-07-25 11:50:21:745
0.2976697683,-0.0627448335,9.8180303574,-0.0020532659,-0.0049506937,0.0009001019,-140.8198894156,38.232008879,0,0.2531797886,2019-07-25 11:50:21:748
0.350354284,-0.0052708439,9.8180303574,-0.0033851716,-0.0006885953,0.0027647698,-141.5624849664,33.8686340656,0,0.2566003799,2019-07-25 11:50:21:751
0.3407752812,-0.0890870839,9.8156356812,-0.0047170773,-0.0049506937,-0.0041611398,-142.2905184697,29.6025660089,0,0.2600154877,2019-07-25 11:50:21:755
0.343170017,0.0138871539,9.7749252319,-0.0025860282,-0.0038851689,0.0016992453,-143.003806593,32.6093447491,0,0.2631700039,2019-07-25 11:50:21:758
0.2809065282,-0.1537453234,9.8276100159,-0.0036515528,-0.0028196444,-0.000698185,-143.7104468624,28.375780534,0,0.2665703297,2019-07-25 11:50:21:761
0.3048540354,-0.0795080811,9.6719512939,0.0008769267,0.0009096916,0.001166483,-144.4003072777,24.2175150622,0,0.2700152397,2019-07-25 11:50:21:765
0.2952750325,-0.0914818347,9.8300046921,-0.0052498395,-0.0009549764,-0.0001654227,-145.0777206725,20.1447613398,0,0.2731788158,2019-07-25 11:50:21:768
0.3575385213,-0.0890870839,9.8395833969,0.0022088326,-0.0033524067,-0.0004318038,-145.7339009825,16.1518160876,0,0.2766039371,2019-07-25 11:50:21:771
0.3623280227,-0.0723238364,9.856347084,-0.0055162207,-0.0020205009,0.0024983887,-146.3767353142,12.2382303035,0,0.2799687386,2019-07-25 11:50:21:775
0.3288015425,-0.1058503315,9.856347084,-0.000454979,-0.0020205009,0.0014328642,-147.0106304676,8.4058520174,0,0.2831180096,2019-07-25 11:50:21:778
0.3407752812,-0.1082450822,9.8204250336,-0.0015205036,-0.0006885953,0.0035639134,-147.6305379977,4.6506562339,0,0.2865262032,2019-07-25 11:50:21:781
0.3407752812,-0.0819028318,9.8826885223,-0.0049834584,-0.0006885953,-0.0001654227,-148.2382930752,0.9681261124,0,0.2900514603,2019-07-25 11:50:21:785
0.3647227585,-0.0723238364,9.856347084,-0.0009877413,-0.0014877387,0.0027647698,-148.8308812041,-2.6426540802,0,0.2931885719,2019-07-25 11:50:21:788
0.3599332869,-0.0819028318,9.7605571747,0.0006105456,-0.0030860256,-0.0038947587,-149.4114350143,-6.180302452,0,0.2965967655,2019-07-25 11:50:21:791
0.3383805156,-0.1274030805,9.9545316696,7.77832973833762E-005,-0.0038851689,0.0022320075,-149.9835231131,-9.6420461281,0,0.3000142574,2019-07-25 11:50:21:795
0.376696527,-0.0459815897,9.8132410049,0.0019424513,-0.0028196444,-0.0028292342,-150.5393865244,-13.0441802868,0,0.3031721115,2019-07-25 11:50:21:798
0.3311962783,-0.1082450822,9.8156356812,-0.004184315,-0.0044179315,0.0001009585,-151.0891014941,-16.3698582012,0,0.3065857887,2019-07-25 11:50:21:801
0.3048540354,-0.0627448335,9.8347940445,0.0035407382,0.001708835,0.0027647698,-151.6321391184,-19.6358316161,0,0.310012579,2019-07-25 11:50:21:805
0.3814860284,-0.1202188283,9.8108463287,-0.0015205036,-0.0030860256,0.0040966757,-152.1544153657,-22.8288052497,0,0.3131606579,2019-07-25 11:50:21:808
0.3000645339,-0.1106398329,9.7557668686,0.0032743571,-0.0006885953,0.0032975323,-152.6759611815,-25.9598582874,0,0.3165566921,2019-07-25 11:50:21:811
0.3311962783,-0.0124550927,9.7892932892,-0.0025860282,-0.0030860256,-0.0012309473,-153.1830879301,-29.0387006847,0,0.3200170994,2019-07-25 11:50:21:815
0.3455647826,-0.0651395842,9.8371887207,0.0011433079,-0.0022868822,0.0027647698,-153.678784961,-32.0505405536,0,0.3231599331,2019-07-25 11:50:21:818
0.2928802967,-0.019639343,9.7629518509,-0.0001885979,0.0014424539,0.0014328642,-154.1711196914,-35.007188432,0,0.3265752792,2019-07-25 11:50:21:821
0.3671175241,-0.0699290857,9.8755044937,-0.0007213602,-0.0020205009,0.0032975323,-154.6447319575,-37.8987926723,0,0.3299779892,2019-07-25 11:50:21:825
0.3311962783,-0.0340078399,9.7773199081,7.77832973833762E-005,0.0019752161,0.0027647698,-155.1133855599,-40.7368448542,0,0.3331344128,2019-07-25 11:50:21:828
0.3072487712,-0.0555605888,9.7677412033,0.003007976,-0.0046843126,-0.0017637095,-155.5741767704,-43.516172706,0,0.3365852833,2019-07-25 11:50:21:831
0.3359857798,-0.043586839,9.7461881638,-0.0009877413,-0.0065489805,0.001166483,-156.0219452345,-46.2405345145,0,0.3400113583,2019-07-25 11:50:21:835
0.3335910141,-0.1058503315,9.7413988113,0.0027415948,-0.0020205009,0.0022320075,-156.4619239757,-48.9037560556,0,0.3431508541,2019-07-25 11:50:21:838
0.3671175241,-0.0364025906,9.7198457718,0.0011433079,-0.0030860256,-0.0017637095,-156.8888349586,-51.5216078723,0,0.3465557098,2019-07-25 11:50:21:841
0.4102230072,-0.0124550927,9.8084516525,0.0014096891,-0.0004222141,-0.0012309473,-157.3030780663,-54.089994367,0,0.3500144482,2019-07-25 11:50:21:845
0.3551437855,0.0090976544,9.7198457718,-0.0017868847,-0.0017541198,-0.0028292342,-157.7148556093,-49.4089512087,0,0.3531622887,2019-07-25 11:50:21:848
0.3407752812,-0.0603500865,9.8132410049,0.0016760702,-0.0049506937,0.0009001019,-158.1198381669,-52.0140443625,0,0.3565552235,2019-07-25 11:50:21:851
0.3479595184,-0.043586839,9.8084516525,0.0019424513,0.0009096916,-0.0009645661,-158.516983197,-54.5690484972,0,0.3600137234,2019-07-25 11:50:21:855
0.350354284,-0.019639343,9.8060569763,-0.0001885979,-0.0022868822,-0.0012309473,-158.9053156657,-57.0753392329,0,0.3631567955,2019-07-25 11:50:21:858
0.3814860284,-0.0316130891,9.8012676239,0.0014096891,-0.0030860256,-0.0012309473,-159.2820269807,-59.5304120562,0,0.3666391373,2019-07-25 11:50:21:862
0.2928802967,-0.0172445923,9.8084516525,0.0006105456,-0.0012213575,-0.0014973284,-159.6619475109,-61.9379051478,0,0.3700230122,2019-07-25 11:50:21:865
0.3599332869,-0.0052708439,9.7677412033,-0.000454979,-0.0020205009,-0.0054930454,-160.0261443704,-64.2984482466,0,0.3731718063,2019-07-25 11:50:21:868
0.316827774,-0.0052708439,9.7988729477,0.0022088326,-0.0012213575,-0.0022964719,-160.3883534321,-66.6122787925,0,0.3765251637,2019-07-25 11:50:21:871
0.4054335058,-0.0316130891,9.7940835953,0.0024752137,-0.0006885953,-0.0052266643,-160.7330434268,-68.8768160068,0,0.3799898624,2019-07-25 11:50:21:875
0.2952750325,0.0138871539,9.7845039368,7.77832973833762E-005,-0.0033524067,-0.0022964719,-161.083219361,-63.9009198306,0,0.3831372261,2019-07-25 11:50:21:878
0.3264067769,0.0162819028,9.8347940445,-0.0017868847,0.0006433105,-0.0033619964,-161.4236491774,-59.0244873975,0,0.3862383366,2019-07-25 11:50:21:881
0.2976697683,-0.0579553358,9.8443727493,0.0016760702,-0.0049506937,-0.0068249511,-161.7594831444,-61.4376083528,0,0.3900296688,2019-07-25 11:50:21:885
0.350354284,0.0090976544,9.9066362381,0.0016760702,-0.0022868822,-0.0065585699,-162.0833813099,-56.610203919,0,0.3931684494,2019-07-25 11:50:21:888
0.2449852824,0.0474136509,9.8587417603,0.0014096891,-0.0012213575,-0.0089560006,-162.4130107029,-51.883780188,0,0.3965711594,2019-07-25 11:50:21:891
0.3192225397,0.0378346518,9.8228206635,-0.0001885979,-0.0014877387,-0.0062921888,-162.7272359301,-47.2504818334,0,0.4000144005,2019-07-25 11:50:21:895
0.2785117924,0.0402293988,9.8276100159,0.0011433079,-0.0022868822,-0.0065585699,-163.0398195019,-42.7103656931,0,0.4031720161,2019-07-25 11:50:21:898
0.2258272916,0.0545978993,9.8036623001,-0.0001885979,0.0006433105,-0.0169474344,-163.3527543613,-38.2625040863,0,0.4065699577,2019-07-25 11:50:21:901
0.3790912628,0.0641768947,9.8084516525,0.0016760702,-0.0009549764,-0.0086896195,-163.6412476541,-33.9050757158,0,0.4100134373,2019-07-25 11:50:21:905
0.2856960297,0.0306504015,9.7461881638,-0.0001885979,-0.0022868822,-0.0126853364,-163.9344376373,-29.6305446373,0,0.4131577015,2019-07-25 11:50:21:908
0.2856960297,0.0186766535,9.7797145844,-0.0017868847,-0.0052170748,-0.0148163854,-164.2212690813,-25.4397749895,0,0.4166176319,2019-07-25 11:50:21:911
0.2713275254,0.0234661531,9.8300046921,-0.0012541225,-0.0049506937,-0.0102879057,-164.5042780324,-21.333475832,0,0.420014143,2019-07-25 11:50:21:915
0.3240120411,-0.0148498425,9.8084516525,-0.0001885979,-0.0025532633,-0.0124189558,-164.7758988236,-24.5050379371,0,0.4231758118,2019-07-25 11:50:21:918
0.273722291,0.0306504015,9.7437934875,0.0008769267,-0.0028196444,-0.0121525741,-165.0476663983,-20.418707219,0,0.426535368,2019-07-25 11:50:21:921
0.2210377902,0.0090976544,9.8323993683,-0.0001885979,-0.0041515501,-0.0174801967,-165.3201559967,-16.4113569895,0,0.4299697876,2019-07-25 11:50:21:925
0.2809065282,0.0210714024,9.8755044937,-0.0015205036,-0.0028196444,-0.0164146722,-165.5806664652,-12.4853053261,0,0.4331271648,2019-07-25 11:50:21:928
0.2378010452,0.0378346518,9.8707151413,-0.0044506961,-0.0012213575,-0.0164146722,-165.8412363615,-8.6392072945,0,0.4362652302,2019-07-25 11:50:21:931
0.2042745501,-0.0004813447,9.7821092606,-0.0017868847,-0.0028196444,-0.0217422947,-166.0998966403,-12.0659935414,0,0.4399850368,2019-07-25 11:50:21:935
0.1946955472,0.0665716454,9.6551876068,-0.0039179339,-0.0012213575,-0.0182793406,-166.354580202,-8.2318867522,0,0.4431114197,2019-07-25 11:50:21:938
0.2713275254,0.0210714024,9.6695566177,-0.0065817452,-0.000155833,-0.0198776263,-166.5953145916,-4.4685602485,0,0.4463202953,2019-07-25 11:50:21:941
0.1899060458,0.0067029046,9.7821092606,0.0016760702,-0.0022868822,-0.0241397264,-166.8406882771,-0.7803234487,0,0.4500308037,2019-07-25 11:50:21:945
0.2976697683,0.0234661531,9.7126617432,-0.0057826018,-0.0057498371,-0.0217422947,-167.0677442622,2.8335419493,0,0.4531953335,2019-07-25 11:50:21:948
0.2545642853,-0.0052708439,9.7054777145,-0.0033851716,-0.0062825993,-0.0188121018,-167.2951148684,-0.8218463759,0,0.4566686153,2019-07-25 11:50:21:952
0.2904855311,-0.0507710874,9.8874788284,-0.0055162207,-0.0017541198,-0.024406107,-167.5152252833,-4.3984845592,0,0.4600288868,2019-07-25 11:50:21:955
0.2210377902,0.0282556508,9.7437934875,-0.0017868847,0.0001105482,-0.0217422947,-167.7389496976,-0.7135220457,0,0.4631764889,2019-07-25 11:50:21:958
0.2761170268,0.0258609019,9.8778991699,-0.0047170773,-0.0041515501,-0.0236069631,-167.9513362642,2.8986697902,0,0.4666554928,2019-07-25 11:50:21:962
0.2545642853,0.0354399011,9.8108463287,-0.0055162207,-0.0036187878,-0.020144009,-168.1619009572,6.4375964649,0,0.4700114727,2019-07-25 11:50:21:965
0.2761170268,0.0306504015,9.7892932892,-0.0057826018,-0.0014877387,-0.0236069631,-168.3660860886,9.906281615,0,0.4731681347,2019-07-25 11:50:21:968
0.3000645339,0.0090976544,9.8323993683,-0.0057826018,-0.0038851689,-0.0246724877,-168.5630707738,13.3081873717,0,0.4765303135,2019-07-25 11:50:21:971
0.2330115438,-0.0364025906,9.7605571747,-0.0036515528,-0.0020205009,-0.0220086774,-168.7640680321,9.4470028107,0,0.479970932,2019-07-25 11:50:21:975
0.273722291,0.0067029046,9.8060569763,-0.0065817452,-0.0020205009,-0.0230742019,-168.9564510926,12.8584432363,0,0.4831199646,2019-07-25 11:50:21:978
0.2378010452,0.0043081548,9.8276100159,-0.0068481263,-0.005483456,-0.0252052509,-169.1485467415,16.202086774,0,0.4865391254,2019-07-25 11:50:21:981
0.3096435368,0.0498083979,9.8252153397,-0.0057826018,-0.005483456,-0.0241397264,-169.3283945431,19.4733742846,0,0.4900450706,2019-07-25 11:50:21:985
0.3024592698,0.0498083979,9.9281892776,-0.0028524094,-0.0052170748,-0.0230742019,-169.5060055632,22.678661993,0,0.4931921959,2019-07-25 11:50:21:988
0.2617485225,-0.019639343,9.8180303574,-0.0060489829,-0.0038851689,-0.0220086774,-169.6845865065,18.6285581527,0,0.4966580868,2019-07-25 11:50:21:992
0.2569590509,0.0665716454,9.8826885223,-0.0055162207,-0.0030860256,-0.0246724877,-169.8605250565,21.8493075423,0,0.5000143051,2019-07-25 11:50:21:995
0.2425905317,0.0258609019,9.7749252319,-0.0065817452,-0.0038851689,-0.0214759141,-170.0341946135,25.0104533152,0,0.5031628609,2019-07-25 11:50:21:998
0.2497747838,-0.0268235914,9.8539524078,-0.0060489829,-0.0033524067,-0.0249388683,-170.2038307105,20.9145182314,0,0.5065624714,2019-07-25 11:50:22:001
0.1923007965,0.0522031486,9.8084516525,-0.0047170773,0.0011760727,-0.0241397264,-170.3775204842,24.0910511532,0,0.5100438595,2019-07-25 11:50:22:005
0.2473800331,0.0114924042,9.8323993683,-0.0025860282,-0.0044179315,-0.0233405825,-170.5403692616,27.208344994,0,0.5131721497,2019-07-25 11:50:22:008
0.2449852824,-0.0076655936,9.8060569763,-0.0007213602,-0.0060162182,-0.0212095335,-170.6997883564,23.0652118871,0,0.5165793896,2019-07-25 11:50:22:011
0.1875112951,0.001913405,9.8994522095,-0.0057826018,-0.0033524067,-0.0236069631,-170.8634436927,26.2048005178,0,0.520011425,2019-07-25 11:50:22:015
0.1946955472,0.0737558976,9.8778991699,-0.0052498395,-0.0052170748,-0.0254716316,-171.0226660221,29.2730796772,0,0.5231707096,2019-07-25 11:50:22:018
0.2258272916,0.0569926463,9.851556778,-0.0012541225,-0.0028196444,-0.022275058,-171.1754156527,32.2812263064,0,0.5265424252,2019-07-25 11:50:22:021
0.2282220423,-0.0220340919,9.8443727493,-0.0049834584,-0.0038851689,-0.0236069631,-171.3245989381,28.0391252988,0,0.5299685001,2019-07-25 11:50:22:025
0.230616793,-0.0148498425,9.8467674255,-0.0036515528,-0.0012213575,-0.0228078192,-171.4710582182,23.8807157184,0,0.5331132412,2019-07-25 11:50:22:028
0.2282220423,-0.0172445923,9.8587417603,-0.0044506961,-0.0022868822,-0.0278690612,-171.6146751865,19.8059612822,0,0.5365364552,2019-07-25 11:50:22:031
0.1659585536,0.0210714024,9.8802938461,-0.0052498395,-0.0038851689,-0.0214759141,-171.7623732511,23.0084283724,0,0.5400311947,2019-07-25 11:50:22:035
0.1779322922,-0.0220340919,9.8443727493,-0.0068481263,-0.0046843126,-0.0278690612,-171.9055858301,18.9520385331,0,0.5431880951,2019-07-25 11:50:22:038
0.2042745501,0.0138871539,9.7940835953,7.77832973833762E-005,-0.0020205009,-0.022275058,-172.0431828135,22.1713577692,0,0.5466651917,2019-07-25 11:50:22:042
0.2066693008,-0.0699290857,9.8443727493,-0.0079136508,-0.0020205009,-0.0260043928,-172.1778847592,18.1375626244,0,0.5500233173,2019-07-25 11:50:22:045
0.1923007965,-0.0268235914,9.7581615448,-0.0028524094,-0.0036187878,-0.0196112457,-172.3111032012,14.1784693975,0,0.553195715,2019-07-25 11:50:22:048
0.1899060458,0.0114924042,9.7605571747,-0.0068481263,-0.0022868822,-0.0228078192,-172.4421456878,17.494876696,0,0.5566439629,2019-07-25 11:50:22:052
0.2354062945,-0.0411920883,9.8395833969,-0.0044506961,-0.0033524067,-0.0206767702,-172.5652579584,13.550618967,0,0.5600156784,2019-07-25 11:50:22:055
0.1659585536,-0.0747185871,9.7413988113,-0.0007213602,-0.0033524067,-0.0220086774,-172.6938382779,9.688523669,0,0.5631718636,2019-07-25 11:50:22:058
0.2378010452,-0.0052708439,9.8084516525,-0.0044506961,-0.0017541198,-0.0212095335,-172.8118499119,5.8962186873,0,0.5665719509,2019-07-25 11:50:22:061
0.2018797994,-0.0364025906,9.7581615448,-0.0052498395,-0.0038851689,-0.0228078192,-172.9311593459,2.1835824089,0,0.57000947,2019-07-25 11:50:22:065
0.1587743014,-0.0771133378,9.7797145844,-0.0047170773,-0.0044179315,-0.0220086774,-173.0531519008,-1.4502190276,0,0.5731613636,2019-07-25 11:50:22:068
0.2234325409,-0.1082450822,9.7964782715,-0.004184315,-0.0038851689,-0.0220086774,-173.1652269252,-5.0077661343,0,0.5765125751,2019-07-25 11:50:22:071
0.1923007965,0.0186766535,9.8802938461,-0.0036515528,-0.0044179315,-0.0217422947,-173.2787635856,-1.3090672771,0,0.5799736977,2019-07-25 11:50:22:075
0.2162482888,-0.0220340919,9.7653465271,-0.0017868847,-0.0017541198,-0.0150827671,-173.3875062007,-4.8799839597,0,0.5831270218,2019-07-25 11:50:22:078
0.2473800331,-0.0316130891,9.8252153397,-0.0044506961,0.0009096916,-0.020144009,-173.4910871201,-8.3778317648,0,0.5865902901,2019-07-25 11:50:22:081
0.1994850487,-0.0651395842,9.7964782715,0.0022088326,-0.0057498371,-0.0177465773,-173.59682651,-11.8030813228,0,0.5900218487,2019-07-25 11:50:22:085
0.2282220423,-0.0890870839,9.851556778,-0.0020532659,-0.0006885953,-0.0174801967,-173.6982269113,-15.1562954356,0,0.5931625366,2019-07-25 11:50:22:088
0.2425905317,-0.0244288407,9.7773199081,-0.0060489829,-0.0046843126,-0.0153491477,-173.7948968639,-18.4490933766,0,0.5967340469,2019-07-25 11:50:22:092
0.2545642853,-0.0316130891,9.8946628571,0.0011433079,-0.0046843126,-0.0158819099,-173.8886359917,-21.6766670908,0,0.600110054,2019-07-25 11:50:22:095
0.2186430395,-0.0531658381,9.8132410049,-0.0033851716,-0.0062825993,-0.0137508609,-173.984219347,-24.8363238225,0,0.6032755375,2019-07-25 11:50:22:098
0.2449852824,-0.0819028318,9.8108463287,-0.0023196471,-0.0017541198,-0.0145500048,-174.0755883726,-27.9295842292,0,0.6067075729,2019-07-25 11:50:22:102
0.2090640366,-0.0268235914,9.710267067,-0.0028524094,-0.0022868822,-0.0148163854,-174.1689839602,-30.9672974077,0,0.610014677,2019-07-25 11:50:22:105
0.2354062945,-0.0603500865,9.7988729477,-0.0015205036,-0.0046843126,-0.0134844803,-174.2572533603,-33.9406255671,0,0.6131587029,2019-07-25 11:50:22:108
0.2593537867,-0.0483763404,9.8731098175,-0.0036515528,-0.0036187878,-0.0126853364,-174.3413187921,-36.8554973386,0,0.6165776253,2019-07-25 11:50:22:111
0.1755375415,-0.1034555808,9.7797145844,-0.0015205036,-0.0038851689,-0.0073577133,-174.4331766198,-39.7059722328,0,0.6200146675,2019-07-25 11:50:22:115
0.2401957959,0.0090976544,9.8491621017,-0.0012541225,-0.0068153616,-0.0126853364,-174.5153679723,-35.3126895842,0,0.6231627464,2019-07-25 11:50:22:118
0.1827217937,-0.0531658381,9.8228206635,-0.0052498395,-0.0044179315,-0.0076240944,-174.602920251,-38.1992511547,0,0.6264955997,2019-07-25 11:50:22:121
0.1851165444,-0.0076655936,9.8180303574,-0.0001885979,-0.0041515501,-0.0084232384,-174.6884424605,-41.0343343698,0,0.6299960613,2019-07-25 11:50:22:125
0.1994850487,-0.0364025906,9.7605571747,-0.000454979,-0.0006885953,-0.0094887629,-174.7711347961,-43.8092933337,0,0.6331512928,2019-07-25 11:50:22:128
0.2354062945,-0.0411920883,9.7270298004,7.77832973833762E-005,-0.0046843126,-0.0038947587,-174.8470735612,-46.5282698985,0,0.63661623,2019-07-25 11:50:22:131
0.2449852824,-0.0459815897,9.8539524078,-0.0023196471,-0.0025532633,-0.0078904761,-174.9211604256,-49.1919138055,0,0.6400215626,2019-07-25 11:50:22:135
0.2473800331,-0.0124550927,9.7629518509,-0.0001885979,-0.0020205009,-0.0084232384,-174.9933517275,-51.8065804215,0,0.6431572437,2019-07-25 11:50:22:138
0.1970902979,-0.0292183403,9.7390041351,0.0003441644,-0.0014877387,-0.0086896195,-175.0700147054,-54.3670763913,0,0.6465451717,2019-07-25 11:50:22:141
0.1755375415,-0.0531658381,9.8898735046,-0.0033851716,-0.0038851689,-0.004693902,-175.1475075657,-56.8729039314,0,0.6500742435,2019-07-25 11:50:22:145
0.2856960297,-0.0172445923,9.7461881638,-0.0028524094,-0.0044179315,-0.0041611398,-175.2102017326,-59.3329183433,0,0.653195858,2019-07-25 11:50:22:148
0.2282220423,-0.0483763404,9.8036623001,0.0011433079,-0.005483456,-0.0009645661,-175.2782825825,-61.7408231286,0,0.6565861702,2019-07-25 11:50:22:151
0.2234325409,-0.0555605888,9.695898056,-0.0025860282,-0.0046843126,-0.004693902,-175.3454152092,-64.0989434848,0,0.6600074768,2019-07-25 11:50:22:155
0.1851165444,-0.0316130891,9.8323993683,0.0022088326,-0.0062825993,-0.0060258077,-175.4158226831,-66.4136713778,0,0.6631608009,2019-07-25 11:50:22:158
0.1563795507,-0.0076655936,9.7533721924,0.0011433079,-0.0030860256,0.001166483,-175.4885433785,-68.6847164727,0,0.6665744781,2019-07-25 11:50:22:161
0.2473800331,-0.0651395842,9.7940835953,0.0014096891,-0.005483456,0.0006337208,-175.5487765331,-70.903672984,0,0.6700122356,2019-07-25 11:50:22:165
0.2401957959,-0.0387973413,9.7318201065,0.0006105456,-0.0052170748,-0.002562853,-175.6086013707,-73.0811391417,0,0.6731612682,2019-07-25 11:50:22:168
0.1348268092,-0.0076655936,9.8347940445,-0.0007213602,-0.0028196444,0.0024983887,-175.6801900584,-75.2184874141,0,0.6765134335,2019-07-25 11:50:22:171
0.1515900493,-0.043586839,9.8060569763,-0.0023196471,-0.0006885953,0.001166483,-175.7487390869,-77.3085725579,0,0.6799812317,2019-07-25 11:50:22:175
0.2354062945,-0.0052708439,9.8443727493,-0.0001885979,-0.0028196444,0.0038302946,-175.8058709016,-79.361754348,0,0.6831178665,2019-07-25 11:50:22:178
0.2018797994,-0.0364025906,9.8731098175,-0.000454979,-0.0022868822,0.0035639134,-175.8658818252,-81.3702059273,0,0.6865746975,2019-07-25 11:50:22:181
0.1491952986,-0.0411920883,9.921005249,-0.0012541225,-0.005483456,0.0014328642,-175.9302730461,-83.337801601,0,0.6900167465,2019-07-25 11:50:22:185
0.2114587873,0.0378346518,9.8323993683,0.0035407382,-0.0030860256,0.0038302946,-175.9864781041,-78.0760846965,0,0.6931841373,2019-07-25 11:50:22:188
0.1851165444,-0.0603500865,9.7294254303,-0.0007213602,-0.0036187878,0.0040966757,-176.0442483693,-80.1073156078,0,0.6966295242,2019-07-25 11:50:22:192
0.2018797994,-0.019639343,9.7533721924,0.0038071193,-0.0084136484,0.0035639134,-176.0980485696,-82.1035856647,0,0.7000153065,2019-07-25 11:50:22:195
0.2186430395,-0.0004813447,9.7892932892,0.0014096891,-0.0020205009,0.0072932492,-176.1501398528,-84.0617074303,0,0.7031714916,2019-07-25 11:50:22:198
0.230616793,-0.0268235914,9.8539524078,7.77832973833762E-005,-0.0006885953,0.0072932492,-176.200188635,-85.9773692138,0,0.7066605091,2019-07-25 11:50:22:202
0.1491952986,-0.0483763404,9.8898735046,-0.0028524094,0.0001105482,0.0051622002,-176.25892015,-87.8516780543,0,0.7100231647,2019-07-25 11:50:22:205
0.1970902979,-0.0411920883,9.7150564194,-0.0020532659,-0.0033524067,0.0016992453,-176.3099030289,-89.68942163,0,0.7131819725,2019-07-25 11:50:22:208
0.2162482888,-0.0244288407,9.9353733063,-0.0009877413,-0.0041515501,0.0094242988,-176.3579777327,-91.4926277556,0,0.7165699005,2019-07-25 11:50:22:211
0.2856960297,-0.0890870839,9.8635311127,-0.0023196471,-0.0041515501,0.0054285813,-176.3968331601,-93.2519769494,0,0.7200145721,2019-07-25 11:50:22:215
0.2641432881,0.0114924042,9.8395833969,-0.0001885979,-0.0046843126,0.0040966757,-176.4373127326,-87.7882424322,0,0.7231667042,2019-07-25 11:50:22:218
0.2473800331,0.0665716454,9.7030830383,-0.0020532659,-0.0044179315,0.0088915365,-176.478511528,-82.439946182,0,0.7265777588,2019-07-25 11:50:22:221
0.2665380239,0.001913405,9.8228206635,0.0006105456,-0.0068153616,0.0064941058,-176.5165546677,-77.1914869617,0,0.7299757004,2019-07-25 11:50:22:225
0.1994850487,-0.0292183403,9.7845039368,7.77832973833762E-005,-0.0060162182,0.0056949625,-176.5617995505,-79.2442490794,0,0.7331268787,2019-07-25 11:50:22:228
0.2162482888,0.0186766535,9.7892932892,-0.0015205036,-0.0068153616,0.0056949625,-176.6038945291,-74.0612470344,0,0.736679554,2019-07-25 11:50:22:232
0.1635638028,-0.0292183403,9.7653465271,-0.0007213602,-0.0044179315,0.0062277247,-176.6517889088,-76.1764569541,0,0.7400500774,2019-07-25 11:50:22:235
0.1659585536,-0.0172445923,9.7366094589,-0.000454979,-0.0060162182,0.0080923926,-176.6981609572,-78.2508179497,0,0.7431943417,2019-07-25 11:50:22:238
0.2210377902,-0.0340078399,9.7437934875,-0.0001885979,-0.0017541198,0.0080923926,-176.7378741823,-80.2817663298,0,0.7465746403,2019-07-25 11:50:22:241
0.3024592698,-0.0148498425,9.7605571747,-0.0033851716,-0.0065489805,0.0086251549,-176.7663554335,-82.2737346986,0,0.7500095367,2019-07-25 11:50:22:245
0.2090640366,0.0090976544,9.7509775162,-0.0047170773,-0.0012213575,0.0075596303,-176.8062473551,-77.0284951429,0,0.7531583309,2019-07-25 11:50:22:248
0.213853538,0.0402293988,9.8132410049,-0.0031187905,-0.0038851689,0.0086251549,-176.8444120727,-71.8920271823,0,0.7565600872,2019-07-25 11:50:22:251
0.2761170268,0.0330451503,9.8132410049,0.0011433079,-0.0060162182,0.009957061,-176.8741231896,-66.8582670264,0,0.7600126266,2019-07-25 11:50:22:255
0.2449852824,0.0186766535,9.8204250336,0.0008769267,-0.0017541198,0.0118217284,-176.9077503278,-61.9234358501,0,0.7631573677,2019-07-25 11:50:22:258
0.2162482888,-0.0507710874,9.8204250336,-0.0009877413,-0.0073481239,0.0094242988,-176.9429661302,-64.2788546845,0,0.7665503025,2019-07-25 11:50:22:261
0.1970902979,0.0234661531,9.74858284,-0.0028524094,-0.0036187878,0.0102234416,-176.9802338567,-59.3954773021,0,0.7700383663,2019-07-25 11:50:22:265
0.1683533043,0.0474136509,9.786898613,-0.0033851716,-0.0070817427,0.0128872529,-177.019665118,-54.6125197554,0,0.7731921673,2019-07-25 11:50:22:268
0.230616793,0.0186766535,9.7940835953,-0.0025860282,-0.0022868822,0.0118217284,-177.0518537813,-49.9219562264,0,0.7766239643,2019-07-25 11:50:22:271
0.1827217937,-0.0028760943,9.8204250336,0.0019424513,-0.0033524067,0.0088915365,-177.0888679891,-52.5235464903,0,0.7799704075,2019-07-25 11:50:22:275
0.2833012938,0.0258609019,9.8347940445,0.0019424513,-0.0009549764,0.0126208723,-177.1139217947,-47.8764318967,0,0.7831163406,2019-07-25 11:50:22:278
0.1875112951,0.0138871539,9.7725305557,7.77832973833762E-005,-0.0102783163,0.0115553478,-177.1476887152,-43.3205465575,0,0.7865297794,2019-07-25 11:50:22:281
0.2593537867,-0.0459815897,9.8874788284,-0.0009877413,-0.0033524067,0.0118217284,-177.1740248544,-46.048612432,0,0.7900307178,2019-07-25 11:50:22:285
0.2282220423,0.0186766535,9.8323993683,-0.0020532659,-0.0022868822,0.0163502081,-177.2035456859,-41.5294529152,0,0.7931873798,2019-07-25 11:50:22:288
0.2210377902,0.0186766535,9.7845039368,-0.0025860282,-0.0068153616,0.015018303,-177.2322828029,-37.1005543165,0,0.7966091633,2019-07-25 11:50:22:291
0.2066693008,0.0617821477,9.7677412033,0.0048726438,-0.007614505,0.0136863968,-177.26194187,-32.7667211205,0,0.8000080585,2019-07-25 11:50:22:295
0.2473800331,0.0929138958,9.7150564194,-0.0044506961,-0.0057498371,0.0134200152,-177.286513175,-28.5215585341,0,0.8031582832,2019-07-25 11:50:22:298
0.2090640366,0.0258609019,9.7318201065,-0.0012541225,-0.0004222141,0.0131536345,-177.3160887701,-24.3539325439,0,0.8065652847,2019-07-25 11:50:22:301
0.273722291,-0.0052708439,9.8276100159,0.0016760702,-0.0065489805,0.01208811,-177.3365908549,-27.4665638,0,0.8100132942,2019-07-25 11:50:22:305
0.1899060458,0.0043081548,9.8228206635,0.0035407382,-0.0073481239,0.0142191591,-177.366404428,-23.3183630683,0,0.8131718636,2019-07-25 11:50:22:308
0.2378010452,-0.0387973413,9.856347084,0.0008769267,-0.007614505,0.0134200152,-177.3899496386,-26.4476561959,0,0.816644907,2019-07-25 11:50:22:312
0.3048540354,-0.019639343,9.8084516525,-0.0007213602,-0.0038851689,0.0179484948,-177.4058080974,-29.5162715802,0,0.8200283051,2019-07-25 11:50:22:315
0.1803270429,0.0330451503,9.8300046921,0.0003441644,-0.0006885953,0.015018303,-177.4365516334,-25.3298589663,0,0.8231668472,2019-07-25 11:50:22:318
0.2330115438,-0.0387973413,9.7677412033,0.0011433079,-0.005483456,0.0144855407,-177.459432723,-28.4189306352,0,0.8265998363,2019-07-25 11:50:22:321
0.230616793,0.0114924042,9.8371887207,0.0014096891,-0.0057498371,0.0128872529,-177.4822963823,-24.2521576158,0,0.8299713135,2019-07-25 11:50:22:325
0.2713275254,-0.0579553358,9.8874788284,0.0011433079,-0.0065489805,0.0147519213,-177.5000501348,-27.3606007233,0,0.8331327438,2019-07-25 11:50:22:328
0.2042745501,-0.0052708439,9.7533721924,0.0006105456,-0.0038851689,0.0160838275,-177.5253082579,-30.4128864125,0,0.8365447521,2019-07-25 11:50:22:331
0.170748055,0.0809401423,9.8060569763,0.0003441644,-0.0065489805,0.0128872529,-177.5535738962,-26.2141540741,0,0.8400173187,2019-07-25 11:50:22:335
0.1923007965,-0.0651395842,9.7916889191,0.0008769267,-0.0025532633,0.0160838275,-177.5795495807,-29.2824027145,0,0.8431622982,2019-07-25 11:50:22:338
0.2401957959,0.0114924042,9.7533721924,0.0003441644,-0.0073481239,0.0179484948,-177.5983435824,-25.0981704788,0,0.8465561867,2019-07-25 11:50:22:341
0.1515900493,-0.0340078399,9.7653465271,7.77832973833762E-005,-0.0006885953,0.0158174458,-177.6284558193,-28.1922315651,0,0.8500211239,2019-07-25 11:50:22:345
0.2162482888,-0.0148498425,9.8587417603,-0.0017868847,-0.0070817427,0.0110225855,-177.649502227,-31.2263446705,0,0.8531727791,2019-07-25 11:50:22:348
0.2114587873,-0.0028760943,9.8300046921,-0.0020532659,-0.0033524067,0.0136863968,-177.6712121938,-34.2010823396,0,0.8566436768,2019-07-25 11:50:22:352
0.1899060458,0.001913405,9.8467674255,-0.000454979,-0.0049506937,0.0142191591,-177.6947518137,-29.9171971059,0,0.8600201607,2019-07-25 11:50:22:355
0.2114587873,-0.0220340919,9.7773199081,-0.000454979,-0.0057498371,0.0147519213,-177.7150598543,-32.9161902263,0,0.8631718159,2019-07-25 11:50:22:358
0.2401957959,-0.0124550927,9.8347940445,0.0027415948,-0.0044179315,0.0107562039,-177.7319379076,-35.8569361867,0,0.8665561676,2019-07-25 11:50:22:361
0.1923007965,-0.0004813447,9.8036623001,0.0008769267,-0.0081472672,0.01208811,-177.7532346623,-38.7399123397,0,0.8700318336,2019-07-25 11:50:22:365
0.2378010452,0.0330451503,9.9018468857,0.0027415948,0.0003769293,0.0107562039,-177.7707214769,-34.3694207604,0,0.8731658459,2019-07-25 11:50:22:368
0.1970902979,0.0426241495,9.7749252319,-0.0017868847,-0.0038851689,0.0102234416,-177.7914747073,-30.0866931484,0,0.8765146732,2019-07-25 11:50:22:371
0.2042745501,0.0474136509,9.8132410049,0.0016760702,-0.0044179315,0.009957061,-177.8109366795,-25.8908214879,0,0.8799748421,2019-07-25 11:50:22:375
0.273722291,-0.0100603439,9.8347940445,0.0008769267,-0.0028196444,0.0136863968,-177.8223338897,-28.971988095,0,0.8831274509,2019-07-25 11:50:22:378
0.2378010452,-0.0387973413,9.8108463287,7.77832973833762E-005,-0.0030860256,0.009957061,-177.8375247623,-31.988031727,0,0.8865468502,2019-07-25 11:50:22:381
0.2809065282,-0.043586839,9.7892932892,-0.0025860282,-0.0049506937,0.0115553478,-177.8469366709,-34.9426652552,0,0.8900156021,2019-07-25 11:50:22:385
0.2018797994,-0.0411920883,9.8084516525,-0.000454979,-0.0041515501,0.009957061,-177.8656825914,-37.8389191802,0,0.89316082,2019-07-25 11:50:22:388
0.2090640366,-0.0459815897,9.8491621017,0.0032743571,-0.0049506937,0.0102234416,-177.8831024361,-40.6774169055,0,0.8965649605,2019-07-25 11:50:22:391
0.2330115438,-0.0244288407,9.786898613,-0.000454979,-0.0020205009,0.0091579171,-177.8977716477,-43.4609201583,0,0.9000144005,2019-07-25 11:50:22:395
0.2114587873,-0.0819028318,9.8826885223,0.0046062627,-0.0060162182,0.0088915365,-177.9142384416,-46.1830186736,0,0.9031596184,2019-07-25 11:50:22:398
0.2880907953,-0.0220340919,9.8300046921,0.0016760702,-0.0062825993,0.009957061,-177.9211450074,-48.8571190837,0,0.9066593647,2019-07-25 11:50:22:402
0.2330115438,-0.0076655936,9.8443727493,-0.0015205036,-0.0020205009,0.0112889661,-177.9352235427,-51.4787981679,0,0.9100120068,2019-07-25 11:50:22:405
0.2330115438,-0.019639343,9.8587417603,-0.0001885979,-0.0004222141,0.0083587737,-177.9493654622,-54.0469059953,0,0.9131720066,2019-07-25 11:50:22:408
0.2713275254,-0.0076655936,9.8156356812,0.0003441644,-0.0022868822,0.0094242988,-177.9582692844,-56.5651393476,0,0.9166071415,2019-07-25 11:50:22:411
0.2186430395,-0.0148498425,9.786898613,0.0032743571,-0.0052170748,0.0091579171,-177.9725097859,-59.0327243239,0,0.9200146198,2019-07-25 11:50:22:415
0.2713275254,-0.0914818347,9.8228206635,0.0016760702,-0.005483456,0.0102234416,-177.9804474558,-61.4416937425,0,0.9231569767,2019-07-25 11:50:22:418
0.273722291,-0.0292183403,9.7916889191,0.0008769267,-0.0017541198,0.0051622002,-177.9884801394,-63.8096070218,0,0.9265394211,2019-07-25 11:50:22:421
0.2401957959,-0.0052708439,9.8180303574,0.0006105456,-0.0044179315,0.0110225855,-177.9998288999,-66.1329175297,0,0.9299767017,2019-07-25 11:50:22:425
0.2545642853,-0.0244288407,9.8180303574,0.0011433079,-0.0038851689,0.0054285813,-178.0094387673,-68.4076106094,0,0.9331333637,2019-07-25 11:50:22:428
0.2593537867,-0.0819028318,9.8156356812,0.005139025,-0.005483456,0.009957061,-178.0180228505,-70.6307931129,0,0.9362390041,2019-07-25 11:50:22:431
0.2401957959,-0.0771133378,9.8156356812,-0.0012541225,-0.0068153616,0.0075596303,-178.0281773638,-72.8089082451,0,0.9400260448,2019-07-25 11:50:22:435
0.2665380239,-0.0340078399,9.8659257889,0.0040735005,-0.0006885953,0.0094242988,-178.036542085,-74.9494970117,0,0.9431602955,2019-07-25 11:50:22:438
0.2833012938,-0.1034555808,9.7509775162,0.0022088326,-0.0030860256,0.0112889661,-178.0419247571,-77.0387811182,0,0.9466392994,2019-07-25 11:50:22:442
0.2665380239,-0.0100603439,9.8204250336,0.0016760702,-0.0036187878,0.0078260115,-178.0492975795,-79.0971533887,0,0.9500586987,2019-07-25 11:50:22:445
0.2833012938,-0.0387973413,9.7581615448,0.0043398816,-0.0046843126,0.0094242988,-178.0542243916,-81.1114215086,0,0.953207016,2019-07-25 11:50:22:448
0.2833012938,0.0162819028,9.8635311127,0.0022088326,-0.0046843126,0.0059613436,-178.0593512687,-75.8915017742,0,0.9565701485,2019-07-25 11:50:22:451
0.3240120411,-0.0579553358,9.7892932892,0.0022088326,-0.0073481239,0.0070268681,-178.0588283133,-77.9673149957,0,0.9600155354,2019-07-25 11:50:22:455
0.2569590509,-0.043586839,9.8036623001,0.0011433079,-0.0049506937,0.0078260115,-178.0667482786,-80.0030761589,0,0.9631643295,2019-07-25 11:50:22:458
0.2617485225,0.0330451503,9.6935033798,-0.0007213602,-0.0049506937,0.0083587737,-178.0735351758,-74.8067836279,0,0.9665570259,2019-07-25 11:50:22:461
0.2401957959,-0.0124550927,9.786898613,0.0006105456,-0.0038851689,0.0078260115,-178.083192688,-76.9093080723,0,0.9700119495,2019-07-25 11:50:22:465
0.2593537867,0.0306504015,9.7461881638,0.005139025,-0.0033524067,0.0064941058,-178.0904491836,-71.7756348648,0,0.9731628895,2019-07-25 11:50:22:468
0.2569590509,-0.0316130891,9.7773199081,0.0038071193,-0.0028196444,0.0032975323,-178.0979984457,-73.9371363731,0,0.9765276909,2019-07-25 11:50:22:471
0.2330115438,-0.0364025906,9.74858284,0.0040735005,-0.0046843126,0.0064941058,-178.1077456843,-76.0549044506,0,0.9799807072,2019-07-25 11:50:22:475
0.2401957959,-0.0866923332,9.8060569763,0.0022088326,-0.0038851689,0.0056949625,-178.1168422946,-78.1240655528,0,0.9831221104,2019-07-25 11:50:22:478
0.2425905317,-0.0268235914,9.8156356812,0.0016760702,-0.0014877387,0.0051622002,-178.1259221307,-80.1587548171,0,0.9863317013,2019-07-25 11:50:22:481
0.2809065282,-0.0004813447,9.6982936859,0.0003441644,-0.0030860256,0.0070268681,-178.1295792249,-82.1555945377,0,0.9900414944,2019-07-25 11:50:22:485
0.2976697683,-0.0124550927,9.8587417603,0.003007976,-0.0049506937,0.0051622002,-178.1315231957,-84.1115670545,0,0.9931919575,2019-07-25 11:50:22:488
0.2114587873,-0.0483763404,9.8491621017,0.0040735005,-0.0065489805,0.0078260115,-178.1430189138,-86.0245004633,0,0.9966595173,2019-07-25 11:50:22:492
0.3000645339,-0.0627448335,9.8204250336,0.0014096891,-0.0057498371,0.0043630568,-178.1440710108,-87.896955009,0,1.0000195503,2019-07-25 11:50:22:495
0.3192225397,-0.0459815897,9.8395833969,0.0024752137,-0.0004222141,0.0064941058,-178.1439512014,-89.7340996978,0,1.0031764507,2019-07-25 11:50:22:498
0.3096435368,-0.0771133378,9.7940835953,0.0043398816,-0.0052170748,0.0062277247,-178.1438483706,-91.5312335263,0,1.0066151619,2019-07-25 11:50:22:501
0.2641432881,-0.019639343,9.8060569763,0.0064709306,-0.0041515501,0.0027647698,-178.1493198686,-93.2995479405,0,1.010011673,2019-07-25 11:50:22:505
0.3096435368,-0.0986660793,9.8204250336,-0.0023196471,-0.0030860256,0.0056949625,-178.1496688636,-95.0216345105,0,1.013158083,2019-07-25 11:50:22:508
0.2449852824,-0.0459815897,9.8084516525,0.0008769267,-0.0038851689,0.0051622002,-178.157314315,-96.7159981562,0,1.0165760517,2019-07-25 11:50:22:511
0.213853538,-0.0771133378,9.8946628571,0.0024752137,-0.0022868822,0.0040966757,-178.1689639054,-98.3732253877,0,1.0200126171,2019-07-25 11:50:22:515
0.2856960297,-0.0292183403,9.7701358795,0.0035407382,-0.0065489805,0.0048958191,-178.1709273384,-100.0029601493,0,1.023162365,2019-07-25 11:50:22:518
0.3359857798,-0.0795080811,9.8323993683,0.0011433079,-0.0041515501,0.0080923926,-178.1675894667,-101.5938489092,0,1.026496172,2019-07-25 11:50:22:521
0.2785117924,-0.0028760943,9.8228206635,0.0054054061,-0.0049506937,0.0075596303,-178.1707895742,-103.1626911747,0,1.0299713612,2019-07-25 11:50:22:525
0.2689327896,-0.0292183403,9.7797145844,0.0022088326,-0.0057498371,0.0072932492,-178.1748540059,-104.6964041233,0,1.0331187248,2019-07-25 11:50:22:528
0.2378010452,0.0090976544,9.8084516525,0.0043398816,-0.0078808861,0.0070268681,-178.1820530596,-99.0043798933,0,1.0365698338,2019-07-25 11:50:22:531
0.3072487712,-0.0483763404,9.8874788284,0.0038071193,-0.0062825993,0.0096906794,-178.181598235,-100.619422863,0,1.0400180817,2019-07-25 11:50:22:535
0.2761170268,-0.0483763404,9.8036623001,0.0006105456,-0.0038851689,0.006760487,-178.1850143177,-102.2014877359,0,1.0431632996,2019-07-25 11:50:22:538
0.2761170268,-0.0292183403,9.8060569763,0.003007976,-0.0068153616,0.0051622002,-178.1877224569,-103.7546321979,0,1.0466482639,2019-07-25 11:50:22:542
0.2401957959,0.0306504015,9.7629518509,0.0027415948,-0.0014877387,0.0104898233,-178.1954992199,-98.0836563248,0,1.0500211716,2019-07-25 11:50:22:545
0.316827774,-0.0651395842,9.7892932892,0.0059381684,-0.0030860256,0.009957061,-178.1939668335,-99.7154128619,0,1.0531842709,2019-07-25 11:50:22:548
0.2378010452,-0.067534335,9.7677412033,0.0038071193,-0.0020205009,0.006760487,-178.2018069096,-101.3139132204,0,1.0566055775,2019-07-25 11:50:22:551
0.2689327896,-0.0411920883,9.7916889191,0.0003441644,-0.0060162182,0.0048958191,-178.2051558447,-102.8828800737,0,1.0600092411,2019-07-25 11:50:22:555
0.2378010452,0.0306504015,9.74858284,0.0038071193,-0.0017541198,0.006760487,-178.2127941633,-97.2295010343,0,1.0631701946,2019-07-25 11:50:22:558
0.2641432881,0.0282556508,9.7461881638,0.0032743571,-0.0046843126,0.0078260115,-178.2165973608,-91.6888564653,0,1.0665602684,2019-07-25 11:50:22:561
0.2425905317,-0.0364025906,9.8802938461,0.0014096891,-0.0020205009,0.0096906794,-178.2237442577,-93.4511303091,0,1.0700082779,2019-07-25 11:50:22:565
0.2904855311,0.0426241495,9.8084516525,7.77832973833762E-005,-0.005483456,0.0054285813,-178.2243683539,-87.9871012375,0,1.0731706619,2019-07-25 11:50:22:568
0.2545642853,0.0354399011,9.7916889191,0.0040735005,-0.0089464111,0.0078260115,-178.2283729781,-82.6322913211,0,1.0766010284,2019-07-25 11:50:22:571
0.3192225397,0.0090976544,9.8802938461,0.0040735005,-0.0089464111,0.0046294379,-178.2251012448,-77.3814718402,0,1.079972744,2019-07-25 11:50:22:575
0.2833012938,0.0665716454,9.8300046921,0.005139025,-0.0049506937,0.0051622002,-178.2267060454,-72.2425130797,0,1.0831274986,2019-07-25 11:50:22:578
0.2425905317,-0.0148498425,9.8419780731,0.0056717872,-0.0030860256,0.0083587737,-178.2333428585,-74.3970174924,0,1.0865302086,2019-07-25 11:50:22:581
0.2282220423,0.0378346518,9.7964782715,-0.0001885979,-0.0060162182,0.0086251549,-178.2408083428,-69.3134658306,0,1.0900139809,2019-07-25 11:50:22:585
0.2904855311,0.0569926463,9.8395833969,0.0035407382,-0.0020205009,0.0048958191,-178.2418161056,-64.334457675,0,1.0931520462,2019-07-25 11:50:22:588
0.2952750325,-0.0292183403,9.7821092606,0.0032743571,-0.0041515501,0.0083587737,-178.2416103226,-66.6449690589,0,1.09654212,2019-07-25 11:50:22:591
0.2713275254,0.001913405,9.8276100159,-0.0020532659,-0.0044179315,0.0094242988,-178.2442859481,-61.711891715,0,1.1000208855,2019-07-25 11:50:22:595
0.2473800331,-0.0148498425,9.7437934875,-0.0017868847,-0.0044179315,0.0043630568,-178.2495318485,-64.0755913508,0,1.103171587,2019-07-25 11:50:22:598
0.2234325409,0.0378346518,9.722240448,0.0046062627,-0.0028196444,0.0064941058,-178.257663401,-59.1994332837,0,1.1066296101,2019-07-25 11:50:22:602
0.2497747838,0.0210714024,9.8491621017,0.0014096891,-0.0028196444,0.0094242988,-178.26292008,-54.4181641016,0,1.1100142002,2019-07-25 11:50:22:605
0.3000645339,0.0234661531,9.7605571747,0.0003441644,-0.0062825993,0.0062277247,-178.2613349439,-49.7326165796,0,1.1131591797,2019-07-25 11:50:22:608
0.2713275254,0.0450189002,9.8180303574,0.0040735005,-0.0070817427,0.0094242988,-178.2631035835,-45.1439920478,0,1.1165406704,2019-07-25 11:50:22:611
0.2186430395,0.0186766535,9.8036623001,0.0011433079,-0.0052170748,0.0051622002,-178.2712720853,-40.6435181795,0,1.120013237,2019-07-25 11:50:22:615
0.2473800331,0.0210714024,9.8204250336,7.77832973833762E-005,-0.0062825993,0.006760487,-178.2758724824,-36.2331203652,0,1.1231718063,2019-07-25 11:50:22:618
0.2713275254,-0.0316130891,9.8635311127,-0.0015205036,-0.0030860256,0.0062277247,-178.2782492301,-39.104493708,0,1.1265866756,2019-07-25 11:50:22:621
0.2042745501,0.0090976544,9.8371887207,-0.000454979,-0.0044179315,0.0038302946,-178.2880523864,-34.7233771239,0,1.1299717426,2019-07-25 11:50:22:625
0.2210377902,0.0857296437,9.8300046921,-0.0007213602,-0.005483456,0.0075596303,-178.2955551971,-30.4387750597,0,1.133133173,2019-07-25 11:50:22:628
0.2497747838,0.001913405,9.7054777145,0.0016760702,-0.0030860256,0.0062277247,-178.2995676474,-26.2305471636,0,1.1365513802,2019-07-25 11:50:22:631
0.2617485225,0.083334893,9.8419780731,-0.0001885979,-0.005483456,0.0048958191,-178.302042205,-22.1156021419,0,1.1400120258,2019-07-25 11:50:22:635
0.2018797994,0.0258609019,9.8778991699,0.0022088326,-0.0046843126,0.0070268681,-178.3117566741,-18.0766807252,0,1.1431610584,2019-07-25 11:50:22:638
0.2976697683,0.0522031486,9.8012676239,0.0008769267,-0.0049506937,0.0094242988,-178.3097835451,-14.1214180624,0,1.146566391,2019-07-25 11:50:22:641
0.2425905317,0.0426241495,9.8276100159,-0.0020532659,0.0006433105,0.0056949625,-178.3154317685,-10.2435620009,0,1.1500160694,2019-07-25 11:50:22:645
0.213853538,0.0402293988,9.8539524078,-0.0007213602,-0.0036187878,0.0064941058,-178.3236184448,-6.4432415181,0,1.1531636715,2019-07-25 11:50:22:648
0.2785117924,0.0186766535,9.7725305557,0.0019424513,-0.0022868822,0.0070268681,-178.3240620289,-2.7169360996,0,1.1565506458,2019-07-25 11:50:22:651
0.1779322922,0.0234661531,9.8778991699,-0.0007213602,-0.0041515501,0.0056949625,-178.3361347388,0.9348205363,0,1.1600112915,2019-07-25 11:50:22:655
0.2521695495,0.0090976544,9.9066362381,0.0022088326,-0.0044179315,0.006760487,-178.3394655599,4.5146798359,0,1.1631715298,2019-07-25 11:50:22:658
0.2378010452,0.0737558976,9.8371887207,0.0008769267,-0.0062825993,0.0080923926,-178.3437550507,8.0156236455,0,1.1666457653,2019-07-25 11:50:22:662
0.2282220423,0.0857296437,9.8707151413,-0.0017868847,-0.0017541198,0.0078260115,-178.3500580478,11.4456968183,0,1.170014143,2019-07-25 11:50:22:665
0.2378010452,0.0138871539,9.8132410049,0.0016760702,-0.0022868822,0.0078260115,-178.3548894855,14.8148649777,0,1.1731622219,2019-07-25 11:50:22:668
0.2425905317,0.0498083979,9.74858284,-0.0031187905,-0.0049506937,0.0048958191,-178.3582833726,18.1133418974,0,1.1767539978,2019-07-25 11:50:22:672
0.2761170268,0.0090976544,9.7653465271,0.0019424513,-0.0017541198,0.0059613436,-178.3583998847,21.3496470802,0,1.1800584793,2019-07-25 11:50:22:675
0.2617485225,0.0498083979,9.7749252319,-0.0007213602,-0.0028196444,0.0062277247,-178.3600544869,24.5169430419,0,1.183216095,2019-07-25 11:50:22:678
0.2042745501,0.0306504015,9.8467674255,-0.0009877413,-0.0044179315,0.0046294379,-178.3682354494,27.6232270621,0,1.1866383553,2019-07-25 11:50:22:682
0.2521695495,0.0641768947,9.8180303574,0.0019424513,-0.0022868822,0.0064941058,-178.3710116574,30.6629040043,0,1.1900141239,2019-07-25 11:50:22:685
0.2401957959,0.0426241495,9.7653465271,-0.0012541225,-0.005483456,0.0086251549,-178.3744462116,33.6448649478,0,1.193148613,2019-07-25 11:50:22:688
0.2809065282,-0.0316130891,9.8084516525,0.003007976,-0.0052170748,0.0051622002,-178.3731528657,29.3750871514,0,1.1965460777,2019-07-25 11:50:22:691
0.2904855311,0.0474136509,9.7773199081,-0.0007213602,-0.0020205009,0.0080923926,-178.3712602188,32.3821692753,0,1.2000215054,2019-07-25 11:50:22:695
0.2282220423,0.0043081548,9.683924675,7.77832973833762E-005,-0.0038851689,0.0038302946,-178.3761470839,35.3340023439,0,1.2031707764,2019-07-25 11:50:22:698
0.2378010452,0.0378346518,9.7797145844,0.0011433079,-0.0012213575,0.0035639134,-178.380530622,38.2226689435,0,1.206600666,2019-07-25 11:50:22:701
0.2904855311,0.0426241495,9.8539524078,-0.0025860282,-0.0020205009,0.0054285813,-178.3787620938,41.0537543459,0,1.2100131512,2019-07-25 11:50:22:705
0.2617485225,-0.019639343,9.8132410049,-0.0012541225,-0.0044179315,0.0016992453,-178.3798492888,36.6351939539,0,1.2131567001,2019-07-25 11:50:22:708
0.273722291,0.0450189002,9.7964782715,0.0014096891,-0.0009549764,0.0086251549,-178.3800576147,39.4969508893,0,1.2166090012,2019-07-25 11:50:22:711
0.2809065282,-0.0148498425,9.8132410049,0.0008769267,-0.0044179315,0.0059613436,-178.3788144031,35.1085774237,0,1.220031023,2019-07-25 11:50:22:715
0.2856960297,0.0402293988,9.8491621017,-0.0025860282,-0.0036187878,0.0059613436,-178.3773706908,38.0021805645,0,1.2231659889,2019-07-25 11:50:22:718
0.2809065282,0.0114924042,9.8108463287,-0.0015205036,-0.0038851689,0.0043630568,-178.3762924376,40.8410801944,0,1.2265107632,2019-07-25 11:50:22:721
0.2617485225,-0.0316130891,9.8395833969,-0.0001885979,-0.0044179315,0.0056949625,-178.3774308929,36.4279769312,0,1.2299764156,2019-07-25 11:50:22:725
0.2449852824,-0.0052708439,9.7845039368,-0.0036515528,-0.0033524067,0.006760487,-178.3806029344,32.100681473,0,1.2331309319,2019-07-25 11:50:22:728
0.2593537867,0.0545978993,9.8300046921,7.77832973833762E-005,-0.0057498371,0.0075596303,-178.3816605974,35.0522883253,0,1.236549139,2019-07-25 11:50:22:731
0.3000645339,0.0330451503,9.8276100159,-0.000454979,-0.0022868822,0.0040966757,-178.3786053353,37.9474779668,0,1.2400138378,2019-07-25 11:50:22:735
0.2569590509,-0.0172445923,9.8300046921,0.0014096891,-0.0020205009,0.0051622002,-178.3807299407,33.5902905944,0,1.24314785,2019-07-25 11:50:22:738
0.2521695495,0.0282556508,9.8443727493,-0.0036515528,-0.0017541198,0.0030311509,-178.3834342107,36.5158915114,0,1.2465412617,2019-07-25 11:50:22:741
0.273722291,0.0043081548,9.8300046921,-0.0031187905,-0.0006885953,0.0054285813,-178.3837307431,39.3856798726,0,1.2500154972,2019-07-25 11:50:22:745
0.2809065282,-0.0028760943,9.8659257889,-0.000454979,-0.0004222141,0.0080923926,-178.3833635344,34.998380553,0,1.2531557083,2019-07-25 11:50:22:748
0.3647227585,-0.0172445923,9.8683204651,-0.0015205036,-0.0012213575,0.0059613436,-178.3731247976,30.7007128033,0,1.2566392422,2019-07-25 11:50:22:752
0.273722291,-0.019639343,9.8300046921,-0.0047170773,-0.0033524067,0.0078260115,-178.3731254603,26.4898834094,0,1.2600200176,2019-07-25 11:50:22:755
0.2617485225,-0.0866923332,9.7916889191,-0.0012541225,0.0011760727,0.0046294379,-178.3752465807,22.3704534851,0,1.2631790638,2019-07-25 11:50:22:758
0.2976697683,-0.0459815897,9.7845039368,-0.0023196471,-0.0012213575,0.0046294379,-178.3726528159,18.3288813232,0,1.2666478157,2019-07-25 11:50:22:762
0.3000645339,0.0450189002,9.7413988113,-0.0028524094,-0.0012213575,0.0072932492,-178.3696818926,21.5575483277,0,1.2700214386,2019-07-25 11:50:22:765
0.2258272916,0.0258609019,9.7773199081,0.0022088326,-0.0036187878,0.006760487,-178.3751831544,24.7229742471,0,1.2731835842,2019-07-25 11:50:22:768
0.2713275254,-0.0411920883,9.7629518509,-0.004184315,-0.0036187878,0.0072932492,-178.3751586168,20.6341385402,0,1.2765414715,2019-07-25 11:50:22:771
0.2258272916,0.0090976544,9.7198457718,-0.000454979,-0.0052170748,0.0019656264,-178.3800321295,23.8204707939,0,1.2799699306,2019-07-25 11:50:22:775
0.3096435368,0.0162819028,9.8419780731,-0.0020532659,-0.0014877387,0.0078260115,-178.3761280565,26.9425287359,0,1.2831192017,2019-07-25 11:50:22:778
0.2665380239,-0.0819028318,9.8683204651,-0.0023196471,0.0006433105,0.0062277247,-178.377785479,22.8136321507,0,1.2865250111,2019-07-25 11:50:22:781
0.2354062945,-0.0148498425,9.8946628571,-0.0009877413,-0.0049506937,0.0064941058,-178.3819945913,18.7592743288,0,1.2900416851,2019-07-25 11:50:22:785
0.3000645339,-0.0627448335,9.7437934875,-0.0015205036,0.0009096916,0.0059613436,-178.3792375625,14.7917364333,0,1.2931878567,2019-07-25 11:50:22:788
0.2665380239,-0.0387973413,9.8204250336,-0.0049834584,-0.0052170748,0.0051622002,-178.379543431,10.9013988526,0,1.2966544628,2019-07-25 11:50:22:792
0.2952750325,-0.0076655936,9.7413988113,7.77832973833762E-005,-0.0028196444,0.0088915365,-178.3766970042,7.0842579325,0,1.3000142574,2019-07-25 11:50:22:795
0.2976697683,-0.0292183403,9.8060569763,-0.0025860282,-0.0004222141,0.006760487,-178.3743140353,3.346444276,0,1.3031623363,2019-07-25 11:50:22:798
0.3551437855,-0.0148498425,9.851556778,-0.0001885979,-0.0009549764,0.0080923926,-178.365353993,-0.3187213707,0,1.3065555096,2019-07-25 11:50:22:801
0.2856960297,-0.0411920883,9.8012676239,-0.0025860282,-0.0014877387,0.0051622002,-178.3643634433,-3.9070255854,0,1.3100361824,2019-07-25 11:50:22:805
0.2809065282,-0.0531658381,9.9090309143,-0.0025860282,-0.0020205009,0.0059613436,-178.3642440963,-7.4222815291,0,1.3131718636,2019-07-25 11:50:22:808
0.2928802967,-0.0771133378,9.8467674255,-0.0009877413,-0.0012213575,0.0024983887,-178.3626511858,-10.8646726387,0,1.3165867329,2019-07-25 11:50:22:811
0.3048540354,-0.0028760943,9.8587417603,-0.0007213602,-0.0004222141,0.0024983887,-178.3598939783,-14.2469060976,0,1.3200132847,2019-07-25 11:50:22:815
0.3216172755,-0.0124550927,9.8778991699,-0.0012541225,-0.0009549764,0.0051622002,-178.3552301557,-17.5603012338,0,1.3231637478,2019-07-25 11:50:22:818
0.2545642853,-0.0028760943,9.7701358795,-0.0009877413,-0.0006885953,0.0024983887,-178.3581455966,-20.8085721479,0,1.3265125751,2019-07-25 11:50:22:821
0.2473800331,0.0282556508,9.8084516525,-0.0028524094,-0.0020205009,0.0051622002,-178.3616919592,-16.795143321,0,1.3299994469,2019-07-25 11:50:22:825
0.3072487712,-0.0220340919,9.7892932892,-0.0023196471,-0.0014877387,0.0046294379,-178.3582402251,-20.0562499494,0,1.3331568241,2019-07-25 11:50:22:828
0.2761170268,-0.019639343,9.8755044937,-0.0007213602,-0.0046843126,-0.0004318038,-178.3581502803,-23.2527084194,0,1.336555481,2019-07-25 11:50:22:831
0.2880907953,0.0354399011,9.8132410049,-0.0031187905,-0.0017541198,0.0027647698,-178.3570154083,-19.1911872759,0,1.3400123119,2019-07-25 11:50:22:835
0.2617485225,0.0067029046,9.7821092606,-0.0023196471,-0.0049506937,0.0038302946,-178.3583441078,-15.2077382701,0,1.3431637287,2019-07-25 11:50:22:838
0.2425905317,-0.0387973413,9.8371887207,-0.0001885979,-0.0028196444,0.0019656264,-178.3623153287,-18.4990233841,0,1.3470084667,2019-07-25 11:50:22:842
0.3024592698,-0.0028760943,9.8180303574,-0.0036515528,-0.0057498371,-0.000698185,-178.3587687754,-21.7280659721,0,1.3501360416,2019-07-25 11:50:22:845
0.2330115438,-0.0411920883,9.786898613,0.0003441644,-0.0036187878,0.0024983887,-178.3636717277,-24.8887429094,0,1.3533067703,2019-07-25 11:50:22:848
0.2473800331,-0.0004813447,9.786898613,-0.0028524094,-0.0022868822,0.0001009585,-178.3669990319,-27.9903622382,0,1.3567373753,2019-07-25 11:50:22:852
0.2617485225,0.0282556508,9.8156356812,-0.0023196471,-0.0033524067,-0.0012309473,-178.3684919726,-23.8334268908,0,1.3600139618,2019-07-25 11:50:22:855
0.2473800331,-0.0364025906,9.8467674255,0.0016760702,-0.0014877387,0.0009001019,-178.3720765264,-26.9528181627,0,1.3631606102,2019-07-25 11:50:22:858
0.2282220423,-0.0244288407,9.7605571747,-0.0017868847,0.0011760727,-0.0020300906,-178.3780713453,-30.010551408,0,1.3665730953,2019-07-25 11:50:22:861
0.3000645339,-0.0004813447,9.8778991699,0.0006105456,-0.0065489805,-0.000698185,-178.3744451754,-33.0104025241,0,1.3700146675,2019-07-25 11:50:22:865
0.2449852824,-0.0387973413,9.7246351242,-0.0007213602,-0.0014877387,0.0001009585,-178.3778300491,-35.9454946801,0,1.3731768131,2019-07-25 11:50:22:868
0.2114587873,-0.0124550927,9.8036623001,0.0008769267,0.0001105482,-0.0057594266,-178.385581398,-38.8252938845,0,1.3765263557,2019-07-25 11:50:22:871
0.2952750325,0.001913405,9.8060569763,0.0003441644,-0.0025532633,-0.002562853,-178.3828802606,-34.4490782861,0,1.3799769878,2019-07-25 11:50:22:875
0.3024592698,-0.0411920883,9.8108463287,-0.0017868847,-0.0028196444,0.0003673396,-178.3794064069,-37.3549686619,0,1.3831346035,2019-07-25 11:50:22:878
0.2809065282,0.0162819028,9.8371887207,0.0003441644,-0.0030860256,-0.0028292342,-178.3785019306,-33.00983318,0,1.3866143227,2019-07-25 11:50:22:881
0.2856960297,-0.0028760943,9.8036623001,0.0011433079,-0.0030860256,-0.0044275209,-178.3769569718,-35.9495190577,0,1.3900213242,2019-07-25 11:50:22:885
0.3000645339,-0.0076655936,9.7845039368,-0.0015205036,-0.0049506937,-0.0017637095,-178.3734134971,-38.8293627377,0,1.3931624889,2019-07-25 11:50:22:888
0.2521695495,-0.0316130891,9.8467674255,-0.0009877413,-0.0022868822,-0.0009645661,-178.3761452563,-41.6488977596,0,1.396746397,2019-07-25 11:50:22:892
0.273722291,-0.0483763404,9.7964782715,-0.0007213602,-0.0030860256,-0.004693902,-178.3760450974,-44.4101284672,0,1.4000225067,2019-07-25 11:50:22:895
0.2880907953,-0.0100603439,9.8060569763,-0.0025860282,-0.0044179315,-0.0028292342,-178.3740537728,-47.1202735553,0,1.4033055305,2019-07-25 11:50:22:898
0.3407752812,0.0306504015,9.7150564194,0.0014096891,-0.0025532633,-0.004693902,-178.3659164205,-42.5817469655,0,1.4066357613,2019-07-25 11:50:22:902
0.2928802967,-0.019639343,9.7126617432,-0.0023196471,0.0009096916,-0.0041611398,-178.3642258894,-45.3273568138,0,1.409999609,2019-07-25 11:50:22:905
0.273722291,0.0067029046,9.7437934875,7.77832973833762E-005,-0.0060162182,-0.0028292342,-178.3636472821,-40.8216123412,0,1.4132900238,2019-07-25 11:50:22:908
0.3144330382,0.0162819028,9.8371887207,0.0022088326,-0.0041515501,-0.0062921888,-178.3589796712,-36.4074914308,0,1.416633606,2019-07-25 11:50:22:912
0.3886702657,-0.0507710874,9.8347940445,-0.0033851716,-0.0030860256,-0.0014973284,-178.3459532206,-39.2727854635,0,1.4200034142,2019-07-25 11:50:22:915
0.3048540354,-0.0771133378,9.7988729477,-0.0009877413,-0.0038851689,-0.0049602832,-178.3426735214,-42.0781286243,0,1.4233102798,2019-07-25 11:50:22:918
0.2976697683,-0.0723238364,9.7725305557,-0.0025860282,-0.0012213575,-0.0038947587,-178.3407008238,-44.8276079163,0,1.4265999794,2019-07-25 11:50:22:921
0.230616793,-0.0124550927,9.7581615448,-0.0001885979,-0.0057498371,-0.0036283775,-178.3457278385,-47.5295576374,0,1.429952383,2019-07-25 11:50:22:925
0.3311962783,0.0162819028,9.786898613,7.77832973833762E-005,-0.0030860256,-0.0036283775,-178.339485432,-42.9808870918,0,1.4332070351,2019-07-25 11:50:22:928
0.2473800331,-0.0316130891,9.7845039368,-0.0028524094,-0.0020205009,-0.0012309473,-178.3433449369,-45.7170235261,0,1.4366002083,2019-07-25 11:50:22:931
0.2354062945,0.0067029046,9.8108463287,-0.0028524094,0.0003769293,-0.0022964719,-178.3490596246,-41.20292128,0,1.4400010109,2019-07-25 11:50:22:935
0.2785117924,-0.0507710874,9.7246351242,0.0008769267,-0.0052170748,-0.0052266643,-178.3483136375,-43.9730407438,0,1.4432609081,2019-07-25 11:50:22:938
0.3096435368,-0.019639343,9.7892932892,-0.0049834584,-0.0062825993,-0.0030956153,-178.3439379605,-46.6903487884,0,1.4465923309,2019-07-25 11:50:22:941
0.2210377902,-0.0340078399,9.8060569763,-0.0036515528,-0.0012213575,-0.002562853,-178.3509998565,-49.3518690441,0,1.4500000477,2019-07-25 11:50:22:945
0.3192225397,0.0138871539,9.8180303574,-0.0036515528,-0.0009549764,0.0001009585,-178.3465576446,-44.7657751711,0,1.4533035755,2019-07-25 11:50:22:948
0.2593537867,-0.0531658381,9.7725305557,0.0011433079,-0.0033524067,-0.0022964719,-178.3485958147,-47.4644391551,0,1.4566307068,2019-07-25 11:50:22:952
0.273722291,0.0354399011,9.7988729477,-0.0012541225,-0.0033524067,0.0006337208,-178.3489877343,-42.9190574925,0,1.4600009918,2019-07-25 11:50:22:955
0.230616793,0.0067029046,9.8180303574,0.0014096891,-0.0006885953,0.0006337208,-178.3549690951,-38.4617192749,0,1.463293314,2019-07-25 11:50:22:958
0.2378010452,0.0138871539,9.8587417603,0.0011433079,-0.0052170748,-0.0022964719,-178.3592574079,-34.0943131969,0,1.4666292667,2019-07-25 11:50:22:962
0.2210377902,-0.0220340919,9.7557668686,-0.0015205036,-0.0033524067,-0.0038947587,-178.3654788023,-37.0095509215,0,1.4700012207,2019-07-25 11:50:22:965
0.2593537867,0.0617821477,9.7366094589,0.0008769267,-0.0028196444,-0.0014973284,-178.3671286037,-32.6767940394,0,1.4733116627,2019-07-25 11:50:22:968
0.2689327896,0.0450189002,9.7653465271,-0.0012541225,-0.0033524067,0.0009001019,-178.3676134955,-28.4283079695,0,1.4766190052,2019-07-25 11:50:22:971
0.2833012938,0.0617821477,9.8395833969,7.77832973833762E-005,-0.0006885953,-0.004693902,-178.3671480785,-24.2669514283,0,1.4799568653,2019-07-25 11:50:22:975
0.2880907953,0.0090976544,9.7557668686,0.0006105456,-0.0022868822,-0.0009645661,-178.3655527026,-20.1827939458,0,1.4832510948,2019-07-25 11:50:22:978
0.2785117924,-0.0316130891,9.7988729477,-0.0017868847,0.0001105482,-0.0009645661,-178.3657010257,-23.3751051558,0,1.4865996838,2019-07-25 11:50:22:981
0.2904855311,-0.0028760943,9.8036623001,0.0019424513,-0.005483456,-0.0020300906,-178.3633969682,-26.5076374581,0,1.4899973869,2019-07-25 11:50:22:985
0.2641432881,-0.0052708439,9.9186105728,0.0003441644,-0.0033524067,-0.0001654227,-178.3650077036,-29.5769385435,0,1.4932463169,2019-07-25 11:50:22:988
0.3240120411,-0.0076655936,9.8156356812,0.0035407382,0.0003769293,-0.0012309473,-178.3599652878,-32.5851665246,0,1.4965744019,2019-07-25 11:50:22:991
0.2162482888,0.0258609019,9.8036623001,0.0022088326,-0.0062825993,0.0035639134,-178.3662888411,-28.3369095379,0,1.4999895096,2019-07-25 11:50:22:995
0.2066693008,0.0306504015,9.8300046921,0.0008769267,-0.0004222141,-0.0065585699,-178.3747963135,-24.1739067459,0,1.5032875538,2019-07-25 11:50:22:998
0.2785117924,0.0498083979,9.8707151413,-0.0007213602,-0.0038851689,-0.0009645661,-178.3742370227,-20.096073764,0,1.5066742897,2019-07-25 11:50:23:002
0.2833012938,-0.019639343,9.8443727493,-0.0023196471,-0.0046843126,-0.0001654227,-178.3729092417,-23.2914329215,0,1.5100009441,2019-07-25 11:50:23:005
0.2090640366,-0.0411920883,9.8323993683,0.0014096891,-0.0004222141,0.0006337208,-178.381011049,-26.4210651275,0,1.5133054256,2019-07-25 11:50:23:008
0.2617485225,0.0210714024,9.7509775162,7.77832973833762E-005,-0.0044179315,0.0016992453,-178.3818087328,-22.2951346917,0,1.516648531,2019-07-25 11:50:23:012
0.2569590509,-0.0220340919,9.7773199081,-0.0009877413,-0.0022868822,-0.0022964719,-178.3836330524,-25.4464636464,0,1.5200009346,2019-07-25 11:50:23:015
0.2425905317,0.0090976544,9.786898613,-0.000454979,-0.0033524067,0.001166483,-178.3869243943,-21.3385130421,0,1.5233886242,2019-07-25 11:50:23:018
0.2330115438,0.059387397,9.8252153397,0.0027415948,-0.0006885953,0.0006337208,-178.3918855772,-17.3191837283,0,1.5267319679,2019-07-25 11:50:23:022
0.2856960297,0.0330451503,9.8659257889,-0.0033851716,-0.0009549764,0.0016992453,-178.3907014958,-13.3760271283,0,1.529946804,2019-07-25 11:50:23:025
0.2713275254,0.0210714024,9.8347940445,-0.000454979,-0.0017541198,0.0030311509,-178.3909602756,-9.510878467,0,1.5332067013,2019-07-25 11:50:23:028
0.2162482888,-0.0244288407,9.8850841522,-0.0015205036,-0.0049506937,-0.000698185,-178.3971447286,-12.9175427659,0,1.5365595818,2019-07-25 11:50:23:031
0.2521695495,-0.0172445923,9.8252153397,-0.0023196471,-0.0052170748,0.0006337208,-178.398789848,-16.2567325413,0,1.5400002003,2019-07-25 11:50:23:035
0.2378010452,0.0306504015,9.7749252319,-0.0020532659,-0.0038851689,-0.0017637095,-178.4022307451,-12.3348150833,0,1.5432610512,2019-07-25 11:50:23:038
0.2497747838,0.0067029046,9.7725305557,-0.0017868847,-0.0036187878,0.0009001019,-178.4042257272,-8.4885697381,0,1.5466001034,2019-07-25 11:50:23:041
0.2378010452,0.0282556508,9.8060569763,-0.0020532659,-0.0028196444,0.001166483,-178.4078192567,-4.7217081232,0,1.5500011444,2019-07-25 11:50:23:045
0.1899060458,-0.0268235914,9.8156356812,0.0014096891,-0.0028196444,0.0009001019,-178.4169740533,-8.2244030589,0,1.5532932281,2019-07-25 11:50:23:048
0.2473800331,-0.0507710874,9.8467674255,-0.0009877413,-0.0038851689,-0.0001654227,-178.4191108702,-11.6538181992,0,1.5566897392,2019-07-25 11:50:23:052
0.2090640366,0.0258609019,9.8204250336,-0.0001885979,-0.0020205009,0.0056949625,-178.4259615275,-7.823724384,0,1.5600018501,2019-07-25 11:50:23:055
0.2162482888,-0.019639343,9.7845039368,-0.0009877413,-0.0022868822,0.0016992453,-178.431696042,-11.2647665328,0,1.5633068085,2019-07-25 11:50:23:058
0.213853538,0.0545978993,9.8132410049,0.0006105456,-0.0020205009,0.0046294379,-178.4377368949,-7.4459545371,0,1.5664534569,2019-07-25 11:50:23:061
0.230616793,-0.0483763404,9.9425573349,-0.0009877413,-0.0084136484,0.0040966757,-178.4407264283,-10.8912625884,0,1.5700118542,2019-07-25 11:50:23:065
0.2234325409,-0.0148498425,9.7725305557,-0.0009877413,-0.0012213575,0.0032975323,-178.445492187,-14.2715142324,0,1.5732903481,2019-07-25 11:50:23:068
0.2785117924,0.0450189002,9.8539524078,0.0008769267,-0.0038851689,0.0016992453,-178.443522637,-10.3914726869,0,1.5764083862,2019-07-25 11:50:23:071
0.2210377902,-0.0148498425,9.8731098175,-0.004184315,-0.0046843126,0.0054285813,-178.4480658049,-13.7810835449,0,1.5799672604,2019-07-25 11:50:23:075
0.2856960297,0.0330451503,9.8539524078,-0.0015205036,0.0006433105,-0.0020300906,-178.4460088321,-9.9090243256,0,1.5832509995,2019-07-25 11:50:23:078
0.2497747838,0.0210714024,9.8228206635,-0.0060489829,-0.0006885953,0.0043630568,-178.4478349992,-6.1122339647,0,1.5863955021,2019-07-25 11:50:23:081
0.2090640366,0.0162819028,9.8683204651,-0.000454979,-0.0044179315,0.0051622002,-178.4537169456,-2.3917884635,0,1.5899765491,2019-07-25 11:50:23:085
0.2282220423,0.0282556508,9.8276100159,-0.004184315,-0.0046843126,0.0019656264,-178.4571864792,1.25351179,0,1.5932075977,2019-07-25 11:50:23:088
0.2952750325,-0.0459815897,9.8898735046,-0.0031187905,-0.0041515501,0.0038302946,-178.4531084322,-2.365681047,0,1.5963463783,2019-07-25 11:50:23:091
0.1994850487,0.0210714024,9.9186105728,-0.0017868847,0.0011760727,0.0035639134,-178.4612431417,1.2795637967,0,1.5999906063,2019-07-25 11:50:23:095
0.2665380239,-0.0004813447,9.8108463287,-0.0025860282,-0.0022868822,0.0064941058,-178.4604750609,-2.3454974539,0,1.603253603,2019-07-25 11:50:23:098
0.213853538,0.0665716454,9.8707151413,0.0003441644,-0.0028196444,0.0043630568,-178.4659385858,1.2936226193,0,1.6064374447,2019-07-25 11:50:23:101
0.213853538,-0.0220340919,9.8300046921,0.0016760702,-0.0057498371,0.0043630568,-178.4705557748,-2.3300130849,0,1.6099634171,2019-07-25 11:50:23:105
0.2282220423,0.001913405,9.7461881638,-0.0033851716,-0.0020205009,0.0027647698,-178.4739421489,1.3169888623,0,1.6132602692,2019-07-25 11:50:23:108
0.2545642853,-0.0292183403,9.7749252319,-0.0052498395,-0.0025532633,0.0051622002,-178.4741720226,-2.3049892385,0,1.6164369583,2019-07-25 11:50:23:111
0.2282220423,-0.0244288407,9.8635311127,-0.0017868847,-0.0012213575,0.0046294379,-178.4779337682,-5.8556923784,0,1.6200151443,2019-07-25 11:50:23:115
0.1755375415,-0.0004813447,9.8443727493,-0.004184315,-0.0020205009,0.0032975323,-178.4875753322,-9.3377587208,0,1.6232659817,2019-07-25 11:50:23:118
0.2856960297,-0.0100603439,9.7821092606,0.0008769267,-0.0057498371,0.0006337208,-178.4833571645,-12.7499788612,0,1.6263899803,2019-07-25 11:50:23:121
0.1970902979,0.0426241495,9.7629518509,0.0006105456,-0.0038851689,0.0032975323,-178.4897893078,-8.9001033125,0,1.62992239,2019-07-25 11:50:23:125
0.2473800331,0.0067029046,9.8419780731,-0.0017868847,-0.0020205009,0.0048958191,-178.4908274766,-5.122555077,0,1.6331775188,2019-07-25 11:50:23:128
0.2569590509,-0.0364025906,9.7916889191,-0.0028524094,-0.0060162182,0.0024983887,-178.4898651317,-8.6153313311,0,1.6363773346,2019-07-25 11:50:23:131
0.2090640366,0.0258609019,9.8156356812,-0.0015205036,0.0001105482,0.0024983887,-178.4956871945,-4.8457325888,0,1.6400225163,2019-07-25 11:50:23:135
0.2473800331,-0.0052708439,9.7797145844,-0.0015205036,-0.0062825993,0.0016992453,-178.4956511967,-8.3479238935,0,1.643260479,2019-07-25 11:50:23:138
0.2090640366,-0.0172445923,9.8707151413,-0.0052498395,-0.007614505,0.0032975323,-178.5001279253,-11.7780374347,0,1.6464018822,2019-07-25 11:50:23:141
0.2593537867,-0.0507710874,9.7509775162,0.0011433079,-0.0014877387,0.0070268681,-178.4993565715,-15.1367386438,0,1.649960041,2019-07-25 11:50:23:145
0.2210377902,-0.0148498425,9.8228206635,-0.0052498395,-0.0057498371,0.0024983887,-178.5025253028,-18.4313013598,0,1.6532511711,2019-07-25 11:50:23:148
0.2785117924,-0.0028760943,9.8922681808,0.0003441644,-0.0044179315,0.0006337208,-178.4994609456,-21.6624013492,0,1.6563136578,2019-07-25 11:50:23:151
0.2330115438,-0.0124550927,9.8707151413,-0.0001885979,-0.0022868822,0.0030311509,-178.5019554078,-24.8276685821,0,1.6599774361,2019-07-25 11:50:23:155
0.273722291,0.0330451503,9.7964782715,-0.0036515528,-0.000155833,0.0030311509,-178.4998785125,-20.7343193552,0,1.6632022858,2019-07-25 11:50:23:158
0.2880907953,0.0354399011,9.8731098175,7.77832973833762E-005,-0.0030860256,0.0022320075,-178.4959233227,-16.7237596177,0,1.6662611961,2019-07-25 11:50:23:161
0.2330115438,0.0162819028,9.8395833969,-0.0025860282,-0.0009549764,0.0040966757,-178.4986742245,-12.7906410983,0,1.6699767113,2019-07-25 11:50:23:165
0.2809065282,-0.067534335,9.7653465271,-0.0028524094,-0.0025532633,0.0040966757,-178.4952787136,-16.1263806262,0,1.6732418537,2019-07-25 11:50:23:168
0.213853538,-0.1106398329,9.74858284,-0.000454979,-0.0041515501,0.0046294379,-178.4995369637,-19.3907712272,0,1.6762549877,2019-07-25 11:50:23:171
0.2545642853,-0.0052708439,9.7413988113,-0.0023196471,-0.0046843126,0.0051622002,-178.4986379252,-22.6018555319,0,1.679942131,2019-07-25 11:50:23:175
0.2042745501,-0.0364025906,9.7916889191,-0.0007213602,-0.0028196444,0.0040966757,-178.504240273,-25.745424663,0,1.6832406521,2019-07-25 11:50:23:178
0.2689327896,0.001913405,9.7797145844,-0.0020532659,-0.0020205009,0.0040966757,-178.502289209,-21.6303718722,0,1.6864368916,2019-07-25 11:50:23:181
0.3096435368,-0.0651395842,9.8611364365,0.0006105456,-0.0014877387,0.0032975323,-178.4959758509,-24.7903169494,0,1.6899945736,2019-07-25 11:50:23:185
0.2066693008,-0.0100603439,9.7653465271,-0.0009877413,-0.0009549764,0.0075596303,-178.5016360787,-27.8931519244,0,1.6932067871,2019-07-25 11:50:23:188
0.2833012938,0.0282556508,9.8323993683,0.0003441644,-0.0033524067,0.0064941058,-178.4980236881,-23.7386405982,0,1.6962428093,2019-07-25 11:50:23:191
0.2018797994,-0.0124550927,9.7342147827,-0.0031187905,-0.0006885953,0.0022320075,-178.5041572609,-26.8617494058,0,1.6999669075,2019-07-25 11:50:23:195
0.2449852824,-0.0651395842,9.7916889191,-0.0020532659,-0.0036187878,0.0019656264,-178.5047475586,-29.9165156398,0,1.7032251358,2019-07-25 11:50:23:198
0.2210377902,-0.0459815897,9.8802938461,-0.0012541225,-0.0022868822,0.0051622002,-178.508627355,-32.9126365835,0,1.7062902451,2019-07-25 11:50:23:201
0.2713275254,-0.0699290857,9.8060569763,-0.000454979,-0.0065489805,0.0032975323,-178.5053877312,-35.8461171552,0,1.7100114822,2019-07-25 11:50:23:205
0.1827217937,-0.043586839,9.7916889191,-0.0036515528,-0.0068153616,0.0048958191,-178.5126495805,-38.7234246823,0,1.7132754326,2019-07-25 11:50:23:208
0.213853538,-0.0842975825,9.8491621017,-0.0009877413,-0.0022868822,0.0040966757,-178.5171265665,-41.5389790339,0,1.7163345814,2019-07-25 11:50:23:211
0.3407752812,-0.0914818347,9.8204250336,-0.0020532659,-0.0044179315,0.0048958191,-178.506134898,-44.2971062535,0,1.7199668884,2019-07-25 11:50:23:215
0.1970902979,-0.0579553358,9.7773199081,-0.0012541225,-0.0004222141,0.0035639134,-178.5128389101,-47.0041425727,0,1.7232215405,2019-07-25 11:50:23:218
0.2066693008,-0.0459815897,9.8156356812,-0.0007213602,-0.0030860256,0.0027647698,-178.5179296731,-49.6585681198,0,1.7262723446,2019-07-25 11:50:23:221
0.2066693008,-0.0795080811,9.7653465271,-0.0001885979,-0.0022868822,0.0040966757,-178.5228487221,-52.2560279605,0,1.7299664021,2019-07-25 11:50:23:225
0.2856960297,-0.0076655936,9.8084516525,-0.0025860282,-0.0033524067,0.0072932492,-178.5184125882,-54.8095405927,0,1.7332117558,2019-07-25 11:50:23:228
0.2880907953,0.0114924042,9.8323993683,0.0024752137,-0.0060162182,0.0024983887,-178.513450505,-50.115112077,0,1.7362546921,2019-07-25 11:50:23:231
0.273722291,-0.0100603439,9.8180303574,0.0014096891,-0.0070817427,0.0022320075,-178.509765859,-52.7119295094,0,1.7399673462,2019-07-25 11:50:23:235
0.2425905317,-0.0316130891,9.8371887207,0.003007976,-0.0009549764,0.0006337208,-178.5111442272,-55.2545536958,0,1.7431960106,2019-07-25 11:50:23:238
0.2761170268,-0.0699290857,9.786898613,-0.0007213602,-0.0070817427,0.0046294379,-178.5073883062,-57.7411515412,0,1.7462439537,2019-07-25 11:50:23:241
0.2880907953,-0.0220340919,9.8108463287,0.0003441644,-0.0022868822,0.0051622002,-178.5031214243,-60.1838270786,0,1.7499783039,2019-07-25 11:50:23:245
0.2401957959,-0.0531658381,9.7940835953,0.0003441644,-0.0044179315,0.0027647698,-178.5041524439,-62.5739931818,0,1.7532398701,2019-07-25 11:50:23:248
0.2521695495,-0.0220340919,9.7749252319,-0.0015205036,-0.0022868822,0.0027647698,-178.5041234703,-64.9196705509,0,1.7562818527,2019-07-25 11:50:23:251
0.2234325409,-0.0364025906,9.7821092606,0.0006105456,-0.0038851689,0.0038302946,-178.5070672007,-67.2171392493,0,1.7599699497,2019-07-25 11:50:23:255
0.2952750325,0.0043081548,9.7342147827,0.0008769267,-0.0049506937,0.0040966757,-178.501268641,-62.2734644541,0,1.7632362843,2019-07-25 11:50:23:258
0.2210377902,-0.0316130891,9.8156356812,-0.000454979,0.0006433105,0.0054285813,-178.5055554012,-64.6242249164,0,1.7663531303,2019-07-25 11:50:23:261
0.2330115438,0.0043081548,9.8683204651,0.0019424513,-0.0052170748,0.0030311509,-178.5073304857,-59.7326358653,0,1.7699763775,2019-07-25 11:50:23:265
0.2952750325,-0.0866923332,9.786898613,-0.0007213602,-0.0012213575,0.0038302946,-178.5023980226,-62.1277008551,0,1.7732362747,2019-07-25 11:50:23:268
0.3048540354,0.001913405,9.8084516525,0.0003441644,-0.0065489805,0.0043630568,-178.49563629,-57.2854286773,0,1.776252985,2019-07-25 11:50:23:271
0.2521695495,0.0090976544,9.8323993683,-0.0012541225,-0.0025532633,0.0064941058,-178.4958134259,-52.5405212813,0,1.7799324989,2019-07-25 11:50:23:275
0.3024592698,-0.0603500865,9.7725305557,0.0011433079,-0.0028196444,0.0027647698,-178.4899264122,-55.0828436082,0,1.7831919193,2019-07-25 11:50:23:278
0.2521695495,-0.0364025906,9.7725305557,-0.0001885979,-0.0060162182,0.0056949625,-178.48953418,-57.5768859053,0,1.7862443924,2019-07-25 11:50:23:281
0.2833012938,-0.0364025906,9.8276100159,0.0011433079,-0.0041515501,0.0027647698,-178.4858473425,-60.0213437195,0,1.7899847031,2019-07-25 11:50:23:285
0.2234325409,-0.0100603439,9.8204250336,0.0011433079,-0.000155833,0.0043630568,-178.49003505,-62.4199496681,0,1.7932050228,2019-07-25 11:50:23:288
0.2785117924,-0.0148498425,9.7294254303,0.0006105456,-0.0004222141,0.0032975323,-178.4873681969,-64.7699064539,0,1.7962610722,2019-07-25 11:50:23:291
0.2689327896,-0.0411920883,9.8228206635,-0.0009877413,-0.0022868822,0.0035639134,-178.4857788807,-67.0694971418,0,1.7999718189,2019-07-25 11:50:23:295
0.1683533043,-0.0579553358,9.8108463287,-0.0001885979,-0.0028196444,0.0078260115,-178.4958843954,-69.3213034607,0,1.8032374382,2019-07-25 11:50:23:298
0.2856960297,-0.0052708439,9.9090309143,-0.0023196471,-0.0004222141,0.0046294379,-178.4928645866,-71.5338702743,0,1.8062899113,2019-07-25 11:50:23:301
0.316827774,0.0258609019,9.8012676239,7.77832973833762E-005,-0.0014877387,0.0030311509,-178.4856669405,-66.5062326667,0,1.8100166321,2019-07-25 11:50:23:305
0.2809065282,-0.0316130891,9.8060569763,-0.0007213602,-0.0014877387,0.0035639134,-178.4828641788,-68.7722817847,0,1.8132755756,2019-07-25 11:50:23:308
0.2545642853,-0.0411920883,9.786898613,0.0016760702,-0.0049506937,0.0054285813,-178.4825538257,-70.9923021539,0,1.8163466454,2019-07-25 11:50:23:311
0.2114587873,-0.0004813447,9.8395833969,0.003007976,-0.0041515501,0.0035639134,-178.4874349867,-73.1730123731,0,1.8199720383,2019-07-25 11:50:23:315
0.1899060458,-0.0411920883,9.8180303574,-0.0015205036,-0.0014877387,0.0046294379,-178.4952510289,-75.3044653313,0,1.823240757,2019-07-25 11:50:23:318
0.2162482888,-0.0124550927,9.7845039368,-0.0012541225,-0.0020205009,0.0030311509,-178.4996807525,-77.3967042047,0,1.8262674809,2019-07-25 11:50:23:321
0.2066693008,-0.0076655936,9.8180303574,0.0003441644,-0.0038851689,0.0051622002,-178.5047691642,-79.4479462986,0,1.8299348354,2019-07-25 11:50:23:325
0.2785117924,-0.0172445923,9.7892932892,0.0016760702,-0.0028196444,0.0046294379,-178.5015647498,-81.457275347,0,1.8331925869,2019-07-25 11:50:23:328
0.2569590509,-0.0076655936,9.7988729477,-0.0012541225,-0.0030860256,0.0072932492,-178.5009622667,-83.4270186816,0,1.8362417221,2019-07-25 11:50:23:331
0.316827774,-0.0076655936,9.7030830383,-0.0007213602,-0.0033524067,0.0040966757,-178.4928364767,-85.35742173,0,1.8399767876,2019-07-25 11:50:23:335
0.2904855311,-0.0148498425,9.8778991699,-0.0001885979,-0.0006885953,0.0088915365,-178.4891662173,-87.2485164732,0,1.8431990147,2019-07-25 11:50:23:338
0.2976697683,-0.0052708439,9.7581615448,-0.0009877413,-0.0014877387,0.0070268681,-178.4841788853,-89.1027552016,0,1.8462998867,2019-07-25 11:50:23:341
0.2809065282,-0.0220340919,9.8611364365,0.0003441644,-0.0046843126,0.0051622002,-178.4808692588,-90.918212514,0,1.8500716686,2019-07-25 11:50:23:345
0.2641432881,0.0043081548,9.8970575333,0.0003441644,-0.0033524067,0.0022320075,-178.4800586629,-85.5004104238,0,1.8533496857,2019-07-25 11:50:23:348
0.2066693008,0.0426241495,9.9090309143,-0.0017868847,-0.0044179315,0.0072932492,-178.485917676,-80.1950712009,0,1.8559429646,2019-07-25 11:50:23:351
0.2689327896,-0.0220340919,9.8276100159,0.0011433079,-0.0014877387,0.0056949625,-178.4845384589,-82.1888393226,0,1.859662056,2019-07-25 11:50:23:355
0.2593537867,0.0090976544,9.8467674255,0.0011433079,-0.0012213575,0.0059613436,-178.484427049,-76.9463509655,0,1.8632400036,2019-07-25 11:50:23:358
0.2497747838,-0.0148498425,9.7078723907,0.0016760702,-0.0006885953,0.0086251549,-178.4851422612,-79.0059616447,0,1.8663275242,2019-07-25 11:50:23:361
0.3096435368,0.0306504015,9.7988729477,-0.0012541225,-0.0038851689,0.0078260115,-178.4784456336,-73.8291701466,0,1.8699717522,2019-07-25 11:50:23:365
0.2713275254,-0.0316130891,9.8060569763,0.003007976,-0.0017541198,0.0043630568,-178.4768564617,-75.94944395,0,1.8732366562,2019-07-25 11:50:23:368
0.2761170268,0.0090976544,9.7773199081,0.0011433079,-0.0036187878,0.0075596303,-178.4743552974,-70.8317144707,0,1.8762452602,2019-07-25 11:50:23:371
0.3000645339,0.0737558976,9.8707151413,0.0016760702,-0.0038851689,0.0064941058,-178.4692371456,-65.8239904689,0,1.8799424171,2019-07-25 11:50:23:375
0.2976697683,-0.0268235914,9.8611364365,0.0019424513,-0.0060162182,0.006760487,-178.4641812044,-68.1047458489,0,1.8831717968,2019-07-25 11:50:23:378
0.2090640366,-0.0340078399,9.8419780731,0.0008769267,-0.0049506937,0.0070268681,-178.4696978316,-70.3388440159,0,1.8862719536,2019-07-25 11:50:23:381
0.2856960297,-0.0220340919,9.8323993683,0.0019424513,-0.005483456,0.0104898233,-178.4658738021,-72.5299040869,0,1.8899843693,2019-07-25 11:50:23:385
0.2833012938,-0.0076655936,9.9042415619,0.0016760702,-0.0014877387,0.0059613436,-178.4635182561,-74.6787223699,0,1.8932068348,2019-07-25 11:50:23:388
0.273722291,-0.0364025906,9.7964782715,-0.000454979,0.0009096916,0.0062277247,-178.4623941413,-76.7808119183,0,1.8962574005,2019-07-25 11:50:23:391
0.2713275254,0.0138871539,9.8707151413,-0.0023196471,-0.0009549764,0.0088915365,-178.4614557485,-71.6463236243,0,1.8999752998,2019-07-25 11:50:23:395
0.2856960297,0.0426241495,9.7270298004,0.0006105456,-0.0017541198,0.0059613436,-178.4582579718,-66.6185303708,0,1.903236866,2019-07-25 11:50:23:398
0.2497747838,-0.0124550927,9.7605571747,0.0019424513,0.0001105482,0.0096906794,-178.4597939378,-68.8850305872,0,1.9062907696,2019-07-25 11:50:23:401
0.3216172755,0.0162819028,9.8084516525,-0.0017868847,-0.0012213575,0.0070268681,-178.4527842185,-63.9088621158,0,1.909979105,2019-07-25 11:50:23:405
0.2497747838,0.0043081548,9.8180303574,0.0014096891,0.0006433105,0.006760487,-178.4546999095,-59.0314455274,0,1.9132363796,2019-07-25 11:50:23:408
0.3144330382,0.0043081548,9.7677412033,7.77832973833762E-005,-0.0062825993,0.0070268681,-178.4476534495,-54.2513353686,0,1.9162895679,2019-07-25 11:50:23:411
0.2449852824,-0.0411920883,9.8036623001,0.0024752137,-0.0033524067,0.0088915365,-178.4493777113,-56.7620056785,0,1.9199719429,2019-07-25 11:50:23:415
0.2066693008,0.0450189002,9.8347940445,-0.0025860282,-0.0017541198,0.0080923926,-178.4559913968,-52.031536372,0,1.9232404232,2019-07-25 11:50:23:418
0.2521695495,0.1360193938,9.8036623001,-0.004184315,-0.0030860256,0.0080923926,-178.4568797069,-47.4060941205,0,1.9262595177,2019-07-25 11:50:23:421
0.2090640366,0.0426241495,9.8419780731,0.0019424513,-0.0044179315,0.0094242988,-178.4624907343,-42.8633366024,0,1.9299416542,2019-07-25 11:50:23:425
0.2665380239,-0.0172445923,9.8395833969,-0.0012541225,-0.0030860256,0.0056949625,-178.4616356545,-45.603829159,0,1.9332420826,2019-07-25 11:50:23:428
0.2617485225,0.0090976544,9.8300046921,0.0038071193,-0.0009549764,0.0072932492,-178.4617330963,-41.0934676312,0,1.936303854,2019-07-25 11:50:23:431
0.2378010452,0.0090976544,9.7940835953,-0.000454979,-0.0049506937,0.0046294379,-178.4636614676,-36.672569015,0,1.939971447,2019-07-25 11:50:23:435
0.273722291,-0.0292183403,9.8898735046,-0.0033851716,0.0011760727,0.0070268681,-178.4628944465,-39.535117223,0,1.9432067871,2019-07-25 11:50:23:438
0.3120382726,0.0162819028,9.7629518509,-0.0009877413,-0.0009549764,0.0070268681,-178.4568596097,-35.1461560439,0,1.9462702274,2019-07-25 11:50:23:441
0.2904855311,0.0402293988,9.8611364365,-0.0017868847,-0.0028196444,0.0072932492,-178.4533893859,-30.8475358585,0,1.9499769211,2019-07-25 11:50:23:445
0.2282220423,0.0426241495,9.8731098175,-0.0033851716,-0.0068153616,0.006760487,-178.4565924784,-26.6349136638,0,1.9532313347,2019-07-25 11:50:23:448
0.3288015425,-0.0579553358,9.8180303574,-0.0017868847,-0.0028196444,0.0059613436,-178.4486121568,-29.6951428175,0,1.9563047886,2019-07-25 11:50:23:451
0.2545642853,0.0498083979,9.9162158966,0.0006105456,-0.0044179315,0.0096906794,-178.4493193555,-25.5071214677,0,1.9599716663,2019-07-25 11:50:23:455
0.2282220423,-0.0148498425,9.8323993683,-0.0025860282,-0.0033524067,0.006760487,-178.4531246129,-28.5947739398,0,1.9632389545,2019-07-25 11:50:23:458
0.3024592698,-0.0268235914,9.9162158966,-0.0052498395,-0.000155833,0.0088915365,-178.4490936151,-31.6188618612,0,1.9663493633,2019-07-25 11:50:23:461
0.2378010452,-0.0938765854,9.7964782715,-0.0012541225,-0.0028196444,0.0048958191,-178.4517275646,-34.5752489153,0,1.9699718952,2019-07-25 11:50:23:465
0.2761170268,-0.0292183403,9.7533721924,0.0011433079,-0.0012213575,0.0086251549,-178.4500370281,-37.4805206891,0,1.9732365608,2019-07-25 11:50:23:468
0.2162482888,0.0641768947,9.7892932892,-0.0007213602,-0.0017541198,0.0072932492,-178.4554319284,-33.1383013273,0,1.9762303829,2019-07-25 11:50:23:471
0.2952750325,0.0234661531,9.8443727493,-0.0017868847,0.0001105482,0.0078260115,-178.4519856566,-28.8778951152,0,1.9799351692,2019-07-25 11:50:23:475
0.2282220423,-0.0411920883,9.8635311127,0.005139025,-0.005483456,0.0064941058,-178.4554287003,-31.896496181,0,1.9832084179,2019-07-25 11:50:23:478
0.2856960297,0.0043081548,9.8778991699,-0.0009877413,-0.0036187878,0.0059613436,-178.4525593512,-27.658894905,0,1.9862940311,2019-07-25 11:50:23:481
0.2210377902,0.001913405,9.8204250336,-0.0044506961,-0.0014877387,0.0056949625,-178.4574080369,-23.5050061461,0,1.9900319576,2019-07-25 11:50:23:485
0.213853538,-0.0028760943,9.8467674255,-0.0039179339,0.0003769293,0.0035639134,-178.4634447666,-26.6338630328,0,1.9932515621,2019-07-25 11:50:23:488
0.2761170268,0.0258609019,9.7964782715,-0.0012541225,-0.0017541198,0.0054285813,-178.4615854032,-22.5039955683,0,1.9963076115,2019-07-25 11:50:23:491
0.2425905317,-0.0483763404,9.7892932892,-0.0015205036,-0.0044179315,0.0016992453,-178.4630524069,-25.6479396976,0,1.9999756813,2019-07-25 11:50:23:495
0.2856960297,-0.0244288407,9.7366094589,0.0003441644,-0.0009549764,0.0070268681,-178.4600022761,-28.7321688226,0,2.0032346249,2019-07-25 11:50:23:498
0.2904855311,0.0186766535,9.8036623001,-0.0025860282,-0.0025532633,0.0078260115,-178.4564220102,-24.5592665726,0,2.006278038,2019-07-25 11:50:23:501
0.2641432881,-0.019639343,9.7557668686,-0.000454979,-0.0014877387,0.0070268681,-178.4559637729,-27.6656792854,0,2.0100011826,2019-07-25 11:50:23:505
0.2401957959,-0.0364025906,9.8323993683,-0.0012541225,-0.0004222141,0.0030311509,-178.4587790546,-30.7078932065,0,2.0132670403,2019-07-25 11:50:23:508
0.3192225397,-0.0387973413,9.7605571747,-0.0071145074,0.0009096916,0.0091579171,-178.4522949312,-33.6879628663,0,2.0163149834,2019-07-25 11:50:23:511
0.2258272916,-0.0340078399,9.7940835953,-0.0007213602,-0.0028196444,0.0040966757,-178.456248284,-36.6100754128,0,2.0200002193,2019-07-25 11:50:23:515
0.2162482888,0.0282556508,9.8755044937,-0.0007213602,-0.0020205009,0.0064941058,-178.4616658701,-32.2810208902,0,2.0232512951,2019-07-25 11:50:23:518
0.2210377902,-0.0076655936,9.8180303574,0.0014096891,-0.0044179315,0.0080923926,-178.4658901055,-35.2347445449,0,2.026267767,2019-07-25 11:50:23:521
0.2401957959,-0.0076655936,9.8395833969,-0.0007213602,-0.0062825993,0.0078260115,-178.4673164563,-38.1290090051,0,2.0299196243,2019-07-25 11:50:23:525
0.3000645339,-0.0292183403,9.8683204651,-0.0015205036,0.0011760727,0.0040966757,-178.4633494257,-40.9627615739,0,2.0331337452,2019-07-25 11:50:23:528
0.2425905317,0.0090976544,9.7437934875,-0.0012541225,0.0011760727,0.0086251549,-178.4657594954,-36.5443619887,0,2.0361766815,2019-07-25 11:50:23:531
0.2545642853,-0.0387973413,9.7725305557,-0.0020532659,-0.0038851689,0.0046294379,-178.4657717675,-39.4084871272,0,2.0399785042,2019-07-25 11:50:23:535
0.2641432881,0.0067029046,9.8395833969,-0.0017868847,-0.0009549764,0.0046294379,-178.4655290501,-35.0207750414,0,2.0431973934,2019-07-25 11:50:23:538
0.2545642853,-0.0220340919,9.7797145844,-0.000454979,0.0014424539,0.0051622002,-178.4666446609,-37.9176997023,0,2.0462524891,2019-07-25 11:50:23:541
0.273722291,-0.0052708439,9.7845039368,-0.004184315,-0.0057498371,0.0075596303,-178.4640621727,-40.7578545038,0,2.0499720573,2019-07-25 11:50:23:545
0.273722291,0.0881243944,9.7940835953,0.0027415948,-0.0004222141,0.0032975323,-178.4626865027,-36.3535079741,0,2.0532214642,2019-07-25 11:50:23:548
0.2210377902,-0.0411920883,9.8300046921,-0.0012541225,-0.0020205009,0.0032975323,-178.467318738,-39.2214179065,0,2.0563178062,2019-07-25 11:50:23:551
0.2856960297,-0.0699290857,9.7892932892,-0.0017868847,0.0003769293,0.0051622002,-178.4646163145,-42.0284366131,0,2.0599787235,2019-07-25 11:50:23:555
0.2449852824,0.0067029046,9.8132410049,-0.0033851716,-0.0004222141,0.0048958191,-178.4666451689,-37.5880312808,0,2.0632369518,2019-07-25 11:50:23:558
0.2545642853,-0.0004813447,9.786898613,0.0006105456,-0.0052170748,0.0019656264,-178.4666004103,-40.4363210827,0,2.0663518906,2019-07-25 11:50:23:561
0.2952750325,-0.043586839,9.8802938461,0.0011433079,-0.0049506937,0.0091579171,-178.4620252947,-43.2227721269,0,2.0699756145,2019-07-25 11:50:23:565
0.2449852824,-0.0268235914,9.8731098175,-0.0015205036,-0.0036187878,0.0027647698,-178.4636939415,-45.9549250116,0,2.0732367039,2019-07-25 11:50:23:568
0.2665380239,-0.0244288407,9.8539524078,0.0022088326,-0.0004222141,0.0043630568,-178.4633606231,-48.6333587144,0,2.0762443542,2019-07-25 11:50:23:571
0.2114587873,-0.0531658381,9.8371887207,0.0011433079,-0.0017541198,0.0070268681,-178.4690999169,-51.2547362161,0,2.0799486637,2019-07-25 11:50:23:575
0.2880907953,0.0114924042,9.8371887207,-0.0033851716,-0.0004222141,0.0051622002,-178.4660911155,-46.6303609509,0,2.0832066536,2019-07-25 11:50:23:578
0.2545642853,-0.0507710874,9.8156356812,-0.0015205036,-0.0004222141,0.0070268681,-178.4669790288,-49.2915453217,0,2.0865008831,2019-07-25 11:50:23:581
0.2545642853,-0.0579553358,9.786898613,0.0011433079,-0.0017541198,0.0038302946,-178.4674961025,-51.8991528932,0,2.0899932384,2019-07-25 11:50:23:585
0.2234325409,-0.019639343,9.8443727493,-0.0023196471,-0.005483456,0.0051622002,-178.4711494132,-54.458463697,0,2.0932183266,2019-07-25 11:50:23:588
0.2425905317,-0.0531658381,9.722240448,-0.0017868847,-0.0017541198,0.0070268681,-178.4728384001,-56.9627215218,0,2.0962736607,2019-07-25 11:50:23:591
0.273722291,-0.0411920883,9.851556778,-0.0001885979,-0.0030860256,0.0030311509,-178.4709109072,-59.4186366146,0,2.0999672413,2019-07-25 11:50:23:595
0.2425905317,-0.0627448335,9.7916889191,-0.0025860282,-0.0006885953,0.0046294379,-178.4729823183,-61.8224479843,0,2.1032247543,2019-07-25 11:50:23:598
0.2210377902,-0.0459815897,9.7821092606,-0.0015205036,-0.0030860256,0.0014328642,-178.4771048902,-64.1803519879,0,2.1062772274,2019-07-25 11:50:23:601
0.2545642853,0.0043081548,9.8156356812,-0.0012541225,-0.0070817427,0.0051622002,-178.4763653232,-59.2969848633,0,2.1100125313,2019-07-25 11:50:23:605
0.2856960297,-0.0866923332,9.8778991699,-0.0015205036,-0.0046843126,0.0059613436,-178.4728482338,-61.7007105687,0,2.1132669449,2019-07-25 11:50:23:608
0.2833012938,-0.0124550927,9.7366094589,-0.0033851716,-0.0020205009,0.0022320075,-178.4697124199,-64.0646506128,0,2.116317749,2019-07-25 11:50:23:611
0.2354062945,-0.0100603439,9.7845039368,0.0006105456,-0.0009549764,0.0032975323,-178.4725582866,-66.3823043773,0,2.1199638844,2019-07-25 11:50:23:615
0.2042745501,0.0043081548,9.8395833969,-0.0001885979,-0.0004222141,0.0072932492,-178.4792436576,-61.4551255707,0,2.123216629,2019-07-25 11:50:23:618
0.2785117924,0.0378346518,9.8371887207,-0.0007213602,-0.0038851689,0.0070268681,-178.4765594807,-56.6303069184,0,2.1262633801,2019-07-25 11:50:23:621
0.2928802967,-0.0411920883,9.851556778,0.0011433079,-0.0060162182,0.0064941058,-178.4717285136,-59.0931455378,0,2.1299414635,2019-07-25 11:50:23:625
0.2665380239,0.0043081548,9.8276100159,-0.0033851716,-0.0052170748,0.0054285813,-178.4702676979,-54.3111652431,0,2.1332018375,2019-07-25 11:50:23:628
0.2210377902,-0.0100603439,9.7701358795,0.0024752137,-0.0017541198,0.0040966757,-178.4746411762,-56.8241861606,0,2.1362538338,2019-07-25 11:50:23:631
0.2449852824,-0.0244288407,9.7605571747,0.0003441644,-0.0038851689,0.0040966757,-178.475581707,-59.284906252,0,2.1399703026,2019-07-25 11:50:23:635
0.2785117924,-0.0723238364,9.7605571747,0.0008769267,-0.0030860256,0.0064941058,-178.4728210357,-61.6908763646,0,2.1432013512,2019-07-25 11:50:23:638
0.1635638028,0.0114924042,9.8012676239,-0.0015205036,-0.0025532633,0.0072932492,-178.4838053265,-56.8581416395,0,2.1462564468,2019-07-25 11:50:23:641
0.2018797994,-0.0316130891,9.786898613,0.0006105456,-0.0028196444,0.0062277247,-178.4899065059,-59.3174048047,0,2.1499743462,2019-07-25 11:50:23:645
0.2497747838,-0.019639343,9.8419780731,0.0014096891,-0.0057498371,0.0056949625,-178.4899767435,-61.729029033,0,2.1532459259,2019-07-25 11:50:23:648
0.273722291,-0.0364025906,9.8084516525,-0.0007213602,-0.0022868822,0.0048958191,-178.4878145474,-64.0900718826,0,2.1562998295,2019-07-25 11:50:23:651
0.2425905317,-0.0292183403,9.8252153397,0.0014096891,-0.0036187878,0.0072932492,-178.4890245456,-66.4051533616,0,2.159971714,2019-07-25 11:50:23:655
0.2090640366,-0.0268235914,9.8443727493,-0.0007213602,-0.0057498371,0.0032975323,-178.4938569252,-68.6737955846,0,2.1632397175,2019-07-25 11:50:23:658
0.2162482888,0.0138871539,9.8683204651,0.0003441644,-0.0022868822,0.006760487,-178.4984751994,-63.7019921115,0,2.1663370132,2019-07-25 11:50:23:661
0.2090640366,-0.0627448335,9.8467674255,-0.0015205036,-0.0033524067,0.0022320075,-178.5034720436,-66.0203295503,0,2.1700956821,2019-07-25 11:50:23:665
0.2665380239,0.0402293988,9.8323993683,0.0003441644,-0.0033524067,0.0038302946,-178.5017488705,-61.1046728239,0,2.1732709408,2019-07-25 11:50:23:668
0.2186430395,-0.0148498425,9.8611364365,0.0019424513,-0.0017541198,0.0064941058,-178.5060138641,-63.481182325,0,2.1762835979,2019-07-25 11:50:23:671
0.2114587873,-0.0124550927,9.8443727493,-0.000454979,-0.0052170748,0.0062277247,-178.5102151687,-65.8100157504,0,2.1799285412,2019-07-25 11:50:23:675
0.1755375415,-0.0244288407,9.8132410049,-0.0007213602,-0.0014877387,0.0038302946,-178.5192425145,-68.0908306522,0,2.1831917763,2019-07-25 11:50:23:678
0.2258272916,-0.0316130891,9.7437934875,0.0006105456,-0.0017541198,0.0032975323,-178.5220016408,-70.3254014716,0,2.1862623692,2019-07-25 11:50:23:681
0.1899060458,-0.0148498425,9.8419780731,0.0008769267,-0.0033524067,0.0048958191,-178.5287539207,-72.5173474045,0,2.1899778843,2019-07-25 11:50:23:685
0.1875112951,0.0258609019,9.8323993683,-0.0023196471,-0.0030860256,0.0009001019,-178.53576946,-67.4695945611,0,2.1932013035,2019-07-25 11:50:23:688
0.1994850487,-0.0004813447,9.8395833969,-0.000454979,0.0003769293,0.0032975323,-178.5418899152,-69.7200685823,0,2.1962556839,2019-07-25 11:50:23:691
0.2665380239,-0.0244288407,9.8084516525,0.0014096891,-0.0041515501,0.0016992453,-178.5390558465,-71.9231067408,0,2.1999640465,2019-07-25 11:50:23:695
0.2090640366,-0.0292183403,9.7892932892,0.0003441644,-0.0049506937,0.0003673396,-178.5428961192,-74.0812876152,0,2.2032365799,2019-07-25 11:50:23:698
0.2210377902,-0.0052708439,9.851556778,0.003007976,-0.0046843126,0.0064941058,-178.5455151183,-76.1995731816,0,2.2063415051,2019-07-25 11:50:23:701
0.213853538,-0.0052708439,9.9090309143,-0.0028524094,-0.0025532633,0.0022320075,-178.549353466,-78.274386334,0,2.2099993229,2019-07-25 11:50:23:705
0.2282220423,-0.0268235914,9.7390041351,-0.0012541225,-0.0025532633,0.0027647698,-178.5510484191,-80.3055117679,0,2.213275671,2019-07-25 11:50:23:708
0.2258272916,0.0043081548,9.8371887207,0.0006105456,-0.000155833,0.0003673396,-178.5536990172,-75.1000086068,0,2.2163450718,2019-07-25 11:50:23:711
0.2162482888,-0.019639343,9.8539524078,-0.0001885979,-0.0028196444,0.0043630568,-178.5569073626,-77.1956861724,0,2.2199718952,2019-07-25 11:50:23:715
0.1827217937,-0.0076655936,9.8060569763,-0.0017868847,-0.0017541198,0.0014328642,-178.5640979039,-79.250549372,0,2.2232339382,2019-07-25 11:50:23:718
0.2210377902,-0.0148498425,9.7701358795,0.0016760702,-0.0025532633,0.0030311509,-178.5664631618,-81.2640804103,0,2.2262487411,2019-07-25 11:50:23:721
0.2617485225,0.0282556508,9.8491621017,-0.0001885979,-0.0014877387,0.0016992453,-178.5643789512,-76.0420471201,0,2.2299427986,2019-07-25 11:50:23:725
0.1875112951,0.0186766535,9.7246351242,0.0035407382,-0.0038851689,-0.000698185,-178.5702854892,-70.9240567295,0,2.2332110405,2019-07-25 11:50:23:728
0.2617485225,0.0426241495,9.7198457718,-0.0009877413,-0.0038851689,0.0032975323,-178.5673616546,-65.910431166,0,2.2362680435,2019-07-25 11:50:23:731
0.1827217937,-0.0028760943,9.8443727493,-0.0001885979,-0.0033524067,-0.0001654227,-178.5740487987,-68.1918484504,0,2.239979744,2019-07-25 11:50:23:735
0.213853538,0.0210714024,9.8970575333,-0.004184315,-0.0036187878,-0.000698185,-178.5771546348,-63.229692291,0,2.2432098389,2019-07-25 11:50:23:738
0.2018797994,-0.0316130891,9.9066362381,0.0008769267,-0.0036187878,-0.0009645661,-178.5816457902,-65.5615912976,0,2.24624753,2019-07-25 11:50:23:741
0.1683533043,-0.0579553358,9.7605571747,-0.0001885979,-0.0062825993,0.0003673396,-178.5889363859,-67.8435160151,0,2.2499704361,2019-07-25 11:50:23:745
0.230616793,-0.0076655936,9.8084516525,7.77832973833762E-005,-0.0017541198,-0.0041611398,-178.589894281,-70.0857645627,0,2.2532753944,2019-07-25 11:50:23:748
0.1994850487,0.0067029046,9.7629518509,0.0008769267,-0.0017541198,-0.0017637095,-178.5943825554,-65.0849873756,0,2.2563493252,2019-07-25 11:50:23:751
0.2186430395,-0.0316130891,9.8491621017,-0.0012541225,-0.0017541198,-0.0014973284,-178.5967035563,-67.3793542052,0,2.2599756718,2019-07-25 11:50:23:755
0.1994850487,0.0162819028,9.7845039368,-0.0007213602,-0.0057498371,0.0006337208,-178.6003559547,-62.4335417472,0,2.2632403374,2019-07-25 11:50:23:758
0.2162482888,-0.0292183403,9.8491621017,-0.0012541225,-0.0046843126,-0.0030956153,-178.6023841269,-64.7812548736,0,2.2663161755,2019-07-25 11:50:23:761
0.2401957959,-0.0100603439,9.7892932892,-0.000454979,-0.0028196444,-0.0014973284,-178.6016456648,-67.0843586129,0,2.2699768543,2019-07-25 11:50:23:765
0.2785117924,0.0186766535,9.7892932892,-0.0015205036,-0.0020205009,-0.0030956153,-178.5966486031,-62.1445785796,0,2.2732460499,2019-07-25 11:50:23:768
0.2545642853,0.0043081548,9.8036623001,0.0006105456,-0.0078808861,-0.002562853,-178.5936350088,-57.3022937795,0,2.2762565613,2019-07-25 11:50:23:771
0.1851165444,-0.0292183403,9.8419780731,7.77832973833762E-005,-0.0041515501,-0.0062921888,-178.5993559054,-59.7528620105,0,2.2799267769,2019-07-25 11:50:23:775
0.1946955472,-0.019639343,9.8060569763,-0.0009877413,-0.0038851689,-0.0041611398,-178.6039077598,-62.1553286704,0,2.2831919193,2019-07-25 11:50:23:778
0.2401957959,-0.0411920883,9.8994522095,0.003007976,-0.0017541198,-0.0012309473,-178.6037266087,-64.5079760342,0,2.2862832546,2019-07-25 11:50:23:781
0.2473800331,0.0402293988,9.8922681808,0.0011433079,-0.0025532633,-0.0009645661,-178.6024725765,-59.6227135584,0,2.2899737358,2019-07-25 11:50:23:785
0.2114587873,-0.0244288407,9.851556778,-0.0015205036,-0.0049506937,-0.0017637095,-178.6049334805,-62.0271423062,0,2.2932002544,2019-07-25 11:50:23:788
0.2282220423,0.0378346518,9.8491621017,-0.0039179339,-0.0036187878,0.0003673396,-178.6056692889,-57.190332892,0,2.2962388992,2019-07-25 11:50:23:791
0.2090640366,-0.0148498425,9.856347084,0.0038071193,-0.0046843126,-0.0012309473,-178.6082711868,-59.6455980568,0,2.2999732494,2019-07-25 11:50:23:795
0.1851165444,-0.0411920883,9.8347940445,-0.0012541225,-0.0049506937,-0.0036283775,-178.6136319986,-62.0476567567,0,2.3032367229,2019-07-25 11:50:23:798
0.273722291,-0.0483763404,9.7366094589,-0.0007213602,-0.0041515501,-0.0049602832,-178.608442401,-64.4008867035,0,2.3062853813,2019-07-25 11:50:23:801
0.2401957959,0.0450189002,9.7964782715,0.0019424513,-0.0044179315,-0.002562853,-178.6072621443,-59.5185397472,0,2.3099973202,2019-07-25 11:50:23:805
0.1923007965,-0.0148498425,9.7198457718,-0.0012541225,-0.0057498371,-0.0033619964,-178.6113979718,-61.9261890681,0,2.3132517338,2019-07-25 11:50:23:808
0.2354062945,-0.0771133378,9.851556778,-0.0020532659,-0.0030860256,-0.0001654227,-178.6112666853,-64.2783454837,0,2.3162901402,2019-07-25 11:50:23:811
0.2545642853,-0.0579553358,9.8347940445,0.0011433079,-0.0065489805,-0.0012309473,-178.6080339915,-66.5862621127,0,2.3199696541,2019-07-25 11:50:23:815
0.1827217937,-0.0411920883,9.8060569763,0.0011433079,-0.0028196444,-0.0012309473,-178.6140084206,-68.8499320455,0,2.3232216835,2019-07-25 11:50:23:818
0.230616793,-0.0220340919,9.8108463287,-0.0009877413,-0.0009549764,0.0009001019,-178.6146355103,-71.0701928133,0,2.3262326717,2019-07-25 11:50:23:821
0.2330115438,-0.0531658381,9.9042415619,0.0024752137,-0.0049506937,-0.0009645661,-178.6143434216,-73.2431602465,0,2.3299920559,2019-07-25 11:50:23:825
0.2258272916,0.0330451503,9.7773199081,-0.0039179339,-0.0017541198,0.0003673396,-178.6152749238,-68.1814573259,0,2.3332314491,2019-07-25 11:50:23:828
0.2330115438,0.0090976544,9.856347084,-0.0031187905,-0.0038851689,-0.0012309473,-178.6152184078,-63.218351465,0,2.3362832069,2019-07-25 11:50:23:831
0.2497747838,-0.0364025906,9.8635311127,-0.000454979,-0.0060162182,0.0014328642,-178.6126517658,-65.5496607497,0,2.3399846554,2019-07-25 11:50:23:835
0.1827217937,0.0067029046,9.7366094589,-0.0033851716,-0.0022868822,0.0009001019,-178.6184834993,-60.6388451163,0,2.3432006836,2019-07-25 11:50:23:838
0.2354062945,-0.0292183403,9.7701358795,-0.000454979,-0.007614505,0.0016992453,-178.6171956857,-63.0225628069,0,2.3462722301,2019-07-25 11:50:23:841
0.1420110464,-0.0148498425,9.7581615448,-0.0012541225,-0.0009549764,0.0009001019,-178.6279776315,-65.3601067086,0,2.3499786854,2019-07-25 11:50:23:845
0.2449852824,-0.0292183403,9.8611364365,0.0003441644,-0.005483456,-0.0004318038,-178.6259519501,-67.6495722389,0,2.3532376289,2019-07-25 11:50:23:848
0.2401957959,0.0186766535,9.8994522095,-0.0028524094,-0.0041515501,0.0019656264,-178.6249247782,-62.6982551612,0,2.3562817574,2019-07-25 11:50:23:851
0.2114587873,0.001913405,9.7773199081,0.0011433079,-0.0036187878,0.0027647698,-178.6268969943,-57.844751228,0,2.3599722385,2019-07-25 11:50:23:855
0.2449852824,-0.0124550927,9.8778991699,0.0014096891,-0.0057498371,-0.000698185,-178.6248877665,-60.2866704226,0,2.3632457256,2019-07-25 11:50:23:858
0.273722291,-0.0962713361,9.851556778,-0.0012541225,-0.0030860256,0.001166483,-178.6200185618,-62.6695195065,0,2.3663663864,2019-07-25 11:50:23:861
0.2928802967,-0.0723238364,9.8467674255,0.0014096891,-0.0052170748,0.0048958191,-178.6124867351,-65.0079983706,0,2.369976759,2019-07-25 11:50:23:865
0.2473800331,-0.0938765854,9.8204250336,0.0016760702,-0.0052170748,0.0054285813,-178.6104222005,-67.2971913332,0,2.3732364178,2019-07-25 11:50:23:868
0.2497747838,-0.0459815897,9.7964782715,0.0014096891,-0.0017541198,0.0030311509,-178.6087064408,-69.5461076117,0,2.3762512207,2019-07-25 11:50:23:871
0.2521695495,-0.0124550927,9.7940835953,0.003007976,-0.0046843126,0.0009001019,-178.6060639191,-71.7543516381,0,2.3799424171,2019-07-25 11:50:23:875
0.2449852824,-0.019639343,9.8898735046,-0.0007213602,-0.0022868822,0.0046294379,-178.6051477335,-73.9168581838,0,2.3831732273,2019-07-25 11:50:23:878
0.2354062945,-0.0148498425,9.8108463287,0.0003441644,-0.0036187878,0.0046294379,-178.6049354514,-76.0368454106,0,2.3862192631,2019-07-25 11:50:23:881
0.2904855311,-0.0220340919,9.8491621017,-0.0012541225,-0.0041515501,0.0024983887,-178.5981736589,-78.11328032,0,2.3899767399,2019-07-25 11:50:23:885
0.2401957959,-0.0220340919,9.8300046921,0.0008769267,0.0001105482,0.0059613436,-178.5982353694,-80.1486049216,0,2.3932015896,2019-07-25 11:50:23:888
0.2258272916,0.0186766535,9.9138202667,-0.0001885979,-0.0065489805,0.0091579171,-178.5990500269,-74.947759292,0,2.3962535858,2019-07-25 11:50:23:891
0.2258272916,-0.0268235914,9.7581615448,0.0016760702,-0.0017541198,0.0062277247,-178.6001878147,-77.0460045687,0,2.3999767303,2019-07-25 11:50:23:895
0.2210377902,-0.0292183403,9.8874788284,-0.0001885979,-0.0030860256,0.0078260115,-178.6020051858,-79.1016636297,0,2.4032421112,2019-07-25 11:50:23:898
0.2904855311,-0.0411920883,9.7677412033,0.0016760702,-0.0046843126,0.0064941058,-178.5950938671,-81.1150850404,0,2.4062933922,2019-07-25 11:50:23:901
0.273722291,-0.0052708439,9.8850841522,0.0027415948,-0.0017541198,0.0056949625,-178.5911034506,-83.0927439606,0,2.4100067616,2019-07-25 11:50:23:905
0.2952750325,-0.0387973413,9.8180303574,0.0035407382,-0.0049506937,0.006760487,-178.5839240836,-85.0270077783,0,2.4132606983,2019-07-25 11:50:23:908
0.2210377902,-0.0483763404,9.8395833969,0.0014096891,-0.0028196444,0.0070268681,-178.5860239283,-86.9210757444,0,2.4163177013,2019-07-25 11:50:23:911
0.2545642853,0.0114924042,9.8874788284,0.0014096891,-0.0070817427,0.0094242988,-178.5833600766,-81.5842741878,0,2.4199566841,2019-07-25 11:50:23:915
0.2545642853,-0.0124550927,9.8228206635,0.0014096891,-0.0049506937,0.0064941058,-178.5811030027,-83.5513918208,0,2.4231922626,2019-07-25 11:50:23:918
0.2066693008,-0.0364025906,9.7318201065,-0.0009877413,-0.0057498371,0.0091579171,-178.5841724674,-85.4759097956,0,2.4262182713,2019-07-25 11:50:23:921
0.2234325409,-0.0004813447,9.7916889191,0.0006105456,-0.0049506937,0.0080923926,-178.585308823,-87.3664631014,0,2.4299471378,2019-07-25 11:50:23:925
0.2713275254,-0.0148498425,9.8084516525,0.0040735005,-0.0046843126,0.0064941058,-178.5810557072,-89.218143313,0,2.4332015514,2019-07-25 11:50:23:928
0.2186430395,-0.0052708439,9.7821092606,0.0006105456,-0.0038851689,0.0083587737,-178.5831603345,-91.0332676276,0,2.4362535477,2019-07-25 11:50:23:931
0.2473800331,-0.0459815897,9.921005249,0.0038071193,-0.0044179315,0.0112889661,-178.5820092764,-92.8080843981,0,2.4399638176,2019-07-25 11:50:23:935
0.2665380239,0.0210714024,9.8467674255,0.0003441644,-0.0006885953,0.009957061,-178.5792333165,-87.3544373812,0,2.4431977272,2019-07-25 11:50:23:938
0.3024592698,0.0545978993,9.8036623001,0.0035407382,-0.0033524067,0.009957061,-178.5717221779,-82.0143474306,0,2.4463016987,2019-07-25 11:50:23:941
0.1946955472,-0.0459815897,9.7605571747,0.0022088326,-0.0014877387,0.0091579171,-178.577125314,-83.9691189576,0,2.4499847889,2019-07-25 11:50:23:945
0.1515900493,0.0067029046,9.7892932892,0.0019424513,-0.0044179315,0.0102234416,-178.5870323757,-78.6908760309,0,2.4532380104,2019-07-25 11:50:23:948
0.1635638028,-0.0411920883,9.8156356812,7.77832973833762E-005,-0.0025532633,0.0094242988,-178.5957605267,-80.7122629536,0,2.4562923908,2019-07-25 11:50:23:951
0.2545642853,0.0162819028,9.7988729477,0.0019424513,-0.0057498371,0.0072932492,-178.5928946342,-75.5003229978,0,2.4599711895,2019-07-25 11:50:23:955
0.2210377902,-0.0124550927,9.8611364365,0.0024752137,-0.0065489805,0.0110225855,-178.5941560259,-77.5893224606,0,2.4632325172,2019-07-25 11:50:23:958
0.1946955472,-0.0292183403,9.851556778,-0.0001885979,-0.0052170748,0.0094242988,-178.5987336305,-79.6341050205,0,2.4662897587,2019-07-25 11:50:23:961
0.2617485225,0.0090976544,9.7366094589,-0.000454979,-0.0012213575,0.0112889661,-178.5957083303,-74.4423995804,0,2.4699714184,2019-07-25 11:50:23:965
0.2114587873,0.0258609019,9.8156356812,-0.0036515528,-0.0038851689,0.0115553478,-178.5983991617,-69.3559012186,0,2.4732365608,2019-07-25 11:50:23:968
0.2449852824,0.0330451503,9.8419780731,-0.0001885979,0.0011760727,0.0080923926,-178.5981124504,-64.3725987024,0,2.4762556553,2019-07-25 11:50:23:971
0.2593537867,0.0138871539,9.8683204651,0.0040735005,-0.0052170748,0.0123544906,-178.594961471,-59.4876020599,0,2.479940176,2019-07-25 11:50:23:975
0.2689327896,0.0162819028,9.8276100159,0.0027415948,-0.0046843126,0.0070268681,-178.5908542514,-54.7002505631,0,2.4832015038,2019-07-25 11:50:23:978
0.2761170268,-0.0220340919,9.8395833969,0.0014096891,-0.0041515501,0.0091579171,-178.5861684605,-57.203924162,0,2.4862928391,2019-07-25 11:50:23:981
0.2330115438,-0.0699290857,9.8443727493,7.77832973833762E-005,-0.0044179315,0.0080923926,-178.586403596,-59.6517221085,0,2.4900147915,2019-07-25 11:50:23:985
0.2090640366,0.0162819028,9.8132410049,-0.0001885979,-0.0033524067,0.0126208723,-178.5896664537,-54.8605551949,0,2.4932014942,2019-07-25 11:50:23:988
0.1851165444,-0.0459815897,9.8204250336,7.77832973833762E-005,-0.0038851689,0.009957061,-178.5956044636,-57.3579921025,0,2.4962751865,2019-07-25 11:50:23:991
0.2952750325,-0.0028760943,9.8180303574,-0.0028524094,-0.0049506937,0.0080923926,-178.5882136591,-59.8099054613,0,2.4999659061,2019-07-25 11:50:23:995
0.2162482888,0.0306504015,9.856347084,0.0024752137,-0.0060162182,0.0083587737,-178.5902180501,-55.0177208959,0,2.5032043457,2019-07-25 11:50:23:998
0.2761170268,-0.0172445923,9.8802938461,-0.0017868847,-0.0033524067,0.0059613436,-178.5858219691,-57.5150594235,0,2.5062644482,2019-07-25 11:50:24:001
0.2210377902,0.0306504015,9.8132410049,0.0003441644,-0.0044179315,0.0072932492,-178.5873757877,-52.7684092469,0,2.5099852085,2019-07-25 11:50:24:005
0.1923007965,0.0545978993,9.8300046921,-0.0001885979,-0.0025532633,0.0056949625,-178.5927471927,-48.11937117,0,2.513241291,2019-07-25 11:50:24:008
0.2569590509,0.0857296437,9.8180303574,-0.0015205036,-0.0052170748,0.0064941058,-178.5900153599,-43.5667293038,0,2.5162885189,2019-07-25 11:50:24:011
0.2234325409,0.0138871539,9.8802938461,0.0006105456,-0.0057498371,0.0083587737,-178.5911171494,-39.0971315623,0,2.5199701786,2019-07-25 11:50:24:015
0.2210377902,-0.0172445923,9.7940835953,0.0035407382,-0.0030860256,0.0059613436,-178.5928715253,-41.9138207833,0,2.52323699,2019-07-25 11:50:24:018
0.2018797994,0.0258609019,9.7557668686,-0.0009877413,-0.0012213575,0.0048958191,-178.597095733,-37.478413066,0,2.5262827873,2019-07-25 11:50:24:021
0.2258272916,-0.0076655936,9.74858284,-0.0007213602,-0.0062825993,0.0078260115,-178.5973219024,-40.327795465,0,2.5299434662,2019-07-25 11:50:24:025
0.230616793,0.0282556508,9.9138202667,-0.0033851716,-0.0025532633,0.0054285813,-178.5981747594,-35.9237776114,0,2.5337731838,2019-07-25 11:50:24:029
0.2880907953,0.0617821477,9.8731098175,0.0003441644,-0.0044179315,0.0051622002,-178.5921487859,-31.6125221276,0,2.5363326073,2019-07-25 11:50:24:031
0.2330115438,0.001913405,9.7725305557,-0.0020532659,-0.0028196444,0.0078260115,-178.5924066408,-27.3800724676,0,2.5400066376,2019-07-25 11:50:24:035
0.213853538,-0.019639343,9.7845039368,-0.0017868847,-0.0060162182,0.0040966757,-178.5944307989,-30.4298483497,0,2.5432219505,2019-07-25 11:50:24:038
0.2401957959,-0.0052708439,9.8204250336,0.0006105456,-0.0060162182,0.0062277247,-178.5934892183,-33.4207409564,0,2.5462734699,2019-07-25 11:50:24:041
0.2593537867,0.0282556508,9.8108463287,0.0011433079,-0.0025532633,0.0024983887,-178.5908038607,-29.1558636816,0,2.5499694347,2019-07-25 11:50:24:045
0.2258272916,0.001913405,9.9018468857,-0.0012541225,-0.0020205009,0.0035639134,-178.5924888407,-24.9727387703,0,2.5532224178,2019-07-25 11:50:24:048
0.3024592698,0.0617821477,9.7749252319,-0.0028524094,-0.0020205009,0.0014328642,-178.5848463005,-20.8800371242,0,2.5562787056,2019-07-25 11:50:24:051
0.2449852824,-0.0004813447,9.8898735046,-0.0007213602,-0.0004222141,0.0032975323,-178.584681307,-24.0622302215,0,2.5599915981,2019-07-25 11:50:24:055
0.2665380239,0.0258609019,9.7629518509,-0.0031187905,0.0006433105,0.0016992453,-178.5818280401,-19.9834528463,0,2.5632359982,2019-07-25 11:50:24:058
0.2210377902,0.0450189002,9.851556778,-0.0001885979,-0.0033524067,0.0009001019,-178.5839083709,-15.9889878279,0,2.5662996769,2019-07-25 11:50:24:061
0.2473800331,0.0090976544,9.8060569763,0.0008769267,-0.0049506937,-0.0009645661,-178.5823097522,-12.0704515708,0,2.5699627399,2019-07-25 11:50:24:065
0.2449852824,-0.0124550927,9.8371887207,-0.0031187905,-0.0036187878,0.0009001019,-178.5814731116,-15.4270241797,0,2.5732033253,2019-07-25 11:50:24:068
0.2497747838,0.0090976544,9.8036623001,-0.0017868847,-0.0025532633,0.0006337208,-178.5802200914,-11.5192429528,0,2.5762345791,2019-07-25 11:50:24:071
0.2186430395,0.0162819028,9.8587417603,0.0014096891,-0.0030860256,-0.0017637095,-178.5825628912,-7.6910444646,0,2.5799472332,2019-07-25 11:50:24:075
0.1970902979,-0.0531658381,9.8731098175,-0.0009877413,0.0003769293,-0.0017637095,-178.5881084017,-11.1308724844,0,2.5832016468,2019-07-25 11:50:24:078
0.2282220423,0.0162819028,9.7892932892,-0.0017868847,-0.0030860256,-0.0033619964,-178.5891053425,-7.3098537869,0,2.5862631798,2019-07-25 11:50:24:081
0.2689327896,-0.0004813447,9.8228206635,-0.0012541225,-0.0014877387,-0.0033619964,-178.5856479307,-10.7633393694,0,2.5899722576,2019-07-25 11:50:24:085
0.1755375415,0.0210714024,9.8300046921,-0.0025860282,-0.0012213575,-0.0022964719,-178.5932533186,-6.9500613331,0,2.5931925774,2019-07-25 11:50:24:088
0.2330115438,-0.0292183403,9.8467674255,-0.0007213602,-0.0017541198,-0.0036283775,-178.5939703789,-10.4075338917,0,2.5963020325,2019-07-25 11:50:24:091
0.2401957959,0.0114924042,9.7605571747,-0.0020532659,-0.0038851689,-0.0041611398,-178.5930936107,-6.6003078541,0,2.5999848843,2019-07-25 11:50:24:095
0.2617485225,0.0378346518,9.8180303574,7.77832973833762E-005,-0.0028196444,-0.0044275209,-178.5901702762,-2.8727318691,0,2.6032605171,2019-07-25 11:50:24:098
0.2617485225,0.0067029046,9.6887140274,-0.0015205036,-0.0006885953,-0.0062921888,-178.5872978488,0.7841921087,0,2.6063306332,2019-07-25 11:50:24:101
0.2473800331,-0.019639343,9.8252153397,-0.000454979,-0.0044179315,-0.0044275209,-178.5858027936,-2.8291081786,0,2.6099717617,2019-07-25 11:50:24:105
0.2497747838,-0.0004813447,9.7390041351,7.77832973833762E-005,-0.0041515501,-0.004693902,-178.583942919,-6.3724836394,0,2.6132369041,2019-07-25 11:50:24:108
0.2018797994,-0.0220340919,9.8467674255,-0.0015205036,-0.0038851689,-0.0041611398,-178.5881061157,-9.8422085187,0,2.6162967682,2019-07-25 11:50:24:111
0.2856960297,-0.0244288407,9.7509775162,0.0011433079,-0.0025532633,-0.0076240944,-178.5822522295,-13.2427294773,0,2.619972229,2019-07-25 11:50:24:115
0.2593537867,0.0426241495,9.8012676239,0.0006105456,-0.0033524067,-0.0089560006,-178.5796840566,-9.382968962,0,2.6232013702,2019-07-25 11:50:24:118
0.213853538,-0.0340078399,9.7701358795,-0.0025860282,-0.0036187878,-0.0070913322,-178.5824015565,-12.7908846601,0,2.6262056828,2019-07-25 11:50:24:121
0.2162482888,0.0282556508,9.8371887207,-0.0028524094,-0.000155833,-0.0084232384,-178.5855345441,-8.9377601883,0,2.6299407482,2019-07-25 11:50:24:125
0.2401957959,0.0785453916,9.7725305557,-0.0007213602,-0.0060162182,-0.0068249511,-178.5845781171,-5.1680846745,0,2.633156538,2019-07-25 11:50:24:128
0.2425905317,-0.0100603439,9.7413988113,0.0003441644,-0.0030860256,-0.0073577133,-178.5838137963,-8.6635999777,0,2.6362836361,2019-07-25 11:50:24:131
0.273722291,0.001913405,9.8683204651,-0.0025860282,-0.0030860256,-0.0086896195,-178.5797038188,-4.8899995738,0,2.6400754452,2019-07-25 11:50:24:135
0.2785117924,0.0067029046,9.7845039368,-0.000454979,-0.0025532633,-0.0118861925,-178.5750458324,-1.1929035682,0,2.6432471275,2019-07-25 11:50:24:138
0.2952750325,0.0067029046,9.7653465271,-0.0001885979,-0.0036187878,-0.0102879057,-178.5682514097,2.4302020855,0,2.6464705467,2019-07-25 11:50:24:141
0.2497747838,0.001913405,9.8228206635,-0.0001885979,-0.0049506937,-0.012951718,-178.566775015,5.9814121351,0,2.6499934196,2019-07-25 11:50:24:145
0.2976697683,-0.0316130891,9.8755044937,0.0016760702,-0.0038851689,-0.0100215251,-178.5602165655,2.2651532019,0,2.6531698704,2019-07-25 11:50:24:148
0.2928802967,0.0234661531,9.7988729477,0.0022088326,-0.0033524067,-0.0116198119,-178.5541852421,5.8167193576,0,2.6562867165,2019-07-25 11:50:24:151
0.2928802967,0.0378346518,9.8012676239,-0.000454979,0.0001105482,-0.0100215251,-178.548893121,9.2960583063,0,2.6600739956,2019-07-25 11:50:24:155
0.2354062945,-0.0292183403,9.8084516525,0.0014096891,-0.0014877387,-0.0105542874,-178.5501536271,5.5133000369,0,2.6632406712,2019-07-25 11:50:24:158
