ACCELEROMETER X (m/s²),ACCELEROMETER Y (m/s²),ACCELEROMETER Z (m/s²),GYROSCOPE X (rad/s),GYROSCOPE Y (rad/s),GYROSCOPE Z (rad/s),Time since start in ms ,YYYY-MO-DD HH-MI-SS_SSS
0.44421976804733276,-1.5236483812332153,-9.269296646118164,0.042620984575465135,0.0346295476268965,0.2523961321747295,0.0,2019-06-03 16:31:20:646
0.6209523677825928,-2.0729522705078125,-9.608431816101074,0.12093704128818367,0.03995717017868099,0.20271604381703506,0.009992122650146484,2019-06-03 16:31:20:656
0.9003809690475464,-2.4240293502807617,-10.910043716430664,0.016382440647108937,0.05966937674117551,0.2859601511300799,0.019995689392089844,2019-06-03 16:31:20:666
0.21255677938461304,-1.8341245651245117,-9.434087753295898,0.0157164870479129,0.03782612115796719,0.24573659826336375,0.029994964599609375,2019-06-03 16:31:20:676
0.8144029378890991,-1.303926706314087,-9.09256362915039,0.08111305413114185,0.05926980270912274,0.28063253065889,0.03999614715576172,2019-06-03 16:31:20:686
0.4728791117668152,-1.0603224039077759,-9.976226806640625,0.01971220448189992,-0.00785824352395645,-0.013985009978657266,0.6101999282836914,2019-06-03 16:31:21:256
0.5684102773666382,-1.1248058080673218,-9.9117431640625,0.014384581930115428,0.0050612419443439175,-0.009056959378330936,0.6200451850891113,2019-06-03 16:31:21:266
0.3582417666912079,-1.1534651517868042,-9.923685073852539,0.021044109599697394,-0.013052675772020655,-0.01531691613675204,0.6300086975097656,2019-06-03 16:31:21:276
0.5063149929046631,-1.1534651517868042,-9.887861251831055,0.020910920336274407,-0.013851819674936977,-0.018646679971543022,0.6399965286254883,2019-06-03 16:31:21:286
0.5875164866447449,-1.246608018875122,-10.009662628173828,0.02330834996442878,-0.006659528709879265,-0.017847536068626695,0.6500005722045898,2019-06-03 16:31:21:296
0.4800439476966858,-1.3230329751968384,-10.014439582824707,0.005460813375653429,-0.009989292544670247,-0.008657386906724124,0.660059928894043,2019-06-03 16:31:21:306
0.6066226959228516,-1.1439120769500732,-9.861589431762695,0.01518372479273445,-0.013052675772020655,-0.008257815475414612,0.6700372695922852,2019-06-03 16:31:21:316
0.7738022208213806,-1.1630183458328247,-9.992944717407227,0.023974302523327513,-0.005860385327111591,0.0,0.6800060272216797,2019-06-03 16:31:21:326
0.47765567898750305,-1.2800439596176147,-9.906967163085938,0.015450106440472325,-0.0009323340115808674,0.0034629549187342444,0.6899967193603516,2019-06-03 16:31:21:336
0.5158681273460388,-1.2083956003189087,-9.81860065460205,0.011454389006485306,-0.00985610224094996,0.010255674192408122,0.6999964714050293,2019-06-03 16:31:21:346
0.6161758303642273,-1.1940659284591675,-9.863978385925293,0.022775588749547628,-0.002663811535966571,0.013851819674936977,0.7100214958190918,2019-06-03 16:31:21:356
0.4251135587692261,-1.375575065612793,-9.902190208435059,0.020777728992256817,-0.009190149682051223,0.017048393206007675,0.719996452331543,2019-06-03 16:31:21:366
0.6543882489204407,-1.3469157218933105,-9.9117431640625,0.014118200282377553,-0.002663811535966571,0.01931263253044176,0.7299966812133789,2019-06-03 16:31:21:376
0.4346666634082794,-1.3588571548461914,-9.835318565368652,0.02610535154404131,-0.01132119870276502,0.016782011558269798,0.7400212287902832,2019-06-03 16:31:21:386
0.635282039642334,-1.4806593656539917,-9.890249252319336,0.024240683130768086,-0.013851819674936977,0.01611605899937106,0.750002384185791,2019-06-03 16:31:21:396
0.49915018677711487,-1.5140951871871948,-9.871142387390137,0.013452247723478816,-0.005727194503242653,0.01931263253044176,0.7599964141845703,2019-06-03 16:31:21:406
0.5063149929046631,-1.473494529724121,-9.718293190002441,0.016915202902287388,-0.0037293360463234696,0.009722911937229673,0.7699975967407227,2019-06-03 16:31:21:416
0.6328938007354736,-1.3803516626358032,-9.835318565368652,0.03236530934275971,-0.012253532909401631,0.013851819674936977,0.779998779296875,2019-06-03 16:31:21:426
0.6687179207801819,-1.5523077249526978,-9.961897850036621,0.02557259032916016,-0.005194432248064204,0.011054817055027146,0.7899951934814453,2019-06-03 16:31:21:436
0.5612454414367676,-1.5475311279296875,-9.887861251831055,0.013185867116038244,-0.0037293360463234696,0.011720770654223183,0.8000001907348633,2019-06-03 16:31:21:446
0.5660219788551331,-1.3970695734024048,-9.81143569946289,0.025306207641124987,-0.01731477381344825,0.008257815475414612,0.810023307800293,2019-06-03 16:31:21:456
0.599457859992981,-1.5738022327423096,-9.835318565368652,0.030234260322045917,-0.0013319057679832855,0.0025306209721719587,0.8199958801269531,2019-06-03 16:31:21:466
0.4609377384185791,-1.6597802639007568,-9.837706565856934,0.014251391626395141,-0.0017314774593671222,0.007458672092646939,0.8299927711486816,2019-06-03 16:31:21:476
0.58990478515625,-1.5260366201400757,-9.954732894897461,0.02690449544695763,-0.013452247723478816,-0.0002663811438438699,0.8399953842163086,2019-06-03 16:31:21:486
0.5063149929046631,-1.657391905784607,-9.82337760925293,0.028769163860230856,-0.005460813375653429,0.0,0.8499994277954102,2019-06-03 16:31:21:496
0.4251135587692261,-1.6430622339248657,-9.835318565368652,0.020378157040798657,-0.005460813375653429,-0.004262098301501919,0.8599929809570312,2019-06-03 16:31:21:506
0.5636336803436279,-1.554695963859558,-9.887861251831055,0.02357473057186935,-0.0062599567584211025,-0.014650962537556003,0.8699951171875,2019-06-03 16:31:21:516
0.42272526025772095,-1.6263443231582642,-9.82337760925293,0.03236530934275971,-0.009456530289491798,-0.00985610224094996,0.8799924850463867,2019-06-03 16:31:21:526
0.5684102773666382,-1.6358973979949951,-9.854424476623535,0.027304067398415795,-0.008391005779134899,-0.016249249303091347,0.8899970054626465,2019-06-03 16:31:21:536
0.5707985162734985,-1.5212600231170654,-9.82337760925293,0.030234260322045917,-0.00639314758229004,-0.011587579310205596,0.900029182434082,2019-06-03 16:31:21:546
0.5516923069953918,-1.638285756111145,-9.792329788208008,0.03422997775603293,-0.007192290965057714,-0.01971220448189992,0.9100284576416016,2019-06-03 16:31:21:556
0.5755751132965088,-1.6669450998306274,-9.916520118713379,0.026371734232076487,-0.009323339985771511,-0.01771434680520371,0.9199972152709961,2019-06-03 16:31:21:566
0.5755751132965088,-1.5905201435089111,-9.885472297668457,0.033564023116539596,-0.008923768034313348,-0.021443681551155554,0.9299955368041992,2019-06-03 16:31:21:576
0.4251135587692261,-1.57619047164917,-9.80904769897461,0.038092503846002365,-0.01518372479273445,-0.023707921915886936,0.9402127265930176,2019-06-03 16:31:21:586
0.5660219788551331,-1.6335091590881348,-9.861589431762695,0.03090021288094465,-0.00985610224094996,-0.023974302523327513,0.950047492980957,2019-06-03 16:31:21:596
0.5922930240631104,-1.528424859046936,-9.813823699951172,0.032498498606182695,-0.005594004199522367,-0.022242825454071878,0.9600296020507812,2019-06-03 16:31:21:606
0.5636336803436279,-1.5093187093734741,-9.820988655090332,0.03689379007222248,-0.004128907737707306,-0.015982868695650777,0.9700078964233398,2019-06-03 16:31:21:616
0.5469157695770264,-1.5570842027664185,-9.780387878417969,0.03502911957835465,-0.012386723213121918,-0.017048393206007675,0.980006217956543,2019-06-03 16:31:21:626
0.48482051491737366,-1.5785787105560303,-9.785164833068848,0.03782612115796719,-0.0034629549187342444,-0.0157164870479129,0.9900112152099609,2019-06-03 16:31:21:636
0.38212454319000244,-1.6693333387374878,-9.79710578918457,0.0398239829958526,-0.013585438027199106,-0.013185867116038244,1.0000405311584473,2019-06-03 16:31:21:646
0.6305055022239685,-1.554695963859558,-9.949955940246582,0.029301925075112006,-0.012653103820562494,-0.017048393206007675,1.0100488662719727,2019-06-03 16:31:21:656
0.5970696210861206,-1.5690256357192993,-9.820988655090332,0.03862526506088352,-0.00013319057192193496,-0.008524196603003837,1.0200071334838867,2019-06-03 16:31:21:666
0.5349743366241455,-1.5785787105560303,-9.789941787719727,0.0376929298139496,-0.004128907737707306,-0.009456530289491798,1.029996395111084,2019-06-03 16:31:21:676
0.6424468755722046,-1.4973772764205933,-9.828153610229492,0.03782612115796719,-0.0023974304083773466,-0.009989292544670247,1.0399932861328125,2019-06-03 16:31:21:686
0.5039267539978027,-1.5093187093734741,-9.949955940246582,0.04035674421073375,-0.00492805112047498,0.0006659528839916427,1.0500011444091797,2019-06-03 16:31:21:696
0.5564688444137573,-1.5499193668365479,-9.902190208435059,0.03889164774891869,-0.005727194503242653,-0.0023974304083773466,1.0599932670593262,2019-06-03 16:31:21:706
0.58990478515625,-1.5021538734436035,-9.861589431762695,0.04648350858483997,0.0009323340115808674,0.0005327622876877398,1.0699939727783203,2019-06-03 16:31:21:716
0.5039267539978027,-1.4973772764205933,-9.883084297180176,0.03449635836347351,-0.003596145482528857,0.004528479689165468,1.0800142288208008,2019-06-03 16:31:21:726
0.5349743366241455,-1.4806593656539917,-9.921297073364258,0.03396359506799776,-0.003596145482528857,0.0013319057679832855,1.090001106262207,2019-06-03 16:31:21:736
0.554080605506897,-1.45677649974823,-9.820988655090332,0.04568436468192364,-0.004794860816754693,0.0025306209721719587,1.1000003814697266,2019-06-03 16:31:21:746
0.5063149929046631,-1.4878242015838623,-9.80188274383545,0.041821840672548814,-0.004395288865296531,0.004661669992885756,1.1099939346313477,2019-06-03 16:31:21:756
0.5707985162734985,-1.5117069482803345,-9.890249252319336,0.03942440896379984,-0.007591862396367225,0.0021310491507509593,1.1200456619262695,2019-06-03 16:31:21:766
0.5325860977172852,-1.4233406782150269,-9.81143569946289,0.038092503846002365,-0.004128907737707306,0.005194432248064204,1.1300239562988281,2019-06-03 16:31:21:776
0.6066226959228516,-1.4711061716079712,-9.892637252807617,0.04515160346704249,-0.0013319057679832855,0.003995717173912694,1.1400156021118164,2019-06-03 16:31:21:786
0.5564688444137573,-1.4448351860046387,-9.94517993927002,0.03689379007222248,-0.0009323340115808674,0.0062599567584211025,1.1500015258789062,2019-06-03 16:31:21:796
0.5278095006942749,-1.4090110063552856,-9.828153610229492,0.042620984575465135,-0.005194432248064204,0.005194432248064204,1.1599979400634766,2019-06-03 16:31:21:806
0.5087032914161682,-1.4305055141448975,-9.825765609741211,0.044352459564126166,-0.004528479689165468,0.0013319057679832855,1.1700325012207031,2019-06-03 16:31:21:816
0.5134798288345337,-1.4543882608413696,-9.897414207458496,0.045417986155077666,-0.005594004199522367,0.0005327622876877398,1.180023193359375,2019-06-03 16:31:21:826
0.5230329632759094,-1.4066227674484253,-9.921297073364258,0.03902483909293628,-0.0033297643549396326,0.0013319057679832855,1.1900014877319336,2019-06-03 16:31:21:836
0.5206446647644043,-1.375575065612793,-9.878307342529297,0.04408608103728019,-0.0034629549187342444,-0.0017314774593671222,1.200000286102295,2019-06-03 16:31:21:846
0.5564688444137573,-1.3970695734024048,-9.854424476623535,0.04315374579034629,-0.004128907737707306,-0.003063383227350408,1.210014820098877,2019-06-03 16:31:21:856
0.5946813225746155,-1.3875164985656738,-9.80188274383545,0.03862526506088352,-0.002264239844582734,-0.0013319057679832855,1.220026969909668,2019-06-03 16:31:21:866
0.5397509336471558,-1.3636337518692017,-9.94040298461914,0.03889164774891869,-0.005993575630831878,-0.0034629549187342444,1.2300329208374023,2019-06-03 16:31:21:876
0.5254212617874146,-1.3636337518692017,-9.854424476623535,0.05021284541138642,-0.01132119870276502,-0.0037293360463234696,1.240025520324707,2019-06-03 16:31:21:886
0.625728964805603,-1.3278095722198486,-9.887861251831055,0.0387584564049011,0.0018646680231617348,-0.007458672092646939,1.2500085830688477,2019-06-03 16:31:21:896
0.5110915899276733,-1.3636337518692017,-9.861589431762695,0.043819698349245026,-0.0013319057679832855,-0.003063383227350408,1.2599973678588867,2019-06-03 16:31:21:906
0.5612454414367676,-1.3707985877990723,-9.969061851501465,0.03782612115796719,-0.0003995717238931275,-0.0005327622876877398,1.2699928283691406,2019-06-03 16:31:21:916
0.53019779920578,-1.3087033033370972,-10.050263404846191,0.04009036152269858,0.0005327622876877398,-0.005727194503242653,1.2800254821777344,2019-06-03 16:31:21:926
0.5206446647644043,-1.3779634237289429,-9.849648475646973,0.04302055444632869,0.00013319057192193496,-0.0002663811438438699,1.290027141571045,2019-06-03 16:31:21:936
0.5731868147850037,-1.3325860500335693,-9.837706565856934,0.037026977255050865,-0.0050612419443439175,-0.00159828689557251,1.3000154495239258,2019-06-03 16:31:21:946
0.5779633522033691,-1.3540805578231812,-9.856813430786133,0.043420124317192256,0.0011987152041886733,-0.0011987152041886733,1.3100204467773438,2019-06-03 16:31:21:956
0.5612454414367676,-1.366021990776062,-9.775611877441406,0.04035674421073375,-0.0027970020997611835,-0.0006659528839916427,1.3200016021728516,2019-06-03 16:31:21:966
0.5660219788551331,-1.428117275238037,-9.93801498413086,0.037160168599068455,-0.002264239844582734,-0.00013319057192193496,1.3300256729125977,2019-06-03 16:31:21:976
0.5731868147850037,-1.3731868267059326,-9.9117431640625,0.04102269676963249,-0.003063383227350408,0.001997858586956347,1.34000825881958,2019-06-03 16:31:21:986
0.5278095006942749,-1.3636337518692017,-9.921297073364258,0.03929121761978226,0.0002663811438438699,0.0034629549187342444,1.3500003814697266,2019-06-03 16:31:21:996
0.5445274710655212,-1.4400585889816284,-10.007274627685547,0.03782612115796719,-0.003995717173912694,0.004128907737707306,1.3599958419799805,2019-06-03 16:31:22:006
0.5469157695770264,-1.4615530967712402,-9.825765609741211,0.03889164774891869,-0.006526337886010328,0.0021310491507509593,1.3699955940246582,2019-06-03 16:31:22:016
0.5110915899276733,-1.3636337518692017,-9.899802207946777,0.03782612115796719,-0.00492805112047498,-0.00159828689557251,1.3799943923950195,2019-06-03 16:31:22:026
0.5660219788551331,-1.411399245262146,-9.83054256439209,0.040756314081597314,-0.006126766454700816,-0.004661669992885756,1.850203514099121,2019-06-03 16:31:22:496
0.5039267539978027,-1.366021990776062,-9.835318565368652,0.0387584564049011,-0.00159828689557251,-0.008257815475414612,1.8603792190551758,2019-06-03 16:31:22:506
0.5588571429252625,-1.3684102296829224,-9.983391761779785,0.04235460188742996,-0.006659528709879265,-0.001997858586956347,1.8702220916748047,2019-06-03 16:31:22:516
0.5803516507148743,-1.3946813344955444,-9.775611877441406,0.03995717017868099,-0.003063383227350408,-0.003995717173912694,1.8800163269042969,2019-06-03 16:31:22:526
0.6090109944343567,-1.3684102296829224,-9.820988655090332,0.03915802627576466,-0.00785824352395645,0.00319657379114502,1.890000343322754,2019-06-03 16:31:22:536
0.554080605506897,-1.3707985877990723,-9.847260475158691,0.04142226664049605,-0.005727194503242653,-0.0023974304083773466,1.9000005722045898,2019-06-03 16:31:22:546
0.5707985162734985,-1.413787603378296,-9.890249252319336,0.03995717017868099,-0.0002663811438438699,-0.0006659528839916427,1.9101438522338867,2019-06-03 16:31:22:556
0.5660219788551331,-1.411399245262146,-9.942790985107422,0.03795931250198478,-0.004395288865296531,-0.003995717173912694,1.9200630187988281,2019-06-03 16:31:22:566
0.5349743366241455,-1.401846170425415,-9.883084297180176,0.03902483909293628,-0.0062599567584211025,-0.00319657379114502,1.9300150871276855,2019-06-03 16:31:22:576
0.5660219788551331,-1.4520000219345093,-9.880696296691895,0.03929121761978226,-0.00492805112047498,-0.004794860816754693,1.9400062561035156,2019-06-03 16:31:22:586
0.4800439476966858,-1.4161758422851562,-9.91890811920166,0.04048993555475134,-0.010921626751306857,-0.00319657379114502,1.9500236511230469,2019-06-03 16:31:22:596
0.4609377384185791,-1.3994579315185547,-9.792329788208008,0.037026977255050865,-0.004794860816754693,-0.0023974304083773466,1.9600019454956055,2019-06-03 16:31:22:606
0.5493040084838867,-1.3134799003601074,-9.847260475158691,0.03742655128710363,-0.002264239844582734,-0.004661669992885756,1.9700746536254883,2019-06-03 16:31:22:616
0.5254212617874146,-1.392293095588684,-9.789941787719727,0.03942440896379984,-0.0033297643549396326,-0.00639314758229004,1.9800796508789062,2019-06-03 16:31:22:626
0.5445274710655212,-1.4424468278884888,-9.82337760925293,0.03955760030781742,-0.005460813375653429,-0.005194432248064204,1.990025520324707,2019-06-03 16:31:22:636
0.5469157695770264,-1.3827399015426636,-9.883084297180176,0.03183254604728396,-0.0037293360463234696,-0.006925909837468489,2.000006675720215,2019-06-03 16:31:22:646
0.5397509336471558,-1.401846170425415,-9.868754386901855,0.04461884225216134,-0.008257815475414612,-0.005327623071933142,2.0100011825561523,2019-06-03 16:31:22:656
0.5564688444137573,-1.4185640811920166,-9.859201431274414,0.038225695190019955,-0.0006659528839916427,-0.005460813375653429,2.0200510025024414,2019-06-03 16:31:22:666
0.47765567898750305,-1.3970695734024048,-9.81143569946289,0.037026977255050865,-0.007458672092646939,-0.005727194503242653,2.0301380157470703,2019-06-03 16:31:22:676
0.5206446647644043,-1.3779634237289429,-9.906967163085938,0.040756314081597314,-0.005327623071933142,-0.00013319057192193496,2.040040969848633,2019-06-03 16:31:22:686
0.5254212617874146,-1.4161758422851562,-9.878307342529297,0.044352459564126166,-0.009056959378330936,-0.007991434347825389,2.050027370452881,2019-06-03 16:31:22:696
0.5063149929046631,-1.3899047374725342,-9.873531341552734,0.03209892873531914,-0.009190149682051223,-0.0033297643549396326,2.060000419616699,2019-06-03 16:31:22:706
0.5755751132965088,-1.3182563781738281,-9.82337760925293,0.04288736310231111,-0.006526337886010328,-0.0025306209721719587,2.070006847381592,2019-06-03 16:31:22:716
0.49198535084724426,-1.3540805578231812,-9.868754386901855,0.04235460188742996,-0.00013319057192193496,-0.0038625266101180813,2.0800766944885254,2019-06-03 16:31:22:726
0.5612454414367676,-1.4520000219345093,-9.942790985107422,0.03569507213725339,-0.003596145482528857,-0.007458672092646939,2.090036392211914,2019-06-03 16:31:22:736
0.5588571429252625,-1.3827399015426636,-9.849648475646973,0.04115588811365008,-0.004262098301501919,-0.004262098301501919,2.100008010864258,2019-06-03 16:31:22:746
0.5469157695770264,-1.375575065612793,-9.703963279724121,0.04501841212302491,-0.003063383227350408,0.0013319057679832855,2.109994888305664,2019-06-03 16:31:22:756
0.5087032914161682,-1.473494529724121,-9.875919342041016,0.03929121761978226,-0.008257815475414612,-0.00785824352395645,2.119995594024658,2019-06-03 16:31:22:766
0.5516923069953918,-1.3994579315185547,-9.935626029968262,0.031166593488385227,-0.003596145482528857,-0.0027970020997611835,2.129995346069336,2019-06-03 16:31:22:776
0.554080605506897,-1.3325860500335693,-9.844871520996094,0.0398239829958526,-0.0006659528839916427,-0.0002663811438438699,2.139998435974121,2019-06-03 16:31:22:786
0.5493040084838867,-1.5069303512573242,-9.880696296691895,0.03929121761978226,-0.003995717173912694,0.0,2.1500301361083984,2019-06-03 16:31:22:796
0.5421391725540161,-1.437670350074768,-9.885472297668457,0.03422997775603293,-0.005460813375653429,-0.004262098301501919,2.160000801086426,2019-06-03 16:31:22:806
0.5254212617874146,-1.2919853925704956,-9.832930564880371,0.040756314081597314,0.0010655245753754797,-0.004661669992885756,2.169996738433838,2019-06-03 16:31:22:816
0.5110915899276733,-1.3803516626358032,-9.820988655090332,0.04568436468192364,-0.004128907737707306,0.0005327622876877398,2.180008888244629,2019-06-03 16:31:22:826
0.5254212617874146,-1.494989037513733,-9.904579162597656,0.031965737391301555,-0.0050612419443439175,-0.00013319057192193496,2.1899962425231934,2019-06-03 16:31:22:836
0.5015384554862976,-1.356468915939331,-9.842483520507812,0.0398239829958526,-0.00319657379114502,-0.006526337886010328,2.2000012397766113,2019-06-03 16:31:22:846
0.5349743366241455,-1.3946813344955444,-9.825765609741211,0.04248779323144755,-0.0062599567584211025,-0.001997858586956347,2.2100229263305664,2019-06-03 16:31:22:856
0.5134798288345337,-1.5236483812332153,-9.92607307434082,0.03489593031493167,-0.003063383227350408,-0.008257815475414612,2.2200307846069336,2019-06-03 16:31:22:866
0.5373626351356506,-1.4066227674484253,-9.842483520507812,0.03329764250909902,-0.005194432248064204,-0.010388864496128409,2.2300100326538086,2019-06-03 16:31:22:876
0.5755751132965088,-1.3254212141036987,-9.794717788696289,0.04102269676963249,-0.004128907737707306,-0.005860385327111591,2.2399935722351074,2019-06-03 16:31:22:886
0.5827399492263794,-1.4878242015838623,-9.82337760925293,0.0398239829958526,-0.005594004199522367,-0.0037293360463234696,2.250025749206543,2019-06-03 16:31:22:896
0.5660219788551331,-1.4663296937942505,-9.890249252319336,0.03409678641201535,-0.004128907737707306,-0.004528479689165468,2.2600064277648926,2019-06-03 16:31:22:906
0.5755751132965088,-1.3612453937530518,-9.861589431762695,0.038092503846002365,-0.005993575630831878,0.00013319057192193496,2.270015239715576,2019-06-03 16:31:22:916
0.5349743366241455,-1.4090110063552856,-9.890249252319336,0.04661669992885756,-0.006126766454700816,-0.008391005779134899,2.2800064086914062,2019-06-03 16:31:22:926
0.5516923069953918,-1.4663296937942505,-9.849648475646973,0.03289807055764086,-0.002663811535966571,-0.005594004199522367,2.2899951934814453,2019-06-03 16:31:22:936
0.5325860977172852,-1.3827399015426636,-9.799494743347168,0.03449635836347351,-0.003596145482528857,-0.011454389006485306,2.3000001907348633,2019-06-03 16:31:22:946
0.4872087836265564,-1.4185640811920166,-9.880696296691895,0.04501841212302491,-0.007325481268778002,-0.00013319057192193496,2.3099937438964844,2019-06-03 16:31:22:956
0.5851281881332397,-1.4687179327011108,-9.880696296691895,0.03862526506088352,-0.000799143447786255,-0.0021310491507509593,2.3199973106384277,2019-06-03 16:31:22:966
0.5946813225746155,-1.4233406782150269,-9.844871520996094,0.03782612115796719,-0.005727194503242653,-0.00159828689557251,2.3299951553344727,2019-06-03 16:31:22:976
0.518256425857544,-1.4328937530517578,-9.82337760925293,0.04115588811365008,-0.00319657379114502,-0.0011987152041886733,2.339994430541992,2019-06-03 16:31:22:986
0.5660219788551331,-1.4448351860046387,-9.921297073364258,0.03649421604016972,-0.004528479689165468,-0.00319657379114502,2.3500003814697266,2019-06-03 16:31:22:996
0.5087032914161682,-1.3875164985656738,-9.68724536895752,0.0387584564049011,-0.006925909837468489,-0.003596145482528857,2.3600168228149414,2019-06-03 16:31:23:006
0.5110915899276733,-1.3946813344955444,-9.840095520019531,0.03676059872820489,-0.006792719013599553,-0.001997858586956347,2.6300830841064453,2019-06-03 16:31:23:276
0.53019779920578,-1.437670350074768,-9.854424476623535,0.03862526506088352,-0.0038625266101180813,-0.001997858586956347,2.6400303840637207,2019-06-03 16:31:23:286
0.5588571429252625,-1.3946813344955444,-9.923685073852539,0.03969079165183501,-0.0010655245753754797,-0.0050612419443439175,2.6500062942504883,2019-06-03 16:31:23:296
0.5254212617874146,-1.3899047374725342,-9.954732894897461,0.037293359943086045,-0.004794860816754693,-0.0014650963317778978,2.6599960327148438,2019-06-03 16:31:23:306
0.53019779920578,-1.401846170425415,-9.832930564880371,0.0376929298139496,-0.004395288865296531,-0.005194432248064204,2.6700210571289062,2019-06-03 16:31:23:316
0.5445274710655212,-1.4257289171218872,-9.9308500289917,0.04288736310231111,-0.008257815475414612,-0.008524196603003837,2.680039405822754,2019-06-03 16:31:23:326
0.5421391725540161,-1.3707985877990723,-9.852036476135254,0.041555457984513634,-0.0017314774593671222,-0.0062599567584211025,2.6900076866149902,2019-06-03 16:31:23:336
0.5564688444137573,-1.3827399015426636,-9.852036476135254,0.038092503846002365,-0.0027970020997611835,-0.006126766454700816,2.700000762939453,2019-06-03 16:31:23:346
0.5612454414367676,-1.4352819919586182,-9.878307342529297,0.03942440896379984,-0.005860385327111591,-0.005194432248064204,2.709994316101074,2019-06-03 16:31:23:356
0.5946813225746155,-1.4209524393081665,-9.859201431274414,0.03596145482528857,-0.005594004199522367,-0.008790577730593063,2.719998359680176,2019-06-03 16:31:23:366
0.518256425857544,-1.3994579315185547,-9.82337760925293,0.03889164774891869,-0.007591862396367225,-0.0003995717238931275,2.7299957275390625,2019-06-03 16:31:23:376
0.554080605506897,-1.4328937530517578,-9.887861251831055,0.040623122737579724,-0.005727194503242653,-0.003995717173912694,2.7399964332580566,2019-06-03 16:31:23:386
0.5445274710655212,-1.4233406782150269,-9.852036476135254,0.03995717017868099,-0.0013319057679832855,-0.007059100141188776,2.7500100135803223,2019-06-03 16:31:23:396
0.4681025743484497,-1.3731868267059326,-9.828153610229492,0.03969079165183501,-0.009456530289491798,0.0011987152041886733,2.759995460510254,2019-06-03 16:31:23:406
0.48482051491737366,-1.4328937530517578,-9.799494743347168,0.04302055444632869,-0.006126766454700816,-0.0038625266101180813,2.7700185775756836,2019-06-03 16:31:23:416
0.5278095006942749,-1.437670350074768,-9.794717788696289,0.03596145482528857,-0.004528479689165468,-0.0025306209721719587,2.7799997329711914,2019-06-03 16:31:23:426
0.518256425857544,-1.4185640811920166,-9.840095520019531,0.03609464616930616,0.0018646680231617348,-0.0038625266101180813,2.7899956703186035,2019-06-03 16:31:23:436
0.5254212617874146,-1.4257289171218872,-9.9117431640625,0.04368650700522743,-0.004661669992885756,-0.0037293360463234696,2.8000011444091797,2019-06-03 16:31:23:446
0.5349743366241455,-1.3875164985656738,-9.82337760925293,0.03995717017868099,-0.0010655245753754797,-0.0023974304083773466,2.810014247894287,2019-06-03 16:31:23:456
0.5110915899276733,-1.4209524393081665,-9.868754386901855,0.03849207371686592,-0.0025306209721719587,0.00159828689557251,2.8199996948242188,2019-06-03 16:31:23:466
0.5373626351356506,-1.4424468278884888,-9.875919342041016,0.0376929298139496,-0.005460813375653429,-0.0033297643549396326,2.8299965858459473,2019-06-03 16:31:23:476
0.5493040084838867,-1.4090110063552856,-9.904579162597656,0.03889164774891869,-0.004262098301501919,-0.0050612419443439175,2.8399930000305176,2019-06-03 16:31:23:486
0.5373626351356506,-1.4305055141448975,-9.93323802947998,0.03995717017868099,-0.006792719013599553,-0.0010655245753754797,2.8499975204467773,2019-06-03 16:31:23:496
0.5636336803436279,-1.4066227674484253,-9.840095520019531,0.040623122737579724,-0.004661669992885756,-0.0037293360463234696,2.8600215911865234,2019-06-03 16:31:23:506
0.5469157695770264,-1.4209524393081665,-9.813823699951172,0.04035674421073375,-0.003596145482528857,-0.0018646680231617348,2.8700366020202637,2019-06-03 16:31:23:516
0.5015384554862976,-1.4591648578643799,-9.866366386413574,0.03795931250198478,-0.002663811535966571,-0.0006659528839916427,2.8800058364868164,2019-06-03 16:31:23:526
0.5230329632759094,-1.4400585889816284,-9.844871520996094,0.03582826348127098,-0.007059100141188776,-0.003995717173912694,2.8899974822998047,2019-06-03 16:31:23:536
0.5564688444137573,-1.4066227674484253,-9.82337760925293,0.0387584564049011,-0.004395288865296531,-0.010788436447586572,2.900002956390381,2019-06-03 16:31:23:546
0.5325860977172852,-1.4663296937942505,-9.92607307434082,0.043420124317192256,-0.005860385327111591,-0.0021310491507509593,2.9099960327148438,2019-06-03 16:31:23:556
0.5397509336471558,-1.4066227674484253,-9.835318565368652,0.03782612115796719,-0.002663811535966571,-0.004395288865296531,2.920022964477539,2019-06-03 16:31:23:566
0.5110915899276733,-1.3779634237289429,-9.82337760925293,0.038225695190019955,-0.004528479689165468,-0.0006659528839916427,2.930001735687256,2019-06-03 16:31:23:576
0.49198535084724426,-1.3827399015426636,-9.859201431274414,0.043553315661209846,-0.006526337886010328,-0.004794860816754693,2.939995765686035,2019-06-03 16:31:23:586
0.5015384554862976,-1.45677649974823,-9.904579162597656,0.03622783751332374,-0.007325481268778002,-0.004794860816754693,2.950000762939453,2019-06-03 16:31:23:596
0.5684102773666382,-1.401846170425415,-9.916520118713379,0.03902483909293628,-0.0013319057679832855,-0.006126766454700816,2.9599952697753906,2019-06-03 16:31:23:606
0.5349743366241455,-1.366021990776062,-9.842483520507812,0.04288736310231111,-0.010655246143866284,-0.00492805112047498,2.970025062561035,2019-06-03 16:31:23:616
0.5516923069953918,-1.4424468278884888,-9.81621265411377,0.03995717017868099,-0.005460813375653429,-0.0027970020997611835,2.980006217956543,2019-06-03 16:31:23:626
0.5612454414367676,-1.356468915939331,-9.866366386413574,0.04048993555475134,-0.003596145482528857,-0.003995717173912694,2.9899954795837402,2019-06-03 16:31:23:636
0.5827399492263794,-1.375575065612793,-9.863978385925293,0.042620984575465135,-0.007991434347825389,0.0005327622876877398,3.0000009536743164,2019-06-03 16:31:23:646
0.6090109944343567,-1.4257289171218872,-9.883084297180176,0.041821840672548814,0.001997858586956347,0.0029301926635557957,3.0099964141845703,2019-06-03 16:31:23:656
0.5970696210861206,-1.3684102296829224,-9.890249252319336,0.037160168599068455,-0.000799143447786255,0.0009323340115808674,3.0199928283691406,2019-06-03 16:31:23:666
0.5206446647644043,-1.330197811126709,-9.847260475158691,0.03742655128710363,-0.004128907737707306,-0.0017314774593671222,3.4501914978027344,2019-06-03 16:31:24:096
0.5134798288345337,-1.411399245262146,-9.935626029968262,0.042620984575465135,-0.005860385327111591,-0.008257815475414612,3.4600448608398438,2019-06-03 16:31:24:106
0.5684102773666382,-1.4233406782150269,-9.93323802947998,0.03436316701945592,-0.0025306209721719587,-0.0010655245753754797,3.4700093269348145,2019-06-03 16:31:24:116
0.5134798288345337,-1.3851282596588135,-9.828153610229492,0.0387584564049011,-0.003995717173912694,-0.008657386906724124,3.4799976348876953,2019-06-03 16:31:24:126
0.5230329632759094,-1.4185640811920166,-9.91890811920166,0.04035674421073375,-0.004661669992885756,-0.0029301926635557957,3.4899959564208984,2019-06-03 16:31:24:136
0.5469157695770264,-1.45677649974823,-9.887861251831055,0.04302055444632869,-0.003596145482528857,0.0025306209721719587,3.5000247955322266,2019-06-03 16:31:24:146
0.518256425857544,-1.3970695734024048,-9.81143569946289,0.032631689950200285,-0.004262098301501919,-0.004661669992885756,3.510039806365967,2019-06-03 16:31:24:156
0.5493040084838867,-1.3230329751968384,-9.81143569946289,0.046350317240822385,-0.004395288865296531,-0.0034629549187342444,3.5200095176696777,2019-06-03 16:31:24:166
0.5278095006942749,-1.447223424911499,-9.892637252807617,0.03955760030781742,-0.00319657379114502,-0.0033297643549396326,3.529996871948242,2019-06-03 16:31:24:176
0.5469157695770264,-1.4328937530517578,-9.854424476623535,0.03476273897091409,-0.0002663811438438699,0.00159828689557251,3.5399951934814453,2019-06-03 16:31:24:186
0.5875164866447449,-1.3421392440795898,-9.835318565368652,0.03995717017868099,-0.001997858586956347,0.003995717173912694,3.550046920776367,2019-06-03 16:31:24:196
0.5230329632759094,-1.4042344093322754,-9.868754386901855,0.041821840672548814,-0.005860385327111591,0.0014650963317778978,3.56003999710083,2019-06-03 16:31:24:206
0.5803516507148743,-1.4257289171218872,-9.961897850036621,0.03676059872820489,-0.00013319057192193496,-0.0011987152041886733,3.570021152496338,2019-06-03 16:31:24:216
0.5230329632759094,-1.3469157218933105,-9.883084297180176,0.041555457984513634,0.0006659528839916427,-0.0033297643549396326,3.580007553100586,2019-06-03 16:31:24:226
0.5445274710655212,-1.3779634237289429,-9.80427074432373,0.040623122737579724,-0.006526337886010328,-0.005460813375653429,3.589993476867676,2019-06-03 16:31:24:236
0.5015384554862976,-1.4424468278884888,-9.887861251831055,0.038358886534037545,-0.006126766454700816,0.000799143447786255,3.6000003814697266,2019-06-03 16:31:24:246
0.5349743366241455,-1.3612453937530518,-9.80188274383545,0.03782612115796719,-0.00639314758229004,-0.005727194503242653,3.6100220680236816,2019-06-03 16:31:24:256
0.5206446647644043,-1.392293095588684,-9.859201431274414,0.044352459564126166,-0.006925909837468489,-0.002663811535966571,3.619997024536133,2019-06-03 16:31:24:266
0.5325860977172852,-1.4400585889816284,-9.878307342529297,0.037293359943086045,-0.005460813375653429,-0.0023974304083773466,3.6299967765808105,2019-06-03 16:31:24:276
0.5469157695770264,-1.401846170425415,-9.861589431762695,0.0387584564049011,-0.004661669992885756,-0.0038625266101180813,3.640017509460449,2019-06-03 16:31:24:286
0.554080605506897,-1.356468915939331,-9.863978385925293,0.043420124317192256,-0.00785824352395645,-0.010788436447586572,3.65000057220459,2019-06-03 16:31:24:296
0.5039267539978027,-1.428117275238037,-9.835318565368652,0.037026977255050865,-0.003063383227350408,-0.008657386906724124,3.65999698638916,2019-06-03 16:31:24:306
0.5445274710655212,-1.3970695734024048,-9.871142387390137,0.04022355286671616,-0.007059100141188776,-0.0037293360463234696,3.6699962615966797,2019-06-03 16:31:24:316
0.5349743366241455,-1.3803516626358032,-9.873531341552734,0.038358886534037545,-0.0011987152041886733,-0.00159828689557251,3.6800150871276855,2019-06-03 16:31:24:326
0.5564688444137573,-1.437670350074768,-9.863978385925293,0.04009036152269858,-0.0006659528839916427,-0.002663811535966571,3.6900014877319336,2019-06-03 16:31:24:336
0.5421391725540161,-1.4066227674484253,-9.856813430786133,0.03849207371686592,-0.0038625266101180813,-0.0027970020997611835,3.7000012397766113,2019-06-03 16:31:24:346
0.5493040084838867,-1.3827399015426636,-9.81860065460205,0.038358886534037545,-0.005727194503242653,-0.003063383227350408,3.7100229263305664,2019-06-03 16:31:24:356
0.5134798288345337,-1.401846170425415,-9.885472297668457,0.0408895054256149,-0.003063383227350408,-0.0029301926635557957,3.7199959754943848,2019-06-03 16:31:24:366
0.518256425857544,-1.401846170425415,-9.847260475158691,0.03902483909293628,-0.004395288865296531,-0.0037293360463234696,3.730022430419922,2019-06-03 16:31:24:376
0.5588571429252625,-1.4209524393081665,-9.871142387390137,0.04009036152269858,-0.0027970020997611835,-0.008790577730593063,3.740015983581543,2019-06-03 16:31:24:386
0.5397509336471558,-1.4328937530517578,-9.878307342529297,0.040623122737579724,-0.0037293360463234696,-0.006925909837468489,3.7500076293945312,2019-06-03 16:31:24:396
0.5516923069953918,-1.4233406782150269,-9.849648475646973,0.03689379007222248,-0.006659528709879265,-0.002663811535966571,3.759993553161621,2019-06-03 16:31:24:406
0.5946813225746155,-1.3803516626358032,-9.849648475646973,0.03609464616930616,-0.004395288865296531,-0.00319657379114502,3.769996166229248,2019-06-03 16:31:24:416
0.5779633522033691,-1.3875164985656738,-9.892637252807617,0.03795931250198478,-0.004395288865296531,-0.003596145482528857,3.780048370361328,2019-06-03 16:31:24:426
0.5755751132965088,-1.3875164985656738,-9.80904769897461,0.03609464616930616,-0.007725053220236163,-0.0023974304083773466,3.790029525756836,2019-06-03 16:31:24:436
0.5755751132965088,-1.4328937530517578,-9.825765609741211,0.03529550226638983,-0.009190149682051223,0.00013319057192193496,3.800009250640869,2019-06-03 16:31:24:446
0.5373626351356506,-1.4161758422851562,-9.885472297668457,0.03955760030781742,-0.005327623071933142,0.0009323340115808674,3.81002140045166,2019-06-03 16:31:24:456
0.5827399492263794,-1.3779634237289429,-9.844871520996094,0.032498498606182695,-0.003596145482528857,-0.002663811535966571,3.8199996948242188,2019-06-03 16:31:24:466
0.5469157695770264,-1.3731868267059326,-9.861589431762695,0.04102269676963249,-0.004395288865296531,0.0034629549187342444,3.829993724822998,2019-06-03 16:31:24:476
0.554080605506897,-1.392293095588684,-9.885472297668457,0.041555457984513634,-0.008391005779134899,-0.005327623071933142,3.8400301933288574,2019-06-03 16:31:24:486
0.5755751132965088,-1.4209524393081665,-9.852036476135254,0.03662740738418731,-0.0013319057679832855,0.0027970020997611835,3.850039482116699,2019-06-03 16:31:24:496
0.5731868147850037,-1.392293095588684,-9.842483520507812,0.037160168599068455,-0.00492805112047498,-0.0014650963317778978,3.860030174255371,2019-06-03 16:31:24:506
0.5779633522033691,-1.4209524393081665,-9.820988655090332,0.04528479481106008,-0.006126766454700816,-0.0014650963317778978,3.870001792907715,2019-06-03 16:31:24:516
0.5039267539978027,-1.4233406782150269,-9.849648475646973,0.03742655128710363,-0.0037293360463234696,-0.0025306209721719587,3.8799943923950195,2019-06-03 16:31:24:526
0.5206446647644043,-1.366021990776062,-9.844871520996094,0.043819698349245026,-0.007059100141188776,-0.0029301926635557957,3.8899941444396973,2019-06-03 16:31:24:536
0.5063149929046631,-1.4042344093322754,-9.852036476135254,0.0419550320165664,-0.004661669992885756,-0.0014650963317778978,3.900031089782715,2019-06-03 16:31:24:546
0.5206446647644043,-1.4066227674484253,-9.897414207458496,0.03995717017868099,-0.0033297643549396326,-0.0025306209721719587,3.9100470542907715,2019-06-03 16:31:24:556
0.4895970821380615,-1.4161758422851562,-9.866366386413574,0.04115588811365008,-0.007325481268778002,-0.008257815475414612,3.920010566711426,2019-06-03 16:31:24:566
0.5087032914161682,-1.4233406782150269,-9.825765609741211,0.03889164774891869,0.0006659528839916427,-0.005460813375653429,3.9299964904785156,2019-06-03 16:31:24:576
0.5469157695770264,-1.4520000219345093,-9.871142387390137,0.0376929298139496,-0.004262098301501919,-0.004128907737707306,3.9399971961975098,2019-06-03 16:31:24:586
0.4609377384185791,-1.45677649974823,-9.892637252807617,0.03969079165183501,-0.0017314774593671222,-0.00639314758229004,3.950007438659668,2019-06-03 16:31:24:596
0.5134798288345337,-1.4257289171218872,-9.866366386413574,0.041555457984513634,-0.004128907737707306,-0.008923768034313348,3.960015296936035,2019-06-03 16:31:24:606
0.5039267539978027,-1.45677649974823,-9.890249252319336,0.0398239829958526,-0.0014650963317778978,-0.009056959378330936,3.9700021743774414,2019-06-03 16:31:24:616
0.4895970821380615,-1.492600679397583,-9.902190208435059,0.03849207371686592,-0.005194432248064204,-0.007991434347825389,3.9799952507019043,2019-06-03 16:31:24:626
0.5516923069953918,-1.4854358434677124,-9.837706565856934,0.043420124317192256,-0.0025306209721719587,-0.009589721633509386,3.989997386932373,2019-06-03 16:31:24:636
0.5731868147850037,-1.5117069482803345,-9.868754386901855,0.03556188079323581,-0.0011987152041886733,-0.010921626751306857,4.000001430511475,2019-06-03 16:31:24:646
0.554080605506897,-1.4639413356781006,-9.792329788208008,0.04222141054341237,-0.0003995717238931275,-0.008524196603003837,4.010020732879639,2019-06-03 16:31:24:656
0.5278095006942749,-1.4448351860046387,-9.794717788696289,0.0408895054256149,-0.005860385327111591,-0.007458672092646939,4.020026206970215,2019-06-03 16:31:24:666
0.53019779920578,-1.413787603378296,-9.892637252807617,0.04022355286671616,-0.0038625266101180813,-0.002264239844582734,4.03002405166626,2019-06-03 16:31:24:676
0.5851281881332397,-1.428117275238037,-9.897414207458496,0.03636102469615213,-0.007059100141188776,-0.000799143447786255,4.040311336517334,2019-06-03 16:31:24:686
0.6185641288757324,-1.3970695734024048,-9.880696296691895,0.0482149877346902,-0.0023974304083773466,0.0005327622876877398,4.050075054168701,2019-06-03 16:31:24:696
0.5731868147850037,-1.4758827686309814,-9.897414207458496,0.04288736310231111,-0.0050612419443439175,0.0014650963317778978,4.060009002685547,2019-06-03 16:31:24:706
0.6090109944343567,-1.3875164985656738,-9.842483520507812,0.04035674421073375,-0.002663811535966571,0.0027970020997611835,4.070060729980469,2019-06-03 16:31:24:716
0.5875164866447449,-1.3875164985656738,-9.859201431274414,0.043420124317192256,-0.0062599567584211025,0.001997858586956347,4.080069065093994,2019-06-03 16:31:24:726
0.5875164866447449,-1.4305055141448975,-9.782776832580566,0.04302055444632869,-0.006126766454700816,-0.0011987152041886733,4.090025901794434,2019-06-03 16:31:24:736
0.5946813225746155,-1.3970695734024048,-9.899802207946777,0.04035674421073375,0.0017314774593671222,0.002663811535966571,4.100008010864258,2019-06-03 16:31:24:746
0.5445274710655212,-1.356468915939331,-9.842483520507812,0.043819698349245026,-0.005993575630831878,0.0009323340115808674,4.110021591186523,2019-06-03 16:31:24:756
0.49915018677711487,-1.3827399015426636,-9.780387878417969,0.04568436468192364,-0.007458672092646939,0.0027970020997611835,4.120061874389648,2019-06-03 16:31:24:766
0.5373626351356506,-1.4328937530517578,-9.844871520996094,0.04315374579034629,-0.005460813375653429,0.0018646680231617348,4.130064010620117,2019-06-03 16:31:24:776
0.49198535084724426,-1.3827399015426636,-9.904579162597656,0.04461884225216134,-0.0025306209721719587,-0.00013319057192193496,4.1400251388549805,2019-06-03 16:31:24:786
0.5039267539978027,-1.428117275238037,-9.866366386413574,0.037160168599068455,-0.0018646680231617348,-0.0018646680231617348,4.150008201599121,2019-06-03 16:31:24:796
0.5134798288345337,-1.3731868267059326,-9.890249252319336,0.04115588811365008,-0.003596145482528857,0.0011987152041886733,4.160001754760742,2019-06-03 16:31:24:806
0.4872087836265564,-1.4209524393081665,-9.863978385925293,0.041555457984513634,-0.003063383227350408,-0.0038625266101180813,4.17000150680542,2019-06-03 16:31:24:816
0.5134798288345337,-1.428117275238037,-9.895025253295898,0.03862526506088352,-0.000799143447786255,-0.004128907737707306,4.179997444152832,2019-06-03 16:31:24:826
0.518256425857544,-1.4066227674484253,-9.866366386413574,0.03889164774891869,-0.0033297643549396326,-0.008923768034313348,4.1900224685668945,2019-06-03 16:31:24:836
0.4681025743484497,-1.3779634237289429,-9.9117431640625,0.045417986155077666,-0.004128907737707306,-0.006792719013599553,4.200026988983154,2019-06-03 16:31:24:846
0.5158681273460388,-1.366021990776062,-9.935626029968262,0.03582826348127098,-0.007591862396367225,-0.007725053220236163,4.210028648376465,2019-06-03 16:31:24:856
0.5325860977172852,-1.3087033033370972,-9.875919342041016,0.04009036152269858,-0.0029301926635557957,-0.007325481268778002,4.220001220703125,2019-06-03 16:31:24:866
0.5230329632759094,-1.3182563781738281,-9.883084297180176,0.03676059872820489,-0.004661669992885756,-0.005194432248064204,4.230002403259277,2019-06-03 16:31:24:876
0.5039267539978027,-1.3493040800094604,-9.763669967651367,0.04022355286671616,-0.009056959378330936,-0.010255674192408122,4.240008354187012,2019-06-03 16:31:24:886
0.5397509336471558,-1.1725714206695557,-9.871142387390137,0.03236530934275971,-0.002264239844582734,-0.009589721633509386,4.250039577484131,2019-06-03 16:31:24:896
0.5373626351356506,-1.3684102296829224,-9.93323802947998,0.0460839387139764,-0.00639314758229004,-0.011188008399044734,4.260042190551758,2019-06-03 16:31:24:906
0.5755751132965088,-1.4520000219345093,-9.766058921813965,0.04328693713436387,-0.0037293360463234696,-0.004794860816754693,4.27000617980957,2019-06-03 16:31:24:916
0.53019779920578,-1.3588571548461914,-9.80904769897461,0.03156616543984339,-0.0034629549187342444,-0.006792719013599553,4.280001163482666,2019-06-03 16:31:24:926
0.5278095006942749,-1.3994579315185547,-9.992944717407227,0.042620984575465135,-0.007725053220236163,-0.012653103820562494,4.290000915527344,2019-06-03 16:31:24:936
0.58990478515625,-1.3803516626358032,-9.868754386901855,0.03489593031493167,-0.0017314774593671222,-0.004661669992885756,4.30000114440918,2019-06-03 16:31:24:946
0.5660219788551331,-1.3469157218933105,-9.895025253295898,0.037160168599068455,-0.004395288865296531,-0.004528479689165468,4.310059547424316,2019-06-03 16:31:24:956
0.5803516507148743,-1.3493040800094604,-9.871142387390137,0.038225695190019955,-0.004395288865296531,-0.0034629549187342444,4.320012092590332,2019-06-03 16:31:24:966
0.6090109944343567,-1.3994579315185547,-9.890249252319336,0.0419550320165664,0.0013319057679832855,-0.0011987152041886733,4.329996109008789,2019-06-03 16:31:24:976
0.5230329632759094,-1.366021990776062,-9.80904769897461,0.030767021536927064,0.00159828689557251,0.0017314774593671222,4.33999490737915,2019-06-03 16:31:24:986
0.5349743366241455,-1.3827399015426636,-9.83054256439209,0.03782612115796719,-0.003596145482528857,0.00159828689557251,4.34999942779541,2019-06-03 16:31:24:996
0.5134798288345337,-1.473494529724121,-9.82337760925293,0.03556188079323581,-0.0010655245753754797,0.0034629549187342444,4.3600335121154785,2019-06-03 16:31:25:006
0.4824322462081909,-1.4328937530517578,-9.80904769897461,0.03329764250909902,-0.0034629549187342444,0.0023974304083773466,4.37003755569458,2019-06-03 16:31:25:016
0.5325860977172852,-1.3636337518692017,-9.854424476623535,0.04035674421073375,-0.00159828689557251,0.000799143447786255,4.380006790161133,2019-06-03 16:31:25:026
0.5087032914161682,-1.4854358434677124,-9.868754386901855,0.03995717017868099,-0.003063383227350408,-0.0023974304083773466,4.390000343322754,2019-06-03 16:31:25:036
0.6281172037124634,-1.5355896949768066,-9.928461074829102,0.03569507213725339,-0.00013319057192193496,-0.0029301926635557957,4.400001049041748,2019-06-03 16:31:25:046
0.6137875318527222,-1.4042344093322754,-9.875919342041016,0.03902483909293628,-0.002663811535966571,-0.0010655245753754797,4.410017490386963,2019-06-03 16:31:25:056
0.6472234725952148,-1.3803516626358032,-9.863978385925293,0.04302055444632869,0.002264239844582734,-0.005860385327111591,4.420007705688477,2019-06-03 16:31:25:066
0.5970696210861206,-1.4328937530517578,-9.859201431274414,0.03942440896379984,-0.005194432248064204,-0.005594004199522367,4.429996490478516,2019-06-03 16:31:25:076
0.5564688444137573,-1.447223424911499,-9.832930564880371,0.03502911957835465,-0.005860385327111591,-0.004262098301501919,4.439997673034668,2019-06-03 16:31:25:086
0.5445274710655212,-1.4352819919586182,-9.887861251831055,0.038225695190019955,-0.00639314758229004,-0.007192290965057714,4.450021743774414,2019-06-03 16:31:25:096
0.5493040084838867,-1.4424468278884888,-9.935626029968262,0.03516231092237225,-0.0038625266101180813,-0.007991434347825389,4.460002899169922,2019-06-03 16:31:25:106
0.4752674102783203,-1.492600679397583,-9.82337760925293,0.0376929298139496,-0.008257815475414612,-0.0050612419443439175,4.470070838928223,2019-06-03 16:31:25:116
0.5373626351356506,-1.4448351860046387,-9.878307342529297,0.03502911957835465,-0.006925909837468489,-0.006526337886010328,4.479998588562012,2019-06-03 16:31:25:126
0.5421391725540161,-1.4352819919586182,-9.863978385925293,0.037026977255050865,-0.003596145482528857,-0.008657386906724124,4.48999547958374,2019-06-03 16:31:25:136
0.5039267539978027,-1.4687179327011108,-9.871142387390137,0.04275417175829352,-0.004528479689165468,-0.007725053220236163,4.500033378601074,2019-06-03 16:31:25:146
0.5588571429252625,-1.4400585889816284,-9.813823699951172,0.03609464616930616,-0.004661669992885756,-0.009589721633509386,4.510025978088379,2019-06-03 16:31:25:156
0.5278095006942749,-1.3779634237289429,-9.859201431274414,0.04222141054341237,-0.0050612419443439175,-0.007458672092646939,4.52000617980957,2019-06-03 16:31:25:166
0.554080605506897,-1.4328937530517578,-9.861589431762695,0.043553315661209846,-0.007192290965057714,-0.00319657379114502,4.529996871948242,2019-06-03 16:31:25:176
0.554080605506897,-1.492600679397583,-9.916520118713379,0.03449635836347351,-0.005594004199522367,-0.007991434347825389,4.5400543212890625,2019-06-03 16:31:25:186
0.5564688444137573,-1.392293095588684,-9.763669967651367,0.0387584564049011,-0.00319657379114502,-0.0033297643549396326,4.550024032592773,2019-06-03 16:31:25:196
0.5469157695770264,-1.4520000219345093,-9.837706565856934,0.044885220779007313,-0.002264239844582734,-0.0038625266101180813,4.5600056648254395,2019-06-03 16:31:25:206
0.5588571429252625,-1.4806593656539917,-9.887861251831055,0.03636102469615213,-0.004661669992885756,-0.006126766454700816,4.570000648498535,2019-06-03 16:31:25:216
0.5684102773666382,-1.3707985877990723,-9.787552833557129,0.03942440896379984,-0.004128907737707306,-0.007192290965057714,4.579999923706055,2019-06-03 16:31:25:226
0.5636336803436279,-1.4066227674484253,-9.906967163085938,0.04248779323144755,-0.004528479689165468,-0.0023974304083773466,4.589996337890625,2019-06-03 16:31:25:236
0.5612454414367676,-1.4711061716079712,-9.868754386901855,0.037160168599068455,-0.003995717173912694,0.0003995717238931275,4.600033760070801,2019-06-03 16:31:25:246
0.5731868147850037,-1.4161758422851562,-9.835318565368652,0.03596145482528857,-0.005860385327111591,-0.00013319057192193496,4.610257148742676,2019-06-03 16:31:25:256
0.5325860977172852,-1.3707985877990723,-9.840095520019531,0.04328693713436387,-0.0023974304083773466,0.0010655245753754797,4.6200385093688965,2019-06-03 16:31:25:266
0.5421391725540161,-1.4591648578643799,-9.866366386413574,0.041688649328531224,-0.0037293360463234696,-0.005327623071933142,4.630007743835449,2019-06-03 16:31:25:276
0.5206446647644043,-1.4209524393081665,-9.890249252319336,0.03502911957835465,-0.005327623071933142,-0.005993575630831878,4.63999605178833,2019-06-03 16:31:25:286
0.5015384554862976,-1.3588571548461914,-9.9117431640625,0.03969079165183501,-0.008391005779134899,-0.0021310491507509593,4.649995803833008,2019-06-03 16:31:25:296
0.5158681273460388,-1.473494529724121,-9.847260475158691,0.0408895054256149,-0.004395288865296531,-0.005194432248064204,4.660074234008789,2019-06-03 16:31:25:306
0.5612454414367676,-1.401846170425415,-9.906967163085938,0.03662740738418731,-0.0023974304083773466,0.003063383227350408,4.670022010803223,2019-06-03 16:31:25:316
0.5325860977172852,-1.3636337518692017,-9.83054256439209,0.04208821919939479,-0.007059100141188776,-0.002663811535966571,4.680006504058838,2019-06-03 16:31:25:326
0.5278095006942749,-1.411399245262146,-9.820988655090332,0.03609464616930616,-0.002663811535966571,0.0002663811438438699,5.160116195678711,2019-06-03 16:31:25:806
0.5349743366241455,-1.3970695734024048,-9.887861251831055,0.03689379007222248,-0.003995717173912694,-0.0006659528839916427,5.170037269592285,2019-06-03 16:31:25:816
0.5349743366241455,-1.3612453937530518,-9.895025253295898,0.040623122737579724,-0.0037293360463234696,-0.0010655245753754797,5.18000602722168,2019-06-03 16:31:25:826
0.5564688444137573,-1.3994579315185547,-9.880696296691895,0.03915802627576466,-0.005327623071933142,0.00013319057192193496,5.190025329589844,2019-06-03 16:31:25:836
0.518256425857544,-1.4424468278884888,-9.866366386413574,0.03969079165183501,-0.00492805112047498,-0.0013319057679832855,5.200002670288086,2019-06-03 16:31:25:846
0.4872087836265564,-1.3994579315185547,-9.883084297180176,0.03409678641201535,-0.0011987152041886733,-0.0050612419443439175,5.210025787353516,2019-06-03 16:31:25:856
0.5230329632759094,-1.3731868267059326,-9.847260475158691,0.03676059872820489,-0.007458672092646939,-0.0014650963317778978,5.220022678375244,2019-06-03 16:31:25:866
0.5063149929046631,-1.3588571548461914,-9.856813430786133,0.03929121761978226,-0.009190149682051223,-0.004661669992885756,5.230009078979492,2019-06-03 16:31:25:876
0.49676191806793213,-1.3946813344955444,-9.849648475646973,0.041289075296478454,-0.005727194503242653,-0.004395288865296531,5.239992618560791,2019-06-03 16:31:25:886
0.5349743366241455,-1.4090110063552856,-9.847260475158691,0.042620984575465135,-0.004128907737707306,-0.0021310491507509593,5.250001907348633,2019-06-03 16:31:25:896
0.5015384554862976,-1.447223424911499,-9.892637252807617,0.03929121761978226,-0.004794860816754693,-0.007991434347825389,5.260024070739746,2019-06-03 16:31:25:906
0.49198535084724426,-1.4496116638183594,-9.895025253295898,0.04115588811365008,-0.008124624651545674,-0.007325481268778002,5.270022392272949,2019-06-03 16:31:25:916
0.5755751132965088,-1.401846170425415,-9.887861251831055,0.037026977255050865,-0.004395288865296531,-0.006925909837468489,5.280007362365723,2019-06-03 16:31:25:926
0.5516923069953918,-1.3588571548461914,-9.952343940734863,0.03915802627576466,-0.0037293360463234696,-0.00159828689557251,5.2900238037109375,2019-06-03 16:31:25:936
0.5755751132965088,-1.4090110063552856,-9.856813430786133,0.040623122737579724,-0.002663811535966571,-0.00492805112047498,5.300015926361084,2019-06-03 16:31:25:946
0.518256425857544,-1.4352819919586182,-9.835318565368652,0.03942440896379984,-0.0009323340115808674,-0.008257815475414612,5.310000419616699,2019-06-03 16:31:25:956
0.5421391725540161,-1.356468915939331,-9.832930564880371,0.038092503846002365,-0.00639314758229004,-0.011054817055027146,5.319996356964111,2019-06-03 16:31:25:966
0.5516923069953918,-1.3516923189163208,-9.780387878417969,0.0376929298139496,-0.007325481268778002,-0.009056959378330936,5.330010414123535,2019-06-03 16:31:25:976
0.5349743366241455,-1.3946813344955444,-9.842483520507812,0.03422997775603293,-0.006126766454700816,-0.008391005779134899,5.34002685546875,2019-06-03 16:31:25:986
0.5731868147850037,-1.4328937530517578,-9.878307342529297,0.0346295476268965,-0.004262098301501919,-0.002264239844582734,5.350009441375732,2019-06-03 16:31:25:996
0.5612454414367676,-1.3684102296829224,-9.820988655090332,0.038358886534037545,-0.00492805112047498,-0.006925909837468489,5.360000133514404,2019-06-03 16:31:26:006
0.5755751132965088,-1.428117275238037,-9.890249252319336,0.04235460188742996,-0.006792719013599553,-0.003596145482528857,5.369998931884766,2019-06-03 16:31:26:016
0.6018461585044861,-1.4257289171218872,-9.883084297180176,0.03502911957835465,-0.003063383227350408,-0.008524196603003837,5.379996299743652,2019-06-03 16:31:26:026
0.5707985162734985,-1.392293095588684,-9.842483520507812,0.03955760030781742,-0.006126766454700816,-0.000799143447786255,5.39005184173584,2019-06-03 16:31:26:036
0.5087032914161682,-1.4496116638183594,-9.80904769897461,0.038092503846002365,-0.0037293360463234696,-0.005194432248064204,5.400036334991455,2019-06-03 16:31:26:046
0.53019779920578,-1.4161758422851562,-9.895025253295898,0.03502911957835465,-0.0038625266101180813,-0.004794860816754693,5.410021781921387,2019-06-03 16:31:26:056
0.5278095006942749,-1.3707985877990723,-9.863978385925293,0.03889164774891869,-0.004794860816754693,-0.003596145482528857,5.420001029968262,2019-06-03 16:31:26:066
0.5110915899276733,-1.4328937530517578,-9.871142387390137,0.03782612115796719,-0.00785824352395645,-0.004528479689165468,5.429996013641357,2019-06-03 16:31:26:076
0.5278095006942749,-1.4209524393081665,-9.916520118713379,0.03596145482528857,-0.0027970020997611835,0.0033297643549396326,5.439998149871826,2019-06-03 16:31:26:086
0.5421391725540161,-1.3516923189163208,-9.813823699951172,0.03742655128710363,-0.004128907737707306,-0.0038625266101180813,5.450035095214844,2019-06-03 16:31:26:096
0.49915018677711487,-1.3851282596588135,-9.81143569946289,0.04102269676963249,-0.002663811535966571,-0.00492805112047498,5.4600443840026855,2019-06-03 16:31:26:106
0.48482051491737366,-1.45677649974823,-9.878307342529297,0.04022355286671616,-0.002264239844582734,-0.005460813375653429,5.4700093269348145,2019-06-03 16:31:26:116
0.5158681273460388,-1.375575065612793,-9.81860065460205,0.03449635836347351,-0.0005327622876877398,-0.004395288865296531,5.480000972747803,2019-06-03 16:31:26:126
0.5684102773666382,-1.401846170425415,-9.81143569946289,0.04315374579034629,-0.005194432248064204,-0.0034629549187342444,5.490015506744385,2019-06-03 16:31:26:136
0.5564688444137573,-1.447223424911499,-9.82337760925293,0.037160168599068455,-0.005594004199522367,-0.00639314758229004,5.500068187713623,2019-06-03 16:31:26:146
0.5469157695770264,-1.3970695734024048,-9.835318565368652,0.038225695190019955,-0.006526337886010328,-0.004794860816754693,5.510029315948486,2019-06-03 16:31:26:156
0.5588571429252625,-1.3684102296829224,-9.854424476623535,0.03969079165183501,-0.0034629549187342444,-0.005993575630831878,5.520008087158203,2019-06-03 16:31:26:166
0.5373626351356506,-1.4591648578643799,-9.871142387390137,0.03689379007222248,-0.00319657379114502,-0.0014650963317778978,5.530001640319824,2019-06-03 16:31:26:176
0.5349743366241455,-1.4305055141448975,-9.83054256439209,0.03316445324567604,-0.0038625266101180813,-0.008923768034313348,5.5399980545043945,2019-06-03 16:31:26:186
0.5946813225746155,-1.4161758422851562,-9.892637252807617,0.038358886534037545,-0.007591862396367225,-0.003995717173912694,5.550002098083496,2019-06-03 16:31:26:196
0.5731868147850037,-1.3875164985656738,-9.854424476623535,0.03889164774891869,-0.006526337886010328,-0.0017314774593671222,5.559996604919434,2019-06-03 16:31:26:206
0.5684102773666382,-1.4639413356781006,-9.928461074829102,0.04022355286671616,-0.003596145482528857,0.0005327622876877398,5.569995403289795,2019-06-03 16:31:26:216
0.5254212617874146,-1.392293095588684,-9.849648475646973,0.03662740738418731,-0.0062599567584211025,-0.00639314758229004,5.579994201660156,2019-06-03 16:31:26:226
0.53019779920578,-1.4066227674484253,-9.81621265411377,0.041688649328531224,-0.005993575630831878,-0.00013319057192193496,5.59002161026001,2019-06-03 16:31:26:236
0.5660219788551331,-1.4328937530517578,-9.897414207458496,0.03889164774891869,-0.00159828689557251,-0.0003995717238931275,5.600006580352783,2019-06-03 16:31:26:246
0.5421391725540161,-1.3970695734024048,-9.80904769897461,0.037026977255050865,-0.005594004199522367,0.0021310491507509593,5.610022068023682,2019-06-03 16:31:26:256
0.5493040084838867,-1.3994579315185547,-9.787552833557129,0.03742655128710363,-0.0034629549187342444,0.0023974304083773466,5.620018005371094,2019-06-03 16:31:26:266
0.5469157695770264,-1.4233406782150269,-9.861589431762695,0.0398239829958526,-0.0050612419443439175,-0.0006659528839916427,5.630002975463867,2019-06-03 16:31:26:276
0.5373626351356506,-1.356468915939331,-9.80904769897461,0.03782612115796719,-0.005594004199522367,0.0011987152041886733,5.640000343322754,2019-06-03 16:31:26:286
0.554080605506897,-1.4161758422851562,-9.794717788696289,0.037293359943086045,-0.005860385327111591,-0.002264239844582734,5.6500091552734375,2019-06-03 16:31:26:296
0.5373626351356506,-1.4328937530517578,-9.873531341552734,0.03915802627576466,-0.007458672092646939,-0.003995717173912694,5.660000801086426,2019-06-03 16:31:26:306
0.5349743366241455,-1.3970695734024048,-9.899802207946777,0.0376929298139496,-0.005460813375653429,-0.0029301926635557957,5.6699957847595215,2019-06-03 16:31:26:316
0.4466080665588379,-1.4209524393081665,-9.842483520507812,0.04048993555475134,-0.0038625266101180813,-0.005194432248064204,5.680000305175781,2019-06-03 16:31:26:326
0.5230329632759094,-1.413787603378296,-9.847260475158691,0.04009036152269858,-0.0003995717238931275,-0.004395288865296531,5.690040111541748,2019-06-03 16:31:26:336
0.5349743366241455,-1.437670350074768,-9.897414207458496,0.040756314081597314,-0.004528479689165468,-0.0050612419443439175,5.700009822845459,2019-06-03 16:31:26:346
0.47765567898750305,-1.413787603378296,-9.885472297668457,0.03569507213725339,-0.00639314758229004,-0.006126766454700816,5.710002422332764,2019-06-03 16:31:26:356
0.5684102773666382,-1.3851282596588135,-9.866366386413574,0.03955760030781742,-0.007725053220236163,-0.0014650963317778978,5.720000267028809,2019-06-03 16:31:26:366
0.5612454414367676,-1.4257289171218872,-9.837706565856934,0.04022355286671616,-0.00013319057192193496,-0.004661669992885756,5.7299957275390625,2019-06-03 16:31:26:376
0.5254212617874146,-1.4687179327011108,-9.875919342041016,0.03569507213725339,-0.005194432248064204,-0.008790577730593063,5.740024089813232,2019-06-03 16:31:26:386
0.5493040084838867,-1.3946813344955444,-9.854424476623535,0.03755974263112122,-0.005860385327111591,-0.005860385327111591,5.75006103515625,2019-06-03 16:31:26:396
0.5493040084838867,-1.392293095588684,-9.861589431762695,0.037160168599068455,-0.0033297643549396326,-0.00785824352395645,5.760009288787842,2019-06-03 16:31:26:406
0.5755751132965088,-1.413787603378296,-9.854424476623535,0.03915802627576466,-0.004262098301501919,-0.0021310491507509593,5.77000617980957,2019-06-03 16:31:26:416
0.5349743366241455,-1.366021990776062,-9.837706565856934,0.03849207371686592,-0.009056959378330936,-0.005594004199522367,5.780003547668457,2019-06-03 16:31:26:426
0.5278095006942749,-1.4233406782150269,-9.885472297668457,0.03915802627576466,-0.0027970020997611835,-0.006126766454700816,5.789999961853027,2019-06-03 16:31:26:436
0.5636336803436279,-1.3899047374725342,-9.871142387390137,0.03516231092237225,-0.0029301926635557957,-0.009323339985771511,5.8000383377075195,2019-06-03 16:31:26:446
0.5110915899276733,-1.392293095588684,-9.854424476623535,0.040623122737579724,-0.005727194503242653,-0.0014650963317778978,5.810009956359863,2019-06-03 16:31:26:456
0.5325860977172852,-1.4042344093322754,-9.813823699951172,0.04235460188742996,-0.002264239844582734,-0.004262098301501919,5.820000648498535,2019-06-03 16:31:26:466
0.5015384554862976,-1.4424468278884888,-9.873531341552734,0.03676059872820489,-0.006792719013599553,-0.0021310491507509593,5.829998016357422,2019-06-03 16:31:26:476
0.5564688444137573,-1.401846170425415,-9.887861251831055,0.03755974263112122,-0.0025306209721719587,-0.009589721633509386,5.840031147003174,2019-06-03 16:31:26:486
0.5206446647644043,-1.437670350074768,-9.859201431274414,0.038225695190019955,-0.0006659528839916427,-0.0017314774593671222,5.850008487701416,2019-06-03 16:31:26:496
0.5827399492263794,-1.411399245262146,-9.81860065460205,0.03542869361040742,-0.0038625266101180813,-0.000799143447786255,5.859994411468506,2019-06-03 16:31:26:506
0.5421391725540161,-1.4161758422851562,-9.863978385925293,0.03955760030781742,-0.007192290965057714,-0.0033297643549396326,5.869997024536133,2019-06-03 16:31:26:516
0.5421391725540161,-1.3779634237289429,-9.847260475158691,0.04302055444632869,-0.007991434347825389,-0.002264239844582734,5.879996299743652,2019-06-03 16:31:26:526
0.6018461585044861,-1.4185640811920166,-9.883084297180176,0.0398239829958526,-0.004395288865296531,-0.0009323340115808674,5.890030860900879,2019-06-03 16:31:26:536
0.5206446647644043,-1.4305055141448975,-9.868754386901855,0.0408895054256149,-0.004395288865296531,-0.005594004199522367,5.900029182434082,2019-06-03 16:31:26:546
0.5660219788551331,-1.437670350074768,-9.883084297180176,0.041821840672548814,-0.0025306209721719587,-0.0002663811438438699,5.910001754760742,2019-06-03 16:31:26:556
0.5015384554862976,-1.4615530967712402,-9.906967163085938,0.03542869361040742,-0.004128907737707306,-0.0038625266101180813,5.920001983642578,2019-06-03 16:31:26:566
0.5445274710655212,-1.3875164985656738,-9.873531341552734,0.04235460188742996,-0.007325481268778002,-0.005194432248064204,5.929996490478516,2019-06-03 16:31:26:576
0.5445274710655212,-1.413787603378296,-9.890249252319336,0.041289075296478454,-0.0002663811438438699,0.000799143447786255,6.360208511352539,2019-06-03 16:31:27:006
0.5564688444137573,-1.3899047374725342,-9.847260475158691,0.03489593031493167,-0.004128907737707306,-0.0023974304083773466,6.370022773742676,2019-06-03 16:31:27:016
0.5230329632759094,-1.413787603378296,-9.904579162597656,0.03795931250198478,-0.004661669992885756,-0.0027970020997611835,6.380002021789551,2019-06-03 16:31:27:026
0.5110915899276733,-1.401846170425415,-9.861589431762695,0.0387584564049011,-0.0050612419443439175,-0.0023974304083773466,6.39000129699707,2019-06-03 16:31:27:036
0.5373626351356506,-1.4543882608413696,-9.887861251831055,0.04115588811365008,-0.0017314774593671222,-0.004794860816754693,6.400075912475586,2019-06-03 16:31:27:046
0.5445274710655212,-1.3970695734024048,-9.825765609741211,0.03689379007222248,-0.004794860816754693,-0.005594004199522367,6.410078048706055,2019-06-03 16:31:27:056
0.5110915899276733,-1.4352819919586182,-9.873531341552734,0.0419550320165664,-0.005727194503242653,-0.006526337886010328,6.420029640197754,2019-06-03 16:31:27:066
0.5397509336471558,-1.3779634237289429,-9.885472297668457,0.03889164774891869,-0.0025306209721719587,-0.002663811535966571,6.430009365081787,2019-06-03 16:31:27:076
0.5588571429252625,-1.3899047374725342,-9.794717788696289,0.03742655128710363,-0.004528479689165468,-0.00319657379114502,6.440024375915527,2019-06-03 16:31:27:086
0.5493040084838867,-1.3994579315185547,-9.847260475158691,0.03622783751332374,-0.0038625266101180813,-0.005860385327111591,6.4500017166137695,2019-06-03 16:31:27:096
0.5278095006942749,-1.428117275238037,-9.883084297180176,0.03929121761978226,-0.003995717173912694,-0.00159828689557251,6.460047721862793,2019-06-03 16:31:27:106
0.5087032914161682,-1.392293095588684,-9.873531341552734,0.04048993555475134,-0.0033297643549396326,-0.004262098301501919,6.470066070556641,2019-06-03 16:31:27:116
0.5421391725540161,-1.3827399015426636,-9.883084297180176,0.03609464616930616,-0.005727194503242653,-0.00319657379114502,6.4800214767456055,2019-06-03 16:31:27:126
0.554080605506897,-1.4209524393081665,-9.799494743347168,0.043420124317192256,0.0,-0.0018646680231617348,6.490002632141113,2019-06-03 16:31:27:136
0.5851281881332397,-1.4305055141448975,-9.9117431640625,0.03676059872820489,-0.005993575630831878,-0.003596145482528857,6.500001907348633,2019-06-03 16:31:27:146
0.518256425857544,-1.3970695734024048,-9.909355163574219,0.03995717017868099,-0.005327623071933142,-0.006659528709879265,6.50999641418457,2019-06-03 16:31:27:156
0.5707985162734985,-1.3994579315185547,-9.875919342041016,0.04102269676963249,-0.00013319057192193496,-0.001997858586956347,6.520071029663086,2019-06-03 16:31:27:166
0.5397509336471558,-1.4352819919586182,-9.871142387390137,0.03649421604016972,-0.004661669992885756,-0.007591862396367225,6.530023574829102,2019-06-03 16:31:27:176
0.5349743366241455,-1.4066227674484253,-9.837706565856934,0.03862526506088352,-0.000799143447786255,-0.0023974304083773466,6.540024757385254,2019-06-03 16:31:27:186
0.5493040084838867,-1.3803516626358032,-9.82337760925293,0.04115588811365008,-0.0034629549187342444,-0.005860385327111591,6.550002098083496,2019-06-03 16:31:27:196
0.5469157695770264,-1.4305055141448975,-9.80188274383545,0.03529550226638983,-0.005194432248064204,-0.005594004199522367,6.559996128082275,2019-06-03 16:31:27:206
0.5397509336471558,-1.3970695734024048,-9.887861251831055,0.042620984575465135,-0.002264239844582734,-0.0033297643549396326,6.5699968338012695,2019-06-03 16:31:27:216
0.5851281881332397,-1.401846170425415,-9.863978385925293,0.03929121761978226,-0.005860385327111591,-0.00013319057192193496,6.579995632171631,2019-06-03 16:31:27:226
0.554080605506897,-1.4185640811920166,-9.842483520507812,0.03995717017868099,-0.005194432248064204,-0.004128907737707306,6.589993953704834,2019-06-03 16:31:27:236
0.5516923069953918,-1.4209524393081665,-9.902190208435059,0.03649421604016972,-0.007591862396367225,-0.006925909837468489,6.600016117095947,2019-06-03 16:31:27:246
0.5445274710655212,-1.3731868267059326,-9.794717788696289,0.03476273897091409,-0.0014650963317778978,-0.006659528709879265,6.6100006103515625,2019-06-03 16:31:27:256
0.5206446647644043,-1.4400585889816284,-9.820988655090332,0.0398239829958526,-0.00159828689557251,-0.003596145482528857,6.619993209838867,2019-06-03 16:31:27:266
0.5373626351356506,-1.4209524393081665,-9.928461074829102,0.041821840672548814,-0.0034629549187342444,-0.0018646680231617348,6.6299967765808105,2019-06-03 16:31:27:276
0.5612454414367676,-1.3899047374725342,-9.854424476623535,0.03676059872820489,-0.004262098301501919,-0.006792719013599553,6.640021800994873,2019-06-03 16:31:27:286
0.5206446647644043,-1.3994579315185547,-9.80188274383545,0.038225695190019955,-0.00319657379114502,-0.001997858586956347,6.650052070617676,2019-06-03 16:31:27:296
0.5803516507148743,-1.3946813344955444,-9.887861251831055,0.03862526506088352,-0.0037293360463234696,-0.0013319057679832855,6.660053253173828,2019-06-03 16:31:27:306
0.5421391725540161,-1.3731868267059326,-9.854424476623535,0.03662740738418731,-0.005460813375653429,-0.00492805112047498,6.670011043548584,2019-06-03 16:31:27:316
0.5445274710655212,-1.401846170425415,-9.883084297180176,0.03955760030781742,-0.004262098301501919,-0.0021310491507509593,6.680000305175781,2019-06-03 16:31:27:326
0.5445274710655212,-1.4066227674484253,-9.799494743347168,0.03582826348127098,-0.005194432248064204,-0.004661669992885756,6.689997673034668,2019-06-03 16:31:27:336
0.5373626351356506,-1.3707985877990723,-9.91890811920166,0.03676059872820489,-0.008790577730593063,-0.004661669992885756,6.700000762939453,2019-06-03 16:31:27:346
0.5254212617874146,-1.4424468278884888,-9.856813430786133,0.037026977255050865,-0.005594004199522367,-0.005594004199522367,6.710041522979736,2019-06-03 16:31:27:356
0.53019779920578,-1.4090110063552856,-9.849648475646973,0.037026977255050865,-0.006126766454700816,-0.0038625266101180813,6.720029830932617,2019-06-03 16:31:27:366
0.5254212617874146,-1.401846170425415,-9.861589431762695,0.03516231092237225,-0.004528479689165468,-0.004794860816754693,6.730007171630859,2019-06-03 16:31:27:376
0.5588571429252625,-1.3827399015426636,-9.81860065460205,0.03662740738418731,-0.0006659528839916427,-0.0023974304083773466,6.740022659301758,2019-06-03 16:31:27:386
0.5516923069953918,-1.3899047374725342,-9.875919342041016,0.03795931250198478,-0.004128907737707306,0.0003995717238931275,6.750006198883057,2019-06-03 16:31:27:396
0.5588571429252625,-1.4066227674484253,-9.82337760925293,0.040756314081597314,-0.0027970020997611835,-0.006526337886010328,6.760002136230469,2019-06-03 16:31:27:406
0.5278095006942749,-1.4328937530517578,-9.878307342529297,0.038225695190019955,-0.0050612419443439175,-0.007458672092646939,6.770000457763672,2019-06-03 16:31:27:416
0.5397509336471558,-1.4328937530517578,-9.868754386901855,0.037293359943086045,-0.0025306209721719587,-0.0062599567584211025,6.780040264129639,2019-06-03 16:31:27:426
0.5779633522033691,-1.4448351860046387,-9.852036476135254,0.03795931250198478,-0.004262098301501919,-0.007192290965057714,6.790009498596191,2019-06-03 16:31:27:436
0.5445274710655212,-1.428117275238037,-9.949955940246582,0.03849207371686592,-0.00319657379114502,-0.009056959378330936,6.80000114440918,2019-06-03 16:31:27:446
0.5254212617874146,-1.4161758422851562,-9.875919342041016,0.03755974263112122,-0.004528479689165468,-0.007059100141188776,6.809998035430908,2019-06-03 16:31:27:456
0.5278095006942749,-1.4185640811920166,-9.81621265411377,0.03236530934275971,-0.003596145482528857,-0.004262098301501919,6.819997787475586,2019-06-03 16:31:27:466
0.5731868147850037,-1.413787603378296,-9.897414207458496,0.042620984575465135,-0.005727194503242653,-0.0037293360463234696,6.829997539520264,2019-06-03 16:31:27:476
0.5469157695770264,-1.4615530967712402,-9.849648475646973,0.038225695190019955,-0.0037293360463234696,-0.0037293360463234696,6.840032577514648,2019-06-03 16:31:27:486
0.5254212617874146,-1.4233406782150269,-9.895025253295898,0.03489593031493167,-0.0029301926635557957,-0.006526337886010328,6.850008964538574,2019-06-03 16:31:27:496
0.5349743366241455,-1.4066227674484253,-9.813823699951172,0.03689379007222248,-0.003596145482528857,-0.0033297643549396326,6.8600006103515625,2019-06-03 16:31:27:506
0.518256425857544,-1.437670350074768,-9.866366386413574,0.03596145482528857,-0.0017314774593671222,-0.005993575630831878,6.870000839233398,2019-06-03 16:31:27:516
0.5325860977172852,-1.4209524393081665,-9.81143569946289,0.03915802627576466,-0.003995717173912694,-0.007192290965057714,6.879997253417969,2019-06-03 16:31:27:526
0.53019779920578,-1.3851282596588135,-9.847260475158691,0.04115588811365008,-0.0006659528839916427,-0.0025306209721719587,6.890033721923828,2019-06-03 16:31:27:536
0.5110915899276733,-1.411399245262146,-9.837706565856934,0.0419550320165664,-0.006792719013599553,-0.0062599567584211025,6.900010108947754,2019-06-03 16:31:27:546
0.5779633522033691,-1.4066227674484253,-9.873531341552734,0.04022355286671616,-0.007991434347825389,-0.004794860816754693,6.909999847412109,2019-06-03 16:31:27:556
0.5421391725540161,-1.3803516626358032,-9.883084297180176,0.04102269676963249,-0.0038625266101180813,-0.00639314758229004,6.91999626159668,2019-06-03 16:31:27:566
0.518256425857544,-1.3707985877990723,-9.895025253295898,0.03915802627576466,-0.00785824352395645,-0.0038625266101180813,6.929998874664307,2019-06-03 16:31:27:576
0.5564688444137573,-1.411399245262146,-9.83054256439209,0.04208821919939479,-0.004395288865296531,-0.0009323340115808674,6.940041542053223,2019-06-03 16:31:27:586
0.5684102773666382,-1.4090110063552856,-9.94040298461914,0.041289075296478454,-0.007591862396367225,-0.0010655245753754797,6.950026512145996,2019-06-03 16:31:27:596
0.5612454414367676,-1.4233406782150269,-9.868754386901855,0.04009036152269858,-0.0050612419443439175,0.0002663811438438699,6.960000038146973,2019-06-03 16:31:27:606
0.5373626351356506,-1.4400585889816284,-9.873531341552734,0.04288736310231111,-0.00785824352395645,-0.000799143447786255,6.970002174377441,2019-06-03 16:31:27:616
0.53019779920578,-1.4066227674484253,-9.832930564880371,0.038358886534037545,-0.0034629549187342444,-0.0034629549187342444,6.980008602142334,2019-06-03 16:31:27:626
0.5206446647644043,-1.411399245262146,-9.854424476623535,0.03969079165183501,-0.00492805112047498,-0.00013319057192193496,6.989998817443848,2019-06-03 16:31:27:636
0.5421391725540161,-1.4352819919586182,-9.866366386413574,0.03862526506088352,-0.008524196603003837,-0.004528479689165468,7.000002861022949,2019-06-03 16:31:27:646
0.5373626351356506,-1.392293095588684,-9.890249252319336,0.040756314081597314,-0.005194432248064204,-0.0050612419443439175,7.010001182556152,2019-06-03 16:31:27:656
0.5254212617874146,-1.4066227674484253,-9.854424476623535,0.03849207371686592,-0.001997858586956347,-0.0018646680231617348,7.020000457763672,2019-06-03 16:31:27:666
0.5684102773666382,-1.392293095588684,-9.837706565856934,0.03782612115796719,-0.002663811535966571,-0.0002663811438438699,7.029998779296875,2019-06-03 16:31:27:676
0.5755751132965088,-1.411399245262146,-9.81143569946289,0.0408895054256149,-0.0023974304083773466,-0.005194432248064204,7.420093536376953,2019-06-03 16:31:28:066
0.5278095006942749,-1.4352819919586182,-9.849648475646973,0.037293359943086045,-0.004128907737707306,-0.00319657379114502,7.430037021636963,2019-06-03 16:31:28:076
0.5493040084838867,-1.4209524393081665,-9.868754386901855,0.0346295476268965,-0.006126766454700816,-0.0021310491507509593,7.440009593963623,2019-06-03 16:31:28:086
0.5158681273460388,-1.3588571548461914,-9.887861251831055,0.03862526506088352,-0.004528479689165468,-0.0002663811438438699,7.449999809265137,2019-06-03 16:31:28:096
0.5827399492263794,-1.4209524393081665,-9.916520118713379,0.038358886534037545,-0.005327623071933142,-0.0005327622876877398,7.459999084472656,2019-06-03 16:31:28:106
0.5469157695770264,-1.4066227674484253,-9.878307342529297,0.03689379007222248,0.0017314774593671222,0.0009323340115808674,7.469995498657227,2019-06-03 16:31:28:116
0.5421391725540161,-1.3994579315185547,-9.856813430786133,0.040756314081597314,-0.005460813375653429,-0.000799143447786255,7.479996204376221,2019-06-03 16:31:28:126
0.5373626351356506,-1.447223424911499,-9.854424476623535,0.0419550320165664,-0.004528479689165468,-0.007725053220236163,7.489991664886475,2019-06-03 16:31:28:136
0.5564688444137573,-1.4042344093322754,-9.868754386901855,0.03609464616930616,-0.0029301926635557957,-0.0033297643549396326,7.500006198883057,2019-06-03 16:31:28:146
0.5254212617874146,-1.4161758422851562,-9.842483520507812,0.04222141054341237,-0.004794860816754693,-0.0010655245753754797,7.509997367858887,2019-06-03 16:31:28:156
0.5564688444137573,-1.3875164985656738,-9.825765609741211,0.03902483909293628,-0.004128907737707306,-0.009456530289491798,7.520058631896973,2019-06-03 16:31:28:166
0.5206446647644043,-1.4257289171218872,-9.875919342041016,0.03782612115796719,-0.00319657379114502,-0.0038625266101180813,7.530076026916504,2019-06-03 16:31:28:176
0.5110915899276733,-1.3899047374725342,-9.868754386901855,0.03516231092237225,-0.005460813375653429,-0.005460813375653429,7.5400238037109375,2019-06-03 16:31:28:186
0.58990478515625,-1.4424468278884888,-9.906967163085938,0.0387584564049011,-0.009056959378330936,-0.005194432248064204,7.550012588500977,2019-06-03 16:31:28:196
0.5493040084838867,-1.4543882608413696,-9.935626029968262,0.0398239829958526,-0.0033297643549396326,-0.006126766454700816,7.559998035430908,2019-06-03 16:31:28:206
0.5803516507148743,-1.4233406782150269,-9.873531341552734,0.042620984575465135,-0.004262098301501919,0.0005327622876877398,7.570099353790283,2019-06-03 16:31:28:216
0.5493040084838867,-1.4257289171218872,-9.890249252319336,0.038092503846002365,-0.007591862396367225,-0.0062599567584211025,7.580076217651367,2019-06-03 16:31:28:226
0.5373626351356506,-1.413787603378296,-9.863978385925293,0.04408608103728019,-0.00319657379114502,-0.0029301926635557957,7.590023994445801,2019-06-03 16:31:28:236
0.5087032914161682,-1.401846170425415,-9.847260475158691,0.03862526506088352,0.0006659528839916427,-0.00319657379114502,7.600008487701416,2019-06-03 16:31:28:246
0.554080605506897,-1.4185640811920166,-9.842483520507812,0.03795931250198478,-0.0029301926635557957,-0.007725053220236163,7.611220836639404,2019-06-03 16:31:28:257
0.5564688444137573,-1.428117275238037,-9.883084297180176,0.041821840672548814,-0.0033297643549396326,-0.0029301926635557957,7.620037078857422,2019-06-03 16:31:28:266
0.5731868147850037,-1.4161758422851562,-9.859201431274414,0.04102269676963249,-0.005327623071933142,-0.000799143447786255,7.630047798156738,2019-06-03 16:31:28:276
0.4824322462081909,-1.3994579315185547,-9.856813430786133,0.03529550226638983,-0.005594004199522367,-0.007991434347825389,7.640053749084473,2019-06-03 16:31:28:286
0.5039267539978027,-1.4233406782150269,-9.844871520996094,0.03955760030781742,-0.0014650963317778978,-0.010388864496128409,7.650008201599121,2019-06-03 16:31:28:296
0.5397509336471558,-1.4185640811920166,-9.906967163085938,0.041289075296478454,-0.0037293360463234696,-0.008257815475414612,7.660006523132324,2019-06-03 16:31:28:306
0.518256425857544,-1.4257289171218872,-9.883084297180176,0.038225695190019955,-0.005993575630831878,-0.005594004199522367,7.670001029968262,2019-06-03 16:31:28:316
0.5707985162734985,-1.3994579315185547,-9.840095520019531,0.040756314081597314,-0.006526337886010328,-0.004794860816754693,7.679996490478516,2019-06-03 16:31:28:326
0.53019779920578,-1.4185640811920166,-9.871142387390137,0.04208821919939479,-0.0027970020997611835,-0.003063383227350408,7.690011501312256,2019-06-03 16:31:28:336
0.5731868147850037,-1.4161758422851562,-9.887861251831055,0.038092503846002365,-0.0037293360463234696,-0.003063383227350408,7.700053691864014,2019-06-03 16:31:28:346
0.5564688444137573,-1.356468915939331,-9.878307342529297,0.038358886534037545,-0.0014650963317778978,0.0003995717238931275,7.710023880004883,2019-06-03 16:31:28:356
0.5278095006942749,-1.3445274829864502,-9.909355163574219,0.03649421604016972,-0.0014650963317778978,-0.0023974304083773466,7.720032691955566,2019-06-03 16:31:28:366
0.5134798288345337,-1.3875164985656738,-9.81143569946289,0.03902483909293628,-0.0034629549187342444,-0.00159828689557251,7.730000972747803,2019-06-03 16:31:28:376
0.53019779920578,-1.3731868267059326,-9.840095520019531,0.03942440896379984,-0.005460813375653429,-0.004661669992885756,7.739992618560791,2019-06-03 16:31:28:386
0.5134798288345337,-1.3731868267059326,-9.83054256439209,0.03795931250198478,0.0006659528839916427,0.0,7.750001430511475,2019-06-03 16:31:28:396
0.5636336803436279,-1.3684102296829224,-9.895025253295898,0.038092503846002365,-0.008257815475414612,-0.0013319057679832855,7.760053634643555,2019-06-03 16:31:28:406
0.5612454414367676,-1.3827399015426636,-9.883084297180176,0.041821840672548814,-0.004262098301501919,0.00159828689557251,7.770023345947266,2019-06-03 16:31:28:416
0.5469157695770264,-1.4424468278884888,-9.904579162597656,0.03849207371686592,-0.007725053220236163,-0.007725053220236163,7.780006408691406,2019-06-03 16:31:28:426
0.5039267539978027,-1.4233406782150269,-9.825765609741211,0.03582826348127098,-0.0023974304083773466,0.000799143447786255,7.789999008178711,2019-06-03 16:31:28:436
0.5564688444137573,-1.4066227674484253,-9.863978385925293,0.03582826348127098,-0.005460813375653429,-0.0062599567584211025,7.800002098083496,2019-06-03 16:31:28:446
0.5516923069953918,-1.3899047374725342,-9.890249252319336,0.03689379007222248,-0.00785824352395645,0.001997858586956347,7.810023307800293,2019-06-03 16:31:28:456
0.53019779920578,-1.3899047374725342,-9.835318565368652,0.03929121761978226,-0.004128907737707306,-0.010122483888687835,7.820029258728027,2019-06-03 16:31:28:466
0.5469157695770264,-1.392293095588684,-9.825765609741211,0.03862526506088352,-0.004794860816754693,-0.007325481268778002,7.830000877380371,2019-06-03 16:31:28:476
0.53019779920578,-1.392293095588684,-9.863978385925293,0.03929121761978226,-0.0018646680231617348,-0.004661669992885756,7.839996814727783,2019-06-03 16:31:28:486
0.5516923069953918,-1.392293095588684,-9.852036476135254,0.03755974263112122,-0.003995717173912694,-0.009190149682051223,7.849997520446777,2019-06-03 16:31:28:496
0.5373626351356506,-1.3899047374725342,-9.83054256439209,0.04142226664049605,-0.007059100141188776,-0.003596145482528857,7.86002254486084,2019-06-03 16:31:28:506
0.5445274710655212,-1.437670350074768,-9.81860065460205,0.045950747369958814,-0.003995717173912694,-0.007192290965057714,7.8700056076049805,2019-06-03 16:31:28:516
0.48482051491737366,-1.4305055141448975,-9.847260475158691,0.03689379007222248,-0.00319657379114502,-0.005860385327111591,7.879997253417969,2019-06-03 16:31:28:526
0.5087032914161682,-1.4424468278884888,-9.854424476623535,0.041289075296478454,-0.00492805112047498,-0.010921626751306857,7.889995574951172,2019-06-03 16:31:28:536
0.5063149929046631,-1.4615530967712402,-9.854424476623535,0.03742655128710363,-0.005993575630831878,-0.005860385327111591,7.90000057220459,2019-06-03 16:31:28:546
0.5564688444137573,-1.4496116638183594,-9.852036476135254,0.03862526506088352,-0.005327623071933142,-0.007325481268778002,7.9099931716918945,2019-06-03 16:31:28:556
0.554080605506897,-1.447223424911499,-9.878307342529297,0.03676059872820489,-0.00159828689557251,-0.006126766454700816,7.9200215339660645,2019-06-03 16:31:28:566
0.58990478515625,-1.4639413356781006,-9.861589431762695,0.03755974263112122,-0.006792719013599553,-0.002663811535966571,7.930025100708008,2019-06-03 16:31:28:576
0.5827399492263794,-1.4233406782150269,-9.842483520507812,0.04009036152269858,-0.007059100141188776,-0.004128907737707306,7.940019607543945,2019-06-03 16:31:28:586
0.5254212617874146,-1.4161758422851562,-9.782776832580566,0.03596145482528857,-0.004395288865296531,0.000799143447786255,7.950009346008301,2019-06-03 16:31:28:596
0.5588571429252625,-1.4448351860046387,-9.852036476135254,0.03556188079323581,-0.005460813375653429,-0.001997858586956347,7.959995269775391,2019-06-03 16:31:28:606
0.5612454414367676,-1.4663296937942505,-9.899802207946777,0.03862526506088352,0.0009323340115808674,-0.003995717173912694,7.969999313354492,2019-06-03 16:31:28:616
0.5564688444137573,-1.4615530967712402,-9.897414207458496,0.03622783751332374,0.00013319057192193496,-0.00013319057192193496,7.979996204376221,2019-06-03 16:31:28:626
0.49915018677711487,-1.4400585889816284,-9.847260475158691,0.03782612115796719,-0.00639314758229004,0.0003995717238931275,7.990023612976074,2019-06-03 16:31:28:636
0.5469157695770264,-1.4615530967712402,-9.832930564880371,0.03929121761978226,-0.006925909837468489,-0.00013319057192193496,8.000032901763916,2019-06-03 16:31:28:646
0.5015384554862976,-1.4328937530517578,-9.80188274383545,0.04302055444632869,-0.004528479689165468,-0.00013319057192193496,8.01000690460205,2019-06-03 16:31:28:656
0.5039267539978027,-1.4257289171218872,-9.859201431274414,0.0419550320165664,-0.002663811535966571,-0.0021310491507509593,8.02002239227295,2019-06-03 16:31:28:666
0.5684102773666382,-1.3970695734024048,-9.81860065460205,0.038225695190019955,-0.005327623071933142,0.0010655245753754797,8.03000545501709,2019-06-03 16:31:28:676
0.554080605506897,-1.411399245262146,-9.873531341552734,0.04048993555475134,-0.004128907737707306,-0.002663811535966571,8.040000915527344,2019-06-03 16:31:28:686
0.5039267539978027,-1.3946813344955444,-9.847260475158691,0.03889164774891869,-0.0050612419443439175,0.0011987152041886733,8.050097465515137,2019-06-03 16:31:28:696
0.5087032914161682,-1.4352819919586182,-9.887861251831055,0.03995717017868099,-0.00492805112047498,0.0010655245753754797,8.060023784637451,2019-06-03 16:31:28:706
0.5063149929046631,-1.413787603378296,-9.92607307434082,0.040756314081597314,-0.004794860816754693,-0.005993575630831878,8.070006370544434,2019-06-03 16:31:28:716
0.5469157695770264,-1.3493040800094604,-9.852036476135254,0.04102269676963249,-0.0017314774593671222,-0.0018646680231617348,8.080000400543213,2019-06-03 16:31:28:726
0.5325860977172852,-1.4185640811920166,-9.902190208435059,0.03782612115796719,-0.0009323340115808674,-0.003596145482528857,8.089996814727783,2019-06-03 16:31:28:736
0.53019779920578,-1.392293095588684,-9.847260475158691,0.04142226664049605,-0.0017314774593671222,-0.006526337886010328,8.100000858306885,2019-06-03 16:31:28:746
0.5564688444137573,-1.3540805578231812,-9.749341011047363,0.04102269676963249,-0.0034629549187342444,-0.0062599567584211025,8.110002517700195,2019-06-03 16:31:28:756
0.5325860977172852,-1.413787603378296,-9.875919342041016,0.04048993555475134,-0.004661669992885756,-0.003596145482528857,8.12000036239624,2019-06-03 16:31:28:766
0.5564688444137573,-1.401846170425415,-9.835318565368652,0.03636102469615213,-0.00319657379114502,0.00013319057192193496,8.130023956298828,2019-06-03 16:31:28:776
0.5564688444137573,-1.375575065612793,-9.80904769897461,0.03596145482528857,-0.0009323340115808674,-0.006792719013599553,8.139995574951172,2019-06-03 16:31:28:786
0.554080605506897,-1.4233406782150269,-9.875919342041016,0.03609464616930616,-0.002663811535966571,-0.0033297643549396326,8.15001392364502,2019-06-03 16:31:28:796
0.6185641288757324,-1.4090110063552856,-9.840095520019531,0.0398239829958526,-0.0029301926635557957,-0.004528479689165468,8.160033226013184,2019-06-03 16:31:28:806
0.5684102773666382,-1.3851282596588135,-9.80904769897461,0.03649421604016972,-0.001997858586956347,-0.010388864496128409,8.17000961303711,2019-06-03 16:31:28:816
0.5087032914161682,-1.413787603378296,-9.861589431762695,0.04315374579034629,-0.004128907737707306,-0.00639314758229004,8.180047512054443,2019-06-03 16:31:28:826
0.5803516507148743,-1.3493040800094604,-9.890249252319336,0.04048993555475134,-0.005460813375653429,-0.006925909837468489,8.190059661865234,2019-06-03 16:31:28:836
0.5278095006942749,-1.3588571548461914,-9.878307342529297,0.03622783751332374,-0.0013319057679832855,-0.008391005779134899,8.2000150680542,2019-06-03 16:31:28:846
0.5445274710655212,-1.413787603378296,-9.895025253295898,0.03609464616930616,-0.004395288865296531,-0.005727194503242653,8.20999813079834,2019-06-03 16:31:28:856
0.5636336803436279,-1.3827399015426636,-9.899802207946777,0.03942440896379984,-0.005594004199522367,-0.0034629549187342444,8.220041275024414,2019-06-03 16:31:28:866
0.5254212617874146,-1.3612453937530518,-9.854424476623535,0.038358886534037545,0.0006659528839916427,-0.0025306209721719587,8.230053901672363,2019-06-03 16:31:28:876
0.5516923069953918,-1.411399245262146,-9.902190208435059,0.03569507213725339,-0.0029301926635557957,-0.004528479689165468,8.240021705627441,2019-06-03 16:31:28:886
0.518256425857544,-1.4543882608413696,-9.880696296691895,0.03556188079323581,-0.0025306209721719587,-0.0013319057679832855,8.250009536743164,2019-06-03 16:31:28:896
0.4728791117668152,-1.4591648578643799,-9.94040298461914,0.03929121761978226,-0.0023974304083773466,-0.0037293360463234696,8.260001182556152,2019-06-03 16:31:28:906
0.494373619556427,-1.4424468278884888,-9.895025253295898,0.0398239829958526,-0.003063383227350408,-0.004794860816754693,8.26999568939209,2019-06-03 16:31:28:916
0.44421976804733276,-1.413787603378296,-9.861589431762695,0.038092503846002365,-0.007059100141188776,-0.007991434347825389,8.279996871948242,2019-06-03 16:31:28:926
0.494373619556427,-1.4209524393081665,-9.878307342529297,0.038225695190019955,-0.00985610224094996,-0.006792719013599553,8.290081977844238,2019-06-03 16:31:28:936
0.5039267539978027,-1.4615530967712402,-9.885472297668457,0.0376929298139496,-0.0037293360463234696,-0.005993575630831878,8.30003833770752,2019-06-03 16:31:28:946
0.554080605506897,-1.3994579315185547,-9.847260475158691,0.03689379007222248,-0.007458672092646939,-0.000799143447786255,8.310012817382812,2019-06-03 16:31:28:956
0.5660219788551331,-1.392293095588684,-9.914132118225098,0.03902483909293628,-0.005727194503242653,-0.006792719013599553,8.320000171661377,2019-06-03 16:31:28:966
0.5922930240631104,-1.3946813344955444,-9.866366386413574,0.040756314081597314,-0.005194432248064204,-0.0002663811438438699,8.33001708984375,2019-06-03 16:31:28:976
0.58990478515625,-1.401846170425415,-9.861589431762695,0.04009036152269858,-0.00785824352395645,-0.0034629549187342444,8.340007781982422,2019-06-03 16:31:28:986
0.5875164866447449,-1.4305055141448975,-9.766058921813965,0.04102269676963249,-0.004794860816754693,0.0025306209721719587,8.350083351135254,2019-06-03 16:31:28:996
0.6066226959228516,-1.473494529724121,-9.785164833068848,0.043553315661209846,-0.008257815475414612,0.0023974304083773466,8.360077857971191,2019-06-03 16:31:29:006
0.5493040084838867,-1.4663296937942505,-9.799494743347168,0.04022355286671616,-0.002663811535966571,0.0025306209721719587,8.370034217834473,2019-06-03 16:31:29:016
0.5588571429252625,-1.492600679397583,-9.825765609741211,0.04048993555475134,-0.0038625266101180813,-0.0013319057679832855,8.380008697509766,2019-06-03 16:31:29:026
0.5779633522033691,-1.5069303512573242,-9.871142387390137,0.04275417175829352,-0.007591862396367225,-0.004794860816754693,8.39000129699707,2019-06-03 16:31:29:036
0.5588571429252625,-1.4997655153274536,-9.842483520507812,0.04048993555475134,-0.007591862396367225,0.0021310491507509593,8.400001525878906,2019-06-03 16:31:29:046
0.5516923069953918,-1.4448351860046387,-9.878307342529297,0.04048993555475134,0.00013319057192193496,-0.00639314758229004,8.410083293914795,2019-06-03 16:31:29:056
0.518256425857544,-1.4782710075378418,-9.863978385925293,0.03596145482528857,-0.00785824352395645,-0.004128907737707306,8.420045852661133,2019-06-03 16:31:29:066
0.5564688444137573,-1.3851282596588135,-9.909355163574219,0.037160168599068455,-0.002264239844582734,-0.005993575630831878,8.430009841918945,2019-06-03 16:31:29:076
0.4466080665588379,-1.3803516626358032,-9.81621265411377,0.040623122737579724,-0.004528479689165468,-0.0005327622876877398,8.4400053024292,2019-06-03 16:31:29:086
0.49915018677711487,-1.4496116638183594,-9.81860065460205,0.038092503846002365,-0.000799143447786255,-0.0034629549187342444,8.449999809265137,2019-06-03 16:31:29:096
0.5158681273460388,-1.4209524393081665,-9.861589431762695,0.0408895054256149,-0.007059100141188776,-0.006126766454700816,8.460031509399414,2019-06-03 16:31:29:106
0.5087032914161682,-1.3899047374725342,-9.868754386901855,0.04408608103728019,-0.005194432248064204,-0.007325481268778002,8.470029830932617,2019-06-03 16:31:29:116
0.5254212617874146,-1.401846170425415,-9.81621265411377,0.047948605046655025,-0.005860385327111591,-0.003596145482528857,8.480009078979492,2019-06-03 16:31:29:126
0.5254212617874146,-1.4615530967712402,-9.835318565368652,0.04222141054341237,-0.002663811535966571,-0.006126766454700816,8.489999771118164,2019-06-03 16:31:29:136
0.5039267539978027,-1.413787603378296,-9.859201431274414,0.04102269676963249,-0.007192290965057714,-0.0038625266101180813,8.500000953674316,2019-06-03 16:31:29:146
0.5206446647644043,-1.392293095588684,-9.861589431762695,0.045417986155077666,-0.005460813375653429,-0.00319657379114502,8.510001182556152,2019-06-03 16:31:29:156
0.5373626351356506,-1.428117275238037,-9.847260475158691,0.04528479481106008,-0.0037293360463234696,-0.008257815475414612,8.519996643066406,2019-06-03 16:31:29:166
0.5110915899276733,-1.3540805578231812,-9.885472297668457,0.038358886534037545,-0.005993575630831878,-0.009722911937229673,8.529997825622559,2019-06-03 16:31:29:176
0.5612454414367676,-1.3851282596588135,-9.902190208435059,0.03889164774891869,-0.005993575630831878,-0.0038625266101180813,8.540017127990723,2019-06-03 16:31:29:186
0.5445274710655212,-1.3946813344955444,-9.873531341552734,0.04461884225216134,-0.005194432248064204,-0.0050612419443439175,8.550006866455078,2019-06-03 16:31:29:196
0.5493040084838867,-1.3875164985656738,-9.854424476623535,0.03862526506088352,-0.007991434347825389,-0.0062599567584211025,8.559998989105225,2019-06-03 16:31:29:206
0.5445274710655212,-1.3731868267059326,-9.849648475646973,0.04222141054341237,-0.0005327622876877398,-0.0002663811438438699,8.569998741149902,2019-06-03 16:31:29:216
0.5421391725540161,-1.4639413356781006,-9.758893966674805,0.04115588811365008,-0.010522054799848697,-0.004128907737707306,8.579999446868896,2019-06-03 16:31:29:226
0.5946813225746155,-1.473494529724121,-9.863978385925293,0.040756314081597314,-0.004661669992885756,-0.001997858586956347,8.590023040771484,2019-06-03 16:31:29:236
0.5516923069953918,-1.4591648578643799,-9.840095520019531,0.04315374579034629,-0.005860385327111591,-0.0027970020997611835,8.600017547607422,2019-06-03 16:31:29:246
0.5851281881332397,-1.4496116638183594,-9.806659698486328,0.04568436468192364,-0.0018646680231617348,0.0023974304083773466,8.610002517700195,2019-06-03 16:31:29:256
0.5397509336471558,-1.4352819919586182,-9.806659698486328,0.04368650700522743,-0.006792719013599553,-0.003596145482528857,8.619997501373291,2019-06-03 16:31:29:266
0.5349743366241455,-1.4209524393081665,-9.902190208435059,0.038225695190019955,-0.0013319057679832855,-0.0011987152041886733,8.629997253417969,2019-06-03 16:31:29:276
0.5254212617874146,-1.3731868267059326,-9.775611877441406,0.03662740738418731,-0.00159828689557251,-0.00319657379114502,9.111542701721191,2019-06-03 16:31:29:757
0.5755751132965088,-1.3636337518692017,-9.785164833068848,0.04102269676963249,-0.005194432248064204,-0.0009323340115808674,9.120048522949219,2019-06-03 16:31:29:766
0.5875164866447449,-1.4782710075378418,-9.928461074829102,0.037160168599068455,0.00013319057192193496,-0.0050612419443439175,9.130003452301025,2019-06-03 16:31:29:776
0.5612454414367676,-1.3970695734024048,-9.868754386901855,0.03995717017868099,-0.005594004199522367,-0.0010655245753754797,9.139994144439697,2019-06-03 16:31:29:786
0.5660219788551331,-1.366021990776062,-9.81621265411377,0.0419550320165664,-0.004661669992885756,0.0009323340115808674,9.1500244140625,2019-06-03 16:31:29:796
0.5158681273460388,-1.494989037513733,-9.897414207458496,0.042620984575465135,-0.0018646680231617348,-0.008524196603003837,9.160083770751953,2019-06-03 16:31:29:806
0.5779633522033691,-1.4424468278884888,-9.859201431274414,0.029301925075112006,-0.007725053220236163,0.0025306209721719587,9.170035362243652,2019-06-03 16:31:29:816
0.5636336803436279,-1.3588571548461914,-9.842483520507812,0.041821840672548814,-0.0013319057679832855,-0.005327623071933142,9.180031776428223,2019-06-03 16:31:29:826
0.5421391725540161,-1.4687179327011108,-9.906967163085938,0.038225695190019955,-0.008257815475414612,-0.008790577730593063,9.190010070800781,2019-06-03 16:31:29:836
0.5779633522033691,-1.4209524393081665,-9.825765609741211,0.03742655128710363,-0.006526337886010328,-0.002663811535966571,9.200000762939453,2019-06-03 16:31:29:846
0.5158681273460388,-1.356468915939331,-9.837706565856934,0.04328693713436387,-0.012519913516842205,-0.005194432248064204,9.210000991821289,2019-06-03 16:31:29:856
0.5397509336471558,-1.4543882608413696,-9.871142387390137,0.04022355286671616,-0.004661669992885756,-0.0018646680231617348,9.220001220703125,2019-06-03 16:31:29:866
0.5684102773666382,-1.4591648578643799,-9.837706565856934,0.03569507213725339,-0.009056959378330936,0.0009323340115808674,9.230039119720459,2019-06-03 16:31:29:876
0.5445274710655212,-1.3899047374725342,-9.880696296691895,0.03662740738418731,-0.003063383227350408,-0.004661669992885756,9.240006446838379,2019-06-03 16:31:29:886
0.5230329632759094,-1.45677649974823,-9.840095520019531,0.043819698349245026,-0.005327623071933142,0.0017314774593671222,9.25000286102295,2019-06-03 16:31:29:896
0.5564688444137573,-1.4161758422851562,-9.754117012023926,0.04328693713436387,-0.0003995717238931275,-0.002264239844582734,9.260005950927734,2019-06-03 16:31:29:906
0.4681025743484497,-1.3325860500335693,-9.794717788696289,0.041289075296478454,-0.0037293360463234696,-0.004262098301501919,9.270000457763672,2019-06-03 16:31:29:916
0.5015384554862976,-1.3684102296829224,-9.93323802947998,0.04302055444632869,-0.004528479689165468,-0.0023974304083773466,9.279996395111084,2019-06-03 16:31:29:926
0.5254212617874146,-1.4424468278884888,-9.983391761779785,0.03795931250198478,-0.005460813375653429,-0.005993575630831878,9.290023803710938,2019-06-03 16:31:29:936
0.5516923069953918,-1.366021990776062,-9.854424476623535,0.037026977255050865,-0.0010655245753754797,0.0011987152041886733,9.300006866455078,2019-06-03 16:31:29:946
0.5015384554862976,-1.33975088596344,-9.770834922790527,0.04421926822010858,-0.004794860816754693,-0.0027970020997611835,9.3099946975708,2019-06-03 16:31:29:956
0.49915018677711487,-1.4185640811920166,-9.883084297180176,0.038358886534037545,-0.010255674192408122,0.0017314774593671222,9.319996356964111,2019-06-03 16:31:29:966
0.5445274710655212,-1.392293095588684,-9.859201431274414,0.038092503846002365,-0.0021310491507509593,-0.005993575630831878,9.329999923706055,2019-06-03 16:31:29:976
0.5110915899276733,-1.3540805578231812,-9.863978385925293,0.040756314081597314,-0.0037293360463234696,0.000799143447786255,9.339997291564941,2019-06-03 16:31:29:986
0.5230329632759094,-1.4687179327011108,-9.777999877929688,0.041555457984513634,-0.001997858586956347,-0.006126766454700816,9.350016593933105,2019-06-03 16:31:29:996
0.5707985162734985,-1.494989037513733,-9.859201431274414,0.03689379007222248,-0.007059100141188776,0.0,9.360038757324219,2019-06-03 16:31:30:006
0.5445274710655212,-1.3540805578231812,-9.854424476623535,0.03995717017868099,-0.0037293360463234696,0.0017314774593671222,9.37000846862793,2019-06-03 16:31:30:016
0.5469157695770264,-1.4520000219345093,-9.859201431274414,0.03929121761978226,-0.005194432248064204,-0.001997858586956347,9.379996299743652,2019-06-03 16:31:30:026
0.5397509336471558,-1.4663296937942505,-9.902190208435059,0.03955760030781742,-0.0009323340115808674,-0.005327623071933142,9.389996528625488,2019-06-03 16:31:30:036
0.554080605506897,-1.3994579315185547,-9.868754386901855,0.041555457984513634,-0.002264239844582734,-0.0033297643549396326,9.400000095367432,2019-06-03 16:31:30:046
0.5707985162734985,-1.4591648578643799,-9.832930564880371,0.04235460188742996,-0.007192290965057714,-0.008524196603003837,9.409997940063477,2019-06-03 16:31:30:056
0.5254212617874146,-1.45677649974823,-9.890249252319336,0.03795931250198478,-0.004128907737707306,-0.004528479689165468,9.41999626159668,2019-06-03 16:31:30:066
0.5206446647644043,-1.3875164985656738,-9.785164833068848,0.03849207371686592,-0.007059100141188776,-0.007591862396367225,9.429998874664307,2019-06-03 16:31:30:076
0.5397509336471558,-1.3946813344955444,-9.856813430786133,0.04288736310231111,-0.004262098301501919,-0.007991434347825389,9.439996719360352,2019-06-03 16:31:30:086
0.5469157695770264,-1.4711061716079712,-9.81621265411377,0.03516231092237225,-0.0021310491507509593,-0.0062599567584211025,9.45002269744873,2019-06-03 16:31:30:096
0.5087032914161682,-1.437670350074768,-9.792329788208008,0.03649421604016972,-0.006126766454700816,-0.003063383227350408,9.46005392074585,2019-06-03 16:31:30:106
0.5469157695770264,-1.3803516626358032,-9.859201431274414,0.044752033596178936,-0.005594004199522367,-0.006925909837468489,9.470033645629883,2019-06-03 16:31:30:116
0.5325860977172852,-1.3994579315185547,-9.875919342041016,0.040623122737579724,-0.004794860816754693,-0.006126766454700816,9.480010509490967,2019-06-03 16:31:30:126
0.5564688444137573,-1.3827399015426636,-9.81860065460205,0.04022355286671616,-0.006925909837468489,-0.004794860816754693,9.48999547958374,2019-06-03 16:31:30:136
0.5421391725540161,-1.4066227674484253,-9.91890811920166,0.0398239829958526,-0.006925909837468489,-0.00492805112047498,9.500001907348633,2019-06-03 16:31:30:146
0.5707985162734985,-1.4042344093322754,-9.878307342529297,0.04142226664049605,0.0006659528839916427,-0.006925909837468489,9.510003089904785,2019-06-03 16:31:30:156
0.5469157695770264,-1.4161758422851562,-9.832930564880371,0.037026977255050865,-0.003995717173912694,-0.0037293360463234696,9.520001411437988,2019-06-03 16:31:30:166
0.5612454414367676,-1.392293095588684,-9.852036476135254,0.03755974263112122,-0.005194432248064204,-0.0038625266101180813,9.530035972595215,2019-06-03 16:31:30:176
0.554080605506897,-1.3875164985656738,-9.828153610229492,0.045950747369958814,-0.0034629549187342444,-0.0017314774593671222,9.540083885192871,2019-06-03 16:31:30:186
0.5875164866447449,-1.4305055141448975,-9.863978385925293,0.03915802627576466,0.00013319057192193496,-0.006925909837468489,9.55002212524414,2019-06-03 16:31:30:196
0.5779633522033691,-1.392293095588684,-9.895025253295898,0.03689379007222248,-0.007192290965057714,-0.0002663811438438699,9.560006141662598,2019-06-03 16:31:30:206
0.5349743366241455,-1.4185640811920166,-9.892637252807617,0.0387584564049011,-0.0021310491507509593,-0.005860385327111591,9.569997787475586,2019-06-03 16:31:30:216
0.5779633522033691,-1.413787603378296,-9.81621265411377,0.04142226664049605,-0.005993575630831878,-0.009456530289491798,9.579997062683105,2019-06-03 16:31:30:226
0.5469157695770264,-1.3994579315185547,-9.9117431640625,0.03476273897091409,-0.005993575630831878,-0.004528479689165468,9.589996337890625,2019-06-03 16:31:30:236
0.5110915899276733,-1.3851282596588135,-9.844871520996094,0.040623122737579724,-0.008657386906724124,-0.007458672092646939,9.600031852722168,2019-06-03 16:31:30:246
0.5684102773666382,-1.4090110063552856,-9.921297073364258,0.03942440896379984,-0.004794860816754693,-0.001997858586956347,9.610006332397461,2019-06-03 16:31:30:256
0.5015384554862976,-1.3731868267059326,-9.847260475158691,0.04102269676963249,-0.003596145482528857,-0.00492805112047498,9.620007038116455,2019-06-03 16:31:30:266
0.5755751132965088,-1.3946813344955444,-9.82337760925293,0.041821840672548814,-0.006925909837468489,-0.0050612419443439175,9.63000202178955,2019-06-03 16:31:30:276
0.5421391725540161,-1.3899047374725342,-9.847260475158691,0.04048993555475134,-0.007725053220236163,-0.005194432248064204,9.639997959136963,2019-06-03 16:31:30:286
0.5469157695770264,-1.3779634237289429,-9.973838806152344,0.04275417175829352,-0.006126766454700816,-0.00492805112047498,10.18014907836914,2019-06-03 16:31:30:826
0.5516923069953918,-1.3875164985656738,-9.83054256439209,0.03542869361040742,-0.008257815475414612,-0.005594004199522367,10.19002628326416,2019-06-03 16:31:30:836
0.5779633522033691,-1.3278095722198486,-9.847260475158691,0.04288736310231111,-0.0010655245753754797,-0.0021310491507509593,10.200002193450928,2019-06-03 16:31:30:846
0.5588571429252625,-1.4209524393081665,-9.949955940246582,0.03915802627576466,-0.0050612419443439175,-0.009456530289491798,10.210016250610352,2019-06-03 16:31:30:856
0.5851281881332397,-1.3469157218933105,-9.952343940734863,0.03329764250909902,-0.006792719013599553,-0.00492805112047498,10.22005033493042,2019-06-03 16:31:30:866
0.518256425857544,-1.3469157218933105,-9.832930564880371,0.03955760030781742,-0.005460813375653429,-0.006126766454700816,10.230061531066895,2019-06-03 16:31:30:876
0.5373626351356506,-1.411399245262146,-9.902190208435059,0.038358886534037545,-0.003596145482528857,-0.004128907737707306,10.240012168884277,2019-06-03 16:31:30:886
0.5684102773666382,-1.3779634237289429,-9.873531341552734,0.03569507213725339,-0.00639314758229004,-0.0023974304083773466,10.250007629394531,2019-06-03 16:31:30:896
0.5373626351356506,-1.3540805578231812,-9.895025253295898,0.040756314081597314,-0.0034629549187342444,-0.008257815475414612,10.260000705718994,2019-06-03 16:31:30:906
0.5278095006942749,-1.4161758422851562,-9.873531341552734,0.038358886534037545,-0.006126766454700816,-0.0002663811438438699,10.269996643066406,2019-06-03 16:31:30:916
0.5230329632759094,-1.428117275238037,-9.868754386901855,0.032764881294217875,-0.005194432248064204,-0.006925909837468489,10.280024528503418,2019-06-03 16:31:30:926
0.5325860977172852,-1.3946813344955444,-9.832930564880371,0.03929121761978226,-0.00319657379114502,-0.009722911937229673,10.290026187896729,2019-06-03 16:31:30:936
0.5684102773666382,-1.4066227674484253,-9.873531341552734,0.03755974263112122,-0.0033297643549396326,-0.006659528709879265,10.300009727478027,2019-06-03 16:31:30:946
0.5373626351356506,-1.428117275238037,-9.883084297180176,0.03889164774891869,-0.00492805112047498,-0.008790577730593063,10.310016632080078,2019-06-03 16:31:30:956
0.5230329632759094,-1.375575065612793,-9.856813430786133,0.03662740738418731,-0.005993575630831878,-0.006792719013599553,10.32000732421875,2019-06-03 16:31:30:966
0.5564688444137573,-1.4185640811920166,-9.887861251831055,0.03689379007222248,-0.010522054799848697,-0.008923768034313348,10.329999923706055,2019-06-03 16:31:30:976
0.5875164866447449,-1.4591648578643799,-9.883084297180176,0.03889164774891869,-0.0050612419443439175,-0.00985610224094996,10.340051174163818,2019-06-03 16:31:30:986
0.5660219788551331,-1.3970695734024048,-9.82337760925293,0.03609464616930616,-0.0013319057679832855,-0.00785824352395645,10.35002613067627,2019-06-03 16:31:30:996
0.5469157695770264,-1.3946813344955444,-9.83054256439209,0.03689379007222248,-0.006792719013599553,-0.009190149682051223,10.36000919342041,2019-06-03 16:31:31:006
0.5564688444137573,-1.413787603378296,-9.897414207458496,0.033697214460557186,-0.0034629549187342444,-0.007458672092646939,10.369999885559082,2019-06-03 16:31:31:016
0.5039267539978027,-1.3827399015426636,-9.861589431762695,0.031699356783860974,-0.008124624651545674,-0.007458672092646939,10.379999160766602,2019-06-03 16:31:31:026
0.5397509336471558,-1.4090110063552856,-9.878307342529297,0.038358886534037545,-0.0033297643549396326,-0.005594004199522367,10.389994621276855,2019-06-03 16:31:31:036
0.5516923069953918,-1.3803516626358032,-9.883084297180176,0.03755974263112122,-0.003063383227350408,-0.005327623071933142,10.400023460388184,2019-06-03 16:31:31:046
0.5421391725540161,-1.375575065612793,-9.899802207946777,0.04115588811365008,-0.004395288865296531,-0.008524196603003837,10.410030364990234,2019-06-03 16:31:31:056
0.554080605506897,-1.4257289171218872,-9.806659698486328,0.037026977255050865,-0.0062599567584211025,-0.005194432248064204,10.420023918151855,2019-06-03 16:31:31:066
0.5851281881332397,-1.4424468278884888,-9.866366386413574,0.03129978483240282,-0.00159828689557251,-0.005460813375653429,10.43000602722168,2019-06-03 16:31:31:076
0.518256425857544,-1.3493040800094604,-9.871142387390137,0.03556188079323581,-0.0034629549187342444,-0.008257815475414612,10.440002918243408,2019-06-03 16:31:31:086
0.518256425857544,-1.4042344093322754,-9.842483520507812,0.03915802627576466,-0.006126766454700816,-0.00319657379114502,10.450000762939453,2019-06-03 16:31:31:096
0.5469157695770264,-1.4233406782150269,-9.885472297668457,0.040756314081597314,0.0005327622876877398,-0.005194432248064204,10.460071563720703,2019-06-03 16:31:31:106
0.5230329632759094,-1.3230329751968384,-9.875919342041016,0.03636102469615213,-0.00785824352395645,-0.005194432248064204,10.470089435577393,2019-06-03 16:31:31:116
0.5851281881332397,-1.392293095588684,-9.82337760925293,0.04022355286671616,-0.005594004199522367,-0.0011987152041886733,10.480026721954346,2019-06-03 16:31:31:126
0.5063149929046631,-1.4854358434677124,-9.871142387390137,0.04275417175829352,-0.003995717173912694,-0.005727194503242653,10.490005493164062,2019-06-03 16:31:31:136
0.554080605506897,-1.3875164985656738,-9.861589431762695,0.03676059872820489,-0.0014650963317778978,-0.0010655245753754797,10.500006675720215,2019-06-03 16:31:31:146
0.5612454414367676,-1.4400585889816284,-9.81621265411377,0.03662740738418731,-0.0009323340115808674,-0.0033297643549396326,10.510002136230469,2019-06-03 16:31:31:156
0.5612454414367676,-1.4161758422851562,-9.935626029968262,0.037293359943086045,-0.003596145482528857,-0.0006659528839916427,10.520025253295898,2019-06-03 16:31:31:166
0.5684102773666382,-1.4496116638183594,-9.835318565368652,0.03969079165183501,-0.002663811535966571,0.0013319057679832855,10.530005931854248,2019-06-03 16:31:31:176
0.49915018677711487,-1.411399245262146,-9.81143569946289,0.04222141054341237,-0.0034629549187342444,-0.0014650963317778978,10.540000915527344,2019-06-03 16:31:31:186
0.5254212617874146,-1.473494529724121,-9.902190208435059,0.0398239829958526,-0.009722911937229673,0.0010655245753754797,10.55000114440918,2019-06-03 16:31:31:196
0.5779633522033691,-1.5021538734436035,-9.878307342529297,0.037160168599068455,-0.004128907737707306,0.001997858586956347,10.560050010681152,2019-06-03 16:31:31:206
0.5278095006942749,-1.3731868267059326,-9.849648475646973,0.03556188079323581,-0.004128907737707306,0.0,10.570005893707275,2019-06-03 16:31:31:216
0.5230329632759094,-1.4400585889816284,-9.847260475158691,0.04248779323144755,-0.007192290965057714,-0.0025306209721719587,10.579996109008789,2019-06-03 16:31:31:226
0.5803516507148743,-1.5021538734436035,-9.93323802947998,0.03476273897091409,-0.005327623071933142,-0.0010655245753754797,10.589995384216309,2019-06-03 16:31:31:236
0.5564688444137573,-1.3994579315185547,-9.873531341552734,0.03742655128710363,-0.007725053220236163,-0.0025306209721719587,10.600001335144043,2019-06-03 16:31:31:246
0.48482051491737366,-1.3851282596588135,-9.873531341552734,0.04461884225216134,-0.008657386906724124,-0.005194432248064204,10.611859321594238,2019-06-03 16:31:31:258
0.5421391725540161,-1.4806593656539917,-9.866366386413574,0.040623122737579724,-0.007458672092646939,-0.0009323340115808674,10.620074272155762,2019-06-03 16:31:31:266
0.5445274710655212,-1.428117275238037,-9.842483520507812,0.03902483909293628,-0.008124624651545674,-0.005194432248064204,10.630008220672607,2019-06-03 16:31:31:276
0.5278095006942749,-1.3421392440795898,-9.873531341552734,0.04035674421073375,-0.00492805112047498,-0.0017314774593671222,10.640003204345703,2019-06-03 16:31:31:286
0.5636336803436279,-1.4424468278884888,-9.966673851013184,0.03995717017868099,-0.0010655245753754797,-0.0027970020997611835,10.649999618530273,2019-06-03 16:31:31:296
0.5707985162734985,-1.3851282596588135,-9.866366386413574,0.03995717017868099,-0.003063383227350408,-0.004528479689165468,10.660005569458008,2019-06-03 16:31:31:306
0.5349743366241455,-1.2991502285003662,-9.840095520019531,0.04328693713436387,-0.008524196603003837,0.00013319057192193496,10.670001983642578,2019-06-03 16:31:31:316
0.5684102773666382,-1.3779634237289429,-9.895025253295898,0.040623122737579724,-0.0034629549187342444,-0.004128907737707306,10.680001258850098,2019-06-03 16:31:31:326
0.5469157695770264,-1.3684102296829224,-9.873531341552734,0.037160168599068455,-0.004661669992885756,-0.007458672092646939,10.689997673034668,2019-06-03 16:31:31:336
0.5063149929046631,-1.2991502285003662,-9.909355163574219,0.03742655128710363,-0.005993575630831878,-0.004794860816754693,10.700005531311035,2019-06-03 16:31:31:346
0.53019779920578,-1.3469157218933105,-9.9117431640625,0.043420124317192256,-0.005993575630831878,-0.005460813375653429,10.70999813079834,2019-06-03 16:31:31:356
0.5421391725540161,-1.3445274829864502,-9.91890811920166,0.03862526506088352,-0.005860385327111591,-0.0009323340115808674,10.720025539398193,2019-06-03 16:31:31:366
0.5039267539978027,-1.2800439596176147,-9.847260475158691,0.03955760030781742,-0.00492805112047498,-0.0013319057679832855,10.730000972747803,2019-06-03 16:31:31:376
0.518256425857544,-1.303926706314087,-9.844871520996094,0.0398239829958526,0.0006659528839916427,-0.0033297643549396326,10.739992141723633,2019-06-03 16:31:31:386
0.5349743366241455,-1.3684102296829224,-9.873531341552734,0.03862526506088352,-0.005993575630831878,-0.005194432248064204,10.750001907348633,2019-06-03 16:31:31:396
0.518256425857544,-1.3063150644302368,-9.890249252319336,0.03516231092237225,-0.00492805112047498,-0.00013319057192193496,10.759998798370361,2019-06-03 16:31:31:406
0.5110915899276733,-1.2776557207107544,-9.849648475646973,0.03596145482528857,-0.0034629549187342444,-0.005860385327111591,10.770005702972412,2019-06-03 16:31:31:416
0.5206446647644043,-1.3588571548461914,-9.83054256439209,0.03516231092237225,-0.0025306209721719587,-0.0038625266101180813,10.780075073242188,2019-06-03 16:31:31:426
0.5158681273460388,-1.3373626470565796,-9.887861251831055,0.03556188079323581,-0.0018646680231617348,-0.00013319057192193496,10.790032386779785,2019-06-03 16:31:31:436
0.5397509336471558,-1.375575065612793,-9.835318565368652,0.03476273897091409,-0.0021310491507509593,-0.0050612419443439175,10.800008773803711,2019-06-03 16:31:31:446
0.5516923069953918,-1.401846170425415,-9.842483520507812,0.03755974263112122,-0.00639314758229004,-0.00492805112047498,10.809999465942383,2019-06-03 16:31:31:456
0.518256425857544,-1.4090110063552856,-9.880696296691895,0.03849207371686592,-0.0038625266101180813,-0.00639314758229004,10.820019245147705,2019-06-03 16:31:31:466
0.5158681273460388,-1.437670350074768,-9.866366386413574,0.033697214460557186,-0.005727194503242653,-0.005327623071933142,10.830000877380371,2019-06-03 16:31:31:476
0.5254212617874146,-1.4448351860046387,-9.866366386413574,0.03915802627576466,-0.005993575630831878,-0.004794860816754693,10.84000015258789,2019-06-03 16:31:31:486
0.5827399492263794,-1.4663296937942505,-9.82337760925293,0.04102269676963249,0.0021310491507509593,-0.0050612419443439175,10.850001335144043,2019-06-03 16:31:31:496
0.5564688444137573,-1.483047604560852,-9.868754386901855,0.040623122737579724,-0.0033297643549396326,-0.004128907737707306,10.859996318817139,2019-06-03 16:31:31:506
0.5278095006942749,-1.4782710075378418,-9.844871520996094,0.03942440896379984,-0.008657386906724124,-0.007059100141188776,10.8699951171875,2019-06-03 16:31:31:516
0.5421391725540161,-1.4352819919586182,-9.79710578918457,0.03516231092237225,-0.005194432248064204,-0.0023974304083773466,11.7301926612854,2019-06-03 16:31:32:376
0.5564688444137573,-1.4496116638183594,-9.825765609741211,0.038092503846002365,-0.005860385327111591,-0.0025306209721719587,11.740018844604492,2019-06-03 16:31:32:386
0.5278095006942749,-1.4758827686309814,-9.859201431274414,0.03556188079323581,-0.004794860816754693,0.0002663811438438699,11.750003337860107,2019-06-03 16:31:32:396
0.5755751132965088,-1.437670350074768,-9.81621265411377,0.03636102469615213,-0.0038625266101180813,-0.005727194503242653,11.760045051574707,2019-06-03 16:31:32:406
0.5564688444137573,-1.3707985877990723,-9.885472297668457,0.04048993555475134,0.0005327622876877398,-0.006659528709879265,11.770012378692627,2019-06-03 16:31:32:416
0.5469157695770264,-1.4352819919586182,-9.873531341552734,0.03782612115796719,-0.0050612419443439175,-0.0027970020997611835,11.780054092407227,2019-06-03 16:31:32:426
0.5803516507148743,-1.4161758422851562,-9.859201431274414,0.033697214460557186,-0.004661669992885756,-0.00319657379114502,11.790018081665039,2019-06-03 16:31:32:436
0.5660219788551331,-1.413787603378296,-9.861589431762695,0.038358886534037545,-0.003995717173912694,-0.011720770654223183,11.800002098083496,2019-06-03 16:31:32:446
0.5254212617874146,-1.3970695734024048,-9.856813430786133,0.03676059872820489,-0.007325481268778002,-0.004794860816754693,11.809998035430908,2019-06-03 16:31:32:456
0.5636336803436279,-1.411399245262146,-9.83054256439209,0.03889164774891869,-0.007192290965057714,-0.0037293360463234696,11.819995880126953,2019-06-03 16:31:32:466
0.5588571429252625,-1.3946813344955444,-9.871142387390137,0.04035674421073375,-0.007325481268778002,-0.004395288865296531,11.830012321472168,2019-06-03 16:31:32:476
0.5636336803436279,-1.411399245262146,-9.844871520996094,0.03795931250198478,-0.0017314774593671222,0.0,11.8400297164917,2019-06-03 16:31:32:486
0.5588571429252625,-1.4090110063552856,-9.828153610229492,0.03449635836347351,-0.00319657379114502,-0.005327623071933142,11.850006103515625,2019-06-03 16:31:32:496
0.554080605506897,-1.3707985877990723,-9.880696296691895,0.03915802627576466,-0.004661669992885756,0.0005327622876877398,11.860000610351562,2019-06-03 16:31:32:506
0.554080605506897,-1.411399245262146,-9.875919342041016,0.03662740738418731,-0.007591862396367225,-0.00013319057192193496,11.870006561279297,2019-06-03 16:31:32:516
0.5039267539978027,-1.3516923189163208,-9.914132118225098,0.04035674421073375,-0.00639314758229004,-0.004262098301501919,11.880000114440918,2019-06-03 16:31:32:526
0.5516923069953918,-1.4042344093322754,-9.890249252319336,0.03889164774891869,-0.00639314758229004,-0.00319657379114502,11.889999389648438,2019-06-03 16:31:32:536
0.49676191806793213,-1.4066227674484253,-9.902190208435059,0.03516231092237225,-0.00159828689557251,-0.0003995717238931275,11.900001049041748,2019-06-03 16:31:32:546
0.5469157695770264,-1.3803516626358032,-9.935626029968262,0.03569507213725339,-0.005727194503242653,-0.004528479689165468,11.909993171691895,2019-06-03 16:31:32:556
0.5493040084838867,-1.411399245262146,-9.849648475646973,0.03782612115796719,-0.005727194503242653,-0.003063383227350408,11.919998168945312,2019-06-03 16:31:32:566
0.5516923069953918,-1.4305055141448975,-9.880696296691895,0.038358886534037545,-0.006526337886010328,-0.0014650963317778978,11.929996013641357,2019-06-03 16:31:32:576
0.53019779920578,-1.4520000219345093,-9.81860065460205,0.041289075296478454,0.0002663811438438699,0.0009323340115808674,11.939995288848877,2019-06-03 16:31:32:586
0.5349743366241455,-1.3994579315185547,-9.81860065460205,0.040623122737579724,-0.005993575630831878,-0.007725053220236163,11.950001239776611,2019-06-03 16:31:32:596
0.5278095006942749,-1.4328937530517578,-9.80188274383545,0.038092503846002365,-0.0062599567584211025,-0.003063383227350408,11.960037231445312,2019-06-03 16:31:32:606
0.5588571429252625,-1.4591648578643799,-9.875919342041016,0.04208821919939479,-0.007325481268778002,-0.00492805112047498,11.970008373260498,2019-06-03 16:31:32:616
0.5158681273460388,-1.4782710075378418,-9.81621265411377,0.041289075296478454,-0.006925909837468489,-0.006925909837468489,11.980002403259277,2019-06-03 16:31:32:626
0.5875164866447449,-1.4305055141448975,-9.880696296691895,0.041688649328531224,-0.007991434347825389,-0.005727194503242653,11.989999771118164,2019-06-03 16:31:32:636
0.5087032914161682,-1.4878242015838623,-9.871142387390137,0.041555457984513634,-0.005727194503242653,-0.006526337886010328,12.000005722045898,2019-06-03 16:31:32:646
0.5278095006942749,-1.5093187093734741,-9.859201431274414,0.03489593031493167,-0.006126766454700816,-0.006126766454700816,12.00999402999878,2019-06-03 16:31:32:656
0.5707985162734985,-1.4233406782150269,-9.854424476623535,0.03929121761978226,-0.005594004199522367,-0.006526337886010328,12.02000904083252,2019-06-03 16:31:32:666
0.5445274710655212,-1.437670350074768,-9.832930564880371,0.03782612115796719,-0.010388864496128409,-0.0034629549187342444,12.029996871948242,2019-06-03 16:31:32:676
0.5755751132965088,-1.4305055141448975,-9.878307342529297,0.0376929298139496,-0.0018646680231617348,-0.00159828689557251,12.040024280548096,2019-06-03 16:31:32:686
0.5612454414367676,-1.4496116638183594,-9.849648475646973,0.04315374579034629,-0.0025306209721719587,-0.004661669992885756,12.050003051757812,2019-06-03 16:31:32:696
0.5660219788551331,-1.4400585889816284,-9.906967163085938,0.041821840672548814,-0.007991434347825389,0.00013319057192193496,12.059994220733643,2019-06-03 16:31:32:706
