ACCELEROMETER X (m/s²),ACCELEROMETER Y (m/s²),ACCELEROMETER Z (m/s²),GYROSCOPE X (rad/s),GYROSCOPE Y (rad/s),GYROSCOPE Z (rad/s),Time since start in ms ,YYYY-MO-DD HH-MI-SS_SSS
0.08358974009752274,-1.1869010925292969,-9.902190208435059,0.038092503846002365,-0.005993575630831878,-0.009722911937229673,0.0,2019-06-03 16:21:00:434
0.05970695987343788,-1.1582417488098145,-9.9117431640625,0.03422997775603293,-0.006792719013599553,-0.008391005779134899,0.009990692138671875,2019-06-03 16:21:00:444
0.05493040382862091,-1.129582405090332,-9.847260475158691,0.03889164774891869,0.0013319057679832855,-0.005727194503242653,0.019982337951660156,2019-06-03 16:21:00:454
0.06926007568836212,-1.177348017692566,-9.914132118225098,0.04035674421073375,-0.008657386906724124,-0.009456530289491798,0.029984474182128906,2019-06-03 16:21:00:464
0.09075457602739334,-1.1845128536224365,-9.828153610229492,0.04022355286671616,-0.0010655245753754797,-0.00319657379114502,0.039983272552490234,2019-06-03 16:21:00:474
0.04537728801369667,-1.1176409721374512,-9.906967163085938,0.03582826348127098,-0.004528479689165468,-0.003063383227350408,0.04998207092285156,2019-06-03 16:21:00:484
0.09553113579750061,-1.1940659284591675,-9.847260475158691,0.041688649328531224,-0.005860385327111591,-0.007192290965057714,0.06000328063964844,2019-06-03 16:21:00:494
0.09553113579750061,-1.2179486751556396,-9.978615760803223,0.0408895054256149,-0.0011987152041886733,-0.0017314774593671222,0.06999969482421875,2019-06-03 16:21:00:504
0.11702564358711243,-1.1606299877166748,-9.847260475158691,0.03849207371686592,-0.003596145482528857,-0.0010655245753754797,0.0799703598022461,2019-06-03 16:21:00:514
0.06687179207801819,-1.1845128536224365,-9.866366386413574,0.03929121761978226,-0.00492805112047498,-0.002264239844582734,0.0899658203125,2019-06-03 16:21:00:524
0.09791941195726395,-1.1869010925292969,-9.942790985107422,0.03329764250909902,-0.004794860816754693,-0.004128907737707306,0.09998416900634766,2019-06-03 16:21:00:534
0.12419047951698303,-1.1821244955062866,-9.825765609741211,0.03343083385311661,-0.004794860816754693,-0.002663811535966571,0.10997962951660156,2019-06-03 16:21:00:544
0.042989011853933334,-1.1725714206695557,-9.957120895385742,0.03742655128710363,-0.0027970020997611835,0.0010655245753754797,0.11997413635253906,2019-06-03 16:21:00:554
0.08836629986763,-1.177348017692566,-9.902190208435059,0.04222141054341237,-0.006925909837468489,0.0014650963317778978,0.12996196746826172,2019-06-03 16:21:00:564
0.10508424788713455,-1.10331130027771,-9.906967163085938,0.037026977255050865,-0.007458672092646939,0.0027970020997611835,0.13996219635009766,2019-06-03 16:21:00:574
0.062095239758491516,-1.1677948236465454,-9.859201431274414,0.03742655128710363,-0.006925909837468489,0.002264239844582734,0.14997053146362305,2019-06-03 16:21:00:584
0.052542123943567276,-1.155853509902954,-9.921297073364258,0.03689379007222248,-0.0038625266101180813,-0.00159828689557251,0.15998077392578125,2019-06-03 16:21:00:594
0.08836629986763,-1.1916776895523071,-9.895025253295898,0.03636102469615213,-0.006126766454700816,0.0033297643549396326,0.16999197006225586,2019-06-03 16:21:00:604
0.07642491161823273,-1.1630183458328247,-9.859201431274414,0.038225695190019955,0.00013319057192193496,0.0021310491507509593,0.179962158203125,2019-06-03 16:21:00:614
0.10986080765724182,-1.1701831817626953,-9.849648475646973,0.04009036152269858,-0.005327623071933142,0.0002663811438438699,0.18998432159423828,2019-06-03 16:21:00:624
0.028659339994192123,-1.1845128536224365,-9.93801498413086,0.04048993555475134,-0.005860385327111591,0.0018646680231617348,0.19998550415039062,2019-06-03 16:21:00:634
0.05015384778380394,-1.1821244955062866,-9.842483520507812,0.03582826348127098,-0.005327623071933142,-0.0003995717238931275,0.20998191833496094,2019-06-03 16:21:00:644
0.031047619879245758,-1.1821244955062866,-9.849648475646973,0.03969079165183501,-0.006925909837468489,-0.000799143447786255,0.2199721336364746,2019-06-03 16:21:00:654
0.0740366280078888,-1.1821244955062866,-9.854424476623535,0.03676059872820489,-0.002663811535966571,0.0005327622876877398,0.2299633026123047,2019-06-03 16:21:00:664
0.052542123943567276,-1.2083956003189087,-9.871142387390137,0.031033404224962244,-0.005194432248064204,-0.0025306209721719587,0.2399616241455078,2019-06-03 16:21:00:674
0.07642491161823273,-1.1677948236465454,-9.895025253295898,0.03449635836347351,-0.0017314774593671222,-0.0018646680231617348,0.2499866485595703,2019-06-03 16:21:00:684
0.033435896039009094,-1.1439120769500732,-9.923685073852539,0.03476273897091409,-0.005860385327111591,0.0011987152041886733,0.25997066497802734,2019-06-03 16:21:00:694
0.016717948019504547,-1.1701831817626953,-9.952343940734863,0.03582826348127098,-0.004661669992885756,0.0010655245753754797,0.26998233795166016,2019-06-03 16:21:00:704
0.11941391974687576,-1.1486886739730835,-9.954732894897461,0.03422997775603293,-0.005727194503242653,-0.004262098301501919,0.2799830436706543,2019-06-03 16:21:00:714
0.06448351591825485,-1.1271941661834717,-9.992944717407227,0.037160168599068455,-0.00639314758229004,-0.0021310491507509593,0.2899637222290039,2019-06-03 16:21:00:724
0.007164834998548031,-1.1224175691604614,-9.794717788696289,0.03223211799874212,-0.006526337886010328,0.000799143447786255,0.29998064041137695,2019-06-03 16:21:00:734
0.09791941195726395,-1.0603224039077759,-9.93323802947998,0.03742655128710363,-0.004262098301501919,-0.005460813375653429,0.3099651336669922,2019-06-03 16:21:00:744
0.047765567898750305,-1.067487120628357,-9.852036476135254,0.038358886534037545,-0.009722911937229673,-0.008391005779134899,0.3199629783630371,2019-06-03 16:21:00:754
0.03582417592406273,-1.1224175691604614,-9.878307342529297,0.03502911957835465,-0.0037293360463234696,-0.007458672092646939,0.32996273040771484,2019-06-03 16:21:00:764
0.09553113579750061,-1.084205150604248,-9.878307342529297,0.03529550226638983,-0.0062599567584211025,-0.009589721633509386,0.3399629592895508,2019-06-03 16:21:00:774
0.08597802370786667,-1.0961464643478394,-9.952343940734863,0.03596145482528857,-0.001997858586956347,-0.008124624651545674,0.34998416900634766,2019-06-03 16:21:00:784
0.1361318677663803,-1.0889816284179688,-9.94040298461914,0.03942440896379984,-0.008524196603003837,-0.00985610224094996,0.3599729537963867,2019-06-03 16:21:00:794
0.1695677638053894,-1.1104761362075806,-9.957120895385742,0.0398239829958526,-0.0023974304083773466,-0.007059100141188776,0.3699655532836914,2019-06-03 16:21:00:804
0.12657874822616577,-1.084205150604248,-9.885472297668457,0.03236530934275971,-0.0021310491507509593,-0.006126766454700816,0.37996578216552734,2019-06-03 16:21:00:814
0.1289670318365097,-1.141523838043213,-9.966673851013184,0.038358886534037545,-0.003995717173912694,-0.005727194503242653,0.38996315002441406,2019-06-03 16:21:00:824
0.1289670318365097,-1.1463003158569336,-9.964285850524902,0.04009036152269858,-0.006659528709879265,-0.00159828689557251,0.3999929428100586,2019-06-03 16:21:00:834
0.09791941195726395,-1.1677948236465454,-9.93323802947998,0.0314329740958258,-0.007192290965057714,-0.0037293360463234696,0.40998172760009766,2019-06-03 16:21:00:844
0.10508424788713455,-1.1534651517868042,-9.91890811920166,0.03622783751332374,-0.006792719013599553,0.0005327622876877398,0.41997718811035156,2019-06-03 16:21:00:854
0.10030769556760788,-1.1797362565994263,-9.80904769897461,0.03755974263112122,-0.008124624651545674,-0.00013319057192193496,0.42997074127197266,2019-06-03 16:21:00:864
0.09553113579750061,-1.1463003158569336,-9.849648475646973,0.03582826348127098,-0.0034629549187342444,0.0002663811438438699,0.43996143341064453,2019-06-03 16:21:00:874
0.05493040382862091,-1.1152527332305908,-9.863978385925293,0.03689379007222248,-0.006925909837468489,0.0006659528839916427,0.44999265670776367,2019-06-03 16:21:00:884
0.06926007568836212,-1.1104761362075806,-9.849648475646973,0.038092503846002365,-0.0038625266101180813,0.0003995717238931275,0.45998430252075195,2019-06-03 16:21:00:894
0.03582417592406273,-1.1486886739730835,-9.875919342041016,0.038358886534037545,-0.009722911937229673,-0.007192290965057714,0.4699840545654297,2019-06-03 16:21:00:904
0.026271061971783638,-1.141523838043213,-9.973838806152344,0.03476273897091409,-0.005860385327111591,-0.006925909837468489,0.4799947738647461,2019-06-03 16:21:00:914
0.03582417592406273,-1.1677948236465454,-9.91890811920166,0.03516231092237225,-0.009323339985771511,-0.011054817055027146,0.48997020721435547,2019-06-03 16:21:00:924
0.047765567898750305,-1.1439120769500732,-9.883084297180176,0.03942440896379984,-0.003596145482528857,-0.006126766454700816,0.4999837875366211,2019-06-03 16:21:00:934
0.0047765569761395454,-1.1988425254821777,-9.883084297180176,0.03955760030781742,-0.005727194503242653,-0.015982868695650777,0.5099682807922363,2019-06-03 16:21:00:944
0.05015384778380394,-1.1869010925292969,-9.897414207458496,0.03862526506088352,-0.004395288865296531,-0.017447965157465835,0.5199623107910156,2019-06-03 16:21:00:954
0.08597802370786667,-1.1582417488098145,-9.923685073852539,0.041289075296478454,-0.002264239844582734,-0.013585438027199106,0.5299620628356934,2019-06-03 16:21:00:964
0.016717948019504547,-1.1988425254821777,-9.92607307434082,0.03782612115796719,-0.005860385327111591,-0.019179443267018773,0.5399832725524902,2019-06-03 16:21:00:974
0.05731867998838425,-1.2251135110855103,-9.928461074829102,0.03582826348127098,-0.0050612419443439175,-0.01957901313788233,0.5499820709228516,2019-06-03 16:21:00:984
0.05731867998838425,-1.1224175691604614,-9.866366386413574,0.0387584564049011,-0.0033297643549396326,-0.015849678391930487,0.559962272644043,2019-06-03 16:21:00:994
0.05015384778380394,-1.1964541673660278,-9.895025253295898,0.038358886534037545,-0.0027970020997611835,-0.013185867116038244,0.5699615478515625,2019-06-03 16:21:01:004
0.07881318777799606,-1.1630183458328247,-9.91890811920166,0.037026977255050865,-0.005993575630831878,-0.013985009978657266,0.5799922943115234,2019-06-03 16:21:01:014
0.047765567898750305,-1.1439120769500732,-9.897414207458496,0.04009036152269858,-0.005460813375653429,-0.017980727412644285,0.5899829864501953,2019-06-03 16:21:01:024
0.047765567898750305,-1.174959659576416,-9.906967163085938,0.04035674421073375,-0.0029301926635557957,-0.015982868695650777,0.5999798774719238,2019-06-03 16:21:01:034
0.09314285963773727,-1.1916776895523071,-9.93801498413086,0.032631689950200285,-0.00319657379114502,-0.01478415388157359,0.6099624633789062,2019-06-03 16:21:01:044
0.08358974009752274,-1.1463003158569336,-9.935626029968262,0.03782612115796719,-0.0029301926635557957,-0.009589721633509386,0.6199617385864258,2019-06-03 16:21:01:054
0.0740366280078888,-1.1080878973007202,-9.863978385925293,0.04102269676963249,-0.004395288865296531,-0.00985610224094996,0.6299619674682617,2019-06-03 16:21:01:064
0.11702564358711243,-1.177348017692566,-9.873531341552734,0.03542869361040742,-0.00013319057192193496,-0.011454389006485306,0.6399698257446289,2019-06-03 16:21:01:074
0.05493040382862091,-1.1439120769500732,-9.9308500289917,0.03782612115796719,-0.004794860816754693,-0.010522054799848697,0.6499786376953125,2019-06-03 16:21:01:084
0.09791941195726395,-1.139135479927063,-9.94517993927002,0.0408895054256149,-0.0021310491507509593,-0.0037293360463234696,0.6599774360656738,2019-06-03 16:21:01:094
0.1146373599767685,-1.258549451828003,-9.964285850524902,0.03676059872820489,-0.006659528709879265,-0.00492805112047498,0.6699695587158203,2019-06-03 16:21:01:104
0.09314285963773727,-1.1940659284591675,-9.883084297180176,0.03662740738418731,-0.0050612419443439175,-0.0062599567584211025,0.6799831390380859,2019-06-03 16:21:01:114
0.14090842008590698,-1.1725714206695557,-9.916520118713379,0.03649421604016972,-0.007725053220236163,-0.00013319057192193496,0.6899623870849609,2019-06-03 16:21:01:124
0.14568498730659485,-1.22272527217865,-9.909355163574219,0.040623122737579724,-0.0037293360463234696,0.002663811535966571,0.6999664306640625,2019-06-03 16:21:01:134
0.1361318677663803,-1.2036190032958984,-9.878307342529297,0.03542869361040742,-0.006526337886010328,0.003995717173912694,0.7100009918212891,2019-06-03 16:21:01:144
0.11941391974687576,-1.1821244955062866,-9.906967163085938,0.03542869361040742,-0.0009323340115808674,0.010122483888687835,0.7199821472167969,2019-06-03 16:21:01:154
0.10747252404689789,-1.248996376991272,-9.880696296691895,0.03862526506088352,-0.0005327622876877398,0.009323339985771511,0.7299666404724121,2019-06-03 16:21:01:164
0.1624029278755188,-1.2322783470153809,-9.906967163085938,0.0376929298139496,-0.0037293360463234696,0.008657386906724124,0.7399625778198242,2019-06-03 16:21:01:174
0.13135531544685364,-1.2083956003189087,-9.854424476623535,0.03662740738418731,0.0003995717238931275,0.015050534489014165,0.7499613761901855,2019-06-03 16:21:01:184
0.10986080765724182,-1.1869010925292969,-9.873531341552734,0.04142226664049605,-0.0013319057679832855,0.020644537648239227,0.7599802017211914,2019-06-03 16:21:01:194
0.14568498730659485,-1.2633260488510132,-9.897414207458496,0.03649421604016972,-0.004395288865296531,0.017447965157465835,0.7699775695800781,2019-06-03 16:21:01:204
0.10269597172737122,-1.2442197799682617,-9.91890811920166,0.03969079165183501,-0.002264239844582734,0.021443681551155554,0.7799639701843262,2019-06-03 16:21:01:214
0.10269597172737122,-1.213172197341919,-9.883084297180176,0.03755974263112122,-0.003995717173912694,0.017447965157465835,0.7899618148803711,2019-06-03 16:21:01:224
0.033435896039009094,-1.2203370332717896,-9.952343940734863,0.03622783751332374,0.0003995717238931275,0.017447965157465835,0.7999582290649414,2019-06-03 16:21:01:234
0.06448351591825485,-1.2275018692016602,-9.914132118225098,0.03409678641201535,-0.0027970020997611835,0.0009323340115808674,1.1901721954345703,2019-06-03 16:21:01:624
0.042989011853933334,-1.2155604362487793,-9.835318565368652,0.03755974263112122,-0.00639314758229004,0.0062599567584211025,1.2000207901000977,2019-06-03 16:21:01:634
0.026271061971783638,-1.2657142877578735,-9.849648475646973,0.038358886534037545,-0.0037293360463234696,0.00013319057192193496,1.2105398178100586,2019-06-03 16:21:01:644
0.038212455809116364,-1.22272527217865,-9.909355163574219,0.032498498606182695,-0.006126766454700816,0.007192290965057714,1.2207984924316406,2019-06-03 16:21:01:655
0.08597802370786667,-1.2179486751556396,-9.866366386413574,0.03742655128710363,-0.005727194503242653,0.00785824352395645,1.2310762405395508,2019-06-03 16:21:01:665
0.06926007568836212,-1.22272527217865,-9.868754386901855,0.03755974263112122,-0.007458672092646939,0.0013319057679832855,1.2411909103393555,2019-06-03 16:21:01:675
0.06687179207801819,-1.2442197799682617,-9.871142387390137,0.031965737391301555,-0.004661669992885756,0.0005327622876877398,1.2504372596740723,2019-06-03 16:21:01:684
0.06926007568836212,-1.1940659284591675,-9.840095520019531,0.03542869361040742,-0.003596145482528857,0.0062599567584211025,1.2611408233642578,2019-06-03 16:21:01:695
0.05970695987343788,-1.1725714206695557,-9.799494743347168,0.03969079165183501,-0.006526337886010328,0.004128907737707306,1.270376205444336,2019-06-03 16:21:01:704
0.09314285963773727,-1.2394431829452515,-9.9117431640625,0.038225695190019955,-0.0037293360463234696,0.00492805112047498,1.2804813385009766,2019-06-03 16:21:01:714
0.08836629986763,-1.2036190032958984,-9.890249252319336,0.03556188079323581,-0.0014650963317778978,0.005993575630831878,1.290332317352295,2019-06-03 16:21:01:724
0.05970695987343788,-1.1630183458328247,-9.93323802947998,0.03755974263112122,-0.005327623071933142,0.00159828689557251,1.300447940826416,2019-06-03 16:21:01:734
0.05731867998838425,-1.165406584739685,-9.840095520019531,0.03529550226638983,-0.0010655245753754797,0.002264239844582734,1.310441017150879,2019-06-03 16:21:01:744
0.0740366280078888,-1.1797362565994263,-9.9475679397583,0.03902483909293628,-0.0037293360463234696,0.0011987152041886733,1.3204870223999023,2019-06-03 16:21:01:754
0.07642491161823273,-1.1630183458328247,-9.892637252807617,0.0387584564049011,-0.004262098301501919,0.005327623071933142,1.330148696899414,2019-06-03 16:21:01:764
0.11224908381700516,-1.1630183458328247,-9.94517993927002,0.03849207371686592,-0.004794860816754693,-0.00319657379114502,1.3400239944458008,2019-06-03 16:21:01:774
0.047765567898750305,-1.1677948236465454,-9.923685073852539,0.03782612115796719,-0.0038625266101180813,0.0010655245753754797,1.350003719329834,2019-06-03 16:21:01:784
0.07164835184812546,-1.1510769128799438,-9.928461074829102,0.033830405804574776,-0.005327623071933142,0.00319657379114502,1.3600072860717773,2019-06-03 16:21:01:794
0.0740366280078888,-1.1797362565994263,-9.914132118225098,0.038225695190019955,-0.0013319057679832855,-0.002264239844582734,1.3699970245361328,2019-06-03 16:21:01:804
0.0740366280078888,-1.174959659576416,-9.861589431762695,0.038225695190019955,-0.0013319057679832855,0.00319657379114502,1.3801283836364746,2019-06-03 16:21:01:814
0.10030769556760788,-1.177348017692566,-9.895025253295898,0.03409678641201535,0.0005327622876877398,0.004262098301501919,1.3902034759521484,2019-06-03 16:21:01:824
0.10269597172737122,-1.1271941661834717,-9.93801498413086,0.03636102469615213,-0.0018646680231617348,0.007458672092646939,1.4000258445739746,2019-06-03 16:21:01:834
0.09791941195726395,-1.2060073614120483,-9.93323802947998,0.03929121761978226,-0.0009323340115808674,-0.0013319057679832855,1.4099836349487305,2019-06-03 16:21:01:844
0.06448351591825485,-1.1582417488098145,-9.856813430786133,0.03862526506088352,-0.004794860816754693,-0.0023974304083773466,1.4201765060424805,2019-06-03 16:21:01:854
0.09314285963773727,-1.1845128536224365,-9.906967163085938,0.038092503846002365,-0.00785824352395645,0.0025306209721719587,1.4304161071777344,2019-06-03 16:21:01:864
0.09553113579750061,-1.1869010925292969,-9.885472297668457,0.03476273897091409,-0.003995717173912694,0.0021310491507509593,1.4405879974365234,2019-06-03 16:21:01:874
0.042989011853933334,-1.201230764389038,-9.899802207946777,0.04022355286671616,-0.0010655245753754797,0.0027970020997611835,1.4502067565917969,2019-06-03 16:21:01:884
0.12419047951698303,-1.2155604362487793,-9.859201431274414,0.038358886534037545,-0.00319657379114502,0.0013319057679832855,1.4603819847106934,2019-06-03 16:21:01:894
0.03582417592406273,-1.2060073614120483,-9.844871520996094,0.03676059872820489,-0.0009323340115808674,0.0011987152041886733,1.4701128005981445,2019-06-03 16:21:01:904
0.05493040382862091,-1.177348017692566,-9.871142387390137,0.037293359943086045,-0.008790577730593063,-0.0006659528839916427,1.4800024032592773,2019-06-03 16:21:01:914
0.0406007319688797,-1.248996376991272,-9.91890811920166,0.03955760030781742,0.000799143447786255,-0.0003995717238931275,1.4900808334350586,2019-06-03 16:21:01:924
0.06687179207801819,-1.246608018875122,-9.895025253295898,0.03422997775603293,-0.006925909837468489,-0.0010655245753754797,1.500053882598877,2019-06-03 16:21:01:934
0.042989011853933334,-1.2394431829452515,-9.844871520996094,0.03862526506088352,-0.004262098301501919,-0.001997858586956347,1.5100116729736328,2019-06-03 16:21:01:944
0.047765567898750305,-1.201230764389038,-9.832930564880371,0.03622783751332374,-0.005993575630831878,-0.0018646680231617348,1.520014762878418,2019-06-03 16:21:01:954
0.0740366280078888,-1.1988425254821777,-9.871142387390137,0.03849207371686592,-0.0037293360463234696,-0.007725053220236163,1.5300025939941406,2019-06-03 16:21:01:964
0.09791941195726395,-1.1869010925292969,-9.873531341552734,0.03582826348127098,-0.005327623071933142,-0.0033297643549396326,1.5404720306396484,2019-06-03 16:21:01:974
0.10269597172737122,-1.1152527332305908,-9.897414207458496,0.03422997775603293,-0.004794860816754693,-0.009456530289491798,1.5501642227172852,2019-06-03 16:21:01:984
0.06926007568836212,-1.1439120769500732,-9.895025253295898,0.03742655128710363,-0.002264239844582734,-0.008124624651545674,1.5602073669433594,2019-06-03 16:21:01:994
0.07642491161823273,-1.1367472410202026,-9.9308500289917,0.03582826348127098,-0.0038625266101180813,-0.005860385327111591,1.5699882507324219,2019-06-03 16:21:02:004
0.023882783949375153,-1.1152527332305908,-9.9308500289917,0.03489593031493167,-0.004661669992885756,-0.006659528709879265,1.5799927711486816,2019-06-03 16:21:02:014
0.07881318777799606,-1.0770403146743774,-9.873531341552734,0.03636102469615213,-0.005327623071933142,-0.007991434347825389,1.589980125427246,2019-06-03 16:21:02:024
0.0740366280078888,-1.0818167924880981,-9.94040298461914,0.03689379007222248,-0.00639314758229004,-0.01531691613675204,1.5999727249145508,2019-06-03 16:21:02:034
0.033435896039009094,-1.0770403146743774,-9.935626029968262,0.03529550226638983,-0.005594004199522367,-0.014118200282377553,1.6099729537963867,2019-06-03 16:21:02:044
0.05015384778380394,-1.0364395380020142,-9.837706565856934,0.03915802627576466,-0.007325481268778002,-0.015583296744192614,1.6199846267700195,2019-06-03 16:21:02:054
0.0740366280078888,-1.1224175691604614,-9.904579162597656,0.03782612115796719,-0.007991434347825389,-0.015849678391930487,1.6299676895141602,2019-06-03 16:21:02:064
0.07642491161823273,-1.0698754787445068,-9.885472297668457,0.03476273897091409,-0.0027970020997611835,-0.013185867116038244,1.6399669647216797,2019-06-03 16:21:02:074
0.05493040382862091,-1.0913699865341187,-9.849648475646973,0.0419550320165664,-0.006659528709879265,-0.01824710802008486,1.649970531463623,2019-06-03 16:21:02:084
0.06926007568836212,-1.0650988817214966,-9.842483520507812,0.038092503846002365,-0.004262098301501919,-0.01877987131556061,1.659968376159668,2019-06-03 16:21:02:094
0.11224908381700516,-1.1343590021133423,-9.928461074829102,0.03742655128710363,-0.00319657379114502,-0.01478415388157359,1.6699895858764648,2019-06-03 16:21:02:104
0.062095239758491516,-1.1176409721374512,-9.854424476623535,0.044485650908143756,-0.0062599567584211025,-0.01531691613675204,1.6799883842468262,2019-06-03 16:21:02:114
0.07642491161823273,-1.1224175691604614,-9.906967163085938,0.04142226664049605,-0.005860385327111591,-0.016249249303091347,1.6899704933166504,2019-06-03 16:21:02:124
0.10030769556760788,-1.129582405090332,-9.952343940734863,0.037026977255050865,-0.007325481268778002,-0.012120341565384043,1.6999635696411133,2019-06-03 16:21:02:134
0.11702564358711243,-1.1319706439971924,-9.91890811920166,0.03676059872820489,-0.007059100141188776,0.0017314774593671222,2.140188217163086,2019-06-03 16:21:02:574
0.09075457602739334,-1.1463003158569336,-9.883084297180176,0.03343083385311661,-0.002264239844582734,0.003596145482528857,2.15000581741333,2019-06-03 16:21:02:584
0.052542123943567276,-1.1224175691604614,-9.849648475646973,0.03329764250909902,-0.004262098301501919,0.00785824352395645,2.1599960327148438,2019-06-03 16:21:02:594
0.07642491161823273,-1.0770403146743774,-9.914132118225098,0.037026977255050865,-0.004395288865296531,0.002663811535966571,2.1699886322021484,2019-06-03 16:21:02:604
0.06687179207801819,-1.1630183458328247,-9.842483520507812,0.03516231092237225,-0.004528479689165468,0.00319657379114502,2.1800289154052734,2019-06-03 16:21:02:614
0.047765567898750305,-1.1725714206695557,-9.895025253295898,0.032631689950200285,-0.00785824352395645,-0.00013319057192193496,2.190011978149414,2019-06-03 16:21:02:624
0.033435896039009094,-1.1463003158569336,-9.813823699951172,0.038092503846002365,-0.0025306209721719587,0.0017314774593671222,2.200009346008301,2019-06-03 16:21:02:634
0.026271061971783638,-1.1940659284591675,-9.828153610229492,0.03862526506088352,-0.007991434347825389,-0.0018646680231617348,2.2107810974121094,2019-06-03 16:21:02:645
0.038212455809116364,-1.1916776895523071,-9.9117431640625,0.03516231092237225,-0.0033297643549396326,0.0003995717238931275,2.2202062606811523,2019-06-03 16:21:02:654
0.04537728801369667,-1.1104761362075806,-9.9117431640625,0.037026977255050865,-0.004395288865296531,-0.006659528709879265,2.230194091796875,2019-06-03 16:21:02:664
0.026271061971783638,-1.155853509902954,-9.916520118713379,0.03476273897091409,-0.004794860816754693,-0.005327623071933142,2.240144729614258,2019-06-03 16:21:02:674
0.05493040382862091,-1.1439120769500732,-9.897414207458496,0.037160168599068455,-0.0038625266101180813,-0.009323339985771511,2.2499828338623047,2019-06-03 16:21:02:684
-0.019106227904558182,-1.129582405090332,-9.895025253295898,0.037293359943086045,-0.007325481268778002,-0.013185867116038244,2.2600011825561523,2019-06-03 16:21:02:694
0.05493040382862091,-1.177348017692566,-9.902190208435059,0.03915802627576466,-0.008124624651545674,-0.013185867116038244,2.269977569580078,2019-06-03 16:21:02:704
0.052542123943567276,-1.2251135110855103,-9.887861251831055,0.03596145482528857,-0.0038625266101180813,-0.01331905741975853,2.279995918273926,2019-06-03 16:21:02:714
0.019106227904558182,-1.155853509902954,-9.883084297180176,0.03409678641201535,-0.004395288865296531,-0.020910920336274407,2.290111541748047,2019-06-03 16:21:02:724
0.016717948019504547,-1.1964541673660278,-9.844871520996094,0.03969079165183501,-0.008391005779134899,-0.020910920336274407,2.299989700317383,2019-06-03 16:21:02:734
0.08358974009752274,-1.1606299877166748,-9.909355163574219,0.038092503846002365,-0.0038625266101180813,-0.017847536068626695,2.3099827766418457,2019-06-03 16:21:02:744
0.023882783949375153,-1.201230764389038,-9.844871520996094,0.03862526506088352,-0.007458672092646939,-0.01957901313788233,2.3199777603149414,2019-06-03 16:21:02:754
0.09791941195726395,-1.1964541673660278,-9.952343940734863,0.037293359943086045,-0.0037293360463234696,-0.018513488627525432,2.3299732208251953,2019-06-03 16:21:02:764
0.07642491161823273,-1.2203370332717896,-9.942790985107422,0.04208821919939479,-0.006925909837468489,-0.01771434680520371,2.339970588684082,2019-06-03 16:21:02:774
0.1289670318365097,-1.2083956003189087,-9.916520118713379,0.031965737391301555,-0.00639314758229004,-0.012386723213121918,2.3499703407287598,2019-06-03 16:21:02:784
0.09791941195726395,-1.1797362565994263,-9.897414207458496,0.04035674421073375,-0.0010655245753754797,-0.012919485468300369,2.359990119934082,2019-06-03 16:21:02:794
0.05493040382862091,-1.213172197341919,-9.909355163574219,0.03862526506088352,-0.0018646680231617348,-0.007059100141188776,2.3699703216552734,2019-06-03 16:21:02:804
0.05970695987343788,-1.1510769128799438,-9.942790985107422,0.03929121761978226,-0.006659528709879265,-0.010122483888687835,2.3799939155578613,2019-06-03 16:21:02:814
0.08597802370786667,-1.177348017692566,-9.928461074829102,0.03622783751332374,-0.006792719013599553,-0.005860385327111591,2.3901424407958984,2019-06-03 16:21:02:824
0.06926007568836212,-1.139135479927063,-9.880696296691895,0.03516231092237225,-0.007458672092646939,-0.004395288865296531,2.400027275085449,2019-06-03 16:21:02:834
-0.009553113952279091,-1.1080878973007202,-9.94040298461914,0.03329764250909902,-0.006659528709879265,-0.000799143447786255,2.4100122451782227,2019-06-03 16:21:02:844
0.09314285963773727,-1.1176409721374512,-9.9117431640625,0.03436316701945592,-0.006925909837468489,-0.003596145482528857,2.4199886322021484,2019-06-03 16:21:02:854
0.07881318777799606,-1.120029330253601,-9.873531341552734,0.03422997775603293,-0.0017314774593671222,0.0005327622876877398,2.43002986907959,2019-06-03 16:21:02:864
0.08597802370786667,-1.067487120628357,-9.863978385925293,0.03636102469615213,-0.004262098301501919,-0.0010655245753754797,2.4400291442871094,2019-06-03 16:21:02:874
0.13374358415603638,-1.0531575679779053,-9.928461074829102,0.03649421604016972,-0.0038625266101180813,0.003063383227350408,2.449985980987549,2019-06-03 16:21:02:884
0.0740366280078888,-1.1056996583938599,-9.895025253295898,0.0346295476268965,-0.005594004199522367,0.007192290965057714,2.459988594055176,2019-06-03 16:21:02:894
0.09075457602739334,-1.038827896118164,-9.9308500289917,0.03609464616930616,-0.002663811535966571,0.007991434347825389,2.4699926376342773,2019-06-03 16:21:02:904
0.09553113579750061,-1.0268864631652832,-9.909355163574219,0.037026977255050865,-0.0009323340115808674,0.009190149682051223,2.479999542236328,2019-06-03 16:21:02:914
0.13374358415603638,-1.084205150604248,-9.928461074829102,0.037160168599068455,-0.004395288865296531,0.011188008399044734,2.489994525909424,2019-06-03 16:21:02:924
0.06926007568836212,-1.1367472410202026,-9.9117431640625,0.037160168599068455,-0.00013319057192193496,0.008790577730593063,2.5000009536743164,2019-06-03 16:21:02:934
0.07642491161823273,-1.1152527332305908,-9.885472297668457,0.04009036152269858,-0.005194432248064204,0.01531691613675204,2.510021209716797,2019-06-03 16:21:02:944
0.031047619879245758,-1.1797362565994263,-9.79710578918457,0.04208821919939479,-0.004395288865296531,0.015050534489014165,2.5200371742248535,2019-06-03 16:21:02:954
0.08358974009752274,-1.1916776895523071,-9.904579162597656,0.037293359943086045,-0.004262098301501919,0.01531691613675204,2.5301437377929688,2019-06-03 16:21:02:964
0.06448351591825485,-1.1821244955062866,-9.82337760925293,0.04302055444632869,0.0006659528839916427,0.019445823874459346,2.540008544921875,2019-06-03 16:21:02:974
0.038212455809116364,-1.2418315410614014,-9.80427074432373,0.04208821919939479,-0.0009323340115808674,0.019046251923001183,2.549997329711914,2019-06-03 16:21:02:984
0.06687179207801819,-1.2776557207107544,-9.871142387390137,0.03929121761978226,-0.0037293360463234696,0.0157164870479129,2.560201644897461,2019-06-03 16:21:02:994
0.038212455809116364,-1.246608018875122,-9.832930564880371,0.0419550320165664,-0.003995717173912694,0.01518372479273445,2.5702409744262695,2019-06-03 16:21:03:004
-0.0,-1.2895970344543457,-9.847260475158691,0.04222141054341237,-0.004395288865296531,0.014517772233835715,2.5801258087158203,2019-06-03 16:21:03:014
0.021494505926966667,-1.3707985877990723,-9.883084297180176,0.037293359943086045,-0.002264239844582734,0.011054817055027146,2.5901966094970703,2019-06-03 16:21:03:024
-0.016717948019504547,-1.33975088596344,-9.871142387390137,0.04275417175829352,-0.0034629549187342444,0.0029301926635557957,2.599987030029297,2019-06-03 16:21:03:034
0.042989011853933334,-1.3899047374725342,-9.847260475158691,0.045417986155077666,0.0,0.005194432248064204,2.6099700927734375,2019-06-03 16:21:03:044
-0.007164834998548031,-1.3707985877990723,-9.878307342529297,0.03849207371686592,-0.003063383227350408,0.0013319057679832855,2.619999408721924,2019-06-03 16:21:03:054
0.0812014639377594,-1.3588571548461914,-9.887861251831055,0.04142226664049605,-0.0025306209721719587,-0.00159828689557251,2.629985809326172,2019-06-03 16:21:03:064
-0.009553113952279091,-1.3827399015426636,-9.885472297668457,0.03782612115796719,-0.002264239844582734,-0.012253532909401631,2.6400012969970703,2019-06-03 16:21:03:074
-0.014329669997096062,-1.3373626470565796,-9.899802207946777,0.03489593031493167,-0.004661669992885756,-0.011454389006485306,2.6500186920166016,2019-06-03 16:21:03:084
0.11224908381700516,-1.3134799003601074,-9.916520118713379,0.03636102469615213,-0.005327623071933142,-0.016915202902287388,2.6599698066711426,2019-06-03 16:21:03:094
0.0812014639377594,-1.3015384674072266,-9.856813430786133,0.03489593031493167,-0.0038625266101180813,-0.020378157040798657,2.6699934005737305,2019-06-03 16:21:03:104
0.03582417592406273,-1.3015384674072266,-9.83054256439209,0.04248779323144755,-0.009989292544670247,-0.02024496777737567,2.6800174713134766,2019-06-03 16:21:03:114
0.08597802370786667,-1.330197811126709,-9.909355163574219,0.03862526506088352,-0.0025306209721719587,-0.024773446426243836,2.689972400665283,2019-06-03 16:21:03:124
0.04537728801369667,-1.3516923189163208,-9.897414207458496,0.033564023116539596,0.0027970020997611835,-0.031699356783860974,2.6999616622924805,2019-06-03 16:21:03:134
0.023882783949375153,-1.246608018875122,-9.873531341552734,0.03782612115796719,-0.005460813375653429,-0.03223211799874212,2.7099552154541016,2019-06-03 16:21:03:144
0.014329669997096062,-1.22272527217865,-9.9117431640625,0.04421926822010858,-0.005993575630831878,-0.03689379007222248,2.7199912071228027,2019-06-03 16:21:03:154
0.06687179207801819,-1.356468915939331,-10.03354549407959,0.03849207371686592,-0.004794860816754693,-0.038092503846002365,2.729994297027588,2019-06-03 16:21:03:164
0.0812014639377594,-1.3110915422439575,-9.890249252319336,0.03409678641201535,-0.0050612419443439175,-0.04741584383177387,2.739983081817627,2019-06-03 16:21:03:174
0.13374358415603638,-1.2776557207107544,-9.971450805664062,0.04102269676963249,-0.0027970020997611835,-0.04302055444632869,2.7500858306884766,2019-06-03 16:21:03:184
0.16001465916633606,-1.2776557207107544,-9.863978385925293,0.042620984575465135,-0.006126766454700816,-0.04315374579034629,2.759977340698242,2019-06-03 16:21:03:194
0.13852015137672424,-1.3349744081497192,-9.923685073852539,0.03303126190165845,-0.005460813375653429,-0.03782612115796719,2.7700119018554688,2019-06-03 16:21:03:204
0.26032233238220215,-1.2060073614120483,-9.992944717407227,0.03516231092237225,-0.007325481268778002,-0.04009036152269858,2.780014991760254,2019-06-03 16:21:03:214
0.3056996464729309,-1.2298901081085205,-9.971450805664062,0.03289807055764086,-0.005460813375653429,-0.03010106897802833,2.789997100830078,2019-06-03 16:21:03:224
0.17673259973526,-1.356468915939331,-9.954732894897461,0.0471494611437387,-0.003995717173912694,-0.021710062158596128,2.7999825477600098,2019-06-03 16:21:03:234
2.3643956184387207,-4.014622688293457,-9.94517993927002,0.0744535285421545,-0.03183254604728396,-0.011188008399044734,2.809964179992676,2019-06-03 16:21:03:244
-1.306388258934021,3.0164687633514404,-15.779743194580078,-0.3409678766037211,0.3714684946466669,0.05860385015022401,2.8199939727783203,2019-06-03 16:21:03:254
-0.5254212617874146,-1.492600679397583,-13.224286079406738,0.17474602802090972,-0.11587579518265054,-0.09163511205188245,2.8300156593322754,2019-06-03 16:21:03:264
3.8093039989471436,-3.8952088356018066,-15.655552864074707,0.16528949252993144,-0.1940586563901623,0.03689379007222248,2.839991569519043,2019-06-03 16:21:03:274
-0.5970696210861206,-3.8880438804626465,-10.126688957214355,-0.20724453286887623,0.06526337990040057,-0.04848136626153617,2.849987030029297,2019-06-03 16:21:03:284
-1.977494478225708,1.7865054607391357,-8.196959495544434,0.026238542888058897,-0.014118200282377553,0.01664882125454951,2.859987258911133,2019-06-03 16:21:03:294
4.458915710449219,-0.6065494418144226,-10.78107738494873,0.2507978526912753,-0.06459742734150184,-0.056073231258646654,2.870011329650879,2019-06-03 16:21:03:304
-0.6090109944343567,-3.9262564182281494,-10.675992965698242,-0.10974903496973352,0.1835366067918001,0.049147322981624116,2.8800086975097656,2019-06-03 16:21:03:314
-1.2013040781021118,1.0819634199142456,-8.669838905334473,-0.055007704667695154,-0.12533233067362884,-0.029834688370587756,2.8900270462036133,2019-06-03 16:21:03:324
2.345289468765259,0.3201025724411011,-9.906967163085938,0.2547935597222893,0.01331905741975853,-0.020511348384816244,2.89998722076416,2019-06-03 16:21:03:334
-0.9576996564865112,-3.8880438804626465,-10.496871948242188,-0.01931263253044176,0.07778329549783738,0.07511948526224244,2.9099817276000977,2019-06-03 16:21:03:344
-0.7117069363594055,-0.5301245450973511,-9.93323802947998,-0.11907237079431583,-0.098561020328905,-0.07685095608971426,2.9203529357910156,2019-06-03 16:21:03:354
1.8031501770019531,0.9529963135719299,-9.424534797668457,0.20205010374170393,0.04022355286671616,0.051411559185166295,2.93026065826416,2019-06-03 16:21:03:364
-1.0986080169677734,-3.3745641708374023,-10.542248725891113,-0.003063383227350408,-0.03689379007222248,0.014384581930115428,2.941990852355957,2019-06-03 16:21:03:376
0.21255677938461304,-1.3731868267059326,-10.27953815460205,-0.11188007982925813,-0.05047922809942159,-0.027304067398415795,2.9500317573547363,2019-06-03 16:21:03:384
0.8836629986763,1.120175838470459,-9.166601181030273,0.10735159909979536,0.06033532930007424,0.051411559185166295,2.959972381591797,2019-06-03 16:21:03:394
-1.069948673248291,-2.135047674179077,-10.324915885925293,0.11134731445318777,-0.02717087605439821,-0.008524196603003837,2.969965934753418,2019-06-03 16:21:03:404
0.802461564540863,-1.6669450998306274,-10.472989082336426,-0.06992504781269172,-0.02903554446767143,0.013585438027199106,2.979966163635254,2019-06-03 16:21:03:414
0.20778022706508636,0.6831209063529968,-9.164212226867676,0.06459742734150184,0.042620984575465135,0.03289807055764086,2.9899940490722656,2019-06-03 16:21:03:424
-0.7451428771018982,-1.2298901081085205,-10.129076957702637,0.11947194482636861,-0.0408895054256149,0.002264239844582734,2.9999876022338867,2019-06-03 16:21:03:434
1.0532307624816895,-1.7768058776855469,-10.99124526977539,-0.03409678641201535,-0.01931263253044176,0.026238542888058897,3.0099925994873047,2019-06-03 16:21:03:444
-0.49198535084724426,-0.040527474135160446,-9.763669967651367,0.03129978483240282,0.027836828613296942,0.013452247723478816,3.019969940185547,2019-06-03 16:21:03:454
-0.38212454319000244,-0.8835897445678711,-10.145794868469238,0.10042569082277283,-0.062466378320788045,0.01518372479273445,3.0299620628356934,2019-06-03 16:21:03:464
0.8597801923751831,-1.7147105932235718,-10.673604011535645,0.0009323340115808674,0.016782011558269798,0.021576872895173144,3.0399603843688965,2019-06-03 16:21:03:474
-0.7284249067306519,-0.6543149948120117,-9.725458145141602,0.019179443267018773,-0.004794860816754693,0.012120341565384043,3.049978256225586,2019-06-03 16:21:03:484
-0.19106227159500122,-0.9719560146331787,-9.895025253295898,0.07578543365995197,-0.03582826348127098,0.019046251923001183,3.059986114501953,2019-06-03 16:21:03:494
0.5158681273460388,-1.5905201435089111,-10.40134048461914,0.0157164870479129,0.019046251923001183,0.01278629516458008,3.0699849128723145,2019-06-03 16:21:03:504
-0.6066226959228516,-0.8788132071495056,-9.847260475158691,0.023441541308446365,-0.01371862937121669,0.0230419693569882,3.0799684524536133,2019-06-03 16:21:03:514
0.1624029278755188,-1.0770403146743774,-9.983391761779785,0.06046852064409183,-0.031033404224962244,0.005727194503242653,3.089977741241455,2019-06-03 16:21:03:524
0.406007319688797,-1.2991502285003662,-10.205501556396484,0.01278629516458008,0.025705779592583147,0.026504923495499474,3.0999674797058105,2019-06-03 16:21:03:534
-0.26509889960289,-0.6853626370429993,-9.842483520507812,0.03422997775603293,-0.0241074938673451,0.010788436447586572,3.109954833984375,2019-06-03 16:21:03:544
0.3248058557510376,-0.9265787601470947,-9.9308500289917,0.05620642260266424,-0.01611605899937106,0.01278629516458008,3.120027542114258,2019-06-03 16:21:03:554
0.28181684017181396,-1.1892893314361572,-10.160124778747559,0.014118200282377553,0.024373874474785673,0.028502783252790282,3.130002021789551,2019-06-03 16:21:03:564
-0.229274719953537,-0.7832820415496826,-9.844871520996094,0.04315374579034629,-0.02690449544695763,0.010655246143866284,3.139972686767578,2019-06-03 16:21:03:574
0.2985348105430603,-1.201230764389038,-9.969061851501465,0.06446423599748424,-0.007591862396367225,0.0157164870479129,3.1499667167663574,2019-06-03 16:21:03:584
-0.11224908381700516,-1.5475311279296875,-10.052652359008789,0.01611605899937106,0.008923768034313348,0.008790577730593063,3.1600170135498047,2019-06-03 16:21:03:594
0.06926007568836212,-0.8907545804977417,-9.766058921813965,0.04515160346704249,-0.015849678391930487,-0.0014650963317778978,3.175121784210205,2019-06-03 16:21:03:609
0.26032233238220215,-1.1892893314361572,-9.916520118713379,0.05527408735573033,-0.0013319057679832855,-0.0034629549187342444,3.180428981781006,2019-06-03 16:21:03:614
-0.09791941195726395,-1.5738022327423096,-10.117136001586914,0.020777728992256817,-0.004528479689165468,-0.01132119870276502,3.1904549598693848,2019-06-03 16:21:03:624
0.031047619879245758,-0.9838974475860596,-9.70157527923584,0.01931263253044176,-0.011720770654223183,-0.02264239740553004,3.200321674346924,2019-06-03 16:21:03:634
0.26032233238220215,-0.9815091490745544,-9.880696296691895,0.0576715190644793,-0.0021310491507509593,-0.020910920336274407,3.210230827331543,2019-06-03 16:21:03:644
-0.09791941195726395,-1.5618607997894287,-9.921297073364258,0.029967877634010744,-0.008923768034313348,-0.02810321130133212,3.2199997901916504,2019-06-03 16:21:03:654
0.20061539113521576,-1.0961464643478394,-9.80427074432373,0.02264239740553004,-0.009456530289491798,-0.029301925075112006,3.229977607727051,2019-06-03 16:21:03:664
0.09791941195726395,-1.048380970954895,-9.770834922790527,0.054474943452814006,-0.0018646680231617348,-0.025439398985142574,3.239988327026367,2019-06-03 16:21:03:674
0.052542123943567276,-1.5140951871871948,-10.012051582336426,0.03449635836347351,-0.008257815475414612,-0.029967877634010744,3.2500123977661133,2019-06-03 16:21:03:684
0.17195604741573334,-1.201230764389038,-9.859201431274414,0.02464025508222625,-0.00319657379114502,-0.027304067398415795,3.2600021362304688,2019-06-03 16:21:03:694
-0.026271061971783638,-1.0961464643478394,-9.758893966674805,0.04568436468192364,-0.0002663811438438699,-0.027304067398415795,3.269979953765869,2019-06-03 16:21:03:704
0.05970695987343788,-1.320644736289978,-10.014439582824707,0.03795931250198478,-0.01611605899937106,-0.032631689950200285,3.279980182647705,2019-06-03 16:21:03:714
0.0812014639377594,-1.1845128536224365,-9.873531341552734,0.02464025508222625,-0.00159828689557251,-0.03329764250909902,3.289994239807129,2019-06-03 16:21:03:724
-0.0,-1.0627106428146362,-9.787552833557129,0.042620984575465135,-0.0009323340115808674,-0.03489593031493167,3.300002098083496,2019-06-03 16:21:03:734
0.15762637555599213,-1.2442197799682617,-10.002498626708984,0.03902483909293628,-0.017847536068626695,-0.031699356783860974,3.3099851608276367,2019-06-03 16:21:03:744
0.0740366280078888,-1.2561612129211426,-9.81143569946289,0.026504923495499474,-0.002663811535966571,-0.031965737391301555,3.3199777603149414,2019-06-03 16:21:03:754
0.014329669997096062,-1.129582405090332,-9.80904769897461,0.038225695190019955,-0.005327623071933142,-0.03209892873531914,3.329963207244873,2019-06-03 16:21:03:764
0.16717948019504547,-1.2179486751556396,-9.94040298461914,0.03662740738418731,-0.013585438027199106,-0.03316445324567604,3.3399643898010254,2019-06-03 16:21:03:774
0.15046153962612152,-1.320644736289978,-9.954732894897461,0.03223211799874212,-0.0003995717238931275,-0.029701497026570163,3.349987506866455,2019-06-03 16:21:03:784
0.06926007568836212,-1.1439120769500732,-9.906967163085938,0.03636102469615213,-0.00985610224094996,-0.029834688370587756,3.359992504119873,2019-06-03 16:21:03:794
0.14090842008590698,-1.2322783470153809,-9.978615760803223,0.03649421604016972,-0.0050612419443439175,-0.028769163860230856,3.3699941635131836,2019-06-03 16:21:03:804
0.15284982323646545,-1.2179486751556396,-9.94517993927002,0.029435116419129593,-0.009323339985771511,-0.025972162280618324,3.3799705505371094,2019-06-03 16:21:03:814
0.0812014639377594,-1.2036190032958984,-9.914132118225098,0.03343083385311661,-0.00639314758229004,-0.019845395825917506,3.389965057373047,2019-06-03 16:21:03:824
0.052542123943567276,-1.2776557207107544,-9.971450805664062,0.032764881294217875,-0.006659528709879265,-0.025972162280618324,3.399966239929199,2019-06-03 16:21:03:834
0.07642491161823273,-1.1940659284591675,-9.863978385925293,0.0303674495854689,-0.005727194503242653,-0.021576872895173144,3.409970283508301,2019-06-03 16:21:03:844
0.09314285963773727,-1.1988425254821777,-9.840095520019531,0.037160168599068455,-0.012253532909401631,-0.02384111325990453,3.4199957847595215,2019-06-03 16:21:03:854
0.028659339994192123,-1.2752673625946045,-9.782776832580566,0.03529550226638983,-0.005594004199522367,-0.022509206061512455,3.429983139038086,2019-06-03 16:21:03:864
0.12657874822616577,-1.2203370332717896,-9.899802207946777,0.031166593488385227,-0.006925909837468489,-0.021443681551155554,3.439967155456543,2019-06-03 16:21:03:874
0.042989011853933334,-1.141523838043213,-9.80188274383545,0.04048993555475134,-0.006792719013599553,-0.01877987131556061,3.4499645233154297,2019-06-03 16:21:03:884
0.07164835184812546,-1.213172197341919,-9.868754386901855,0.037160168599068455,-0.0003995717238931275,-0.016915202902287388,3.45997953414917,2019-06-03 16:21:03:894
0.052542123943567276,-1.1510769128799438,-9.973838806152344,0.03343083385311661,-0.005594004199522367,-0.01611605899937106,3.4699926376342773,2019-06-03 16:21:03:904
0.007164834998548031,-1.155853509902954,-9.837706565856934,0.04368650700522743,-0.0014650963317778978,-0.011720770654223183,3.4799718856811523,2019-06-03 16:21:03:914
0.052542123943567276,-1.2370549440383911,-9.921297073364258,0.041555457984513634,-0.004395288865296531,-0.003596145482528857,3.4899635314941406,2019-06-03 16:21:03:924
0.03582417592406273,-1.2633260488510132,-9.782776832580566,0.046350317240822385,-0.0010655245753754797,-0.009056959378330936,3.499993324279785,2019-06-03 16:21:03:934
0.033435896039009094,-1.4424468278884888,-9.6729154586792,0.05101198931430273,-0.004128907737707306,-0.005327623071933142,3.5099639892578125,2019-06-03 16:21:03:944
0.05493040382862091,-1.6096264123916626,-9.718293190002441,0.041688649328531224,0.005460813375653429,-0.014118200282377553,3.519965648651123,2019-06-03 16:21:03:954
0.023882783949375153,-1.3516923189163208,-9.744564056396484,0.033564023116539596,0.013052675772020655,-0.015849678391930487,3.5299630165100098,2019-06-03 16:21:03:964
-0.05015384778380394,-1.177348017692566,-9.713516235351562,0.048747748949571346,-0.018380299364102445,-0.024240683130768086,3.5399632453918457,2019-06-03 16:21:03:974
0.37495970726013184,-1.320644736289978,-9.703963279724121,0.03596145482528857,0.011188008399044734,-0.015583296744192614,3.5499649047851562,2019-06-03 16:21:03:984
-0.033435896039009094,-1.2251135110855103,-9.81621265411377,0.032631689950200285,0.005194432248064204,-0.016915202902287388,3.5599703788757324,2019-06-03 16:21:03:994
0.10030769556760788,-1.0436043739318848,-9.756505966186523,0.045950747369958814,-0.015982868695650777,-0.019445823874459346,3.5700035095214844,2019-06-03 16:21:04:004
0.22449816763401031,-1.2633260488510132,-9.935626029968262,0.04368650700522743,0.005727194503242653,-0.009722911937229673,3.5800137519836426,2019-06-03 16:21:04:014
-0.0047765569761395454,-1.2967618703842163,-9.969061851501465,0.03090021288094465,-0.006526337886010328,-0.011853960957943468,3.5899715423583984,2019-06-03 16:21:04:024
0.19106227159500122,-1.1224175691604614,-9.852036476135254,0.04115588811365008,-0.00985610224094996,-0.007059100141188776,3.599987030029297,2019-06-03 16:21:04:034
0.22210988402366638,-1.2872087955474854,-9.964285850524902,0.043420124317192256,-0.0034629549187342444,-0.004128907737707306,3.6099672317504883,2019-06-03 16:21:04:044
0.11702564358711243,-1.4161758422851562,-9.921297073364258,0.028902353123653843,-0.009323339985771511,-0.004395288865296531,3.619988441467285,2019-06-03 16:21:04:054
0.28181684017181396,-1.155853509902954,-9.863978385925293,0.03782612115796719,-0.006526337886010328,0.0,3.629985809326172,2019-06-03 16:21:04:064
0.09553113579750061,-1.2800439596176147,-9.849648475646973,0.04235460188742996,-0.003596145482528857,0.00492805112047498,3.6399717330932617,2019-06-03 16:21:04:074
0.11224908381700516,-1.3707985877990723,-9.892637252807617,0.027970019957314532,-0.004262098301501919,0.009323339985771511,3.649970054626465,2019-06-03 16:21:04:084
0.22449816763401031,-1.1510769128799438,-9.863978385925293,0.03502911957835465,-0.002663811535966571,0.011054817055027146,3.6599631309509277,2019-06-03 16:21:04:094
0.042989011853933334,-1.1988425254821777,-9.892637252807617,0.03955760030781742,-0.007591862396367225,0.016782011558269798,3.670621871948242,2019-06-03 16:21:04:104
0.14568498730659485,-1.2370549440383911,-9.820988655090332,0.030500640929486494,-0.003596145482528857,0.016249249303091347,3.6801958084106445,2019-06-03 16:21:04:114
0.23166300356388092,-1.0507692098617554,-9.835318565368652,0.03636102469615213,-0.0017314774593671222,0.017980727412644285,3.689986228942871,2019-06-03 16:21:04:124
0.047765567898750305,-1.0507692098617554,-9.866366386413574,0.038225695190019955,-0.006126766454700816,0.024507065818803263,3.6999921798706055,2019-06-03 16:21:04:134
0.16479121148586273,-1.1104761362075806,-9.91890811920166,0.03755974263112122,-0.0005327622876877398,0.025972162280618324,3.709969997406006,2019-06-03 16:21:04:144
0.05731867998838425,-1.10331130027771,-9.935626029968262,0.03995717017868099,-0.004661669992885756,0.02690449544695763,3.7199954986572266,2019-06-03 16:21:04:154
0.033435896039009094,-1.1319706439971924,-9.895025253295898,0.03995717017868099,-0.00492805112047498,0.031699356783860974,3.729994773864746,2019-06-03 16:21:04:164
0.011941391974687576,-1.10331130027771,-9.895025253295898,0.038225695190019955,-0.0023974304083773466,0.029967877634010744,3.7399797439575195,2019-06-03 16:21:04:174
-0.007164834998548031,-1.1224175691604614,-9.895025253295898,0.044752033596178936,-0.005594004199522367,0.029435116419129593,3.7499637603759766,2019-06-03 16:21:04:184
0.011941391974687576,-1.213172197341919,-9.9475679397583,0.041289075296478454,-0.003596145482528857,0.027037686790975218,3.7599668502807617,2019-06-03 16:21:04:194
0.023882783949375153,-1.1248058080673218,-9.890249252319336,0.03183254604728396,0.0003995717238931275,0.025838970936600737,3.7699837684631348,2019-06-03 16:21:04:204
-0.0047765569761395454,-1.1104761362075806,-9.813823699951172,0.041555457984513634,-0.0005327622876877398,0.026771304102940045,3.7799925804138184,2019-06-03 16:21:04:214
0.042989011853933334,-1.246608018875122,-10.012051582336426,0.03849207371686592,-0.004395288865296531,0.024773446426243836,3.789987564086914,2019-06-03 16:21:04:224
0.016717948019504547,-1.1701831817626953,-9.942790985107422,0.0346295476268965,-0.0005327622876877398,0.02384111325990453,3.799971103668213,2019-06-03 16:21:04:234
-0.007164834998548031,-1.0507692098617554,-9.842483520507812,0.045551177499095256,-0.004661669992885756,0.02011177643335808,3.809967041015625,2019-06-03 16:21:04:244
0.028659339994192123,-1.2036190032958984,-9.990556716918945,0.04395288969326261,-0.004794860816754693,0.01731477381344825,3.8199667930603027,2019-06-03 16:21:04:254
0.031047619879245758,-1.1582417488098145,-9.906967163085938,0.027703639349873955,-0.0003995717238931275,0.018646679971543022,3.8299713134765625,2019-06-03 16:21:04:264
-0.0047765569761395454,-1.0459927320480347,-9.909355163574219,0.04368650700522743,-0.005327623071933142,0.017048393206007675,3.8400378227233887,2019-06-03 16:21:04:274
0.04537728801369667,-1.1797362565994263,-9.906967163085938,0.04208821919939479,-0.0017314774593671222,0.01478415388157359,3.8499937057495117,2019-06-03 16:21:04:284
0.047765567898750305,-1.2657142877578735,-9.9308500289917,0.031033404224962244,0.0,0.016915202902287388,3.8599700927734375,2019-06-03 16:21:04:294
0.028659339994192123,-1.0555458068847656,-9.825765609741211,0.03889164774891869,-0.004528479689165468,0.013185867116038244,3.8710975646972656,2019-06-03 16:21:04:305
0.06448351591825485,-1.093758225440979,-9.871142387390137,0.04568436468192364,-0.006126766454700816,0.009456530289491798,3.880204200744629,2019-06-03 16:21:04:314
0.07881318777799606,-1.210783839225769,-9.959508895874023,0.03849207371686592,-0.002663811535966571,0.009989292544670247,3.8899946212768555,2019-06-03 16:21:04:324
0.06448351591825485,-1.0913699865341187,-9.840095520019531,0.038225695190019955,-0.0010655245753754797,-0.0018646680231617348,3.899991512298584,2019-06-03 16:21:04:334
0.1218021959066391,-1.0865933895111084,-9.909355163574219,0.041289075296478454,-0.0027970020997611835,0.0002663811438438699,3.909996509552002,2019-06-03 16:21:04:344
0.12657874822616577,-1.2036190032958984,-9.92607307434082,0.0387584564049011,-0.004794860816754693,-0.005194432248064204,3.9199771881103516,2019-06-03 16:21:04:354
0.047765567898750305,-1.1319706439971924,-9.81860065460205,0.029435116419129593,0.0006659528839916427,-0.00985610224094996,3.930156707763672,2019-06-03 16:21:04:364
0.07642491161823273,-1.057934045791626,-9.878307342529297,0.040623122737579724,-0.003596145482528857,-0.011188008399044734,3.9399938583374023,2019-06-03 16:21:04:374
0.13374358415603638,-1.129582405090332,-9.906967163085938,0.038092503846002365,-0.003995717173912694,-0.013851819674936977,3.9499711990356445,2019-06-03 16:21:04:384
0.09075457602739334,-1.1224175691604614,-9.849648475646973,0.032764881294217875,-0.0013319057679832855,-0.01132119870276502,3.9599924087524414,2019-06-03 16:21:04:394
0.05731867998838425,-1.1128644943237305,-9.871142387390137,0.04022355286671616,-0.007991434347825389,-0.009456530289491798,3.969999313354492,2019-06-03 16:21:04:404
0.13852015137672424,-1.1821244955062866,-9.914132118225098,0.04035674421073375,0.0027970020997611835,-0.008790577730593063,3.9799771308898926,2019-06-03 16:21:04:414
0.09314285963773727,-1.1486886739730835,-9.923685073852539,0.03156616543984339,-0.006526337886010328,-0.014384581930115428,3.9899706840515137,2019-06-03 16:21:04:424
0.10508424788713455,-1.0436043739318848,-9.871142387390137,0.03969079165183501,-0.009190149682051223,-0.01478415388157359,3.99996280670166,2019-06-03 16:21:04:434
0.13374358415603638,-1.1725714206695557,-9.887861251831055,0.04035674421073375,-0.004661669992885756,-0.007325481268778002,4.009991645812988,2019-06-03 16:21:04:444
0.10030769556760788,-1.1080878973007202,-9.909355163574219,0.03969079165183501,-0.005194432248064204,-0.009722911937229673,4.019974708557129,2019-06-03 16:21:04:454
0.11224908381700516,-1.1152527332305908,-9.906967163085938,0.04115588811365008,-0.003063383227350408,-0.012919485468300369,4.0299882888793945,2019-06-03 16:21:04:464
0.08358974009752274,-1.155853509902954,-9.964285850524902,0.03582826348127098,-0.005993575630831878,-0.011587579310205596,4.0399885177612305,2019-06-03 16:21:04:474
0.07642491161823273,-1.139135479927063,-9.840095520019531,0.03516231092237225,-0.005727194503242653,-0.011720770654223183,4.049971580505371,2019-06-03 16:21:04:484
0.052542123943567276,-1.1104761362075806,-9.873531341552734,0.04235460188742996,-0.008524196603003837,-0.010388864496128409,4.060179710388184,2019-06-03 16:21:04:494
0.021494505926966667,-1.1319706439971924,-9.871142387390137,0.03742655128710363,-0.008257815475414612,-0.015849678391930487,4.0699872970581055,2019-06-03 16:21:04:504
0.04537728801369667,-1.1152527332305908,-9.92607307434082,0.033697214460557186,-0.004395288865296531,-0.013985009978657266,4.080028533935547,2019-06-03 16:21:04:514
0.07881318777799606,-1.0889816284179688,-9.942790985107422,0.04248779323144755,-0.007059100141188776,-0.0157164870479129,4.0900068283081055,2019-06-03 16:21:04:524
0.07642491161823273,-1.1439120769500732,-9.887861251831055,0.0376929298139496,-0.005327623071933142,-0.010122483888687835,4.0999956130981445,2019-06-03 16:21:04:534
0.028659339994192123,-1.1319706439971924,-9.978615760803223,0.03502911957835465,-0.00492805112047498,-0.014118200282377553,4.109999179840088,2019-06-03 16:21:04:544
0.031047619879245758,-1.165406584739685,-9.873531341552734,0.04142226664049605,-0.006526337886010328,-0.015849678391930487,4.119972229003906,2019-06-03 16:21:04:554
0.033435896039009094,-1.1892893314361572,-9.899802207946777,0.037293359943086045,-0.006792719013599553,-0.01957901313788233,4.129964828491211,2019-06-03 16:21:04:564
0.019106227904558182,-1.2203370332717896,-9.935626029968262,0.03289807055764086,-0.0050612419443439175,-0.01824710802008486,4.139966011047363,2019-06-03 16:21:04:574
0.07642491161823273,-1.141523838043213,-9.861589431762695,0.037160168599068455,-0.004794860816754693,-0.01771434680520371,4.149989128112793,2019-06-03 16:21:04:584
0.09553113579750061,-1.2394431829452515,-9.969061851501465,0.03862526506088352,-0.007192290965057714,-0.020644537648239227,4.159982204437256,2019-06-03 16:21:04:594
0.011941391974687576,-1.174959659576416,-9.909355163574219,0.03742655128710363,-0.010255674192408122,-0.01518372479273445,4.169965744018555,2019-06-03 16:21:04:604
0.09075457602739334,-1.1439120769500732,-9.885472297668457,0.033564023116539596,-0.0062599567584211025,-0.01731477381344825,4.1801958084106445,2019-06-03 16:21:04:614
0.05493040382862091,-1.155853509902954,-9.9308500289917,0.03662740738418731,-0.005327623071933142,-0.020910920336274407,4.189983367919922,2019-06-03 16:21:04:624
0.047765567898750305,-1.155853509902954,-9.825765609741211,0.03422997775603293,-0.005860385327111591,-0.01971220448189992,4.200008392333984,2019-06-03 16:21:04:634
0.10747252404689789,-1.1128644943237305,-9.849648475646973,0.04035674421073375,-0.00319657379114502,-0.0062599567584211025,4.21005916595459,2019-06-03 16:21:04:644
0.10747252404689789,-1.201230764389038,-9.885472297668457,0.038358886534037545,-0.002264239844582734,-0.010788436447586572,4.220003604888916,2019-06-03 16:21:04:654
0.07642491161823273,-1.1630183458328247,-9.916520118713379,0.037160168599068455,-0.005594004199522367,-0.010255674192408122,4.229978561401367,2019-06-03 16:21:04:664
0.21255677938461304,-1.1176409721374512,-9.80427074432373,0.03955760030781742,0.009323339985771511,-0.009190149682051223,4.239973068237305,2019-06-03 16:21:04:674
0.15284982323646545,-1.174959659576416,-9.942790985107422,0.03662740738418731,-0.005727194503242653,-0.005460813375653429,4.249973297119141,2019-06-03 16:21:04:684
0.15046153962612152,-1.1486886739730835,-9.93801498413086,0.041821840672548814,-0.007591862396367225,-0.0005327622876877398,4.2599968910217285,2019-06-03 16:21:04:694
0.3725714385509491,-1.1606299877166748,-9.969061851501465,0.04315374579034629,0.013452247723478816,-0.00013319057192193496,4.2699995040893555,2019-06-03 16:21:04:704
-0.29375824332237244,-1.3636337518692017,-10.174454689025879,0.0387584564049011,-0.006659528709879265,0.014118200282377553,4.279993057250977,2019-06-03 16:21:04:714
0.09075457602739334,-1.3134799003601074,-10.121912002563477,0.019046251923001183,-0.017581155461186125,-0.0014650963317778978,4.29093599319458,2019-06-03 16:21:04:725
0.007164834998548031,-1.0961464643478394,-9.966673851013184,0.04328693713436387,0.011454389006485306,0.0037293360463234696,4.300163269042969,2019-06-03 16:21:04:734
-0.3845128118991852,-1.4257289171218872,-9.9117431640625,0.03636102469615213,-0.007725053220236163,-0.011188008399044734,4.310000419616699,2019-06-03 16:21:04:744
0.20539194345474243,-1.2895970344543457,-9.973838806152344,0.02503982703368441,-0.025439398985142574,0.0002663811438438699,4.320024490356445,2019-06-03 16:21:04:754
0.19822710752487183,-1.0818167924880981,-9.959508895874023,0.0346295476268965,0.01718158350972796,-0.005594004199522367,4.330002307891846,2019-06-03 16:21:04:764
-0.24599267542362213,-1.1486886739730835,-9.92607307434082,0.04741584383177387,-0.021843253502613715,-0.01132119870276502,4.339997291564941,2019-06-03 16:21:04:774
0.3988424837589264,-1.1606299877166748,-10.031157493591309,0.031965737391301555,-0.014251391626395141,0.0010655245753754797,4.349976539611816,2019-06-03 16:21:04:784
0.09314285963773727,-1.1176409721374512,-9.928461074829102,0.03556188079323581,0.009190149682051223,-0.000799143447786255,4.359968662261963,2019-06-03 16:21:04:794
-0.023882783949375153,-1.213172197341919,-9.835318565368652,0.03902483909293628,-0.022242825454071878,-0.005860385327111591,4.370070457458496,2019-06-03 16:21:04:804
0.3510769307613373,-1.2800439596176147,-9.957120895385742,0.04368650700522743,-0.0005327622876877398,0.0,4.380032539367676,2019-06-03 16:21:04:814
-0.05015384778380394,-1.33975088596344,-9.871142387390137,0.03449635836347351,0.000799143447786255,0.000799143447786255,4.390000343322754,2019-06-03 16:21:04:824
0.0406007319688797,-1.2394431829452515,-9.852036476135254,0.03289807055764086,-0.01531691613675204,0.005993575630831878,4.399995803833008,2019-06-03 16:21:04:834
0.18389743566513062,-1.2872087955474854,-9.969061851501465,0.0408895054256149,0.0010655245753754797,0.0050612419443439175,4.409969329833984,2019-06-03 16:21:04:844
-0.07164835184812546,-1.3875164985656738,-9.861589431762695,0.03955760030781742,0.000799143447786255,0.005594004199522367,4.419970512390137,2019-06-03 16:21:04:854
0.05731867998838425,-1.2704908847808838,-9.856813430786133,0.031033404224962244,-0.014251391626395141,0.0005327622876877398,4.429965972900391,2019-06-03 16:21:04:864
0.21255677938461304,-1.1271941661834717,-9.820988655090332,0.043420124317192256,-0.0006659528839916427,0.004794860816754693,4.44000244140625,2019-06-03 16:21:04:874
0.028659339994192123,-1.2418315410614014,-9.871142387390137,0.03569507213725339,-0.006659528709879265,0.010522054799848697,4.450007438659668,2019-06-03 16:21:04:884
0.2101684957742691,-1.0913699865341187,-9.969061851501465,0.033830405804574776,-0.008524196603003837,0.004528479689165468,4.459969997406006,2019-06-03 16:21:04:894
0.18150915205478668,-0.988673985004425,-9.878307342529297,0.03649421604016972,0.001997858586956347,0.012120341565384043,4.469970703125,2019-06-03 16:21:04:904
-0.08836629986763,-1.1701831817626953,-9.94040298461914,0.03742655128710363,-0.005993575630831878,0.00639314758229004,4.479962348937988,2019-06-03 16:21:04:914
0.10508424788713455,-1.1821244955062866,-10.002498626708984,0.031033404224962244,-0.007325481268778002,0.006126766454700816,4.489969253540039,2019-06-03 16:21:04:924
0.0812014639377594,-1.0770403146743774,-9.899802207946777,0.03849207371686592,-0.0002663811438438699,0.007725053220236163,4.500000476837158,2019-06-03 16:21:04:934
0.023882783949375153,-1.1677948236465454,-9.844871520996094,0.04035674421073375,-0.010655246143866284,0.00319657379114502,4.510012149810791,2019-06-03 16:21:04:944
0.19345055520534515,-1.1845128536224365,-9.892637252807617,0.03889164774891869,-0.004528479689165468,0.004395288865296531,4.520012855529785,2019-06-03 16:21:04:954
0.06687179207801819,-1.174959659576416,-9.868754386901855,0.03889164774891869,-0.0011987152041886733,0.00639314758229004,4.529969215393066,2019-06-03 16:21:04:964
-0.019106227904558182,-1.2155604362487793,-9.859201431274414,0.03649421604016972,-0.010255674192408122,-0.00159828689557251,4.5399603843688965,2019-06-03 16:21:04:974
0.09553113579750061,-1.213172197341919,-9.892637252807617,0.03849207371686592,-0.0018646680231617348,0.0025306209721719587,4.549973011016846,2019-06-03 16:21:04:984
-0.047765567898750305,-1.248996376991272,-9.964285850524902,0.03742655128710363,-0.0005327622876877398,-0.00319657379114502,4.559996604919434,2019-06-03 16:21:04:994
0.0406007319688797,-1.174959659576416,-9.94040298461914,0.03636102469615213,-0.008923768034313348,0.0025306209721719587,4.5700273513793945,2019-06-03 16:21:05:004
0.13374358415603638,-1.1104761362075806,-9.916520118713379,0.03849207371686592,0.0003995717238931275,0.003596145482528857,4.579988479614258,2019-06-03 16:21:05:014
0.0023882784880697727,-1.1630183458328247,-9.854424476623535,0.038225695190019955,-0.0021310491507509593,-0.0033297643549396326,4.5899658203125,2019-06-03 16:21:05:024
0.06448351591825485,-1.1128644943237305,-9.899802207946777,0.03622783751332374,-0.009190149682051223,-0.00639314758229004,4.5999579429626465,2019-06-03 16:21:05:034
0.11941391974687576,-1.0412161350250244,-9.885472297668457,0.041289075296478454,-0.0018646680231617348,-0.005194432248064204,4.609992980957031,2019-06-03 16:21:05:044
0.062095239758491516,-1.0865933895111084,-9.844871520996094,0.03795931250198478,-0.0023974304083773466,-0.004395288865296531,4.6201066970825195,2019-06-03 16:21:05:054
0.11224908381700516,-1.0650988817214966,-9.895025253295898,0.032631689950200285,-0.0037293360463234696,-0.0025306209721719587,4.630013942718506,2019-06-03 16:21:05:064
0.03582417592406273,-1.0268864631652832,-9.902190208435059,0.03622783751332374,-0.0034629549187342444,-0.008657386906724124,4.639970779418945,2019-06-03 16:21:05:074
-0.0023882784880697727,-1.0412161350250244,-9.961897850036621,0.04302055444632869,-0.0025306209721719587,-0.012120341565384043,4.649964332580566,2019-06-03 16:21:05:084
0.016717948019504547,-1.084205150604248,-9.966673851013184,0.03795931250198478,-0.0011987152041886733,-0.009190149682051223,4.659963130950928,2019-06-03 16:21:05:094
0.07881318777799606,-1.057934045791626,-9.880696296691895,0.03609464616930616,-0.008391005779134899,-0.007325481268778002,4.669963836669922,2019-06-03 16:21:05:104
0.16001465916633606,-1.1080878973007202,-9.832930564880371,0.04275417175829352,-0.006659528709879265,-0.008524196603003837,4.680263519287109,2019-06-03 16:21:05:114
0.17195604741573334,-1.2179486751556396,-9.899802207946777,0.041688649328531224,-0.0029301926635557957,-0.007325481268778002,4.690029144287109,2019-06-03 16:21:05:124
0.047765567898750305,-1.155853509902954,-9.902190208435059,0.03436316701945592,-0.008124624651545674,-0.00639314758229004,4.6999831199646,2019-06-03 16:21:05:134
0.0812014639377594,-1.1534651517868042,-9.949955940246582,0.03742655128710363,-0.0033297643549396326,-0.004794860816754693,4.709981441497803,2019-06-03 16:21:05:144
0.042989011853933334,-1.1845128536224365,-9.91890811920166,0.03569507213725339,-0.009190149682051223,-0.00639314758229004,4.719982147216797,2019-06-03 16:21:05:154
0.033435896039009094,-1.1224175691604614,-9.899802207946777,0.03183254604728396,-0.0023974304083773466,-0.0009323340115808674,4.729985237121582,2019-06-03 16:21:05:164
0.08358974009752274,-1.093758225440979,-9.902190208435059,0.03409678641201535,-0.0021310491507509593,-0.00319657379114502,4.739999771118164,2019-06-03 16:21:05:174
0.0406007319688797,-1.141523838043213,-9.885472297668457,0.03969079165183501,-0.0038625266101180813,-0.010122483888687835,4.749998569488525,2019-06-03 16:21:05:184
0.07642491161823273,-1.1606299877166748,-9.93323802947998,0.03303126190165845,-0.0034629549187342444,-0.008923768034313348,4.759967803955078,2019-06-03 16:21:05:194
0.07164835184812546,-1.0555458068847656,-9.873531341552734,0.037293359943086045,0.001997858586956347,-0.004661669992885756,4.7699737548828125,2019-06-03 16:21:05:204
0.062095239758491516,-1.067487120628357,-9.875919342041016,0.03995717017868099,-0.004528479689165468,-0.004262098301501919,4.779961109161377,2019-06-03 16:21:05:214
0.08597802370786667,-1.0698754787445068,-9.921297073364258,0.03489593031493167,-0.00639314758229004,-0.011188008399044734,4.789962291717529,2019-06-03 16:21:05:224
0.05731867998838425,-1.0364395380020142,-9.935626029968262,0.0346295476268965,-0.0014650963317778978,-0.0062599567584211025,4.79996395111084,2019-06-03 16:21:05:234
0.05731867998838425,-1.0603224039077759,-9.9117431640625,0.04288736310231111,-0.00319657379114502,-0.005727194503242653,4.809996604919434,2019-06-03 16:21:05:244
0.07881318777799606,-1.0889816284179688,-9.906967163085938,0.038092503846002365,-0.004262098301501919,-0.012120341565384043,4.819980621337891,2019-06-03 16:21:05:254
0.08836629986763,-1.0913699865341187,-9.887861251831055,0.03409678641201535,-0.005194432248064204,-0.009323339985771511,4.8299665451049805,2019-06-03 16:21:05:264
0.0812014639377594,-1.1128644943237305,-9.959508895874023,0.0398239829958526,-0.009323339985771511,-0.009456530289491798,4.839961528778076,2019-06-03 16:21:05:274
0.0740366280078888,-1.1892893314361572,-9.9308500289917,0.040623122737579724,-0.0034629549187342444,-0.010788436447586572,4.849987983703613,2019-06-03 16:21:05:284
0.05731867998838425,-1.201230764389038,-9.897414207458496,0.03889164774891869,-0.004661669992885756,-0.016382440647108937,4.859988212585449,2019-06-03 16:21:05:294
0.06448351591825485,-1.2155604362487793,-9.890249252319336,0.03582826348127098,-0.006925909837468489,-0.01531691613675204,4.870092391967773,2019-06-03 16:21:05:304
0.07164835184812546,-1.2203370332717896,-9.9308500289917,0.04248779323144755,-0.004661669992885756,-0.014650962537556003,4.879980087280273,2019-06-03 16:21:05:314
0.033435896039009094,-1.2537728548049927,-9.880696296691895,0.03755974263112122,-0.0062599567584211025,-0.01931263253044176,4.889962196350098,2019-06-03 16:21:05:324
0.05731867998838425,-1.2561612129211426,-9.904579162597656,0.03516231092237225,-0.005460813375653429,-0.014517772233835715,4.899962425231934,2019-06-03 16:21:05:334
0.05731867998838425,-1.248996376991272,-9.985779762268066,0.03516231092237225,-0.007059100141188776,-0.020378157040798657,4.909968376159668,2019-06-03 16:21:05:344
0.062095239758491516,-1.258549451828003,-9.883084297180176,0.031965737391301555,-0.009323339985771511,-0.02117730094371498,4.9200029373168945,2019-06-03 16:21:05:354
0.05731867998838425,-1.2179486751556396,-9.806659698486328,0.038225695190019955,-0.007192290965057714,-0.021976444846631304,4.929995536804199,2019-06-03 16:21:05:364
0.05731867998838425,-1.246608018875122,-9.887861251831055,0.03502911957835465,-0.0050612419443439175,-0.021710062158596128,4.939970970153809,2019-06-03 16:21:05:374
0.11224908381700516,-1.2346667051315308,-9.871142387390137,0.031965737391301555,-0.008124624651545674,-0.022509206061512455,4.9499592781066895,2019-06-03 16:21:05:384
0.09075457602739334,-1.2298901081085205,-9.79710578918457,0.03529550226638983,-0.0034629549187342444,-0.017048393206007675,4.959955215454102,2019-06-03 16:21:05:394
0.1218021959066391,-1.1964541673660278,-9.9117431640625,0.03209892873531914,-0.0062599567584211025,-0.01611605899937106,4.970025062561035,2019-06-03 16:21:05:404
0.10508424788713455,-1.141523838043213,-9.883084297180176,0.033830405804574776,-0.010788436447586572,-0.017447965157465835,4.979999542236328,2019-06-03 16:21:05:414
0.10030769556760788,-1.1606299877166748,-9.93323802947998,0.03929121761978226,-0.0033297643549396326,-0.014118200282377553,4.989971160888672,2019-06-03 16:21:05:424
0.047765567898750305,-1.1940659284591675,-9.923685073852539,0.03409678641201535,-0.006126766454700816,-0.016915202902287388,4.9999589920043945,2019-06-03 16:21:05:434
0.12419047951698303,-1.174959659576416,-9.887861251831055,0.040623122737579724,-0.003995717173912694,-0.015583296744192614,5.009956359863281,2019-06-03 16:21:05:444
0.10508424788713455,-1.1964541673660278,-9.914132118225098,0.04142226664049605,-0.004794860816754693,-0.015849678391930487,5.020016193389893,2019-06-03 16:21:05:454
0.10986080765724182,-1.2155604362487793,-9.883084297180176,0.038225695190019955,-0.00319657379114502,-0.01278629516458008,5.029999256134033,2019-06-03 16:21:05:464
0.13135531544685364,-1.2083956003189087,-9.93801498413086,0.04115588811365008,-0.004528479689165468,-0.012919485468300369,5.039970397949219,2019-06-03 16:21:05:474
0.1146373599767685,-1.2346667051315308,-9.861589431762695,0.03955760030781742,-0.00319657379114502,-0.01371862937121669,5.049961090087891,2019-06-03 16:21:05:484
0.14329670369625092,-1.2155604362487793,-9.875919342041016,0.03849207371686592,-0.007991434347825389,-0.008923768034313348,5.059957504272461,2019-06-03 16:21:05:494
0.12419047951698303,-1.2418315410614014,-9.906967163085938,0.04248779323144755,-0.0021310491507509593,-0.006925909837468489,5.07010555267334,2019-06-03 16:21:05:504
0.1361318677663803,-1.248996376991272,-9.892637252807617,0.03942440896379984,-0.004794860816754693,-0.0006659528839916427,5.080010414123535,2019-06-03 16:21:05:514
0.10030769556760788,-1.2537728548049927,-9.875919342041016,0.0346295476268965,-0.0023974304083773466,-0.0005327622876877398,5.089982032775879,2019-06-03 16:21:05:524
0.06926007568836212,-1.2681025266647339,-9.91890811920166,0.03662740738418731,-0.0011987152041886733,0.0006659528839916427,5.099967956542969,2019-06-03 16:21:05:534
0.10269597172737122,-1.2681025266647339,-9.892637252807617,0.03662740738418731,-0.00639314758229004,0.003995717173912694,5.109977722167969,2019-06-03 16:21:05:544
0.10508424788713455,-1.2203370332717896,-9.828153610229492,0.03862526506088352,-0.005327623071933142,0.006526337886010328,5.119992256164551,2019-06-03 16:21:05:554
0.08597802370786667,-1.210783839225769,-9.9308500289917,0.03516231092237225,-0.004528479689165468,0.010255674192408122,5.129983901977539,2019-06-03 16:21:05:564
0.0740366280078888,-1.2060073614120483,-9.906967163085938,0.03489593031493167,-0.005993575630831878,0.006925909837468489,5.139967918395996,2019-06-03 16:21:05:574
0.10986080765724182,-1.213172197341919,-9.866366386413574,0.03676059872820489,-0.00492805112047498,0.010655246143866284,5.149962425231934,2019-06-03 16:21:05:584
0.07881318777799606,-1.1701831817626953,-9.897414207458496,0.040756314081597314,0.00013319057192193496,0.011587579310205596,5.159958839416504,2019-06-03 16:21:05:594
0.07164835184812546,-1.174959659576416,-9.909355163574219,0.038225695190019955,-0.005727194503242653,0.005460813375653429,5.1699981689453125,2019-06-03 16:21:05:604
0.07642491161823273,-1.177348017692566,-9.863978385925293,0.03436316701945592,0.0005327622876877398,0.009456530289491798,5.180201530456543,2019-06-03 16:21:05:614
0.052542123943567276,-1.2346667051315308,-9.923685073852539,0.03582826348127098,-0.005194432248064204,0.00639314758229004,5.189986228942871,2019-06-03 16:21:05:624
0.05015384778380394,-1.1940659284591675,-9.961897850036621,0.03676059872820489,-0.005460813375653429,0.009190149682051223,5.199969291687012,2019-06-03 16:21:05:634
0.07164835184812546,-1.2370549440383911,-9.837706565856934,0.03476273897091409,-0.0010655245753754797,0.009190149682051223,5.209966659545898,2019-06-03 16:21:05:644
0.05731867998838425,-1.2346667051315308,-9.885472297668457,0.03755974263112122,-0.002663811535966571,0.009056959378330936,5.2199883460998535,2019-06-03 16:21:05:654
0.047765567898750305,-1.2036190032958984,-9.887861251831055,0.04048993555475134,-0.002264239844582734,0.004395288865296531,5.229994773864746,2019-06-03 16:21:05:664
0.09314285963773727,-1.2251135110855103,-9.832930564880371,0.037026977255050865,-0.0037293360463234696,0.005327623071933142,5.23998498916626,2019-06-03 16:21:05:674
0.08836629986763,-1.2370549440383911,-9.928461074829102,0.03902483909293628,-0.0038625266101180813,0.0062599567584211025,5.249972343444824,2019-06-03 16:21:05:684
0.09075457602739334,-1.1869010925292969,-9.928461074829102,0.03596145482528857,0.0003995717238931275,0.008391005779134899,5.259961128234863,2019-06-03 16:21:05:694
0.052542123943567276,-1.2275018692016602,-9.895025253295898,0.03542869361040742,-0.0013319057679832855,0.008524196603003837,5.269959449768066,2019-06-03 16:21:05:704
0.028659339994192123,-1.2155604362487793,-9.954732894897461,0.04009036152269858,-0.0062599567584211025,0.004528479689165468,5.279961109161377,2019-06-03 16:21:05:714
0.023882783949375153,-1.1964541673660278,-9.906967163085938,0.03662740738418731,-0.004262098301501919,0.0050612419443439175,5.289985179901123,2019-06-03 16:21:05:724
-0.0023882784880697727,-1.1630183458328247,-9.897414207458496,0.037293359943086045,-0.00785824352395645,0.004794860816754693,5.299992561340332,2019-06-03 16:21:05:734
0.062095239758491516,-1.1964541673660278,-9.840095520019531,0.040623122737579724,-0.0029301926635557957,0.0038625266101180813,5.309980392456055,2019-06-03 16:21:05:744
0.021494505926966667,-1.177348017692566,-9.794717788696289,0.03662740738418731,-0.0034629549187342444,0.0033297643549396326,5.31999397277832,2019-06-03 16:21:05:754
0.05970695987343788,-1.141523838043213,-9.844871520996094,0.03915802627576466,-0.008524196603003837,-0.001997858586956347,5.329961776733398,2019-06-03 16:21:05:764
0.10747252404689789,-1.1821244955062866,-9.892637252807617,0.0408895054256149,-0.002663811535966571,0.0002663811438438699,5.339960098266602,2019-06-03 16:21:05:774
0.023882783949375153,-1.177348017692566,-9.880696296691895,0.04102269676963249,-0.004262098301501919,-0.0029301926635557957,5.349961757659912,2019-06-03 16:21:05:784
0.10030769556760788,-1.2060073614120483,-9.94517993927002,0.04102269676963249,-0.007591862396367225,0.000799143447786255,5.359987258911133,2019-06-03 16:21:05:794
0.10030769556760788,-1.2394431829452515,-9.954732894897461,0.038092503846002365,-0.00319657379114502,-0.002663811535966571,5.369992256164551,2019-06-03 16:21:05:804
0.09314285963773727,-1.1630183458328247,-9.892637252807617,0.040623122737579724,-0.005727194503242653,-0.004395288865296531,5.379969596862793,2019-06-03 16:21:05:814
0.10269597172737122,-1.1869010925292969,-9.883084297180176,0.04328693713436387,-0.0038625266101180813,-0.00319657379114502,5.3899617195129395,2019-06-03 16:21:05:824
0.09075457602739334,-1.1439120769500732,-9.871142387390137,0.037160168599068455,-0.004528479689165468,-0.002264239844582734,5.399960041046143,2019-06-03 16:21:05:834
0.0740366280078888,-1.1104761362075806,-9.9117431640625,0.04009036152269858,-0.002264239844582734,0.004528479689165468,5.409960746765137,2019-06-03 16:21:05:844
0.07164835184812546,-1.1176409721374512,-9.916520118713379,0.041688649328531224,-0.0018646680231617348,-0.0034629549187342444,5.419985771179199,2019-06-03 16:21:05:854
0.06926007568836212,-1.057934045791626,-9.832930564880371,0.03542869361040742,-0.008524196603003837,-0.003063383227350408,5.429974555969238,2019-06-03 16:21:05:864
0.06926007568836212,-1.0627106428146362,-9.952343940734863,0.03636102469615213,-0.00013319057192193496,0.00319657379114502,5.439962387084961,2019-06-03 16:21:05:874
0.11702564358711243,-1.0746519565582275,-9.906967163085938,0.03622783751332374,-0.0050612419443439175,0.0006659528839916427,5.449955463409424,2019-06-03 16:21:05:884
0.03582417592406273,-1.0770403146743774,-9.904579162597656,0.0419550320165664,-0.003063383227350408,0.001997858586956347,5.459959506988525,2019-06-03 16:21:05:894
0.1361318677663803,-1.0436043739318848,-9.964285850524902,0.03476273897091409,-0.003596145482528857,0.0014650963317778978,5.46999454498291,2019-06-03 16:21:05:904
0.09075457602739334,-1.0650988817214966,-9.854424476623535,0.03795931250198478,-0.0021310491507509593,0.0003995717238931275,5.479989051818848,2019-06-03 16:21:05:914
0.0406007319688797,-1.1128644943237305,-9.880696296691895,0.03755974263112122,-0.011720770654223183,0.0023974304083773466,5.4899702072143555,2019-06-03 16:21:05:924
0.10747252404689789,-1.0818167924880981,-9.9117431640625,0.0376929298139496,-0.004528479689165468,-0.0014650963317778978,5.499961853027344,2019-06-03 16:21:05:934
0.05493040382862091,-1.0603224039077759,-9.921297073364258,0.033830405804574776,-0.002663811535966571,0.001997858586956347,5.509958267211914,2019-06-03 16:21:05:944
0.031047619879245758,-1.0507692098617554,-9.878307342529297,0.03502911957835465,-0.001997858586956347,0.0013319057679832855,5.52001953125,2019-06-03 16:21:05:954
0.026271061971783638,-1.0244982242584229,-9.92607307434082,0.03476273897091409,-0.0013319057679832855,0.0009323340115808674,5.529993057250977,2019-06-03 16:21:05:964
0.019106227904558182,-1.012556791305542,-9.890249252319336,0.03409678641201535,-0.004395288865296531,-0.000799143447786255,5.539981842041016,2019-06-03 16:21:05:974
0.031047619879245758,-1.0077801942825317,-9.887861251831055,0.03516231092237225,-0.0050612419443439175,-0.0029301926635557957,5.549968242645264,2019-06-03 16:21:05:984
0.06926007568836212,-1.012556791305542,-9.897414207458496,0.03489593031493167,-0.000799143447786255,-0.0011987152041886733,5.56016731262207,2019-06-03 16:21:05:994
-0.0,-0.9982271194458008,-9.844871520996094,0.038358886534037545,-0.007725053220236163,-0.003995717173912694,5.569998264312744,2019-06-03 16:21:06:004
0.05015384778380394,-1.0459927320480347,-9.861589431762695,0.042620984575465135,-0.004262098301501919,-0.008391005779134899,5.580010414123535,2019-06-03 16:21:06:014
0.047765567898750305,-1.1439120769500732,-9.890249252319336,0.03849207371686592,0.0010655245753754797,-0.011054817055027146,5.590000152587891,2019-06-03 16:21:06:024
0.05493040382862091,-1.1104761362075806,-9.909355163574219,0.03662740738418731,-0.007192290965057714,-0.012653103820562494,5.5999956130981445,2019-06-03 16:21:06:034
0.08836629986763,-1.1104761362075806,-9.861589431762695,0.043420124317192256,-0.004395288865296531,-0.010522054799848697,5.609966278076172,2019-06-03 16:21:06:044
0.05015384778380394,-1.213172197341919,-9.964285850524902,0.03689379007222248,-0.0018646680231617348,-0.009589721633509386,5.61998176574707,2019-06-03 16:21:06:054
0.05015384778380394,-1.1892893314361572,-9.887861251831055,0.037026977255050865,-0.0062599567584211025,-0.011054817055027146,5.629966735839844,2019-06-03 16:21:06:064
0.062095239758491516,-1.1176409721374512,-9.9117431640625,0.0387584564049011,-0.003063383227350408,-0.01132119870276502,5.639979362487793,2019-06-03 16:21:06:074
0.07881318777799606,-1.2060073614120483,-9.935626029968262,0.037160168599068455,0.002264239844582734,-0.007725053220236163,5.650003433227539,2019-06-03 16:21:06:084
0.09553113579750061,-1.1677948236465454,-9.935626029968262,0.0376929298139496,0.0,-0.007458672092646939,5.659977912902832,2019-06-03 16:21:06:094
0.0812014639377594,-1.120029330253601,-9.921297073364258,0.03556188079323581,-0.0023974304083773466,-0.004395288865296531,5.6699628829956055,2019-06-03 16:21:06:104
0.10269597172737122,-1.1534651517868042,-9.93323802947998,0.03476273897091409,-0.0013319057679832855,-0.007059100141188776,5.680253028869629,2019-06-03 16:21:06:114
0.1218021959066391,-1.174959659576416,-9.921297073364258,0.03942440896379984,-0.0027970020997611835,-0.005460813375653429,5.690075874328613,2019-06-03 16:21:06:124
0.09314285963773727,-1.174959659576416,-9.854424476623535,0.03183254604728396,-0.006126766454700816,-0.0037293360463234696,5.699977874755859,2019-06-03 16:21:06:134
0.1146373599767685,-1.1892893314361572,-9.835318565368652,0.041821840672548814,-0.0037293360463234696,0.000799143447786255,5.709964752197266,2019-06-03 16:21:06:144
0.09553113579750061,-1.2298901081085205,-9.892637252807617,0.03516231092237225,-0.0062599567584211025,0.00159828689557251,5.719964027404785,2019-06-03 16:21:06:154
0.042989011853933334,-1.2728791236877441,-9.923685073852539,0.03396359506799776,-0.0006659528839916427,-0.0033297643549396326,5.729962348937988,2019-06-03 16:21:06:164
0.062095239758491516,-1.2298901081085205,-9.854424476623535,0.03289807055764086,-0.00159828689557251,-0.0017314774593671222,5.739961624145508,2019-06-03 16:21:06:174
0.09791941195726395,-1.2919853925704956,-9.890249252319336,0.04275417175829352,0.0002663811438438699,-0.002264239844582734,5.749959945678711,2019-06-03 16:21:06:184
0.05493040382862091,-1.320644736289978,-9.849648475646973,0.03676059872820489,-0.005860385327111591,-0.013851819674936977,5.7599711418151855,2019-06-03 16:21:06:194
0.05493040382862091,-1.3325860500335693,-9.887861251831055,0.03689379007222248,-0.0013319057679832855,-0.010255674192408122,5.769993782043457,2019-06-03 16:21:06:204
0.05493040382862091,-1.3063150644302368,-9.873531341552734,0.04022355286671616,-0.005194432248064204,-0.013585438027199106,5.779986381530762,2019-06-03 16:21:06:214
0.0740366280078888,-1.3325860500335693,-9.923685073852539,0.03782612115796719,-0.005993575630831878,-0.011188008399044734,5.789966583251953,2019-06-03 16:21:06:224
0.05970695987343788,-1.3182563781738281,-9.856813430786133,0.03795931250198478,-0.004528479689165468,-0.016515630950829224,5.799961566925049,2019-06-03 16:21:06:234
0.0740366280078888,-1.2442197799682617,-9.861589431762695,0.03862526506088352,-0.006126766454700816,-0.02024496777737567,5.809963703155518,2019-06-03 16:21:06:244
0.10986080765724182,-1.2537728548049927,-9.863978385925293,0.03662740738418731,-0.009323339985771511,-0.01478415388157359,5.819987773895264,2019-06-03 16:21:06:254
0.12657874822616577,-1.2322783470153809,-9.904579162597656,0.037026977255050865,-0.00639314758229004,-0.017980727412644285,5.8299880027771,2019-06-03 16:21:06:264
0.10269597172737122,-1.1940659284591675,-9.892637252807617,0.03516231092237225,-0.004528479689165468,-0.021843253502613715,5.839980602264404,2019-06-03 16:21:06:274
0.11941391974687576,-1.1582417488098145,-9.902190208435059,0.03889164774891869,-0.008790577730593063,-0.01611605899937106,5.849966049194336,2019-06-03 16:21:06:284
0.09314285963773727,-1.1534651517868042,-9.904579162597656,0.03889164774891869,-0.004395288865296531,-0.01931263253044176,5.859958648681641,2019-06-03 16:21:06:294
0.11224908381700516,-1.1343590021133423,-9.91890811920166,0.03596145482528857,-0.006925909837468489,-0.015050534489014165,5.869961738586426,2019-06-03 16:21:06:304
0.14329670369625092,-1.165406584739685,-9.840095520019531,0.038358886534037545,-0.0021310491507509593,-0.011587579310205596,5.879983901977539,2019-06-03 16:21:06:314
0.10030769556760788,-1.177348017692566,-9.863978385925293,0.03689379007222248,-0.004661669992885756,-0.011987151261663756,5.88998556137085,2019-06-03 16:21:06:324
0.1289670318365097,-1.1152527332305908,-9.928461074829102,0.038358886534037545,-0.007991434347825389,-0.011720770654223183,5.899984359741211,2019-06-03 16:21:06:334
0.1624029278755188,-1.1152527332305908,-9.914132118225098,0.03889164774891869,-0.004794860816754693,-0.007991434347825389,5.909963607788086,2019-06-03 16:21:06:344
0.07642491161823273,-1.1510769128799438,-9.949955940246582,0.03436316701945592,-0.0062599567584211025,-0.007325481268778002,5.919961929321289,2019-06-03 16:21:06:354
0.11941391974687576,-1.129582405090332,-9.9308500289917,0.03529550226638983,-0.002264239844582734,-0.007725053220236163,5.929983615875244,2019-06-03 16:21:06:364
0.05731867998838425,-1.1367472410202026,-9.9117431640625,0.03542869361040742,-0.0005327622876877398,-0.00319657379114502,5.939969062805176,2019-06-03 16:21:06:374
0.0812014639377594,-1.174959659576416,-9.854424476623535,0.0376929298139496,-0.007325481268778002,0.001997858586956347,5.949987411499023,2019-06-03 16:21:06:384
0.09553113579750061,-1.174959659576416,-9.978615760803223,0.04035674421073375,-0.004262098301501919,0.0,5.9599809646606445,2019-06-03 16:21:06:394
0.05493040382862091,-1.1582417488098145,-9.93801498413086,0.03556188079323581,-0.005327623071933142,-0.0013319057679832855,5.969968795776367,2019-06-03 16:21:06:404
0.05493040382862091,-1.1821244955062866,-9.928461074829102,0.03422997775603293,-0.005594004199522367,0.00159828689557251,5.979959487915039,2019-06-03 16:21:06:414
0.10269597172737122,-1.2155604362487793,-9.878307342529297,0.03995717017868099,-0.003063383227350408,0.0023974304083773466,5.98996114730835,2019-06-03 16:21:06:424
0.05731867998838425,-1.1940659284591675,-9.91890811920166,0.03436316701945592,-0.00492805112047498,-0.002663811535966571,5.999959945678711,2019-06-03 16:21:06:434
0.07642491161823273,-1.1630183458328247,-9.863978385925293,0.03556188079323581,-0.006659528709879265,0.0,6.009984970092773,2019-06-03 16:21:06:444
0.011941391974687576,-1.1677948236465454,-9.909355163574219,0.040623122737579724,-0.00492805112047498,-0.0029301926635557957,6.019985198974609,2019-06-03 16:21:06:454
0.0047765569761395454,-1.1797362565994263,-9.854424476623535,0.038225695190019955,-0.003596145482528857,0.0011987152041886733,6.03000545501709,2019-06-03 16:21:06:464
0.0406007319688797,-1.141523838043213,-9.847260475158691,0.0387584564049011,-0.007059100141188776,0.00013319057192193496,6.039968490600586,2019-06-03 16:21:06:474
0.0812014639377594,-1.177348017692566,-9.909355163574219,0.03529550226638983,-0.0050612419443439175,-0.0033297643549396326,6.0499587059021,2019-06-03 16:21:06:484
0.04537728801369667,-1.1582417488098145,-9.856813430786133,0.03489593031493167,-0.005460813375653429,-0.003995717173912694,6.059957504272461,2019-06-03 16:21:06:494
0.09314285963773727,-1.129582405090332,-9.880696296691895,0.03502911957835465,-0.003063383227350408,-0.005327623071933142,6.06995964050293,2019-06-03 16:21:06:504
0.0406007319688797,-1.1343590021133423,-9.942790985107422,0.038092503846002365,-0.00159828689557251,-0.0033297643549396326,6.079960346221924,2019-06-03 16:21:06:514
0.04537728801369667,-1.1367472410202026,-9.861589431762695,0.0346295476268965,-0.0033297643549396326,-0.0017314774593671222,6.089957237243652,2019-06-03 16:21:06:524
0.06926007568836212,-1.139135479927063,-9.91890811920166,0.03969079165183501,-0.005194432248064204,-0.005194432248064204,6.100070953369141,2019-06-03 16:21:06:534
0.0740366280078888,-1.165406584739685,-9.978615760803223,0.03622783751332374,-0.004395288865296531,-0.005460813375653429,6.109979629516602,2019-06-03 16:21:06:544
0.08597802370786667,-1.1343590021133423,-9.885472297668457,0.03782612115796719,-0.005327623071933142,-0.0017314774593671222,6.119961738586426,2019-06-03 16:21:06:554
0.08597802370786667,-1.1224175691604614,-9.961897850036621,0.040756314081597314,-0.0025306209721719587,-0.0029301926635557957,6.129961967468262,2019-06-03 16:21:06:564
0.09553113579750061,-1.174959659576416,-9.906967163085938,0.038092503846002365,-0.004395288865296531,-0.002264239844582734,6.139989852905273,2019-06-03 16:21:06:574
0.14329670369625092,-1.174959659576416,-9.871142387390137,0.03516231092237225,-0.0005327622876877398,-0.010522054799848697,6.14998722076416,2019-06-03 16:21:06:584
0.09553113579750061,-1.1463003158569336,-9.923685073852539,0.03969079165183501,-0.00319657379114502,-0.005460813375653429,6.1599836349487305,2019-06-03 16:21:06:594
0.10030769556760788,-1.165406584739685,-9.94040298461914,0.04115588811365008,-0.007325481268778002,-0.011987151261663756,6.169966220855713,2019-06-03 16:21:06:604
0.08836629986763,-1.1439120769500732,-9.852036476135254,0.03542869361040742,-0.00639314758229004,-0.009190149682051223,6.180363178253174,2019-06-03 16:21:06:614
0.047765567898750305,-1.1439120769500732,-9.871142387390137,0.03902483909293628,-0.0023974304083773466,-0.008124624651545674,6.190072059631348,2019-06-03 16:21:06:624
0.09075457602739334,-1.1701831817626953,-9.897414207458496,0.038225695190019955,-0.005327623071933142,-0.009190149682051223,6.19999885559082,2019-06-03 16:21:06:634
0.12419047951698303,-1.1534651517868042,-9.852036476135254,0.03636102469615213,-0.0027970020997611835,-0.007591862396367225,6.209994316101074,2019-06-03 16:21:06:644
0.11702564358711243,-1.165406584739685,-9.885472297668457,0.03902483909293628,-0.008124624651545674,-0.0037293360463234696,6.219980239868164,2019-06-03 16:21:06:654
0.10269597172737122,-1.1869010925292969,-9.9117431640625,0.038092503846002365,-0.0014650963317778978,-0.0029301926635557957,6.229988098144531,2019-06-03 16:21:06:664
0.09791941195726395,-1.1677948236465454,-9.904579162597656,0.04022355286671616,-0.0023974304083773466,-0.005993575630831878,6.239963531494141,2019-06-03 16:21:06:674
0.07164835184812546,-1.1964541673660278,-9.866366386413574,0.03636102469615213,-0.009056959378330936,-0.0025306209721719587,6.2499613761901855,2019-06-03 16:21:06:684
0.1289670318365097,-1.2155604362487793,-9.928461074829102,0.04395288969326261,-0.0021310491507509593,-0.00492805112047498,6.2599687576293945,2019-06-03 16:21:06:694
0.06687179207801819,-1.174959659576416,-9.91890811920166,0.03596145482528857,-0.004262098301501919,-0.007591862396367225,6.269987106323242,2019-06-03 16:21:06:704
0.07881318777799606,-1.1630183458328247,-9.868754386901855,0.03662740738418731,-0.00785824352395645,-0.008524196603003837,6.279984474182129,2019-06-03 16:21:06:714
0.038212455809116364,-1.1701831817626953,-9.9117431640625,0.03396359506799776,-0.0034629549187342444,-0.006925909837468489,6.289976596832275,2019-06-03 16:21:06:724
0.05731867998838425,-1.1940659284591675,-9.875919342041016,0.03316445324567604,-0.004661669992885756,-0.0023974304083773466,6.299962043762207,2019-06-03 16:21:06:734
0.06926007568836212,-1.1248058080673218,-9.837706565856934,0.03849207371686592,-0.005594004199522367,-0.0029301926635557957,6.309955596923828,2019-06-03 16:21:06:744
0.042989011853933334,-1.2251135110855103,-9.847260475158691,0.03569507213725339,-0.005993575630831878,-0.006659528709879265,6.319960594177246,2019-06-03 16:21:06:754
0.09314285963773727,-1.210783839225769,-9.91890811920166,0.03289807055764086,-0.006792719013599553,-0.002264239844582734,6.330015182495117,2019-06-03 16:21:06:764
0.11941391974687576,-1.129582405090332,-9.921297073364258,0.0376929298139496,-0.005327623071933142,-0.007591862396367225,6.339991569519043,2019-06-03 16:21:06:774
0.0812014639377594,-1.155853509902954,-9.928461074829102,0.03889164774891869,-0.009190149682051223,-0.004262098301501919,6.349977970123291,2019-06-03 16:21:06:784
0.10269597172737122,-1.1892893314361572,-9.880696296691895,0.03676059872820489,-0.003596145482528857,-0.003995717173912694,6.359959602355957,2019-06-03 16:21:06:794
0.09791941195726395,-1.1630183458328247,-9.885472297668457,0.03516231092237225,-0.003063383227350408,-0.007591862396367225,6.369960784912109,2019-06-03 16:21:06:804
0.08358974009752274,-1.1486886739730835,-9.91890811920166,0.03676059872820489,-0.0034629549187342444,-0.0005327622876877398,6.379956245422363,2019-06-03 16:21:06:814
0.09553113579750061,-1.1892893314361572,-9.890249252319336,0.03676059872820489,-0.001997858586956347,-0.0006659528839916427,6.389988899230957,2019-06-03 16:21:06:824
0.07881318777799606,-1.1510769128799438,-9.921297073364258,0.033697214460557186,-0.005727194503242653,-0.005860385327111591,6.3999834060668945,2019-06-03 16:21:06:834
0.05731867998838425,-1.1582417488098145,-9.866366386413574,0.03969079165183501,-0.006925909837468489,-0.0038625266101180813,6.409968376159668,2019-06-03 16:21:06:844
0.0740366280078888,-1.201230764389038,-9.895025253295898,0.03636102469615213,-0.005594004199522367,-0.003063383227350408,6.419961929321289,2019-06-03 16:21:06:854
0.05731867998838425,-1.1630183458328247,-9.873531341552734,0.03516231092237225,-0.005460813375653429,-0.0037293360463234696,6.4299798011779785,2019-06-03 16:21:06:864
0.05970695987343788,-1.1271941661834717,-9.91890811920166,0.04248779323144755,-0.001997858586956347,-0.002663811535966571,6.439962387084961,2019-06-03 16:21:06:874
0.09075457602739334,-1.201230764389038,-9.902190208435059,0.03782612115796719,-0.004395288865296531,-0.005460813375653429,6.449985504150391,2019-06-03 16:21:06:884
0.06448351591825485,-1.1988425254821777,-9.902190208435059,0.03609464616930616,-0.0050612419443439175,-0.007325481268778002,6.459982872009277,2019-06-03 16:21:06:894
0.0740366280078888,-1.1725714206695557,-9.969061851501465,0.038225695190019955,-0.00492805112047498,-0.005327623071933142,6.469976902008057,2019-06-03 16:21:06:904
0.06926007568836212,-1.22272527217865,-9.899802207946777,0.03782612115796719,-0.0050612419443439175,0.0033297643549396326,6.479962348937988,2019-06-03 16:21:06:914
0.06687179207801819,-1.1845128536224365,-9.899802207946777,0.03929121761978226,-0.005594004199522367,-0.003596145482528857,6.489957809448242,2019-06-03 16:21:06:924
0.08836629986763,-1.1486886739730835,-9.883084297180176,0.03582826348127098,-0.005460813375653429,-0.0002663811438438699,6.4999589920043945,2019-06-03 16:21:06:934
0.062095239758491516,-1.1964541673660278,-9.923685073852539,0.03609464616930616,-0.0021310491507509593,-0.0014650963317778978,6.509984493255615,2019-06-03 16:21:06:944
0.06926007568836212,-1.1964541673660278,-9.866366386413574,0.03609464616930616,-0.0023974304083773466,-0.008657386906724124,6.519988059997559,2019-06-03 16:21:06:954
0.10986080765724182,-1.1988425254821777,-9.954732894897461,0.037026977255050865,-0.0062599567584211025,-0.0017314774593671222,6.529998779296875,2019-06-03 16:21:06:964
0.06926007568836212,-1.1845128536224365,-9.873531341552734,0.041289075296478454,-0.004262098301501919,0.00013319057192193496,6.5399699211120605,2019-06-03 16:21:06:974
0.09553113579750061,-1.1916776895523071,-9.871142387390137,0.03609464616930616,-0.005194432248064204,-0.004262098301501919,6.549962997436523,2019-06-03 16:21:06:984
0.09314285963773727,-1.1797362565994263,-9.916520118713379,0.03542869361040742,-0.004794860816754693,-0.003596145482528857,6.559954643249512,2019-06-03 16:21:06:994
0.08836629986763,-1.246608018875122,-9.964285850524902,0.03782612115796719,-0.00492805112047498,-0.0027970020997611835,6.5699872970581055,2019-06-03 16:21:07:004
0.10030769556760788,-1.210783839225769,-9.909355163574219,0.03422997775603293,-0.003596145482528857,-0.0002663811438438699,6.579988479614258,2019-06-03 16:21:07:014
0.047765567898750305,-1.1510769128799438,-9.885472297668457,0.03929121761978226,-0.005194432248064204,-0.0027970020997611835,6.5899858474731445,2019-06-03 16:21:07:024
0.11941391974687576,-1.1439120769500732,-9.878307342529297,0.03542869361040742,-0.005993575630831878,-0.0034629549187342444,6.599979400634766,2019-06-03 16:21:07:034
0.021494505926966667,-1.1725714206695557,-9.923685073852539,0.03489593031493167,-0.0038625266101180813,-0.002663811535966571,6.609962463378906,2019-06-03 16:21:07:044
0.04537728801369667,-1.1080878973007202,-9.856813430786133,0.03609464616930616,-0.0037293360463234696,-0.0023974304083773466,6.619955539703369,2019-06-03 16:21:07:054
0.06448351591825485,-1.177348017692566,-9.863978385925293,0.040623122737579724,-0.005594004199522367,-0.007725053220236163,6.629980087280273,2019-06-03 16:21:07:064
0.09075457602739334,-1.1725714206695557,-9.906967163085938,0.031965737391301555,-0.003995717173912694,-0.0013319057679832855,6.639993190765381,2019-06-03 16:21:07:074
0.10269597172737122,-1.141523838043213,-9.878307342529297,0.03955760030781742,-0.004395288865296531,-0.0050612419443439175,6.649984359741211,2019-06-03 16:21:07:084
0.03582417592406273,-1.165406584739685,-9.83054256439209,0.040623122737579724,-0.007458672092646939,-0.003596145482528857,6.659966468811035,2019-06-03 16:21:07:094
0.10269597172737122,-1.2322783470153809,-9.921297073364258,0.03676059872820489,-0.00013319057192193496,-0.004128907737707306,6.669961929321289,2019-06-03 16:21:07:104
0.05493040382862091,-1.1845128536224365,-9.91890811920166,0.03676059872820489,-0.003995717173912694,-0.0037293360463234696,6.680092811584473,2019-06-03 16:21:07:114
0.08836629986763,-1.1176409721374512,-9.885472297668457,0.03636102469615213,-0.004661669992885756,-0.0011987152041886733,6.690125465393066,2019-06-03 16:21:07:124
0.10269597172737122,-1.1701831817626953,-9.909355163574219,0.03409678641201535,-0.001997858586956347,-0.00492805112047498,6.700007438659668,2019-06-03 16:21:07:134
0.08358974009752274,-1.1725714206695557,-9.840095520019531,0.037293359943086045,-0.0037293360463234696,-0.0037293360463234696,6.7099809646606445,2019-06-03 16:21:07:144
0.05015384778380394,-1.1630183458328247,-9.923685073852539,0.038092503846002365,-0.005460813375653429,-0.001997858586956347,6.719970226287842,2019-06-03 16:21:07:154
0.0740366280078888,-1.165406584739685,-9.880696296691895,0.03755974263112122,-0.00319657379114502,-0.005327623071933142,6.729963302612305,2019-06-03 16:21:07:164
0.08836629986763,-1.1463003158569336,-9.897414207458496,0.03329764250909902,-0.0005327622876877398,-0.006792719013599553,6.739988327026367,2019-06-03 16:21:07:174
0.08597802370786667,-1.1534651517868042,-9.878307342529297,0.03755974263112122,-0.00319657379114502,-0.004128907737707306,6.749971389770508,2019-06-03 16:21:07:184
0.08358974009752274,-1.1892893314361572,-9.897414207458496,0.03795931250198478,-0.002264239844582734,-0.0034629549187342444,6.759987831115723,2019-06-03 16:21:07:194
0.0812014639377594,-1.1821244955062866,-9.904579162597656,0.03755974263112122,-0.0013319057679832855,-0.0027970020997611835,6.769980430603027,2019-06-03 16:21:07:204
0.028659339994192123,-1.1677948236465454,-9.878307342529297,0.03782612115796719,-0.0037293360463234696,0.0009323340115808674,6.779965400695801,2019-06-03 16:21:07:214
0.07164835184812546,-1.2036190032958984,-9.914132118225098,0.04222141054341237,-0.005327623071933142,-0.0023974304083773466,6.789956092834473,2019-06-03 16:21:07:224
0.05015384778380394,-1.1630183458328247,-9.94040298461914,0.03782612115796719,-0.007192290965057714,-0.0037293360463234696,6.799958229064941,2019-06-03 16:21:07:234
0.042989011853933334,-1.1104761362075806,-9.81621265411377,0.03795931250198478,-0.004661669992885756,-0.004128907737707306,6.80998420715332,2019-06-03 16:21:07:244
0.10986080765724182,-1.177348017692566,-9.897414207458496,0.03755974263112122,-0.0027970020997611835,-0.008790577730593063,6.819995403289795,2019-06-03 16:21:07:254
0.06687179207801819,-1.1701831817626953,-9.906967163085938,0.03476273897091409,-0.004395288865296531,-0.008257815475414612,6.829992294311523,2019-06-03 16:21:07:264
0.07881318777799606,-1.1534651517868042,-9.899802207946777,0.037160168599068455,-0.00159828689557251,-0.007991434347825389,6.840002059936523,2019-06-03 16:21:07:274
0.09553113579750061,-1.1797362565994263,-9.921297073364258,0.03609464616930616,-0.0050612419443439175,-0.0050612419443439175,6.849963188171387,2019-06-03 16:21:07:284
0.10269597172737122,-1.1486886739730835,-9.906967163085938,0.033564023116539596,-0.00319657379114502,-0.007991434347825389,6.859960079193115,2019-06-03 16:21:07:294
0.07164835184812546,-1.2036190032958984,-9.92607307434082,0.0398239829958526,-0.011054817055027146,-0.00785824352395645,6.869960784912109,2019-06-03 16:21:07:304
0.08358974009752274,-1.1463003158569336,-9.887861251831055,0.03742655128710363,-0.004794860816754693,-0.005860385327111591,6.879986763000488,2019-06-03 16:21:07:314
0.06448351591825485,-1.1869010925292969,-9.856813430786133,0.03316445324567604,-0.003995717173912694,-0.005327623071933142,6.8899993896484375,2019-06-03 16:21:07:324
0.12657874822616577,-1.201230764389038,-9.885472297668457,0.03676059872820489,-0.002663811535966571,-0.003596145482528857,6.899964332580566,2019-06-03 16:21:07:334
0.07642491161823273,-1.174959659576416,-9.878307342529297,0.03236530934275971,-0.002264239844582734,-0.005594004199522367,6.909962177276611,2019-06-03 16:21:07:344
0.07881318777799606,-1.141523838043213,-9.94517993927002,0.03689379007222248,-0.005460813375653429,-0.003063383227350408,6.9199628829956055,2019-06-03 16:21:07:354
0.07642491161823273,-1.1582417488098145,-9.852036476135254,0.03556188079323581,-0.0027970020997611835,-0.00785824352395645,6.929965019226074,2019-06-03 16:21:07:364
0.06926007568836212,-1.120029330253601,-9.892637252807617,0.03529550226638983,-0.006792719013599553,-0.006659528709879265,6.940021514892578,2019-06-03 16:21:07:374
0.08358974009752274,-1.1271941661834717,-9.916520118713379,0.03316445324567604,-0.004528479689165468,-0.0038625266101180813,6.949986934661865,2019-06-03 16:21:07:384
0.10508424788713455,-1.1510769128799438,-9.914132118225098,0.0398239829958526,-0.001997858586956347,-0.005194432248064204,6.95997428894043,2019-06-03 16:21:07:394
0.08836629986763,-1.1463003158569336,-9.949955940246582,0.03529550226638983,-0.007591862396367225,-0.004794860816754693,6.969966411590576,2019-06-03 16:21:07:404
0.06687179207801819,-1.1510769128799438,-9.880696296691895,0.03742655128710363,-0.005460813375653429,-0.0018646680231617348,6.979961395263672,2019-06-03 16:21:07:414
0.10030769556760788,-1.139135479927063,-9.914132118225098,0.03636102469615213,-0.0014650963317778978,-0.00639314758229004,6.989962577819824,2019-06-03 16:21:07:424
0.033435896039009094,-1.155853509902954,-9.949955940246582,0.03569507213725339,-0.005727194503242653,-0.0034629549187342444,6.999985694885254,2019-06-03 16:21:07:434
0.08358974009752274,-1.1725714206695557,-9.93323802947998,0.03542869361040742,-0.006792719013599553,-0.009456530289491798,7.00998592376709,2019-06-03 16:21:07:444
0.06687179207801819,-1.201230764389038,-9.906967163085938,0.03516231092237225,-0.0017314774593671222,-0.0018646680231617348,7.019983768463135,2019-06-03 16:21:07:454
0.042989011853933334,-1.1486886739730835,-9.92607307434082,0.03636102469615213,-0.004128907737707306,-0.003063383227350408,7.029973030090332,2019-06-03 16:21:07:464
0.031047619879245758,-1.1582417488098145,-9.897414207458496,0.03929121761978226,-0.007192290965057714,-0.005860385327111591,7.0399932861328125,2019-06-03 16:21:07:474
0.07164835184812546,-1.1510769128799438,-9.899802207946777,0.04048993555475134,-0.0021310491507509593,-0.005727194503242653,7.049970626831055,2019-06-03 16:21:07:484
0.08358974009752274,-1.1701831817626953,-9.887861251831055,0.03676059872820489,-0.0021310491507509593,-0.005194432248064204,7.060173511505127,2019-06-03 16:21:07:494
0.08358974009752274,-1.2036190032958984,-9.856813430786133,0.0419550320165664,-0.004128907737707306,-0.009190149682051223,7.070008277893066,2019-06-03 16:21:07:504
0.05731867998838425,-1.2155604362487793,-9.878307342529297,0.0419550320165664,-0.0062599567584211025,-0.009589721633509386,7.079992771148682,2019-06-03 16:21:07:514
0.11702564358711243,-1.2251135110855103,-9.942790985107422,0.04009036152269858,-0.00639314758229004,-0.008657386906724124,7.089977264404297,2019-06-03 16:21:07:524
0.062095239758491516,-1.1677948236465454,-9.840095520019531,0.03902483909293628,-0.007458672092646939,-0.006792719013599553,7.099971294403076,2019-06-03 16:21:07:534
0.08836629986763,-1.1940659284591675,-9.883084297180176,0.0376929298139496,-0.007591862396367225,-0.007192290965057714,7.109971046447754,2019-06-03 16:21:07:544
0.08597802370786667,-1.1988425254821777,-9.9117431640625,0.032498498606182695,-0.00639314758229004,-0.006792719013599553,7.119980812072754,2019-06-03 16:21:07:554
0.08597802370786667,-1.1343590021133423,-9.892637252807617,0.037293359943086045,-0.0062599567584211025,-0.005860385327111591,7.1299872398376465,2019-06-03 16:21:07:564
0.08597802370786667,-1.177348017692566,-9.94040298461914,0.03902483909293628,-0.0029301926635557957,-0.006126766454700816,7.140011787414551,2019-06-03 16:21:07:574
0.10030769556760788,-1.1916776895523071,-9.91890811920166,0.03582826348127098,-0.000799143447786255,0.0,7.149975776672363,2019-06-03 16:21:07:584
0.1218021959066391,-1.1845128536224365,-9.902190208435059,0.03995717017868099,-0.004528479689165468,-0.005194432248064204,7.159968376159668,2019-06-03 16:21:07:594
0.08836629986763,-1.1797362565994263,-9.94040298461914,0.03662740738418731,-0.0038625266101180813,-0.005194432248064204,7.169971466064453,2019-06-03 16:21:07:604
0.07642491161823273,-1.2155604362487793,-9.899802207946777,0.03755974263112122,-0.0023974304083773466,-0.004528479689165468,7.180038928985596,2019-06-03 16:21:07:614
0.0740366280078888,-1.1988425254821777,-9.849648475646973,0.03476273897091409,-0.0062599567584211025,-0.0033297643549396326,7.190157890319824,2019-06-03 16:21:07:624
0.07642491161823273,-1.2155604362487793,-9.873531341552734,0.037026977255050865,-0.0027970020997611835,-0.0062599567584211025,7.200010299682617,2019-06-03 16:21:07:634
0.06448351591825485,-1.201230764389038,-9.904579162597656,0.03409678641201535,-0.005860385327111591,-0.005327623071933142,7.2099833488464355,2019-06-03 16:21:07:644
0.06687179207801819,-1.1725714206695557,-9.863978385925293,0.037160168599068455,-0.004661669992885756,-0.0029301926635557957,7.219977378845215,2019-06-03 16:21:07:654
0.0740366280078888,-1.177348017692566,-9.92607307434082,0.0376929298139496,-0.00319657379114502,-0.006526337886010328,7.229979038238525,2019-06-03 16:21:07:664
0.12419047951698303,-1.1916776895523071,-9.961897850036621,0.0346295476268965,-0.0014650963317778978,0.0006659528839916427,7.239995002746582,2019-06-03 16:21:07:674
0.042989011853933334,-1.174959659576416,-9.859201431274414,0.03742655128710363,-0.001997858586956347,-0.0017314774593671222,7.249995231628418,2019-06-03 16:21:07:684
0.09314285963773727,-1.1892893314361572,-9.899802207946777,0.037293359943086045,-0.005327623071933142,-0.00639314758229004,7.259983539581299,2019-06-03 16:21:07:694
0.10508424788713455,-1.2298901081085205,-9.921297073364258,0.033564023116539596,-0.008923768034313348,-0.00159828689557251,7.26998233795166,2019-06-03 16:21:07:704
0.07881318777799606,-1.2442197799682617,-9.9117431640625,0.03449635836347351,-0.004128907737707306,0.0002663811438438699,7.279977321624756,2019-06-03 16:21:07:714
0.06926007568836212,-1.177348017692566,-9.914132118225098,0.03742655128710363,-0.007725053220236163,-0.0011987152041886733,7.289973735809326,2019-06-03 16:21:07:724
0.0812014639377594,-1.141523838043213,-9.885472297668457,0.03755974263112122,-0.0023974304083773466,-0.0009323340115808674,7.299969673156738,2019-06-03 16:21:07:734
0.06448351591825485,-1.1964541673660278,-9.91890811920166,0.038225695190019955,-0.004528479689165468,-0.003596145482528857,7.309983253479004,2019-06-03 16:21:07:744
0.0740366280078888,-1.1725714206695557,-9.902190208435059,0.0408895054256149,-0.00639314758229004,-0.0014650963317778978,7.319981575012207,2019-06-03 16:21:07:754
0.10986080765724182,-1.155853509902954,-9.899802207946777,0.04115588811365008,-0.009589721633509386,0.0003995717238931275,7.329981803894043,2019-06-03 16:21:07:764
0.08836629986763,-1.165406584739685,-9.890249252319336,0.0346295476268965,-0.003063383227350408,-0.0009323340115808674,7.339969635009766,2019-06-03 16:21:07:774
0.07642491161823273,-1.1319706439971924,-9.892637252807617,0.03343083385311661,-0.007192290965057714,0.0014650963317778978,7.349969863891602,2019-06-03 16:21:07:784
0.07164835184812546,-1.1510769128799438,-9.904579162597656,0.03782612115796719,-0.007591862396367225,0.002264239844582734,7.35996675491333,2019-06-03 16:21:07:794
0.0740366280078888,-1.1510769128799438,-9.921297073364258,0.03782612115796719,-0.005727194503242653,0.0005327622876877398,7.369984149932861,2019-06-03 16:21:07:804
0.09553113579750061,-1.1821244955062866,-9.890249252319336,0.03795931250198478,-0.007325481268778002,0.0023974304083773466,7.379981517791748,2019-06-03 16:21:07:814
0.09075457602739334,-1.1510769128799438,-9.91890811920166,0.03676059872820489,-0.004128907737707306,-0.0033297643549396326,7.389970779418945,2019-06-03 16:21:07:824
0.10747252404689789,-1.1845128536224365,-9.966673851013184,0.0376929298139496,-0.00639314758229004,-0.0014650963317778978,7.399970054626465,2019-06-03 16:21:07:834
0.10269597172737122,-1.141523838043213,-9.890249252319336,0.03476273897091409,-0.004661669992885756,0.0029301926635557957,7.40996789932251,2019-06-03 16:21:07:844
0.08836629986763,-1.1176409721374512,-9.847260475158691,0.03955760030781742,-0.007192290965057714,0.0017314774593671222,7.419983863830566,2019-06-03 16:21:07:854
0.0812014639377594,-1.1606299877166748,-9.868754386901855,0.03569507213725339,-0.003995717173912694,-0.0034629549187342444,7.429984092712402,2019-06-03 16:21:07:864
0.04537728801369667,-1.1439120769500732,-9.883084297180176,0.0398239829958526,-0.005327623071933142,0.0003995717238931275,7.439977645874023,2019-06-03 16:21:07:874
0.0812014639377594,-1.1845128536224365,-9.806659698486328,0.03676059872820489,-0.005727194503242653,0.0005327622876877398,7.449972629547119,2019-06-03 16:21:07:884
0.09791941195726395,-1.1439120769500732,-9.923685073852539,0.03969079165183501,-0.004128907737707306,-0.0014650963317778978,7.459965229034424,2019-06-03 16:21:07:894
0.09314285963773727,-1.1701831817626953,-9.94040298461914,0.04022355286671616,-0.0029301926635557957,-0.0002663811438438699,7.469979763031006,2019-06-03 16:21:07:904
0.05731867998838425,-1.1797362565994263,-9.923685073852539,0.03449635836347351,-0.003596145482528857,-0.002663811535966571,7.479983329772949,2019-06-03 16:21:07:914
0.0740366280078888,-1.2203370332717896,-9.981003761291504,0.03636102469615213,-0.009589721633509386,-0.002264239844582734,7.489994049072266,2019-06-03 16:21:07:924
0.06926007568836212,-1.1916776895523071,-9.909355163574219,0.038358886534037545,-0.00159828689557251,-0.004528479689165468,7.499979496002197,2019-06-03 16:21:07:934
0.06448351591825485,-1.1606299877166748,-9.887861251831055,0.038225695190019955,-0.00639314758229004,-0.0017314774593671222,7.509971618652344,2019-06-03 16:21:07:944
0.05015384778380394,-1.1797362565994263,-9.94517993927002,0.0376929298139496,-0.004262098301501919,-0.0037293360463234696,7.519969940185547,2019-06-03 16:21:07:954
0.07164835184812546,-1.1940659284591675,-9.92607307434082,0.033697214460557186,-0.0027970020997611835,-0.0034629549187342444,7.529986381530762,2019-06-03 16:21:07:964
0.06448351591825485,-1.1486886739730835,-9.899802207946777,0.03529550226638983,-0.005727194503242653,-0.0038625266101180813,7.539985656738281,2019-06-03 16:21:07:974
0.10508424788713455,-1.1510769128799438,-9.866366386413574,0.03502911957835465,-0.009989292544670247,-0.005860385327111591,7.549983501434326,2019-06-03 16:21:07:984
0.05970695987343788,-1.0985348224639893,-9.828153610229492,0.033564023116539596,-0.006126766454700816,-0.0033297643549396326,7.559967994689941,2019-06-03 16:21:07:994
0.10747252404689789,-1.1176409721374512,-9.890249252319336,0.033564023116539596,-0.008257815475414612,0.0003995717238931275,7.569973468780518,2019-06-03 16:21:08:004
0.11224908381700516,-1.1606299877166748,-9.859201431274414,0.038092503846002365,-0.006126766454700816,-0.0023974304083773466,7.5799736976623535,2019-06-03 16:21:08:014
0.06926007568836212,-1.1510769128799438,-9.914132118225098,0.03849207371686592,-0.0006659528839916427,-0.0033297643549396326,7.589980125427246,2019-06-03 16:21:08:024
0.09553113579750061,-1.1439120769500732,-9.892637252807617,0.03396359506799776,-0.005993575630831878,-0.0025306209721719587,7.5999860763549805,2019-06-03 16:21:08:034
0.04537728801369667,-1.174959659576416,-9.890249252319336,0.03849207371686592,-0.0027970020997611835,-0.0025306209721719587,7.609973430633545,2019-06-03 16:21:08:044
0.05015384778380394,-1.1940659284591675,-9.9117431640625,0.03542869361040742,-0.007059100141188776,-0.004794860816754693,7.619976043701172,2019-06-03 16:21:08:054
0.05493040382862091,-1.1630183458328247,-9.9117431640625,0.03955760030781742,-0.01132119870276502,-0.005194432248064204,7.629974365234375,2019-06-03 16:21:08:064
0.09314285963773727,-1.1964541673660278,-9.887861251831055,0.037293359943086045,-0.004661669992885756,-0.0029301926635557957,7.63997220993042,2019-06-03 16:21:08:074
0.12419047951698303,-1.1439120769500732,-9.966673851013184,0.03569507213725339,-0.00639314758229004,-0.0025306209721719587,7.6499786376953125,2019-06-03 16:21:08:084
0.09075457602739334,-1.1486886739730835,-9.906967163085938,0.03343083385311661,-0.003063383227350408,-0.0011987152041886733,7.659980773925781,2019-06-03 16:21:08:094
0.05015384778380394,-1.1606299877166748,-9.866366386413574,0.03676059872820489,-0.00492805112047498,-0.0027970020997611835,7.669981956481934,2019-06-03 16:21:08:104
0.10508424788713455,-1.129582405090332,-9.897414207458496,0.03649421604016972,-0.008524196603003837,-0.005194432248064204,7.679998874664307,2019-06-03 16:21:08:114
0.08358974009752274,-1.177348017692566,-9.885472297668457,0.03569507213725339,-0.003596145482528857,-0.00319657379114502,7.6901750564575195,2019-06-03 16:21:08:124
0.052542123943567276,-1.1606299877166748,-9.914132118225098,0.03649421604016972,-0.0050612419443439175,-0.00159828689557251,7.700002670288086,2019-06-03 16:21:08:134
0.10508424788713455,-1.1725714206695557,-9.954732894897461,0.037026977255050865,-0.005860385327111591,-0.0038625266101180813,7.7099738121032715,2019-06-03 16:21:08:144
0.07642491161823273,-1.1964541673660278,-9.9475679397583,0.03529550226638983,-0.003596145482528857,-0.004262098301501919,7.719992160797119,2019-06-03 16:21:08:154
0.09791941195726395,-1.155853509902954,-9.93323802947998,0.03489593031493167,-0.006925909837468489,-0.003063383227350408,7.729994773864746,2019-06-03 16:21:08:164
0.08358974009752274,-1.174959659576416,-9.890249252319336,0.03955760030781742,-0.0017314774593671222,-0.004794860816754693,7.7399821281433105,2019-06-03 16:21:08:174
0.0812014639377594,-1.2155604362487793,-9.906967163085938,0.03502911957835465,-0.002663811535966571,-0.003596145482528857,7.749997615814209,2019-06-03 16:21:08:184
0.12657874822616577,-1.165406584739685,-9.949955940246582,0.03662740738418731,-0.002264239844582734,-0.0033297643549396326,7.7599711418151855,2019-06-03 16:21:08:194
0.09314285963773727,-1.1606299877166748,-9.928461074829102,0.03995717017868099,-0.007325481268778002,-0.007725053220236163,7.769972801208496,2019-06-03 16:21:08:204
0.08358974009752274,-1.1797362565994263,-9.914132118225098,0.03795931250198478,-0.00319657379114502,-0.006526337886010328,7.77998161315918,2019-06-03 16:21:08:214
0.06687179207801819,-1.155853509902954,-9.978615760803223,0.03676059872820489,-0.00492805112047498,-0.005460813375653429,7.789981365203857,2019-06-03 16:21:08:224
0.06926007568836212,-1.165406584739685,-9.871142387390137,0.03915802627576466,-0.0029301926635557957,-0.008923768034313348,7.799972057342529,2019-06-03 16:21:08:234
0.06448351591825485,-1.2203370332717896,-9.928461074829102,0.037293359943086045,-0.004395288865296531,-0.007192290965057714,7.809971809387207,2019-06-03 16:21:08:244
0.10269597172737122,-1.1988425254821777,-9.895025253295898,0.03689379007222248,-0.004528479689165468,-0.006126766454700816,7.819971084594727,2019-06-03 16:21:08:254
0.052542123943567276,-1.1845128536224365,-9.842483520507812,0.03636102469615213,-0.005327623071933142,-0.007325481268778002,7.830986499786377,2019-06-03 16:21:08:265
0.08358974009752274,-1.1869010925292969,-9.921297073364258,0.04048993555475134,-0.005860385327111591,-0.008790577730593063,7.8401947021484375,2019-06-03 16:21:08:274
0.10508424788713455,-1.1821244955062866,-9.885472297668457,0.03582826348127098,-0.0050612419443439175,-0.007725053220236163,7.850024223327637,2019-06-03 16:21:08:284
0.10747252404689789,-1.1367472410202026,-9.904579162597656,0.038358886534037545,-0.00159828689557251,-0.008790577730593063,7.859986782073975,2019-06-03 16:21:08:294
0.10269597172737122,-1.177348017692566,-9.935626029968262,0.038225695190019955,-0.0033297643549396326,-0.0062599567584211025,7.870038032531738,2019-06-03 16:21:08:304
0.09314285963773727,-1.1677948236465454,-9.885472297668457,0.03636102469615213,-0.0014650963317778978,-0.0034629549187342444,7.8799920082092285,2019-06-03 16:21:08:314
0.07642491161823273,-1.174959659576416,-9.883084297180176,0.04022355286671616,-0.005594004199522367,-0.007192290965057714,7.889983177185059,2019-06-03 16:21:08:324
0.06926007568836212,-1.1821244955062866,-9.957120895385742,0.03889164774891869,-0.004128907737707306,-0.011587579310205596,7.899981498718262,2019-06-03 16:21:08:334
0.0812014639377594,-1.174959659576416,-9.82337760925293,0.03849207371686592,-0.0050612419443439175,-0.008790577730593063,7.909997463226318,2019-06-03 16:21:08:344
0.08597802370786667,-1.1845128536224365,-9.904579162597656,0.03609464616930616,-0.0038625266101180813,-0.0005327622876877398,7.9200029373168945,2019-06-03 16:21:08:354
0.05731867998838425,-1.1439120769500732,-9.813823699951172,0.03795931250198478,-0.004128907737707306,-0.0037293360463234696,7.9299821853637695,2019-06-03 16:21:08:364
0.07642491161823273,-1.177348017692566,-9.873531341552734,0.041289075296478454,-0.004661669992885756,-0.008657386906724124,7.93997859954834,2019-06-03 16:21:08:374
0.10269597172737122,-1.2060073614120483,-9.873531341552734,0.04009036152269858,-0.004262098301501919,-0.00013319057192193496,7.949999809265137,2019-06-03 16:21:08:384
0.09553113579750061,-1.2036190032958984,-9.892637252807617,0.03649421604016972,-0.005727194503242653,-0.010388864496128409,7.959976673126221,2019-06-03 16:21:08:394
0.0812014639377594,-1.2036190032958984,-9.861589431762695,0.03955760030781742,-0.0038625266101180813,-0.005594004199522367,7.9699788093566895,2019-06-03 16:21:08:404
0.06687179207801819,-1.1869010925292969,-9.890249252319336,0.0398239829958526,-0.006126766454700816,-0.00639314758229004,7.979984283447266,2019-06-03 16:21:08:414
0.07881318777799606,-1.1916776895523071,-9.916520118713379,0.03556188079323581,-0.0038625266101180813,-0.00159828689557251,7.98997688293457,2019-06-03 16:21:08:424
0.09553113579750061,-1.1701831817626953,-9.906967163085938,0.03582826348127098,-0.00159828689557251,-0.005327623071933142,7.999979019165039,2019-06-03 16:21:08:434
0.06926007568836212,-1.1940659284591675,-9.93801498413086,0.0408895054256149,-0.0037293360463234696,-0.009989292544670247,8.009970664978027,2019-06-03 16:21:08:444
0.0812014639377594,-1.177348017692566,-9.883084297180176,0.041821840672548814,-0.006126766454700816,-0.004661669992885756,8.019986152648926,2019-06-03 16:21:08:454
