YYYY-MO-DD HH-MI-SS_SSS,ACCELEROMETER X (m/s²),ACCELEROMETER Y (m/s²),ACCELEROMETER Z (m/s²),GYROSCOPE X (rad/s),GYROSCOPE Y (rad/s),GYROSCOPE Z (rad/s)
1559244476.825136,-0.3988424837589264,-1.5451428890228271,-9.866366386413574,0.02797001995731453,-0.005727194503242653,-0.001731477459367122
1559244476.835136,-0.41078388690948486,-1.5188717842102053,-9.887861251831055,0.03223211799874212,-0.006925909837468489,-0.0011987152041886733
1559244476.8451478,-0.4251135587692261,-1.4854358434677122,-9.921297073364256,0.031965737391301555,-0.006259956758421103,-0.0023974304083773466
1559244476.8551517,-0.43466666340827936,-1.4973772764205933,-9.902190208435059,0.03289807055764086,-0.006792719013599553,-0.0046616699928857565
1559244476.8651462,-0.44183149933815,-1.5212600231170652,-9.856813430786131,0.030767021536927067,-0.006126766454700816,-0.005727194503242653
1559244476.875141,-0.4298900961875916,-1.5045421123504639,-9.868754386901855,0.03343083385311661,-0.004128907737707305,-0.001997858586956347
1559244476.8851564,-0.40600731968879694,-1.509318709373474,-9.878307342529295,0.03329764250909902,-0.0042620983015019195,-0.007325481268778002
1559244476.8951328,-0.41078388690948486,-1.4711061716079714,-9.811435699462889,0.03716016859906844,-0.007458672092646939,-0.009722911937229673
1559244476.905133,-0.4394432306289673,-1.45916485786438,-9.789941787719725,0.0324984986061827,-0.009190149682051223,-0.0037293360463234696
1559244476.9151523,-0.4561611711978912,-1.5379780530929563,-9.789941787719725,0.0314329740958258,-0.006659528709879265,-0.006526337886010328
1559244476.9251494,-0.4251135587692261,-1.5570842027664185,-9.80427074432373,0.03316445324567604,-0.0021310491507509598,-0.006259956758421103
1559244476.935142,-0.4561611711978912,-1.5164835453033445,-9.849648475646974,0.03569507213725339,-0.006659528709879265,-0.01025567419240812
1559244476.9451365,-0.41794872283935547,-1.5594725608825681,-9.885472297668455,0.03116659348838523,-0.004128907737707305,-0.011454389006485306
1559244476.955137,-0.4442197680473328,-1.554695963859558,-9.84248352050781,0.02916873581168902,-0.007192290965057714,-0.007059100141188775
1559244476.9651353,-0.44183149933815,-1.506930351257324,-9.91890811920166,0.03529550226638984,-0.007991434347825389,-0.008657386906724124
1559244476.975168,-0.4322783946990967,-1.5523077249526975,-9.904579162597656,0.03636102469615213,-0.005194432248064204,-0.012253532909401631
1559244476.9851682,-0.42750182747840887,-1.5427545309066772,-9.84248352050781,0.03915802627576466,-0.0033297643549396326,-0.009190149682051223
1559244476.9951446,-0.40361905097961437,-1.528424859046936,-9.83531856536865,0.02996787763401075,0.0,-0.008657386906724124
1559244477.005138,-0.4394432306289673,-1.494989037513733,-9.84248352050781,0.03596145482528857,-0.0023974304083773466,-0.006259956758421103
1559244477.01514,-0.41078388690948486,-1.5236483812332153,-9.847260475158691,0.030500640929486487,-0.005993575630831878,-0.007192290965057714
1559244477.0251348,-0.4322783946990967,-1.5188717842102053,-9.825765609741211,0.03303126190165844,-0.0037293360463234696,-0.009722911937229673
1559244477.0351539,-0.40361905097961437,-1.530813217163086,-9.873531341552734,0.030900212880944643,-0.0029301926635557957,-0.0014650963317778978
1559244477.0451474,-0.4131721556186676,-1.5164835453033445,-9.83531856536865,0.03676059872820489,-0.0011987152041886733,-0.006393147582290041
1559244477.0551412,-0.39167764782905573,-1.5523077249526975,-9.84248352050781,0.03263168995020028,-0.0038625266101180804,-0.0038625266101180804
1559244477.0651374,-0.41556045413017273,-1.528424859046936,-9.847260475158691,0.03542869361040742,-0.0038625266101180804,-0.0021310491507509598
1559244477.0751367,-0.4131721556186676,-1.5379780530929563,-9.825765609741211,0.028103211301332122,-0.003995717173912694,-0.003063383227350408
1559244477.0851395,-0.36063003540039057,-1.5976849794387813,-9.83054256439209,0.03209892873531914,-0.004395288865296531,-0.0025306209721719587
1559244477.095147,-0.3773479759693146,-1.5499193668365479,-9.79232978820801,0.033564023116539596,-0.006259956758421103,0.0003995717238931276
1559244477.1051466,-0.3797362744808197,-1.5355896949768066,-9.840095520019535,0.03209892873531914,-0.005594004199522367,-0.003995717173912694
1559244477.1151578,-0.41794872283935547,-1.5045421123504639,-9.887861251831055,0.030500640929486487,-0.005194432248064204,-0.008524196603003837
1559244477.1251411,-0.4537729024887085,-1.5332014560699463,-9.938014984130861,0.03329764250909902,-0.008124624651545675,-0.0033297643549396326
1559244477.1351392,-0.4251135587692261,-1.5021538734436033,-9.85203647613525,0.029834688370587763,-0.0010655245753754797,-0.0021310491507509598
1559244477.1451404,-0.41556045413017273,-1.5164835453033445,-9.873531341552734,0.02797001995731453,-0.003063383227350408,-0.0010655245753754797
1559244477.1551492,-0.42750182747840887,-1.473494529724121,-9.832930564880371,0.030767021536927067,-0.0021310491507509598,-0.003063383227350408
1559244477.1651485,-0.4251135587692261,-1.5164835453033445,-9.809047698974608,0.033564023116539596,-0.0029301926635557957,-0.006526337886010328
1559244477.175144,-0.4489963352680206,-1.5188717842102053,-9.83054256439209,0.03329764250909902,-0.00785824352395645,-0.005194432248064204
1559244477.1851547,-0.458549439907074,-1.5260366201400757,-9.823377609252928,0.03516231092237225,-0.004395288865296531,-0.003995717173912694
1559244477.1951392,-0.43705493211746216,-1.4854358434677122,-9.832930564880371,0.03303126190165844,-0.0033297643549396326,-0.0034629549187342444
1559244477.2051353,-0.41794872283935547,-1.5499193668365479,-9.844871520996094,0.03329764250909902,-0.004794860816754693,-0.0046616699928857565
1559244477.2151399,-0.41556045413017273,-1.5260366201400757,-9.871142387390137,0.028902353123653836,-0.0038625266101180804,-0.0007991434477862552
1559244477.2251537,-0.41556045413017273,-1.5236483812332153,-9.816212654113768,0.030633832273504073,-0.003995717173912694,0.0018646680231617348
1559244477.23515,-0.3988424837589264,-1.5332014560699463,-9.885472297668455,0.03010106897802833,-0.005460813375653428,-0.0038625266101180804
1559244477.2451427,-0.3869011104106903,-1.5164835453033445,-9.844871520996094,0.03103340422496225,-0.005460813375653428,-0.007991434347825389
1559244477.2551405,-0.4442197680473328,-1.5045421123504639,-9.866366386413574,0.027304067398415795,-0.005993575630831878,0.0010655245753754797
1559244477.2651362,-0.4012307822704315,-1.5117069482803345,-9.80427074432373,0.038358886534037545,-0.005194432248064204,-0.006659528709879265
1559244477.2751358,-0.3940659463405609,-1.5117069482803345,-9.854424476623535,0.034229977756032925,-0.0027970020997611835,-0.006126766454700816
1559244477.2851686,-0.38928937911987294,-1.540366291999817,-9.84248352050781,0.03729335994308605,-0.007192290965057714,-0.006126766454700816
1559244477.2951474,-0.4561611711978912,-1.4997655153274534,-9.837706565856932,0.03622783751332374,-0.0010655245753754797,-0.004395288865296531
1559244477.3051393,-0.4251135587692261,-1.530813217163086,-9.897414207458496,0.03782612115796719,-0.0007991434477862552,-0.006526337886010328
1559244477.3151386,-0.41556045413017273,-1.5236483812332153,-9.93562602996826,0.0314329740958258,-0.0013319057679832855,-0.0033297643549396326
1559244477.3251348,-0.4083956182003021,-1.4997655153274534,-9.832930564880371,0.03502911957835465,-0.006393147582290041,-0.007458672092646939
1559244477.3351471,-0.4394432306289673,-1.5236483812332153,-9.844871520996094,0.03516231092237225,-0.0014650963317778978,-0.006393147582290041
1559244477.3451538,-0.3940659463405609,-1.5451428890228271,-9.897414207458496,0.03116659348838523,-0.004528479689165468,-0.005327623071933142
1559244477.355149,-0.42033699154853826,-1.5499193668365479,-9.847260475158691,0.03169935678386097,-0.0018646680231617348,-0.0006659528839916427
1559244477.3651404,-0.4131721556186676,-1.5499193668365479,-9.902190208435059,0.03303126190165844,0.0003995717238931276,0.0011987152041886733
1559244477.3751385,-0.39167764782905573,-1.530813217163086,-9.93562602996826,0.0314329740958258,-0.005194432248064204,-0.006526337886010328
1559244477.385154,-0.3797362744808197,-1.5332014560699463,-9.902190208435059,0.03129978483240282,-0.0027970020997611835,-0.003596145482528857
1559244477.3951468,-0.41794872283935547,-1.5236483812332153,-9.875919342041016,0.03263168995020028,-0.0033297643549396326,-0.003995717173912694
1559244477.405152,-0.4298900961875916,-1.5236483812332153,-9.840095520019535,0.03529550226638984,-0.0018646680231617348,-0.0023974304083773466
1559244477.4151456,-0.41078388690948486,-1.5212600231170652,-9.883084297180176,0.031832546047283965,-0.007591862396367225,-0.0018646680231617348
1559244477.4251523,-0.41556045413017273,-1.4973772764205933,-9.823377609252928,0.03742655128710362,-0.0046616699928857565,-0.003596145482528857
1559244477.435143,-0.3964542150497437,-1.5117069482803345,-9.904579162597656,0.03343083385311661,-0.005860385327111591,-0.0022642398445827335
1559244477.4451373,-0.4251135587692261,-1.5355896949768066,-9.866366386413574,0.03396359506799776,-0.008124624651545675,-0.0011987152041886733
1559244477.455138,-0.43466666340827936,-1.530813217163086,-9.878307342529295,0.030900212880944643,-0.0038625266101180804,-0.002663811535966571
1559244477.4651518,-0.4251135587692261,-1.4997655153274534,-9.856813430786131,0.03023426032204592,-0.0013319057679832855,-0.0010655245753754797
1559244477.475149,-0.4394432306289673,-1.5188717842102053,-9.83531856536865,0.033564023116539596,-0.006259956758421103,-0.0034629549187342444
1559244477.4851596,-0.4442197680473328,-1.5260366201400757,-9.856813430786131,0.03169935678386097,-0.004395288865296531,-0.0023974304083773466
1559244477.495139,-0.36540660262107844,-1.530813217163086,-9.942790985107418,0.03023426032204592,0.001731477459367122,-0.0009323340115808674
1559244477.505193,-0.43705493211746216,-1.4926006793975832,-9.868754386901855,0.030500640929486487,-0.004528479689165468,-0.004794860816754693
1559244477.5152812,-0.3988424837589264,-1.4997655153274534,-9.849648475646974,0.03729335994308605,-0.0027970020997611835,-0.004528479689165468
1559244477.5251596,-0.36540660262107844,-1.5427545309066772,-9.854424476623535,0.03303126190165844,-0.004528479689165468,-0.002663811535966571
1559244477.5351436,-0.40600731968879694,-1.5045421123504639,-9.818600654602049,0.031566165439843384,-0.007192290965057714,-0.001997858586956347
1559244477.5451436,-0.4251135587692261,-1.5332014560699463,-9.91652011871338,0.037026977255050865,-0.005993575630831878,-0.006126766454700816
1559244477.5551393,-0.3964542150497437,-1.5212600231170652,-9.878307342529295,0.03529550226638984,0.0003995717238931276,-0.0025306209721719587
1559244477.5651424,-0.41078388690948486,-1.5379780530929563,-9.79710578918457,0.0324984986061827,-0.003596145482528857,0.00013319057192193499
1559244477.575152,-0.3869011104106903,-1.5499193668365479,-9.878307342529295,0.02956830776314717,-0.006259956758421103,-0.005860385327111591
1559244477.5851436,-0.37495970726013184,-1.5570842027664185,-9.82815361022949,0.029701497026570163,-0.005194432248064204,-0.0031965737911450205
1559244477.5951416,-0.3988424837589264,-1.5045421123504639,-9.878307342529295,0.028502783252790275,-0.008391005779134899,-0.005194432248064204
1559244477.6051395,-0.38212454319000244,-1.5355896949768066,-9.902190208435059,0.028103211301332122,-0.003063383227350408,-0.007991434347825389
1559244477.6151383,-0.41794872283935547,-1.4902124404907227,-9.832930564880371,0.02757044800585637,-0.0011987152041886733,-0.005594004199522367
1559244477.6251485,-0.3964542150497437,-1.4687179327011108,-9.854424476623535,0.03129978483240282,-0.004128907737707305,-0.0027970020997611835
1559244477.6351478,-0.3988424837589264,-1.4878242015838623,-9.887861251831055,0.03129978483240282,-0.003995717173912694,-0.0046616699928857565
1559244477.6451423,-0.43466666340827936,-1.4711061716079714,-9.866366386413574,0.027037686790975214,-0.001997858586956347,-0.0046616699928857565
1559244477.655144,-0.42750182747840887,-1.4926006793975832,-9.84248352050781,0.03609464616930616,-0.006792719013599553,-0.0015982868955725102
1559244477.66514,-0.41794872283935547,-1.540366291999817,-9.868754386901855,0.03529550226638984,-0.0031965737911450205,-0.001731477459367122
1559244477.6751382,-0.42272526025772095,-1.5117069482803345,-9.91652011871338,0.0314329740958258,-0.0050612419443439175,-0.006526337886010328
1559244477.685144,-0.40361905097961437,-1.4926006793975832,-9.871142387390137,0.031566165439843384,-0.005460813375653428,-0.005727194503242653
1559244477.695152,-0.4083956182003021,-1.5045421123504639,-9.895025253295898,0.03369721446055718,-0.009056959378330938,-0.006526337886010328
1559244477.7051437,-0.4322783946990967,-1.530813217163086,-9.890249252319336,0.0346295476268965,-0.0015982868955725102,-0.005594004199522367
1559244477.7151532,-0.3940659463405609,-1.5570842027664185,-9.892637252807615,0.032764881294217875,-0.0015982868955725102,-0.008391005779134899
1559244477.7251391,-0.3869011104106903,-1.4782710075378416,-9.818600654602049,0.034229977756032925,-0.004794860816754693,-0.007325481268778002
1559244477.7351367,-0.41794872283935547,-1.4997655153274534,-9.91890811920166,0.03369721446055718,-0.006393147582290041,-0.003596145482528857
1559244477.7451332,-0.4251135587692261,-1.5332014560699463,-9.856813430786131,0.03209892873531914,-0.0033297643549396326,-0.004395288865296531
1559244477.755142,-0.41794872283935547,-1.5188717842102053,-9.883084297180176,0.03556188079323581,-0.0018646680231617348,-0.0015982868955725102
1559244477.7651343,-0.4012307822704315,-1.494989037513733,-9.854424476623535,0.0303674495854689,-0.0037293360463234696,0.0003995717238931276
1559244477.7751296,-0.42033699154853826,-1.5570842027664185,-9.861589431762695,0.031965737391301555,-0.0046616699928857565,-0.006659528709879265
1559244477.785134,-0.4131721556186676,-1.5045421123504639,-9.816212654113768,0.03223211799874212,-0.007591862396367225,-0.003596145482528857
1559244477.7951546,-0.40361905097961437,-1.528424859046936,-9.825765609741211,0.031832546047283965,0.0007991434477862552,-0.005594004199522367
1559244477.8051353,-0.40361905097961437,-1.5260366201400757,-9.902190208435059,0.03223211799874212,-0.007192290965057714,-0.0046616699928857565
1559244477.8151526,-0.37257143855094904,-1.5594725608825681,-9.837706565856932,0.02863597251621327,-0.003063383227350408,-0.0018646680231617348
1559244477.825149,-0.4012307822704315,-1.4926006793975832,-9.85203647613525,0.02876916386023085,-0.0029301926635557957,-0.0038625266101180804
1559244477.8351378,-0.4131721556186676,-1.5140951871871948,-9.873531341552734,0.03449635836347351,-0.0006659528839916427,0.0002663811438438699
1559244477.8451355,-0.38928937911987294,-1.509318709373474,-9.837706565856932,0.036494216040169725,-0.006526337886010328,-0.008124624651545675
1559244477.855133,-0.3988424837589264,-1.5260366201400757,-9.801882743835447,0.0366274073841873,-0.0023974304083773466,-0.0005327622876877398
1559244477.865136,-0.4466080665588378,-1.5451428890228271,-9.871142387390137,0.03129978483240282,-0.005860385327111591,-0.0013319057679832855
1559244477.875156,-0.40361905097961437,-1.5164835453033445,-9.904579162597656,0.03502911957835465,-0.004928051120474981,-0.004528479689165468
1559244477.8851488,-0.41078388690948486,-1.5164835453033445,-9.832930564880371,0.03622783751332374,-0.007059100141188775,-0.0050612419443439175
1559244477.8951554,-0.42272526025772095,-1.5594725608825681,-9.82815361022949,0.03542869361040742,-0.0046616699928857565,-0.0050612419443439175
1559244477.9051366,-0.4466080665588378,-1.5355896949768066,-9.854424476623535,0.03236530934275971,-0.007725053220236161,-0.003063383227350408
1559244477.9151301,-0.4012307822704315,-1.4973772764205933,-9.809047698974608,0.033564023116539596,-0.004128907737707305,-0.005460813375653428
1559244477.9251335,-0.40600731968879694,-1.5236483812332153,-9.849648475646974,0.027304067398415795,-0.006259956758421103,-0.004528479689165468
1559244477.9351506,-0.41556045413017273,-1.5451428890228271,-9.844871520996094,0.03542869361040742,-0.007325481268778002,-0.005594004199522367
1559244477.945151,-0.39167764782905573,-1.5045421123504639,-9.820988655090332,0.03396359506799776,-0.003063383227350408,-0.001997858586956347
1559244477.9551399,-0.3988424837589264,-1.506930351257324,-9.875919342041016,0.03369721446055718,-0.007458672092646939,-0.0034629549187342444
1559244477.9651353,-0.3510769307613373,-1.5332014560699463,-9.880696296691895,0.03209892873531914,-0.005194432248064204,-0.003063383227350408
1559244477.975149,-0.4131721556186676,-1.4926006793975832,-9.871142387390137,0.03236530934275971,-0.0037293360463234696,-0.004528479689165468
1559244477.9851396,-0.4012307822704315,-1.5212600231170652,-9.832930564880371,0.03809250384600237,-0.0031965737911450205,-0.0037293360463234696
1559244477.995167,-0.37018314003944397,-1.4782710075378416,-9.866366386413574,0.03023426032204592,-0.0027970020997611835,-0.0002663811438438699
1559244478.005154,-0.4083956182003021,-1.5212600231170652,-9.849648475646974,0.031965737391301555,-0.004928051120474981,0.0021310491507509598
1559244478.0151443,-0.44183149933815,-1.5332014560699463,-9.820988655090332,0.03343083385311661,-0.004928051120474981,-0.0006659528839916427
1559244478.025131,-0.39167764782905573,-1.540366291999817,-9.832930564880371,0.0324984986061827,0.0027970020997611835,0.002663811535966571
1559244478.035136,-0.4322783946990967,-1.5117069482803345,-9.809047698974608,0.03129978483240282,-0.007991434347825389,-0.0003995717238931276
1559244478.0451343,-0.458549439907074,-1.5236483812332153,-9.868754386901855,0.03023426032204592,-0.0025306209721719587,-0.001731477459367122
1559244478.0551527,-0.4633260071277618,-1.5451428890228271,-9.856813430786131,0.03303126190165844,-0.005194432248064204,-0.0034629549187342444
1559244478.065149,-0.4012307822704315,-1.5140951871871948,-9.868754386901855,0.03516231092237225,-0.003063383227350408,-0.002663811535966571
1559244478.0751388,-0.43466666340827936,-1.5355896949768066,-9.914132118225096,0.033564023116539596,-0.0014650963317778978,-0.0046616699928857565
1559244478.0851314,-0.41794872283935547,-1.4926006793975832,-9.84248352050781,0.03636102469615213,0.0005327622876877398,-0.0011987152041886733
1559244478.095149,-0.4251135587692261,-1.5379780530929563,-9.875919342041016,0.03316445324567604,-0.003063383227350408,-0.001997858586956347
1559244478.1051414,-0.4513846039772033,-1.509318709373474,-9.825765609741211,0.029834688370587763,0.0013319057679832855,-0.0027970020997611835
1559244478.115153,-0.42033699154853826,-1.528424859046936,-9.883084297180176,0.0314329740958258,-0.006259956758421103,-0.009323339985771513
1559244478.1251514,-0.4394432306289673,-1.5499193668365479,-9.83531856536865,0.03316445324567604,-0.005727194503242653,-0.007458672092646939
1559244478.1351373,-0.44183149933815,-1.5332014560699463,-9.875919342041016,0.03516231092237225,-0.005993575630831878,-0.008790577730593063
1559244478.145134,-0.4012307822704315,-1.5475311279296875,-9.902190208435059,0.03502911957835465,-0.0014650963317778978,-0.010788436447586574
1559244478.1551316,-0.4083956182003021,-1.5332014560699463,-9.847260475158691,0.030500640929486487,-0.004928051120474981,-0.007059100141188775
1559244478.1651495,-0.41078388690948486,-1.5355896949768066,-9.859201431274414,0.027836828613296942,-0.0014650963317778978,-0.003063383227350408
1559244478.1751494,-0.4298900961875916,-1.483047604560852,-9.914132118225096,0.031832546047283965,-0.005460813375653428,-0.005594004199522367
1559244478.1851375,-0.3630183041095734,-1.4997655153274534,-9.849648475646974,0.031965737391301555,-0.0031965737911450205,-0.005460813375653428
1559244478.1951308,-0.36063003540039057,-1.530813217163086,-9.897414207458496,0.03289807055764086,-0.003995717173912694,-0.007725053220236161
1559244478.205137,-0.40600731968879694,-1.5188717842102053,-9.863978385925295,0.0346295476268965,-0.0038625266101180804,-0.006925909837468489
1559244478.2151322,-0.3964542150497437,-1.5379780530929563,-9.854424476623535,0.03316445324567604,-0.003596145482528857,-0.004128907737707305
1559244478.2251387,-0.41078388690948486,-1.540366291999817,-9.84248352050781,0.03263168995020028,-0.009856102240949962,-0.004794860816754693
1559244478.2351522,-0.3677948713302612,-1.5427545309066772,-9.875919342041016,0.03409678641201535,-0.0025306209721719587,-0.0023974304083773466
1559244478.2451491,-0.3773479759693146,-1.5117069482803345,-9.878307342529295,0.03529550226638984,-0.005594004199522367,-0.001731477459367122
1559244478.2553346,-0.4251135587692261,-1.5236483812332153,-9.868754386901855,0.034229977756032925,-0.0038625266101180804,-0.0013319057679832855
1559244478.265149,-0.3988424837589264,-1.5475311279296875,-9.866366386413574,0.03556188079323581,-0.0023974304083773466,-0.0003995717238931276
1559244478.2751324,-0.39167764782905573,-1.5451428890228271,-9.859201431274414,0.03436316701945592,-0.004528479689165468,-0.004528479689165468
1559244478.2851324,-0.38212454319000244,-1.5355896949768066,-9.9117431640625,0.03289807055764086,-0.003995717173912694,-0.0022642398445827335
1559244478.2951539,-0.4537729024887085,-1.5499193668365479,-9.837706565856932,0.03263168995020028,-0.0018646680231617348,-0.008524196603003837
1559244478.3051555,-0.43705493211746216,-1.5714138746261597,-9.866366386413574,0.028902353123653836,-0.004128907737707305,-0.004528479689165468
1559244478.3151555,-0.3988424837589264,-1.569025635719299,-9.859201431274414,0.0314329740958258,-0.004528479689165468,-0.009056959378330938
1559244478.325134,-0.40600731968879694,-1.5021538734436033,-9.91890811920166,0.03396359506799776,-0.007991434347825389,-0.005460813375653428
1559244478.3351355,-0.42750182747840887,-1.528424859046936,-9.81382369995117,0.03502911957835465,-0.011188008399044734,-0.009190149682051223
1559244478.3451335,-0.4251135587692261,-1.4663296937942503,-9.84248352050781,0.031566165439843384,-0.007991434347825389,-0.007991434347825389
1559244478.3551507,-0.3964542150497437,-1.4926006793975832,-9.895025253295898,0.039557600307817416,-0.0033297643549396326,-0.005460813375653428
1559244478.365146,-0.4083956182003021,-1.5021538734436033,-9.82815361022949,0.030767021536927067,-0.006792719013599553,-0.0025306209721719587
1559244478.3751378,-0.42750182747840887,-1.528424859046936,-9.902190208435059,0.03103340422496225,-0.004528479689165468,-0.004794860816754693
1559244478.3852012,-0.4609377384185791,-1.528424859046936,-9.823377609252928,0.030633832273504073,-0.004395288865296531,-0.006259956758421103
1559244478.3951623,-0.42272526025772095,-1.5379780530929563,-9.878307342529295,0.03622783751332374,-0.005194432248064204,-0.0046616699928857565
1559244478.4051597,-0.44183149933815,-1.554695963859558,-9.85203647613525,0.031965737391301555,-0.0038625266101180804,-0.0003995717238931276
1559244478.4151542,-0.42750182747840887,-1.5164835453033445,-9.873531341552734,0.03103340422496225,-0.008124624651545675,-0.006393147582290041
1559244478.4251516,-0.3940659463405609,-1.509318709373474,-9.823377609252928,0.0303674495854689,-0.003596145482528857,-0.0014650963317778978
1559244478.435269,-0.38212454319000244,-1.530813217163086,-9.849648475646974,0.03263168995020028,-0.005860385327111591,-0.0002663811438438699
1559244478.4451525,-0.43466666340827936,-1.5475311279296875,-9.897414207458496,0.029701497026570163,-0.0005327622876877398,0.003596145482528857
1559244478.4551322,-0.4442197680473328,-1.528424859046936,-9.880696296691895,0.03223211799874212,-0.0027970020997611835,0.0011987152041886733
1559244478.4651608,-0.44183149933815,-1.5475311279296875,-9.81382369995117,0.03516231092237225,-0.004528479689165468,-0.006259956758421103
1559244478.4751523,-0.42272526025772095,-1.5117069482803345,-9.887861251831055,0.03236530934275971,-0.006259956758421103,0.0006659528839916427
1559244478.48516,-0.4298900961875916,-1.5140951871871948,-9.847260475158691,0.03409678641201535,-0.004794860816754693,-0.0013319057679832855
1559244478.4951408,-0.42033699154853826,-1.4758827686309814,-9.832930564880371,0.03436316701945592,-0.003063383227350408,0.003063383227350408
1559244478.505152,-0.4442197680473328,-1.4663296937942503,-9.91652011871338,0.0314329740958258,-0.003063383227350408,0.0014650963317778978
1559244478.5151358,-0.4322783946990967,-1.483047604560852,-9.871142387390137,0.02797001995731453,-0.0029301926635557957,0.0009323340115808674
1559244478.5251372,-0.3940659463405609,-1.4854358434677122,-9.837706565856932,0.032764881294217875,-0.002663811535966571,-0.0007991434477862552
1559244478.5351586,-0.4394432306289673,-1.4806593656539917,-9.844871520996094,0.028502783252790275,-0.007192290965057714,0.0029301926635557957
1559244478.5451493,-0.3988424837589264,-1.4376703500747678,-9.837706565856932,0.026771304102940048,-0.0034629549187342444,0.004928051120474981
1559244478.5551386,-0.3940659463405609,-1.4687179327011108,-9.859201431274414,0.031832546047283965,0.0013319057679832855,0.0027970020997611835
1559244478.5651338,-0.44183149933815,-1.4782710075378416,-9.809047698974608,0.029301925075112006,-0.006259956758421103,-0.0003995717238931276
1559244478.5751321,-0.4083956182003021,-1.442446827888489,-9.84248352050781,0.0324984986061827,-0.003596145482528857,0.004128907737707305
1559244478.5851426,-0.41078388690948486,-1.4543882608413696,-9.818600654602049,0.03023426032204592,-0.003596145482528857,0.0014650963317778978
1559244478.5951478,-0.3845128118991852,-1.452000021934509,-9.871142387390137,0.0303674495854689,-0.005727194503242653,0.0034629549187342444
1559244478.6051676,-0.4442197680473328,-1.4567764997482302,-9.811435699462889,0.030767021536927067,-0.0022642398445827335,0.005860385327111591
1559244478.6151419,-0.4083956182003021,-1.4782710075378416,-9.880696296691895,0.03209892873531914,-0.005327623071933142,0.0031965737911450205
1559244478.6251347,-0.4466080665588378,-1.4878242015838623,-9.868754386901855,0.03103340422496225,-0.004928051120474981,-0.001731477459367122
1559244478.6351335,-0.4131721556186676,-1.4687179327011108,-9.868754386901855,0.03103340422496225,0.0,0.0003995717238931276
1559244478.6451328,-0.4513846039772033,-1.452000021934509,-9.79232978820801,0.03396359506799776,0.0011987152041886733,0.0022642398445827335
1559244478.6551545,-0.4322783946990967,-1.4639413356781004,-9.79710578918457,0.03396359506799776,-0.004395288865296531,0.0046616699928857565
1559244478.6651514,-0.4394432306289673,-1.4854358434677122,-9.81382369995117,0.02836959190877269,-0.0037293360463234696,0.006393147582290041
1559244478.67514,-0.42272526025772095,-1.4257289171218872,-9.875919342041016,0.03263168995020028,-0.0010655245753754797,0.0014650963317778978
1559244478.6851346,-0.41556045413017273,-1.444835186004639,-9.85203647613525,0.03609464616930616,-0.0037293360463234696,0.0009323340115808674
1559244478.6951344,-0.40361905097961437,-1.449611663818359,-9.895025253295898,0.03116659348838523,-0.0025306209721719587,0.0
1559244478.7051628,-0.3940659463405609,-1.4090110063552856,-9.856813430786131,0.030500640929486487,-0.006526337886010328,-0.0015982868955725102
1559244478.715152,-0.4251135587692261,-1.4615530967712405,-9.818600654602049,0.0346295476268965,-0.0046616699928857565,-0.0023974304083773466
1559244478.7251399,-0.3964542150497437,-1.4902124404907227,-9.863978385925295,0.0376929298139496,-0.0015982868955725102,0.0007991434477862552
1559244478.7351327,-0.39167764782905573,-1.5188717842102053,-9.873531341552734,0.03436316701945592,-0.0025306209721719587,-0.0005327622876877398
1559244478.745134,-0.3964542150497437,-1.5188717842102053,-9.789941787719725,0.03343083385311661,-0.0050612419443439175,-0.003995717173912694
1559244478.755141,-0.40361905097961437,-1.4806593656539917,-9.880696296691895,0.034229977756032925,-0.010388864496128409,-0.0015982868955725102
1559244478.765154,-0.4131721556186676,-1.5140951871871948,-9.875919342041016,0.0376929298139496,-0.006259956758421103,-0.006259956758421103
1559244478.7751474,-0.4394432306289673,-1.5379780530929563,-9.820988655090332,0.03569507213725339,-0.007991434347825389,-0.008391005779134899
1559244478.7851417,-0.3988424837589264,-1.4973772764205933,-9.825765609741211,0.03436316701945592,-0.009856102240949962,-0.012253532909401631
1559244478.7951348,-0.3797362744808197,-1.528424859046936,-9.832930564880371,0.03489593031493167,-0.006925909837468489,-0.006659528709879265
1559244478.8051507,-0.4012307822704315,-1.5355896949768066,-9.861589431762695,0.03609464616930616,-0.008524196603003837,-0.005194432248064204
1559244478.8151376,-0.4083956182003021,-1.540366291999817,-9.83531856536865,0.03755974263112121,-0.008923768034313348,-0.0094565302894918
1559244478.8251479,-0.39167764782905573,-1.5379780530929563,-9.895025253295898,0.03409678641201535,-0.006393147582290041,-0.0094565302894918
1559244478.835136,-0.4895970821380615,-1.4973772764205933,-9.78755283355713,0.03582826348127098,-0.008790577730593063,-0.01331905741975853
1559244478.8451335,-0.3964542150497437,-1.5355896949768066,-9.818600654602049,0.044485650908143756,-0.01411820028237755,-0.010788436447586574
1559244478.8551328,-0.3869011104106903,-1.5666373968124387,-10.04787540435791,0.0230419693569882,-0.0018646680231617348,-0.009856102240949962
1559244478.8651354,-0.5110915899276732,-1.4543882608413696,-9.71829319000244,0.03529550226638984,-0.011054817055027148,-0.011587579310205596
1559244478.8751326,-0.4012307822704315,-1.4711061716079714,-9.93562602996826,0.04728265248775629,-0.01411820028237755,-0.013585438027199104
1559244478.8851283,-0.38212454319000244,-1.6191794872283933,-9.895025253295898,0.0346295476268965,-0.0007991434477862552,-0.009722911937229673
1559244478.8951283,-0.5493040084838867,-1.5212600231170652,-9.854424476623535,0.02757044800585637,-0.009323339985771513,-0.013452247723478814
1559244478.9051259,-0.3988424837589264,-1.4806593656539917,-9.68008041381836,0.05087879797028515,-0.015316916136752037,-0.0094565302894918
1559244478.9151456,-0.4394432306289673,-1.6478388309478758,-9.93562602996826,0.04328693713436387,-0.008790577730593063,-0.011987151261663756
1559244478.9251335,-0.4681025743484497,-1.6430622339248655,-9.794717788696287,0.02437387447478567,-0.01132119870276502,-0.014784153881573584
1559244478.9351506,-0.3964542150497437,-1.494989037513733,-9.789941787719725,0.03862526506088352,-0.007325481268778002,-0.009056959378330938
1559244478.9451635,-0.4728791117668152,-1.602461576461792,-9.751729011535645,0.04688308261689273,-0.008923768034313348,-0.011587579310205596
1559244478.955144,-0.4012307822704315,-1.7099341154098509,-9.873531341552734,0.03369721446055718,-0.011720770654223183,-0.016382440647108934
1559244478.9651322,-0.3940659463405609,-1.6239560842514038,-9.79949474334717,0.024640255082226246,-0.002663811535966571,-0.014917344185293878
1559244478.9751298,-0.4561611711978912,-1.5618607997894287,-9.794717788696287,0.043420124317192256,-0.009056959378330938,-0.009056959378330938
1559244478.9851286,-0.40600731968879694,-1.6167912483215332,-9.883084297180176,0.0398239829958526,-0.007192290965057714,-0.014517772233835716
1559244478.9951546,-0.37018314003944397,-1.6358973979949951,-9.899802207946776,0.03329764250909902,-0.006659528709879265,-0.004928051120474981
1559244479.0051572,-0.4943736195564269,-1.6239560842514038,-9.85203647613525,0.029301925075112006,-0.004395288865296531,-0.010122483888687835
1559244479.0151517,-0.42033699154853826,-1.5212600231170652,-9.816212654113768,0.03582826348127098,-0.00825781547541461,-0.012919485468300367
1559244479.025131,-0.41556045413017273,-1.57619047164917,-9.81382369995117,0.03742655128710362,-0.005727194503242653,-0.018646679971543026
1559244479.0351322,-0.4298900961875916,-1.6311209201812742,-9.887861251831055,0.028502783252790275,-0.004395288865296531,-0.012519913516842205
1559244479.0451303,-0.4609377384185791,-1.5570842027664185,-9.78516483306885,0.02956830776314717,-0.007591862396367225,-0.013452247723478814
1559244479.0551436,-0.3797362744808197,-1.5499193668365479,-9.873531341552734,0.041289075296478454,-0.004128907737707305,-0.011587579310205596
1559244479.0651329,-0.4513846039772033,-1.6478388309478758,-9.887861251831055,0.03289807055764086,-0.004128907737707305,-0.017980727412644285
1559244479.0751271,-0.4561611711978912,-1.57857871055603,-9.823377609252928,0.02663811483951706,-0.008657386906724124,-0.01584967839193049
1559244479.0851293,-0.37018314003944397,-1.5499193668365479,-9.823377609252928,0.03383040580457477,-0.0003995717238931276,-0.007591862396367225
1559244479.095129,-0.3964542150497437,-1.6335091590881345,-9.84248352050781,0.0324984986061827,-0.005594004199522367,-0.011054817055027148
1559244479.105128,-0.41078388690948486,-1.6454505920410158,-9.875919342041016,0.03116659348838523,-0.0021310491507509598,-0.009856102240949962
1559244479.115154,-0.38212454319000244,-1.57857871055603,-9.875919342041016,0.031832546047283965,-0.0046616699928857565,-0.013585438027199104
1559244479.1251504,-0.4394432306289673,-1.554695963859558,-9.885472297668455,0.03502911957835465,-0.005594004199522367,-0.010788436447586574
1559244479.1351545,-0.4394432306289673,-1.6239560842514038,-9.873531341552734,0.030900212880944643,-0.0023974304083773466,-0.008923768034313348
1559244479.145137,-0.5421391725540161,-1.6526154279708862,-9.892637252807615,0.03582826348127098,-0.006393147582290041,-0.010921626751306856
1559244479.1551297,-0.42033699154853826,-1.6335091590881345,-9.816212654113768,0.03103340422496225,-0.01718158350972796,-0.014784153881573584
1559244479.1651309,-0.1743443161249161,-1.5594725608825681,-9.921297073364256,0.02250920606151245,-0.008923768034313348,-0.011188008399044734
1559244479.17514,-0.3463003635406494,-1.5236483812332153,-9.758893966674803,0.029301925075112006,0.003596145482528857,-0.007991434347825389
1559244479.1851454,-0.4657142758369446,-1.4926006793975832,-9.816212654113768,0.03329764250909902,-0.006925909837468489,-0.004528479689165468
1559244479.1951346,-0.32241758704185486,-1.5738022327423098,-9.868754386901855,0.03289807055764086,-0.0029301926635557957,-0.005594004199522367
1559244479.2051299,-0.37257143855094904,-1.6048498153686526,-9.9117431640625,0.023974302523327513,0.005194432248064204,-0.001731477459367122
1559244479.2151504,-0.5134798288345337,-1.4328937530517578,-9.78755283355713,0.02797001995731453,-0.0010655245753754797,-0.004528479689165468
1559244479.2251298,-0.5206446647644042,-1.45916485786438,-9.81382369995117,0.04768222651980906,-0.013585438027199104,-0.008524196603003837
1559244479.2351387,-0.38928937911987294,-1.6311209201812742,-9.959508895874023,0.036494216040169725,-0.007059100141188775,-0.007192290965057714
1559244479.245154,-0.3677948713302612,-1.5857435464859009,-9.94995594024658,0.019978585089340493,-0.0046616699928857565,-0.007591862396367225
1559244479.2551494,-0.4704908430576324,-1.3397508859634402,-9.794717788696287,0.02797001995731453,-0.006792719013599553,-0.0094565302894918
1559244479.265134,-0.3558534681797028,-1.3087033033370972,-9.775611877441406,0.05167794187320147,-0.007059100141188775,-0.004528479689165468
1559244479.275126,-0.4131721556186676,-1.6120146512985227,-9.94995594024658,0.028902353123653836,-0.00013319057192193499,-0.0038625266101180804
1559244479.2851331,-0.41078388690948486,-1.444835186004639,-9.844871520996094,0.02011177643335808,-0.006393147582290041,-0.008391005779134899
1559244479.2951303,-0.40361905097961437,-1.3110915422439575,-9.80665969848633,0.042620984575465135,-0.0027970020997611835,0.004395288865296531
1559244479.3051548,-0.4657142758369446,-1.564249038696289,-9.890249252319336,0.04834817907870778,-0.011720770654223183,-0.0006659528839916427
1559244479.3151758,-0.3463003635406494,-1.5952967405319214,-9.92368507385254,0.024507065818803263,-0.0046616699928857565,0.0031965737911450205
1559244479.3251395,-0.35346519947052,-1.3827399015426636,-9.809047698974608,0.02916873581168902,0.0033297643549396326,0.0031965737911450205
1559244479.3351293,-0.3988424837589264,-1.4687179327011108,-9.77799987792969,0.0460839387139764,-0.004928051120474981,0.01025567419240812
1559244479.3451276,-0.281816840171814,-1.57619047164917,-9.95712089538574,0.03223211799874212,-0.005460813375653428,0.009190149682051223
1559244479.355128,-0.4489963352680206,-1.449611663818359,-9.885472297668455,0.020910920336274407,-0.0014650963317778978,0.015450106440472322
1559244479.36515,-0.5063149929046632,-1.3469157218933103,-9.746952056884766,0.03782612115796719,-0.0013319057679832855,0.015982868695650777
1559244479.3751526,-0.4298900961875916,-1.4639413356781004,-9.9475679397583,0.042887363102311116,-0.008790577730593063,0.014517772233835716
1559244479.3851502,-0.4537729024887085,-1.5666373968124387,-9.942790985107418,0.028502783252790275,0.0014650963317778978,0.016915202902287388
1559244479.3951347,-0.458549439907074,-1.5021538734436033,-9.756505966186525,0.029701497026570163,-0.003596145482528857,0.012519913516842205
1559244479.40513,-0.37018314003944397,-1.5523077249526975,-9.80665969848633,0.03396359506799776,-0.007591862396367225,0.014917344185293878
1559244479.4151504,-0.38212454319000244,-1.6358973979949951,-9.902190208435059,0.02916873581168902,-0.001731477459367122,0.012786295164580082
1559244479.4251392,-0.4728791117668152,-1.5714138746261597,-9.885472297668455,0.024240683130768086,-0.008391005779134899,0.007725053220236161
1559244479.4351547,-0.41556045413017273,-1.4997655153274534,-9.809047698974608,0.03023426032204592,-0.006259956758421103,0.007725053220236161
1559244479.4451487,-0.4776556789875031,-1.509318709373474,-9.840095520019535,0.03409678641201535,-0.0021310491507509598,0.008124624651545675
1559244479.455136,-0.4728791117668152,-1.57619047164917,-9.832930564880371,0.029035544467671433,-0.007591862396367225,0.0029301926635557957
1559244479.4651303,-0.4012307822704315,-1.473494529724121,-9.82815361022949,0.027037686790975214,-0.0014650963317778978,-0.0029301926635557957
1559244479.4751284,-0.4442197680473328,-1.494989037513733,-9.794717788696287,0.033564023116539596,-0.005327623071933142,-0.005594004199522367
1559244479.485151,-0.5230329632759094,-1.5332014560699463,-9.92368507385254,0.03103340422496225,-0.005860385327111591,-0.0005327622876877398
1559244479.4951513,-0.4609377384185791,-1.5260366201400757,-9.82815361022949,0.0314329740958258,-0.0029301926635557957,-0.008524196603003837
1559244479.5051641,-0.4537729024887085,-1.4902124404907227,-9.885472297668455,0.02863597251621327,-0.005460813375653428,-0.008124624651545675
1559244479.5151675,-0.4609377384185791,-1.3946813344955444,-9.866366386413574,0.03289807055764086,-0.005327623071933142,-0.011188008399044734
1559244479.525128,-0.42750182747840887,-1.4973772764205933,-9.906967163085936,0.03862526506088352,-0.0042620983015019195,-0.015316916136752037
1559244479.5351312,-0.4872087836265564,-1.4806593656539917,-9.820988655090332,0.03436316701945592,-0.005327623071933142,-0.018380299364102445
1559244479.5451295,-0.4489963352680206,-1.4567764997482302,-9.832930564880371,0.031566165439843384,-0.007192290965057714,-0.017847536068626695
1559244479.555161,-0.3773479759693146,-1.473494529724121,-9.854424476623535,0.040623122737579724,-0.006925909837468489,-0.01771434680520371
1559244479.5651548,-0.3940659463405609,-1.5236483812332153,-9.928461074829102,0.03489593031493167,-0.007192290965057714,-0.01957901313788233
1559244479.5751379,-0.40600731968879694,-1.5212600231170652,-9.875919342041016,0.025572590329160164,-0.005460813375653428,-0.014917344185293878
1559244479.5851355,-0.38212454319000244,-1.4472234249114988,-9.85203647613525,0.03369721446055718,-0.007591862396367225,-0.01731477381344825
1559244479.5951316,-0.43705493211746216,-1.4926006793975832,-9.93562602996826,0.039557600307817416,-0.0046616699928857565,-0.018646679971543026
1559244479.60513,-0.3630183041095734,-1.5117069482803345,-9.904579162597656,0.03010106897802833,-0.007325481268778002,-0.01411820028237755
1559244479.615176,-0.37018314003944397,-1.4806593656539917,-9.868754386901855,0.027304067398415795,-0.0021310491507509598,-0.014517772233835716
1559244479.6251523,-0.4513846039772033,-1.483047604560852,-9.823377609252928,0.03809250384600237,-0.008657386906724124,-0.011454389006485306
1559244479.6351373,-0.37018314003944397,-1.4926006793975832,-9.91890811920166,0.03329764250909902,-0.010522054799848697,-0.010522054799848697
1559244479.645129,-0.38928937911987294,-1.5140951871871948,-9.926073074340819,0.030633832273504073,-0.007192290965057714,-0.008391005779134899
1559244479.655127,-0.42272526025772095,-1.4997655153274534,-9.754117012023924,0.0324984986061827,-0.0037293360463234696,-0.009323339985771513
1559244479.665129,-0.4083956182003021,-1.4687179327011108,-9.837706565856932,0.03303126190165844,-0.0050612419443439175,-0.006792719013599553
1559244479.6751554,-0.41078388690948486,-1.5594725608825681,-9.926073074340819,0.03169935678386097,-0.0046616699928857565,-0.009722911937229673
1559244479.6851363,-0.40600731968879694,-1.5260366201400757,-9.820988655090332,0.029435116419129593,-0.006259956758421103,-0.008790577730593063
1559244479.6951404,-0.4251135587692261,-1.4639413356781004,-9.837706565856932,0.03409678641201535,-0.0023974304083773466,-0.00825781547541461
1559244479.7051299,-0.4442197680473328,-1.494989037513733,-9.863978385925295,0.0346295476268965,-0.008790577730593063,-0.006259956758421103
1559244479.7151494,-0.39167764782905573,-1.5451428890228271,-9.91652011871338,0.0282364005647551,-0.0021310491507509598,-0.003995717173912694
1559244479.7251308,-0.40361905097961437,-1.494989037513733,-9.875919342041016,0.025705779592583147,-0.007325481268778002,-0.005594004199522367
1559244479.7351418,-0.43705493211746216,-1.4639413356781004,-9.823377609252928,0.03409678641201535,-0.01025567419240812,-0.002663811535966571
1559244479.7451503,-0.4298900961875916,-1.5427545309066772,-9.811435699462889,0.03942440896379984,-0.0037293360463234696,-0.0006659528839916427
1559244479.7553346,-0.41794872283935547,-1.4878242015838623,-9.859201431274414,0.029035544467671433,-0.001731477459367122,-0.005460813375653428
1559244479.765144,-0.4083956182003021,-1.483047604560852,-9.81382369995117,0.02956830776314717,-0.005194432248064204,-0.003995717173912694
1559244479.7751288,-0.4513846039772033,-1.4543882608413696,-9.926073074340819,0.03449635836347351,-0.007991434347825389,-0.004395288865296531
1559244479.7851284,-0.4298900961875916,-1.5379780530929563,-9.861589431762695,0.03223211799874212,-0.005860385327111591,-0.0029301926635557957
1559244479.795152,-0.4298900961875916,-1.5021538734436033,-9.861589431762695,0.03383040580457477,-0.003063383227350408,-0.0037293360463234696
1559244479.805159,-0.4489963352680206,-1.4782710075378416,-9.825765609741211,0.033564023116539596,-0.0021310491507509598,-0.0042620983015019195
1559244479.8151386,-0.3940659463405609,-1.540366291999817,-9.875919342041016,0.03636102469615213,-0.006526337886010328,-0.001997858586956347
1559244479.825133,-0.3940659463405609,-1.506930351257324,-9.961897850036621,0.028103211301332122,-0.005727194503242653,0.0006659528839916427
1559244479.8351283,-0.3988424837589264,-1.4997655153274534,-9.887861251831055,0.0314329740958258,-0.0023974304083773466,-0.0006659528839916427
1559244479.8451316,-0.40361905097961437,-1.4615530967712405,-9.885472297668455,0.03303126190165844,-0.005860385327111591,-0.0013319057679832855
1559244479.8551602,-0.3964542150497437,-1.4997655153274534,-9.875919342041016,0.03329764250909902,-0.007725053220236161,0.001997858586956347
1559244479.865155,-0.4298900961875916,-1.528424859046936,-9.854424476623535,0.03129978483240282,-0.0013319057679832855,-0.004528479689165468
1559244479.8751378,-0.43705493211746216,-1.5021538734436033,-9.926073074340819,0.03023426032204592,-0.004794860816754693,-0.0031965737911450205
1559244479.8851326,-0.4298900961875916,-1.4973772764205933,-9.878307342529295,0.0346295476268965,-0.005460813375653428,-0.003995717173912694
1559244479.8951283,-0.41078388690948486,-1.483047604560852,-9.873531341552734,0.03369721446055718,-0.0046616699928857565,-0.0034629549187342444
1559244479.905153,-0.3988424837589264,-1.509318709373474,-9.811435699462889,0.02876916386023085,-0.007725053220236161,-0.0033297643549396326
1559244479.9151504,-0.4322783946990967,-1.4902124404907227,-9.794717788696287,0.026504923495499474,-0.0046616699928857565,-0.00013319057192193499
1559244479.9251578,-0.43466666340827936,-1.5379780530929563,-9.80427074432373,0.03636102469615213,-0.006259956758421103,-0.004794860816754693
1559244479.9351315,-0.43705493211746216,-1.483047604560852,-9.873531341552734,0.03209892873531914,-0.005993575630831878,-0.006526337886010328
1559244479.9451296,-0.4083956182003021,-1.4926006793975832,-9.85203647613525,0.024507065818803263,-0.003063383227350408,-0.0029301926635557957
1559244479.9551518,-0.4083956182003021,-1.483047604560852,-9.895025253295898,0.03556188079323581,-0.0034629549187342444,-0.0022642398445827335
1559244479.9651566,-0.4394432306289673,-1.4567764997482302,-9.823377609252928,0.029834688370587763,-0.005460813375653428,-0.004128907737707305
1559244479.9751475,-0.42033699154853826,-1.483047604560852,-9.921297073364256,0.025173018377702,-0.0003995717238931276,-0.006659528709879265
1559244479.9851298,-0.37257143855094904,-1.4663296937942503,-9.861589431762695,0.03449635836347351,-0.0050612419443439175,-0.007059100141188775
1559244479.9951298,-0.42033699154853826,-1.4806593656539917,-9.844871520996094,0.03209892873531914,-0.006792719013599553,0.0009323340115808674
1559244480.005147,-0.42750182747840887,-1.5045421123504639,-9.880696296691895,0.03476273897091409,-0.0033297643549396326,-0.0015982868955725102
1559244480.0151575,-0.3630183041095734,-1.540366291999817,-9.85203647613525,0.0314329740958258,-0.007059100141188775,-0.001997858586956347
1559244480.0251596,-0.4561611711978912,-1.5021538734436033,-9.81382369995117,0.03409678641201535,-0.007192290965057714,-0.004128907737707305
1559244480.035139,-0.43705493211746216,-1.473494529724121,-9.832930564880371,0.03343083385311661,-0.006526337886010328,-0.005727194503242653
1559244480.045131,-0.43705493211746216,-1.5188717842102053,-9.82815361022949,0.029701497026570163,-0.0007991434477862552,-0.005860385327111591
1559244480.0551295,-0.41794872283935547,-1.5117069482803345,-9.875919342041016,0.031832546047283965,-0.0046616699928857565,-0.007991434347825389
1559244480.065152,-0.4442197680473328,-1.5021538734436033,-9.890249252319336,0.03383040580457477,-0.006526337886010328,-0.005327623071933142
1559244480.0751538,-0.41078388690948486,-1.4902124404907227,-9.885472297668455,0.03449635836347351,-0.006526337886010328,-0.0022642398445827335
1559244480.0851414,-0.3940659463405609,-1.5355896949768066,-9.926073074340819,0.0314329740958258,-0.0038625266101180804,-0.0038625266101180804
1559244480.0951304,-0.37018314003944397,-1.4926006793975832,-9.878307342529295,0.03103340422496225,-0.0007991434477862552,0.0005327622876877398
1559244480.105127,-0.4298900961875916,-1.4376703500747678,-9.868754386901855,0.03289807055764086,-0.001997858586956347,-0.0015982868955725102
1559244480.1151419,-0.4394432306289673,-1.4663296937942503,-9.823377609252928,0.03303126190165844,-0.0025306209721719587,-0.0046616699928857565
1559244480.125175,-0.4251135587692261,-1.5355896949768066,-9.878307342529295,0.03209892873531914,-0.007059100141188775,-0.004128907737707305
1559244480.1351545,-0.39167764782905573,-1.4997655153274534,-9.859201431274414,0.027037686790975214,-0.003995717173912694,-0.0014650963317778978
1559244480.1451592,-0.40361905097961437,-1.4997655153274534,-9.861589431762695,0.03409678641201535,-0.009056959378330938,-0.009722911937229673
1559244480.155152,-0.42272526025772095,-1.4973772764205933,-9.849648475646974,0.030900212880944643,-0.004395288865296531,-0.0011987152041886733
1559244480.16514,-0.39167764782905573,-1.540366291999817,-9.875919342041016,0.031965737391301555,0.0014650963317778978,-0.005860385327111591
1559244480.1751494,-0.41078388690948486,-1.5021538734436033,-9.811435699462889,0.03116659348838523,-0.005194432248064204,-0.0034629549187342444
1559244480.1851687,-0.42033699154853826,-1.5332014560699463,-9.863978385925295,0.03209892873531914,-0.004928051120474981,-0.008657386906724124
1559244480.1951652,-0.42033699154853826,-1.5475311279296875,-9.892637252807615,0.031566165439843384,-0.005327623071933142,-0.006792719013599553
1559244480.2051494,-0.4251135587692261,-1.473494529724121,-9.868754386901855,0.03316445324567604,-0.004395288865296531,-0.004928051120474981
1559244480.2151468,-0.42272526025772095,-1.5140951871871948,-9.883084297180176,0.0346295476268965,-0.0046616699928857565,-0.003063383227350408
1559244480.2251368,-0.4251135587692261,-1.530813217163086,-9.847260475158691,0.03289807055764086,-0.006126766454700816,-0.001731477459367122
1559244480.2351391,-0.43466666340827936,-1.4997655153274534,-9.899802207946776,0.0324984986061827,-0.001731477459367122,-0.007991434347825389
1559244480.245161,-0.4131721556186676,-1.5164835453033445,-9.863978385925295,0.03409678641201535,-0.0010655245753754797,-0.003995717173912694
1559244480.2551773,-0.3988424837589264,-1.4973772764205933,-9.82815361022949,0.03636102469615213,-0.001997858586956347,-0.006393147582290041
1559244480.2651622,-0.39167764782905573,-1.540366291999817,-9.883084297180176,0.03542869361040742,-0.004395288865296531,-0.005194432248064204
1559244480.2751482,-0.41794872283935547,-1.5117069482803345,-9.83054256439209,0.034229977756032925,-0.006659528709879265,-0.0023974304083773466
1559244480.285138,-0.4394432306289673,-1.5475311279296875,-9.737399101257324,0.03569507213725339,-0.0027970020997611835,-0.0042620983015019195
1559244480.2951353,-0.42033699154853826,-1.530813217163086,-9.840095520019535,0.03383040580457477,-0.007192290965057714,-0.004794860816754693
1559244480.305159,-0.38928937911987294,-1.528424859046936,-9.83531856536865,0.03263168995020028,-0.005460813375653428,-0.0046616699928857565
1559244480.3151586,-0.4012307822704315,-1.4973772764205933,-9.811435699462889,0.029301925075112006,-0.006925909837468489,-0.0050612419443439175
1559244480.3251576,-0.4466080665588378,-1.528424859046936,-9.861589431762695,0.03383040580457477,-0.004928051120474981,-0.0029301926635557957
1559244480.3351398,-0.38212454319000244,-1.5379780530929563,-9.892637252807615,0.03569507213725339,-0.001997858586956347,-0.0022642398445827335
1559244480.3451345,-0.3988424837589264,-1.57619047164917,-9.895025253295898,0.032764881294217875,0.0009323340115808674,-0.0006659528839916427
1559244480.355136,-0.4704908430576324,-1.5164835453033445,-9.844871520996094,0.025173018377702,-0.0014650963317778978,0.002663811535966571
1559244480.3651335,-0.39167764782905573,-1.4758827686309814,-9.820988655090332,0.03582826348127098,-0.00825781547541461,-0.001731477459367122
1559244480.375136,-0.3677948713302612,-1.6072380542755127,-9.9117431640625,0.03409678641201535,-0.0027970020997611835,-0.0014650963317778978
1559244480.3851354,-0.4322783946990967,-1.57619047164917,-9.895025253295898,0.023175158620411192,-0.0042620983015019195,-0.0007991434477862552
1559244480.395133,-0.43466666340827936,-1.483047604560852,-9.823377609252928,0.031965737391301555,-0.005194432248064204,-0.0006659528839916427
1559244480.4051394,-0.4298900961875916,-1.5332014560699463,-9.825765609741211,0.0346295476268965,-0.004395288865296531,-0.0007991434477862552
1559244480.4151635,-0.4083956182003021,-1.6048498153686526,-9.890249252319336,0.034229977756032925,-0.006659528709879265,0.0005327622876877398
1559244480.4251792,-0.37257143855094904,-1.554695963859558,-9.895025253295898,0.028902353123653836,-0.0050612419443439175,-0.005993575630831878
1559244480.4351475,-0.4919853508472442,-1.5236483812332153,-9.840095520019535,0.031566165439843384,-0.004128907737707305,-0.005727194503242653
1559244480.4451346,-0.43705493211746216,-1.5714138746261597,-9.906967163085936,0.03316445324567604,-0.008657386906724124,-0.0015982868955725102
1559244480.455137,-0.42272526025772095,-1.600073218345642,-9.859201431274414,0.031566165439843384,-0.0027970020997611835,-0.006126766454700816
1559244480.465138,-0.518256425857544,-1.5164835453033445,-9.861589431762695,0.025705779592583147,-0.004794860816754693,-0.005860385327111591
1559244480.4751644,-0.43705493211746216,-1.4639413356781004,-9.723069190979006,0.03303126190165844,-0.0021310491507509598,-0.00825781547541461
1559244480.4851596,-0.4513846039772033,-1.509318709373474,-9.9308500289917,0.03169935678386097,-0.0037293360463234696,-0.012120341565384043
1559244480.4951427,-0.4633260071277618,-1.5475311279296875,-9.80427074432373,0.029435116419129593,-0.004128907737707305,-0.013851819674936976
1559244480.5051339,-0.6113992929458618,-1.449611663818359,-9.969061851501465,0.026504923495499474,-0.001997858586956347,-0.013052675772020655
1559244480.5151343,-0.44183149933815,-1.4902124404907227,-9.646644592285154,0.04142226664049605,-0.012786295164580082,-0.024107493867345096
1559244480.5251353,-0.2961465120315552,-1.4782710075378416,-9.875919342041016,0.03329764250909902,-0.008524196603003837,-0.016382440647108934
1559244480.5351665,-0.37018314003944397,-1.600073218345642,-9.981003761291506,0.0504792280994216,-0.006526337886010328,-0.016782011558269798
1559244480.5451717,-0.3964542150497437,-1.7290402650833125,-9.895025253295898,0.015316916136752037,-0.001731477459367122,-0.02250920606151245
1559244480.555147,-0.3510769307613373,-1.3946813344955444,-9.80665969848633,0.02863597251621327,-0.011054817055027148,-0.012253532909401631
1559244480.5651357,-0.4728791117668152,-1.5260366201400757,-9.754117012023924,0.05114518065832033,-0.00785824352395645,-0.014251391626395138
1559244480.5751333,-0.37257143855094904,-1.7385934591293335,-10.066981315612793,0.029834688370587763,-0.005460813375653428,-0.012786295164580082
1559244480.5851378,-0.36063003540039057,-1.57619047164917,-9.71829319000244,0.0189130605789836,0.0015982868955725102,-0.014384581930115428
1559244480.595171,-0.4537729024887085,-1.3469157218933103,-9.761281967163086,0.04368650700522742,-0.008524196603003837,-0.0025306209721719587
1559244480.6051612,-0.458549439907074,-1.6311209201812742,-9.878307342529295,0.048614557605553756,-0.006925909837468489,-0.011987151261663756
1559244480.6151452,-0.3367472589015961,-1.674109935760498,-9.899802207946776,0.011987151261663756,-0.004528479689165468,-0.006259956758421103
1559244480.625136,-0.4251135587692261,-1.4567764997482302,-9.77799987792969,0.03023426032204592,-0.00013319057192193499,-0.007991434347825389
1559244480.6351583,-0.40600731968879694,-1.5427545309066772,-9.81382369995117,0.04808179639067261,-0.01651563095082922,-0.0021310491507509598
1559244480.645137,-0.2459926754236221,-1.6884396076202395,-10.03593444824219,0.02264239740553004,0.0021310491507509598,-0.0011987152041886733
1559244480.6551645,-0.4752674102783203,-1.57619047164917,-9.746952056884766,0.010921626751306856,0.006393147582290041,-0.0022642398445827335
1559244480.6651802,-0.5349743366241455,-1.3206447362899778,-9.656197547912596,0.043420124317192256,-0.015450106440472322,0.0007991434477862552
1559244480.6751533,-0.30808791518211365,-1.5905201435089114,-9.904579162597656,0.050346036755404,-0.007192290965057714,0.0011987152041886733
1559244480.6851363,-0.40361905097961437,-1.776805877685547,-9.981003761291506,0.01931263253044176,0.0033297643549396326,0.005594004199522367
1559244480.6951346,-0.4991501867771148,-1.452000021934509,-9.81382369995117,0.010388864496128409,-0.005860385327111591,0.008657386906724124
1559244480.7051356,-0.32958242297172546,-1.3301978111267088,-9.71829319000244,0.0504792280994216,-0.0011987152041886733,0.009589721633509386
1559244480.7151651,-0.41794872283935547,-1.7863589525222778,-10.081311225891112,0.03755974263112121,-0.0023974304083773466,0.007725053220236161
1559244480.725167,-0.4394432306289673,-1.6860512495040894,-9.818600654602049,0.01518372479273445,-0.0007991434477862552,0.0034629549187342444
1559244480.735184,-0.3367472589015961,-1.3707985877990723,-9.79710578918457,0.029435116419129593,0.0029301926635557957,0.011720770654223183
1559244480.745147,-0.4466080665588378,-1.569025635719299,-9.863978385925295,0.04768222651980906,-0.0042620983015019195,0.01331905741975853
1559244480.7551434,-0.42272526025772095,-1.7576996088027956,-9.9475679397583,0.02503982703368441,-0.0050612419443439175,0.006259956758421103
1559244480.7651343,-0.4083956182003021,-1.4782710075378416,-9.883084297180176,0.020378157040798657,0.005327623071933142,0.007325481268778002
1559244480.7751377,-0.4919853508472442,-1.428117275238037,-9.696798324584961,0.0439528896932626,-0.009722911937229673,0.004395288865296531
1559244480.7851603,-0.3677948713302612,-1.6239560842514038,-9.890249252319336,0.0408895054256149,-0.008923768034313348,0.0031965737911450205
1559244480.79516,-0.37257143855094904,-1.6669450998306277,-9.904579162597656,0.022242825454071878,0.003063383227350408,-0.003596145482528857
1559244480.8051496,-0.4561611711978912,-1.4328937530517578,-9.77799987792969,0.027037686790975214,-0.0033297643549396326,-0.007591862396367225
1559244480.8151395,-0.4131721556186676,-1.3922930955886843,-9.766058921813965,0.04834817907870778,-0.007059100141188775,-0.010921626751306856
1559244480.825134,-0.4083956182003021,-1.5427545309066772,-9.866366386413574,0.04035674421073375,-0.004794860816754693,-0.009190149682051223
1559244480.8351562,-0.42272526025772095,-1.4973772764205933,-9.844871520996094,0.024107493867345096,0.0002663811438438699,-0.008524196603003837
1559244480.8451598,-0.5015384554862976,-1.4328937530517578,-9.770834922790526,0.036893790072222474,-0.009323339985771513,-0.01611605899937106
1559244480.855169,-0.4513846039772033,-1.5164835453033445,-9.95712089538574,0.04701626979972112,-0.009190149682051223,-0.015050534489014165
1559244480.865156,-0.42033699154853826,-1.6669450998306277,-9.892637252807615,0.031965737391301555,-0.007458672092646939,-0.0157164870479129
1559244480.8751419,-0.38928937911987294,-1.5499193668365479,-9.942790985107418,0.029035544467671433,-0.008391005779134899,-0.022775588749547628
1559244480.8851366,-0.4872087836265564,-1.473494529724121,-9.840095520019535,0.040756314081597314,-0.005860385327111591,-0.020378157040798657
1559244480.8951395,-0.39167764782905573,-1.6287325620651243,-9.95712089538574,0.038358886534037545,-0.009856102240949962,-0.021310492287732567
1559244480.9051554,-0.3677948713302612,-1.6167912483215332,-9.91652011871338,0.021576872895173148,-0.0038625266101180804,-0.026504923495499474
1559244480.9151614,-0.4298900961875916,-1.4711061716079714,-9.875919342041016,0.0219764448466313,-0.006126766454700816,-0.026904495446957628
1559244480.925159,-0.458549439907074,-1.413787603378296,-9.79710578918457,0.040756314081597314,-0.006526337886010328,-0.02836959190877269
1559244480.9351654,-0.41556045413017273,-1.57857871055603,-9.942790985107418,0.03449635836347351,-0.008391005779134899,-0.025572590329160164
1559244480.9451394,-0.4298900961875916,-1.564249038696289,-9.875919342041016,0.026904495446957628,-0.0018646680231617348,-0.029035544467671433
1559244480.955136,-0.4657142758369446,-1.452000021934509,-9.837706565856932,0.03383040580457477,-0.00785824352395645,-0.029435116419129593
1559244480.9651353,-0.4466080665588378,-1.4926006793975832,-9.868754386901855,0.041821840672548814,-0.010522054799848697,-0.028902353123653836
1559244480.9751408,-0.42272526025772095,-1.6144028902053833,-9.890249252319336,0.025572590329160164,-0.009323339985771513,-0.034229977756032925
1559244480.9851587,-0.4537729024887085,-1.4997655153274534,-9.832930564880371,0.024107493867345096,-0.0033297643549396326,-0.03582826348127098
1559244480.9951417,-0.5015384554862976,-1.423340678215027,-9.79232978820801,0.03809250384600237,-0.014384581930115428,-0.03343083385311661
1559244481.0051332,-0.42272526025772095,-1.5332014560699463,-9.81382369995117,0.04328693713436387,-0.013052675772020655,-0.03569507213725339
1559244481.0151367,-0.36063003540039057,-1.5952967405319214,-9.971450805664064,0.02996787763401075,-0.009589721633509386,-0.03489593031493167
1559244481.0251596,-0.37495970726013184,-1.473494529724121,-9.782776832580566,0.024906637770261423,-0.005594004199522367,-0.03316445324567604
1559244481.035178,-0.41078388690948486,-1.4352819919586177,-9.77799987792969,0.038358886534037545,-0.009056959378330938,-0.031566165439843384
1559244481.0451562,-0.36063003540039057,-1.5188717842102053,-9.92368507385254,0.0376929298139496,-0.007725053220236161,-0.03129978483240282
1559244481.055143,-0.34152379631996155,-1.5499193668365479,-9.961897850036621,0.029834688370587763,0.0005327622876877398,-0.027836828613296942
1559244481.0651348,-0.4251135587692261,-1.3779634237289426,-9.763669967651367,0.029301925075112006,-0.001731477459367122,-0.025439398985142574
1559244481.0751588,-0.3558534681797028,-1.4328937530517578,-9.79710578918457,0.03729335994308605,-0.007991434347825389,-0.019978585089340493
1559244481.08516,-0.3677948713302612,-1.5212600231170652,-9.940402984619139,0.03782612115796719,-0.006393147582290041,-0.01771434680520371
1559244481.0951571,-0.3797362744808197,-1.4854358434677122,-9.92368507385254,0.02757044800585637,-0.001997858586956347,-0.013052675772020655
1559244481.1051438,-0.3773479759693146,-1.3875164985656738,-9.863978385925295,0.038492073716865916,-0.007192290965057714,-0.013185867116038244
1559244481.1151364,-0.4466080665588378,-1.5188717842102053,-9.861589431762695,0.03449635836347351,-0.008124624651545675,-0.008923768034313348
1559244481.1251369,-0.3869011104106903,-1.5379780530929563,-9.9117431640625,0.03010106897802833,0.0003995717238931276,-0.0050612419443439175
1559244481.135183,-0.41078388690948486,-1.483047604560852,-9.885472297668455,0.029301925075112006,-0.006126766454700816,-0.0025306209721719587
1559244481.1451564,-0.41078388690948486,-1.5021538734436033,-9.9117431640625,0.038891647748918685,-0.005594004199522367,0.0015982868955725102
1559244481.155142,-0.4489963352680206,-1.5117069482803345,-9.854424476623535,0.033564023116539596,-0.007192290965057714,0.0038625266101180804
1559244481.165137,-0.458549439907074,-1.5140951871871948,-9.863978385925295,0.023974302523327513,-0.0034629549187342444,0.001731477459367122
1559244481.1751335,-0.4824322462081908,-1.4257289171218872,-9.856813430786131,0.027170876054398208,-0.007325481268778002,0.0037293360463234696
1559244481.185193,-0.42750182747840887,-1.423340678215027,-9.818600654602049,0.0324984986061827,-0.004928051120474981,0.004395288865296531
1559244481.1951532,-0.4561611711978912,-1.449611663818359,-9.84248352050781,0.0346295476268965,-0.003063383227350408,0.0022642398445827335
1559244481.2051427,-0.4537729024887085,-1.4305055141448977,-9.823377609252928,0.027836828613296942,-0.0023974304083773466,0.0
1559244481.2151334,-0.4633260071277618,-1.3851282596588135,-9.818600654602049,0.0314329740958258,-0.004128907737707305,0.0023974304083773466
1559244481.2251372,-0.40361905097961437,-1.3994579315185547,-9.93562602996826,0.03369721446055718,-0.006925909837468489,0.0050612419443439175
1559244481.2351942,-0.4489963352680206,-1.449611663818359,-9.883084297180176,0.03223211799874212,-0.004794860816754693,0.004128907737707305
1559244481.2451596,-0.42272526025772095,-1.4257289171218872,-9.9117431640625,0.0324984986061827,-0.003063383227350408,0.006259956758421103
1559244481.2553174,-0.4872087836265564,-1.428117275238037,-9.80665969848633,0.03409678641201535,-0.005594004199522367,0.004128907737707305
1559244481.2651527,-0.3940659463405609,-1.5021538734436033,-9.926073074340819,0.03263168995020028,-0.0037293360463234696,0.0027970020997611835
1559244481.2751422,-0.42750182747840887,-1.4639413356781004,-9.887861251831055,0.029435116419129593,0.0031965737911450205,0.003596145482528857
1559244481.2851837,-0.4728791117668152,-1.3516923189163208,-9.79949474334717,0.030500640929486487,-0.010921626751306856,0.005194432248064204
1559244481.295163,-0.458549439907074,-1.45916485786438,-9.761281967163086,0.03263168995020028,-0.008790577730593063,-0.0011987152041886733
1559244481.3051565,-0.38212454319000244,-1.4663296937942503,-9.899802207946776,0.03436316701945592,-0.005194432248064204,-0.00013319057192193499
1559244481.3151565,-0.40361905097961437,-1.452000021934509,-9.899802207946776,0.024906637770261423,-0.003063383227350408,-0.0021310491507509598
1559244481.3251379,-0.40361905097961437,-1.4567764997482302,-9.871142387390137,0.0398239829958526,-0.0005327622876877398,-0.002663811535966571
1559244481.3351579,-0.3677948713302612,-1.494989037513733,-9.895025253295898,0.03716016859906844,-0.007458672092646939,-0.004928051120474981
1559244481.345156,-0.41556045413017273,-1.5929083824157717,-9.902190208435059,0.03569507213725339,-0.003063383227350408,-0.0038625266101180804
1559244481.355192,-0.38928937911987294,-1.4973772764205933,-9.861589431762695,0.026771304102940048,-0.0025306209721719587,-0.00785824352395645
1559244481.3651588,-0.4131721556186676,-1.4878242015838623,-9.818600654602049,0.033564023116539596,-0.005194432248064204,-0.005194432248064204
1559244481.3751476,-0.42272526025772095,-1.5570842027664185,-9.899802207946776,0.03343083385311661,-0.0018646680231617348,-0.005327623071933142
1559244481.3851364,-0.4012307822704315,-1.5499193668365479,-9.880696296691895,0.02757044800585637,-0.006659528709879265,0.0003995717238931276
1559244481.3951364,-0.38212454319000244,-1.4711061716079714,-9.816212654113768,0.03129978483240282,-0.0010655245753754797,-0.0037293360463234696
1559244481.405174,-0.44183149933815,-1.4711061716079714,-9.79232978820801,0.03489593031493167,-0.005460813375653428,-0.0029301926635557957
1559244481.4151666,-0.3988424837589264,-1.530813217163086,-9.825765609741211,0.027170876054398208,-0.006126766454700816,-0.00785824352395645
1559244481.4251614,-0.40361905097961437,-1.4758827686309814,-9.782776832580566,0.0314329740958258,0.0005327622876877398,-0.007725053220236161
1559244481.4351645,-0.4657142758369446,-1.4782710075378416,-9.890249252319336,0.03436316701945592,-0.007059100141188775,-0.0029301926635557957
1559244481.4451454,-0.4251135587692261,-1.4902124404907227,-9.789941787719725,0.0398239829958526,-0.0006659528839916427,-0.001997858586956347
1559244481.4551353,-0.4728791117668152,-1.5212600231170652,-9.801882743835447,0.026771304102940048,-0.0009323340115808674,-0.005194432248064204
1559244481.4651482,-0.4800439476966858,-1.4926006793975832,-9.849648475646974,0.03023426032204592,-0.004928051120474981,-0.01025567419240812
1559244481.4751651,-0.4394432306289673,-1.452000021934509,-9.875919342041016,0.03449635836347351,-0.005860385327111591,-0.013452247723478814
1559244481.4851592,-0.4609377384185791,-1.4902124404907227,-9.868754386901855,0.032764881294217875,-0.0033297643549396326,-0.017980727412644285
1559244481.4951463,-0.518256425857544,-1.4711061716079714,-9.863978385925295,0.029834688370587763,-0.007458672092646939,-0.0189130605789836
1559244481.5051372,-0.4131721556186676,-1.4639413356781004,-9.82815361022949,0.029834688370587763,-0.004528479689165468,-0.0189130605789836
1559244481.515136,-0.42750182747840887,-1.4663296937942503,-9.890249252319336,0.03542869361040742,-0.00825781547541461,-0.027437258742433378
1559244481.5251615,-0.42750182747840887,-1.4711061716079714,-9.895025253295898,0.03343083385311661,-0.0046616699928857565,-0.02184325350261371
1559244481.5351584,-0.3964542150497437,-1.4663296937942503,-9.880696296691895,0.0419550320165664,-0.0046616699928857565,-0.023175158620411192
1559244481.5451632,-0.4657142758369446,-1.5260366201400757,-9.844871520996094,0.03755974263112121,-0.0002663811438438699,-0.021044109599697394
1559244481.5551507,-0.5278095006942749,-1.5188717842102053,-9.78516483306885,0.030900212880944643,-0.003063383227350408,-0.02264239740553004
1559244481.5651422,-0.44183149933815,-1.483047604560852,-9.77799987792969,0.03569507213725339,-0.012519913516842205,-0.025572590329160164
1559244481.5751436,-0.4442197680473328,-1.5236483812332153,-9.840095520019535,0.03489593031493167,-0.009989292544670247,-0.027437258742433378
1559244481.5851436,-0.44183149933815,-1.540366291999817,-9.859201431274414,0.028103211301332122,-0.0050612419443439175,-0.026771304102940048
1559244481.5951364,-0.38928937911987294,-1.4400585889816284,-9.780387878417969,0.034229977756032925,-0.00825781547541461,-0.029701497026570163
1559244481.6051335,-0.4012307822704315,-1.45916485786438,-9.890249252319336,0.03609464616930616,-0.0023974304083773466,-0.027437258742433378
1559244481.6151452,-0.4466080665588378,-1.4926006793975832,-9.921297073364256,0.03875845640490111,-0.01025567419240812,-0.03129978483240282
1559244481.6251378,-0.39167764782905573,-1.509318709373474,-9.895025253295898,0.0324984986061827,-0.0010655245753754797,-0.028502783252790275
1559244481.6351345,-0.44183149933815,-1.4878242015838623,-9.861589431762695,0.03489593031493167,-0.007325481268778002,-0.03116659348838523
1559244481.6451998,-0.3391355276107788,-1.4806593656539917,-9.770834922790526,0.03396359506799776,-0.002663811535966571,-0.03023426032204592
1559244481.6551936,-0.40600731968879694,-1.4567764997482302,-9.83054256439209,0.036893790072222474,-0.0034629549187342444,-0.027170876054398208
1559244481.66516,-0.496761918067932,-1.5164835453033445,-9.868754386901855,0.03556188079323581,-0.007325481268778002,-0.031566165439843384
1559244481.6751392,-0.4513846039772033,-1.5451428890228271,-9.93562602996826,0.03436316701945592,-0.011454389006485306,-0.03795931250198478
1559244481.685138,-0.4561611711978912,-1.5427545309066772,-9.921297073364256,0.03316445324567604,-0.01132119870276502,-0.03755974263112121
1559244481.6951356,-0.41078388690948486,-1.6287325620651243,-9.973838806152344,0.03596145482528857,-0.012386723213121916,-0.04142226664049605
1559244481.705171,-0.41078388690948486,-1.5833553075790403,-10.033545494079588,0.03116659348838523,-0.011720770654223183,-0.041821840672548814
1559244481.7151663,-0.32480585575103754,-1.5379780530929563,-9.91652011871338,0.02996787763401075,-0.0018646680231617348,-0.045551177499095256
1559244481.7251546,-0.4824322462081908,-1.4758827686309814,-9.94995594024658,0.04941370150847009,-0.01185396095794347,-0.04714946114373869
1559244481.7351377,-0.3510769307613373,-1.428117275238037,-9.93562602996826,0.03822569519001996,-0.017447965157465835,-0.05221070308808262
1559244481.7451582,-0.28898167610168457,-1.540366291999817,-9.83531856536865,0.03809250384600237,0.004395288865296531,-0.04701626979972112
1559244481.7551353,-0.43466666340827936,-1.4878242015838623,-9.69441032409668,0.0282364005647551,-0.014784153881573584,-0.052876655646981345
1559244481.7651663,-0.32241758704185486,-1.366021990776062,-9.885472297668455,0.0460839387139764,-0.012386723213121916,-0.05167794187320147
1559244481.77516,-0.4657142758369446,-1.5164835453033445,-9.70157527923584,0.02384111325990453,0.0037293360463234696,-0.05221070308808262
1559244481.7851615,-0.3797362744808197,-1.416175842285156,-9.978615760803224,0.03449635836347351,-0.015982868695650777,-0.05221070308808262
1559244481.7951455,-0.4561611711978912,-1.4567764997482302,-9.79949474334717,0.027437258742433378,-0.006526337886010328,-0.0598025680851931
1559244481.8051343,-0.5660219788551331,-1.4567764997482302,-9.892637252807615,0.043420124317192256,-0.012253532909401631,-0.06406466612662069
1559244481.8151348,-0.58990478515625,-1.6669450998306277,-9.823377609252928,0.031965737391301555,-0.023707921915886932,-0.06912590807096461
1559244481.825136,-0.36540660262107844,-1.5045421123504639,-10.281927108764648,0.01731477381344825,-0.009056959378330938,-0.06473061868551942
1559244481.8351715,-0.5755751132965088,-1.506930351257324,-9.926073074340819,0.04248779323144755,-0.019978585089340493,-0.0700582391567093
1559244481.8451796,-0.496761918067932,-1.5379780530929563,-9.84248352050781,0.027304067398415795,-0.02757044800585637,-0.07072419587679725
1559244481.8551471,-0.4609377384185791,-1.3684102296829224,-9.985779762268066,0.04328693713436387,-0.012519913516842205,-0.06885952538292943
1559244481.865133,-0.4681025743484497,-1.4090110063552856,-10.031157493591309,0.017847536068626695,0.008524196603003837,-0.0712569529304892
1559244481.8751357,-0.34868863224983215,-1.3469157218933103,-9.878307342529295,0.03502911957835465,-0.010122483888687835,-0.07045781318876208
1559244481.8852031,-0.5063149929046632,-1.2991502285003664,-9.70396327972412,0.03995717017868099,-0.0346295476268965,-0.06632890649135208
1559244481.8951857,-0.32480585575103754,-1.5857435464859009,-9.995333671569824,0.024240683130768086,0.011454389006485306,-0.06646209367418046
1559244481.9051645,-0.5278095006942749,-1.413787603378296,-10.160124778747559,0.045551177499095256,-0.03343083385311661,-0.06366509209456793
1559244481.915156,-0.4943736195564269,-1.3015384674072263,-9.921297073364256,0.04701626979972112,-0.029435116419129593,-0.05900342418227676
1559244481.9251392,-0.3988424837589264,-1.3827399015426636,-9.536784172058104,0.011454389006485306,0.01331905741975853,-0.06126766454700815
1559244481.9351356,-0.34868863224983215,-1.3636337518692017,-9.589325904846191,0.01718158350972796,-0.001997858586956347,-0.057937897591325276
1559244481.9451342,-0.15284982323646545,-1.2322783470153809,-9.899802207946776,0.030633832273504073,0.0046616699928857565,-0.04461884225216134
1559244481.9551795,-0.5660219788551331,-1.3373626470565796,-9.83054256439209,0.044219268220108576,-0.02184325350261371,-0.052743468464152975
1559244481.965214,-0.34152379631996155,-1.4758827686309814,-9.48901844024658,0.023974302523327513,-0.015316916136752037,-0.05007965406736882
1559244481.9751558,-0.3104761838912964,-1.4567764997482302,-10.284315109252928,0.024240683130768086,0.0050612419443439175,-0.04888094029358894
1559244481.9851434,-0.5803516507148744,-1.416175842285156,-10.320138931274414,0.03449635836347351,-0.01971220448189992,-0.04568436468192364
1559244481.995135,-0.58990478515625,-1.413787603378296,-10.234161376953123,0.04461884225216134,-0.02876916386023085,-0.04754903517579146
1559244482.005163,-0.4609377384185791,-1.7385934591293335,-9.773223876953125,0.01957901313788233,-0.0038625266101180804,-0.050346036755404
1559244482.0151641,-0.6066226959228516,-1.4352819919586177,-10.63778018951416,0.027037686790975214,-0.013585438027199104,-0.04808179639067261
1559244482.0251455,-0.6090109944343567,-1.5809670686721797,-10.152959823608398,0.027836828613296942,-0.02184325350261371,-0.04968008419650528
1559244482.035136,-0.35824176669120783,-1.4352819919586177,-10.389399528503418,0.026371734232076487,-0.003995717173912694,-0.05141155918516629
1559244482.0451338,-0.8358974456787109,-1.5618607997894287,-9.629926681518553,0.02663811483951706,-0.021044109599697394,-0.06406466612662069
1559244482.0551565,-0.4657142758369446,-1.423340678215027,-10.444329261779783,0.018380299364102445,-0.010122483888687835,-0.049546892852487666
1559244482.0651932,-0.7523077130317688,-1.4758827686309814,-10.004886627197264,0.06006894661203906,-0.041555457984513634,-0.0661957151473345
1559244482.0751598,-0.6185641288757324,-1.509318709373474,-9.723069190979006,0.011987151261663756,-0.0009323340115808674,-0.07245567502664749
1559244482.0851398,-0.4728791117668152,-1.4305055141448977,-9.649032592773438,0.012120341565384043,-0.008524196603003837,-0.09363297388976785
1559244482.0951347,-0.4848205149173738,-1.3493040800094604,-9.637091636657715,0.03263168995020028,-0.011987151261663756,-0.07671777306807509
1559244482.1051347,-0.26748716831207275,-1.3039267063140867,-9.71112823486328,0.03902483909293628,0.0014650963317778978,-0.08950406719235787
1559244482.1151934,-0.2842051386833191,-1.3421392440795898,-9.2119779586792,0.0324984986061827,-0.01624924930309135,-0.10335588374640296
1559244482.1251905,-0.32002931833267206,-1.3684102296829224,-9.398263931274414,0.02836959190877269,-0.02956830776314717,-0.09483168766354776
1559244482.1351554,-0.19345055520534515,-1.294373631477356,-9.543949127197264,0.030500640929486487,0.013052675772020655,-0.10841712152955764
1559244482.145143,-0.24360439181327814,-1.141523838043213,-9.278849601745604,0.04368650700522742,-0.014650962537556003,-0.10775117313184812
1559244482.1551616,-0.2555457949638366,-1.1104761362075803,-9.154659271240234,0.0512783720023379,-0.025173018377702,-0.11787365702053597
1559244482.165136,-0.12180219590663907,-1.411399245262146,-9.20720100402832,0.02477344642624384,0.013585438027199104,-0.12160298968589323
1559244482.1751688,-0.41556045413017273,-1.155853509902954,-9.61320877075195,0.030500640929486487,-0.03129978483240282,-0.11600898652666812
1559244482.1851585,-0.14568498730659485,-1.3755750656127927,-9.455582618713379,0.0419550320165664,-0.018380299364102445,-0.11574260383863295
1559244482.1951404,-0.5373626351356506,-1.3325860500335691,-9.455582618713379,0.0282364005647551,-0.03169935678386097,-0.11614217787068573
1559244482.2051373,-0.3797362744808197,-1.1224175691604614,-9.350498199462889,0.030767021536927067,-0.0189130605789836,-0.12306808614770826
1559244482.2151344,-0.35346519947052,-1.0077801942825315,-9.36721611022949,0.04368650700522742,-0.025173018377702,-0.1279961409092238
1559244482.2251587,-0.3845128118991852,-1.1916776895523071,-9.737399101257324,0.046350317240822385,-0.007591862396367225,-0.13252462163868656
1559244482.2351387,-0.4298900961875916,-1.3039267063140867,-9.77799987792969,0.02757044800585637,-0.022242825454071878,-0.13425609246615838
1559244482.245135,-0.4681025743484497,-1.528424859046936,-10.117136001586914,0.03875845640490111,-0.0219764448466313,-0.1354548145623167
1559244482.2551353,-0.4609377384185791,-1.752923130989075,-10.17445468902588,0.038358886534037545,-0.03782612115796719,-0.138518190507586
1559244482.265166,-0.518256425857544,-1.8484542369842527,-10.3917875289917,0.0157164870479129,-0.017581155461186125,-0.14744196894487233
1559244482.2751412,-0.2531574964523316,-1.6573919057846067,-10.367904663085936,0.022109634110054288,0.006659528709879265,-0.14317986258106633
1559244482.2851396,-0.4848205149173738,-1.423340678215027,-10.20072555541992,0.03263168995020028,-0.022376016798089468,-0.14917343977234415
1559244482.2951343,-0.5397509336471558,-1.3875164985656738,-9.660974502563475,0.05340942102305169,-0.04408608103728019,-0.15436786889951648
1559244482.3051353,-0.6878241896629332,-1.473494529724121,-9.892637252807615,0.015982868695650777,-0.0366274073841873,-0.15250320672802706
1559244482.3151348,-0.3869011104106903,-1.674109935760498,-10.315362930297853,0.014917344185293878,-0.007325481268778002,-0.16209293356302298
1559244482.3251674,-0.6161758303642273,-1.5140951871871948,-10.53747272491455,0.04488522077900731,-0.0346295476268965,-0.15889635795135762
1559244482.335173,-0.6209523677825928,-1.7003809213638301,-9.861589431762695,0.04208821919939479,-0.0564728011295102,-0.1740800713008218
1559244482.345164,-0.3940659463405609,-1.6764981746673584,-9.84248352050781,-0.003596145482528857,0.009856102240949962,-0.1780757949765926
1559244482.3551621,-0.37018314003944397,-1.2442197799682615,-10.269985198974608,0.030633832273504073,-0.015583296744192612,-0.18007364849209964
1559244482.3651378,-0.5612454414367676,-1.4018461704254153,-10.05504035949707,0.04528479481106008,-0.03436316701945592,-0.18060641386816997
1559244482.3751369,-0.6257289648056031,-1.354080557823181,-9.486630439758299,0.04768222651980906,-0.038492073716865916,-0.19885352813003865
1559244482.3851712,-0.4251135587692261,-1.3588571548461914,-9.383934020996094,0.024507065818803263,-0.01518372479273445,-0.20018542492545768
1559244482.3951776,-0.5230329632759094,-1.3349744081497192,-10.20072555541992,0.008790577730593063,-0.020777728992256817,-0.20338200053712294
1559244482.4051623,-0.40600731968879694,-1.3779634237289426,-9.859201431274414,0.03223211799874212,-0.01584967839193049,-0.21363768409220676
1559244482.4151464,-0.4752674102783203,-1.4257289171218872,-9.6896333694458,0.023707921915886932,-0.023308349964428775,-0.21203938796399577
1559244482.4251354,-0.5445274710655214,-1.4352819919586177,-9.7254581451416,0.04741584383177388,-0.029834688370587763,-0.22775588333428706
1559244482.4351356,-0.3056996464729309,-1.442446827888489,-10.066981315612793,0.030900212880944643,-0.029035544467671433,-0.22842182340961825
1559244482.4451365,-0.3869011104106903,-1.509318709373474,-10.007274627685545,0.0398239829958526,-0.012253532909401631,-0.23028650222586444
1559244482.4552028,-0.3510769307613373,-1.5140951871871948,-9.94995594024658,0.030767021536927067,-0.03929121761978226,-0.2316183990212835
1559244482.465163,-0.038212455809116364,-1.4902124404907227,-9.859201431274414,0.01917944326701877,0.0009323340115808674,-0.2466689376714869
1559244482.4751585,-0.41794872283935547,-1.1821244955062866,-9.6729154586792,0.034229977756032925,-0.04741584383177388,-0.240675360480209
1559244482.485144,-0.12657874822616574,-1.3445274829864502,-9.577384948730469,0.01664882125454951,-0.01664882125454951,-0.2454702155753286
1559244482.4951367,-0.13852015137672424,-1.389904737472534,-9.744564056396483,0.023441541308446365,-0.012519913516842205,-0.2442715101239271
1559244482.5051353,-0.5230329632759094,-1.366021990776062,-9.68008041381836,0.029035544467671433,-0.05474132614084917,-0.2474680857355924
1559244482.5151694,-0.2770403027534485,-1.640673995018005,-9.954732894897461,-0.00013319057192193499,-0.03103340422496225,-0.25918885743011283
1559244482.5251677,-0.3558534681797028,-1.452000021934509,-9.55827808380127,0.012786295164580082,-0.042620984575465135,-0.25825651802198973
1559244482.5351539,-0.7618607878684996,-1.5379780530929563,-9.91652011871338,0.007192290965057714,-0.07178971830655957,-0.25026508731520486
1559244482.5451388,-0.2364395558834076,-1.6550036668777466,-9.983391761779783,0.0021310491507509598,-0.008790577730593063,-0.2638505211812148
1559244482.5551333,-0.5493040084838867,-1.2848205566406248,-9.794717788696287,-0.014917344185293878,-0.054874517484866756,-0.26052075422553195
1559244482.565173,-0.5373626351356506,-1.208395600318909,-9.80427074432373,0.03169935678386097,-0.05074560662626756,-0.26944452434043986
1559244482.575177,-0.31525275111198425,-1.5809670686721797,-9.809047698974608,-0.003995717173912694,-0.02863597251621327,-0.2762372495958232
1559244482.5851572,-0.3367472589015961,-1.366021990776062,-10.226996421813965,-0.0034629549187342444,-0.044352459564126166,-0.27876786848740054
1559244482.595146,-0.5469157695770264,-1.3707985877990723,-9.355275154113768,0.008124624651545675,-0.043153745790346296,-0.2946175552017095
1559244482.6051385,-0.1432967036962509,-0.9050842523574828,-10.217443466186525,0.010522054799848697,-0.036893790072222474,-0.28715887322623823
1559244482.615149,-1.0747252702713013,-1.354080557823181,-9.658586502075197,0.04488522077900731,-0.10175759594057028,-0.2956830526643366
1559244482.6251843,0.011941391974687575,-1.6048498153686526,-10.477766036987305,-0.023308349964428775,0.0010655245753754797,-0.29728134879254764
1559244482.6351647,-0.6137875318527222,-1.2060073614120483,-9.95712089538574,0.04528479481106008,-0.06726123757709676,-0.301809821199632
1559244482.6451504,-0.4633260071277618,-1.416175842285156,-9.91890811920166,0.03436316701945592,-0.04968008419650528,-0.3052727961440892
1559244482.6551588,0.0740366280078888,-1.3803516626358032,-9.954732894897461,0.03436316701945592,-0.02290877801297061,-0.32005693546150066
1559244482.6651454,-1.0484541654586792,-1.0627106428146362,-9.176154136657715,0.008790577730593063,-0.07565224231593438,-0.3072706330148395
1559244482.6751683,-0.4800439476966858,-1.3063150644302366,-9.73262310028076,0.06566295393245332,-0.028902353123653836,-0.3426993307864361
1559244482.6851661,-0.1838974356651306,-1.3493040800094604,-9.79710578918457,0.040623122737579724,-0.05580684857061149,-0.33417515134833775
1559244482.6951532,-0.6615530848503113,-1.3158681392669676,-9.83054256439209,0.006792719013599553,0.005327623071933142,-0.3472278364830341
1559244482.7051463,-0.7308132052421571,-1.1940659284591673,-9.25019073486328,0.09722911521110751,-0.07738372146578462,-0.3622783584884807
1559244482.7151449,-0.4513846039772033,-1.5570842027664185,-10.17923069000244,0.04568436468192364,-0.05580684857061149,-0.34962524738583706
1559244482.725136,-0.6376703381538391,-1.638285756111145,-9.71351623535156,0.02250920606151245,-0.009722911937229673,-0.3822569269330643
1559244482.7351682,-0.7236483693122862,-1.1725714206695554,-9.527231216430664,0.04488522077900731,-0.08457601243084231,-0.3795931333422262
1559244482.745168,-0.026271061971783638,-1.3206447362899778,-9.892637252807615,0.06686166770623322,-0.010122483888687835,-0.3863858585976096
1559244482.7553613,-0.7379780411720275,-1.5666373968124387,-9.283626556396483,0.02503982703368441,-0.05407537358195044,-0.3887832695004125
1559244482.7651687,-0.518256425857544,-1.3087033033370972,-9.849648475646974,0.02384111325990453,-0.05966937674117551,-0.3931785838529929
1559244482.7751553,-0.3630183041095734,-1.4472234249114988,-9.477076530456545,0.06659528501819804,-0.04648350858483997,-0.4039670161393902
1559244482.785146,-0.4251135587692261,-1.3707985877990723,-9.992944717407225,0.016915202902287388,-0.030900212880944643,-0.3955759947557959
1559244482.7951596,-0.6376703381538391,-1.2537728548049927,-9.615596771240234,0.03902483909293628,-0.0765845817240575,-0.41728605067260816
1559244482.8051612,-0.1003076955676079,-1.2322783470153809,-9.866366386413574,0.058071088935342866,-0.03742655128710362,-0.40023765850689785
1559244482.815162,-0.6902124285697937,-1.4663296937942503,-10.160124778747559,0.059136615526294366,-0.055673657226593884,-0.4139563003616821
1559244482.8251486,-0.4633260071277618,-1.569025635719299,-10.119524002075197,0.03636102469615213,-0.05860385015022401,-0.41462225708177
1559244482.8351426,-0.09791941195726393,-1.1797362565994265,-10.25326728820801,0.055540470043765514,-0.03343083385311661,-0.41502183111382285
1559244482.8451443,-0.8335091471672058,-1.449611663818359,-9.622761726379393,0.07152333561852438,-0.06912590807096461,-0.42527749802414977
1559244482.855172,-0.2961465120315552,-1.4854358434677122,-10.143406867980957,0.04168864932853121,-0.0566059924735278,-0.41795200739269606
1559244482.865184,-0.27465200424194336,-1.4854358434677122,-10.098029136657715,0.0504792280994216,-0.038891647748918685,-0.42527749802414977
1559244482.87516,-0.5707985162734985,-1.5738022327423098,-10.212666511535645,0.042620984575465135,-0.03875845640490111,-0.4134235349856118
1559244482.8851461,-0.317641019821167,-1.4472234249114988,-9.969061851501465,0.05607323125864665,-0.06126766454700815,-0.4412603594377196
1559244482.895146,-0.14568498730659485,-1.3493040800094604,-9.878307342529295,0.049813275540522846,-0.02503982703368441,-0.4154214051458756
1559244482.905144,-0.6042344570159912,-1.4066227674484253,-9.782776832580566,0.06086809051495539,-0.07112376158647161,-0.42554388071218496
1559244482.9151437,-0.15284982323646545,-1.416175842285156,-9.68246841430664,0.041155888113650084,-0.061534043073854135,-0.42048264292903037
1559244482.9251544,-0.09075457602739334,-1.155853509902954,-9.608431816101074,0.03902483909293628,-0.022376016798089468,-0.41475544842578765
1559244482.9351468,-0.6257289648056031,-1.3946813344955444,-9.58693790435791,0.0564728011295102,-0.05154475052918388,-0.4171528593285906
1559244482.9451454,-0.24360439181327814,-1.2776557207107546,-9.637091636657715,0.06140085172983655,-0.06526337990040056,-0.4119584302014183
1559244482.9551399,-0.3773479759693146,-1.428117275238037,-9.651421546936035,0.046350317240822385,-0.055007704667695154,-0.4118252388574007
1559244482.965157,-0.19106227159500122,-1.5451428890228271,-9.859201431274414,0.036494216040169725,-0.03236530934275971,-0.4099605933306681
1559244482.9751854,-0.317641019821167,-1.2872087955474851,-9.77799987792969,0.045018412123024903,-0.06379828343858551,-0.40343425076331996
1559244482.9851673,-0.2483809590339661,-1.2561612129211421,-9.615596771240234,0.049813275540522846,-0.023574730571869346,-0.4063644270421932
1559244482.9951513,-0.41078388690948486,-1.3110915422439575,-9.708740234375,0.04701626979972112,-0.056872375161562974,-0.40902825392254494
1559244483.0051444,-0.2842051386833191,-1.3803516626358032,-9.794717788696287,0.05727194503242654,-0.05820428027936046,-0.40330105941930233
1559244483.015141,-0.2459926754236221,-1.4687179327011108,-9.880696296691895,0.04728265248775629,-0.027437258742433378,-0.4035674421073375
1559244483.0251367,-0.2459926754236221,-1.4711061716079714,-9.61320877075195,0.05394218223793285,-0.027037686790975214,-0.39544280341177823
1559244483.035159,-0.2316630035638809,-1.3325860500335691,-9.477076530456545,0.042620984575465135,-0.023308349964428775,-0.40223552866716167
1559244483.0451622,-0.32958242297172546,-1.3063150644302366,-9.355275154113768,0.06060171198810941,-0.036893790072222474,-0.3911807136927291
1559244483.0551515,-0.4298900961875916,-1.3875164985656738,-9.54156017303467,0.03929121761978226,-0.04741584383177388,-0.3895824175645181
1559244483.0651577,-0.2698754668235779,-1.569025635719299,-9.727846145629881,0.032764881294217875,-0.02597216228061832,-0.3931785838529929
1559244483.0751417,-0.37257143855094904,-1.45916485786438,-9.825765609741211,0.03582826348127098,-0.038891647748918685,-0.38332245768520506
1559244483.0851378,-0.8215677738189697,-1.4305055141448977,-9.9308500289917,0.05141155918516629,-0.08337729865706242,-0.3881173127803246
1559244483.0951564,-0.32719412446022034,-1.5833553075790403,-9.878307342529295,0.04581755602594122,-0.02597216228061832,-0.390248374284606
1559244483.105172,-0.4131721556186676,-1.6860512495040894,-10.795406341552734,0.033564023116539596,-0.03343083385311661,-0.3755974263112121
1559244483.1151738,-0.5110915899276732,-1.781582474708557,-10.258044242858887,0.043020554446328685,-0.04794860504665504,-0.38305607499716987
1559244483.1251466,-0.4489963352680206,-1.6287325620651243,-10.222219467163086,0.03236530934275971,-0.05087879797028515,-0.37093572927059654
1559244483.135142,-0.38928937911987294,-1.6979926824569702,-10.007274627685545,0.07285524073632185,-0.038492073716865916,-0.37093572927059654
1559244483.1451364,-0.37495970726013184,-1.7720292806625368,-10.372681617736816,0.03502911957835465,-0.03542869361040742,-0.3645426113367797
1559244483.1551554,-0.27465200424194336,-1.5929083824157717,-9.899802207946776,0.02996787763401075,-0.030900212880944643,-0.3593481489200937
1559244483.1651819,-0.3940659463405609,-1.452000021934509,-9.699187278747559,0.06060171198810941,-0.03742655128710362,-0.35735031204934353
1559244483.1751606,-0.3773479759693146,-1.6788864135742188,-9.952343940734863,0.05021284541138642,-0.02597216228061832,-0.3413674506357738
1559244483.1851475,-0.31525275111198425,-1.7147105932235713,-9.668139457702637,0.03902483909293628,-0.024906637770261423,-0.3472278364830341
1559244483.1951444,-0.4848205149173738,-1.5833553075790403,-9.887861251831055,0.03862526506088352,-0.029701497026570163,-0.3271160434049192
1559244483.2051427,-0.5445274710655214,-1.6502270698547363,-9.985779762268066,0.042620984575465135,-0.031832546047283965,-0.33657256225114063
1559244483.2151678,-0.2077802270650864,-1.626344323158264,-9.859201431274414,0.04235460188742996,-0.045151603467042487,-0.31925778739739513
1559244483.225167,-0.3104761838912964,-1.7409816980361938,-9.756505966186525,0.04661669992885756,-0.007458672092646939,-0.3167271851505746
1559244483.2351615,-0.5755751132965088,-1.626344323158264,-10.012051582336424,0.026771304102940048,-0.058870232838259186,-0.30633832689623
1559244483.2451475,-0.06448351591825485,-1.7099341154098509,-10.17206573486328,0.04488522077900731,-0.024107493867345096,-0.30274216060775516
1559244483.2551398,-0.4012307822704315,-1.81024169921875,-9.95712089538574,0.04035674421073375,-0.03209892873531914,-0.2903554321931467
1559244483.2651994,-0.4895970821380615,-1.6693333387374876,-9.969061851501465,0.02117730094371498,-0.044352459564126166,-0.2940847898256391
1559244483.2752166,-0.21972161531448364,-1.5499193668365479,-9.859201431274414,0.03929121761978226,-0.03609464616930616,-0.285294194409992
1559244483.2851987,-0.34152379631996155,-1.6860512495040894,-9.809047698974608,0.031965737391301555,-0.02797001995731453,-0.26931133299642224
1559244483.2951648,-0.518256425857544,-1.6048498153686526,-9.692022323608398,0.023175158620411192,-0.04834817907870778,-0.27530491018770015
1559244483.3051507,-0.0955311357975006,-1.4257289171218872,-9.572607994079588,0.03263168995020028,-0.017048393206007675,-0.2673134794809153
1559244483.315145,-0.5636336803436279,-1.5738022327423098,-9.517677307128906,0.03622783751332374,-0.01957901313788233,-0.2593220487741305
1559244483.3251436,-0.3558534681797028,-1.411399245262146,-9.890249252319336,0.055540470043765514,-0.05101198931430273,-0.2791674425194533
1559244483.3351426,0.06687179207801819,-1.719487190246582,-9.668139457702637,0.03542869361040742,-0.017447965157465835,-0.2633177558051445
1559244483.3451676,-0.37495970726013184,-1.57857871055603,-10.293868064880371,0.011454389006485306,-0.038358886534037545,-0.25998798884946156
1559244483.3551674,-0.5493040084838867,-1.5976849794387813,-9.768446922302246,0.025572590329160164,-0.06353190075055032,-0.26971090702847506
1559244483.3651836,0.019106227904558182,-1.449611663818359,-10.30342102050781,0.007192290965057714,0.0033297643549396326,-0.25093104403529287
1559244483.3751495,-0.7499194145202637,-1.2776557207107546,-9.48901844024658,0.055673657226593884,-0.039557600307817416,-0.24174089123234976
1559244483.385144,-0.8096264004707336,-1.389904737472534,-9.811435699462889,0.05594003991462906,-0.0346295476268965,-0.23308350380547696
1559244483.395143,-0.3391355276107788,-1.776805877685547,-9.7254581451416,0.06060171198810941,-0.029035544467671433,-0.2424068479524377
1559244483.4051619,-0.38928937911987294,-1.7242637872695925,-10.19356060028076,0.004395288865296531,0.015982868695650777,-0.23334988649351215
1559244483.4151587,-0.4131721556186676,-1.0650988817214964,-9.91652011871338,0.0219764448466313,-0.004528479689165468,-0.23441540060089605
1559244483.4251516,-0.42750182747840887,-1.084205150604248,-9.281238555908205,0.07139014427450678,-0.05767151906447929,-0.2293541628177413
1559244483.4351768,-0.2913699746131897,-1.8508424758911128,-10.06937026977539,0.03436316701945592,-0.04035674421073375,-0.2273563093022343
1559244483.4452055,-0.599457859992981,-2.03951644897461,-10.086088180541992,-0.005727194503242653,-0.04368650700522742,-0.2273563093022343
1559244483.455157,-0.32002931833267206,-1.3397508859634402,-9.904579162597656,0.025439398985142574,-0.0157164870479129,-0.2104411084805415
1559244483.4652116,-0.3510769307613373,-1.2609376907348635,-9.331392288208011,0.0787156265835821,-0.020644537648239227,-0.21963124463872785
1559244483.4751642,-0.26748716831207275,-1.5929083824157717,-9.832930564880371,0.010655246143866284,-0.020511348384816244,-0.20125095567759843
1559244483.4851491,-0.32480585575103754,-1.3612453937530515,-9.7254581451416,0.0002663811438438699,-0.03795931250198478,-0.20205010374170393
1559244483.4951456,-0.30808791518211365,-1.3922930955886843,-9.376769065856932,0.0587370414942416,-0.013585438027199104,-0.18779871315560606
1559244483.5051622,-0.3033113479614258,-1.69321608543396,-9.758893966674803,0.05713875368840896,-0.009722911937229673,-0.18793190449962366
1559244483.5151556,-0.19345055520534515,-1.6239560842514038,-9.6896333694458,0.009989292544670247,-0.0022642398445827335,-0.1850017115759936
1559244483.5251482,-0.04776556789875031,-1.036439538002014,-9.39109897613525,0.020910920336274407,0.01971220448189992,-0.1788749430406981
1559244483.535144,-0.4513846039772033,-1.246608018875122,-9.534395217895508,0.08377687268911521,-0.03343083385311661,-0.1695515988937374
1559244483.5451443,-0.21972161531448364,-2.0872819423675537,-10.16251277923584,0.029301925075112006,-0.03129978483240282,-0.1708834956891565
1559244483.555144,-0.4083956182003021,-2.0132453441619877,-10.04548740386963,-0.0037293360463234696,-0.009190149682051223,-0.17035074695784294
1559244483.565143,-0.496761918067932,-1.4018461704254153,-9.55827808380127,0.0629991395356692,-0.02290877801297061,-0.17035074695784294
1559244483.5751472,-0.4251135587692261,-1.7744176387786863,-9.897414207458496,0.059402994053140326,-0.045151603467042487,-0.16768693672224802
1559244483.5851436,-0.2770403027534485,-2.125494480133056,-10.16251277923584,0.007591862396367225,-0.006792719013599553,-0.16861925948561432
1559244483.5951438,-0.6185641288757324,-1.9201025962829588,-9.83054256439209,0.01411820028237755,-0.0512783720023379,-0.17035074695784294
1559244483.6051443,-0.3510769307613373,-2.127882719039917,-9.952343940734863,0.04661669992885756,-0.036494216040169725,-0.17101668703317408
1559244483.615154,-0.35824176669120783,-2.3141684532165527,-9.940402984619139,0.03596145482528857,-0.020511348384816244,-0.1699511729257902
1559244483.6251411,-0.4131721556186676,-1.9105494022369385,-9.81382369995117,0.014517772233835716,-0.006393147582290041,-0.1750124107089449
1559244483.6351345,-0.4991501867771148,-1.939208745956421,-9.71112823486328,0.05607323125864665,-0.025306207641124987,-0.165422683873949
1559244483.645134,-0.36540660262107844,-2.2711794376373287,-9.973838806152344,0.03902483909293628,-0.003596145482528857,-0.15423467755549888
1559244483.655154,-0.5564688444137573,-2.146989107131958,-9.890249252319336,-0.0003995717238931276,-0.01957901313788233,-0.161426976842935
1559244483.6651683,-0.2603223323822021,-1.5618607997894287,-9.453193664550781,0.028902353123653836,-0.007059100141188775,-0.15703167913511143
1559244483.6751618,-0.15046153962612152,-1.3278095722198489,-9.854424476623535,0.03542869361040742,-0.01518372479273445,-0.1305267598008011
1559244483.6851454,-0.23405128717422485,-1.4926006793975832,-9.641868591308594,0.013052675772020655,0.01132119870276502,-0.12613147041535594
1559244483.6951365,-0.16001465916633603,-0.9289670586585996,-9.634703636169434,0.024240683130768086,0.0029301926635557957,-0.09469849631953016
1559244483.705136,-0.2244981676340103,-1.3134799003601072,-9.357663154602049,0.09749549789914268,-0.045950747369958814,-0.08377687268911521
1559244483.7152436,0.26509889960289,-2.0347399711608887,-9.866366386413574,-0.0009323340115808674,0.00825781547541461,-0.08031391438941472
1559244483.7251682,0.15284982323646545,-0.998227119445801,-10.277150154113768,-0.019445823874459343,0.03676059872820489,-0.0745867198861721
1559244483.7351494,-1.0389010906219482,-0.9265787601470948,-8.858512878417969,0.11494346409690585,-0.016915202902287388,-0.08191220219524739
1559244483.7451456,-0.814402937889099,-1.7839707136154175,-10.828842163085936,0.06140085172983655,-0.02117730094371498,-0.0723224836826299
1559244483.7551363,-1.0269596576690672,-2.1708717346191406,-9.735011100769043,-0.013452247723478814,0.005860385327111591,-0.1009584561988432
1559244483.7651343,-0.599457859992981,-0.917025625705719,-9.883084297180176,0.018779871315560605,-0.02863597251621327,-0.07618500769200474
1559244483.7751865,-0.4800439476966858,-1.444835186004639,-9.668139457702637,0.13305737869237855,-0.021710062158596128,-0.0901700155900674
1559244483.7851582,-0.026271061971783638,-2.252073287963867,-10.413282394409181,-0.0009323340115808674,-0.0094565302894918,-0.07551905097191679
1559244483.7951427,-0.2913699746131897,-1.22272527217865,-9.840095520019535,-0.03516231092237225,0.021443681551155558,-0.09296701716967994
1559244483.8051333,-0.6161758303642273,-0.766564130783081,-9.2119779586792,0.0994933597370281,-0.03636102469615213,-0.06779400295316713
1559244483.8151338,-0.11941391974687575,-1.7983003854751587,-10.453883171081545,0.0807134884214675,-0.01731477381344825,-0.06885952538292943
1559244483.8251364,-0.3319706916809082,-2.297450542449951,-10.334468841552734,-0.0282364005647551,0.007591862396367225,-0.08524196915093027
1559244483.8351674,-0.37495970726013184,-1.1534651517868042,-9.849648475646974,-0.007991434347825389,0.022242825454071878,-0.0620668084499245
1559244483.8451684,-0.8597801923751831,-1.0746519565582273,-9.670527458190918,0.11121413143154861,-0.046217130057993994,-0.06646209367418046
1559244483.8551602,-0.10508424788713457,-1.9105494022369385,-10.332080841064451,0.041155888113650084,-0.004528479689165468,-0.06180042576188929
1559244483.8651395,-0.3439120948314667,-1.7075457572937012,-10.18400764465332,-0.03782612115796719,0.017980727412644285,-0.07392076316608415
1559244483.8751543,-0.6639413833618164,-0.9098607897758484,-9.62753868103027,0.02836959190877269,0.0009323340115808674,-0.05966937674117551
1559244483.8851376,-0.7642490863800049,-1.2848205566406248,-9.6896333694458,0.07698414743373183,-0.0408895054256149,-0.06339871356772193
1559244483.8951335,-0.2937582433223724,-1.7863589525222778,-10.066981315612793,0.006126766454700816,-0.002663811535966571,-0.0700582391567093
1559244483.905157,-0.5612454414367676,-1.2776557207107546,-9.9642858505249,-0.01917944326701877,0.01132119870276502,-0.07285524073632185
1559244483.9151437,-0.6090109944343567,-0.8668717741966246,-9.419757843017576,0.05460813479683159,-0.017048393206007675,-0.07818286952989015
1559244483.9251363,-0.40600731968879694,-1.325421214103699,-9.928461074829102,0.052343894432100205,-0.01771434680520371,-0.0753858596278992
1559244483.9351346,-0.3510769307613373,-1.5021538734436033,-10.083699226379393,-0.0031965737911450205,0.012253532909401631,-0.0796479659917052
1559244483.9451346,-0.4895970821380615,-0.9050842523574828,-9.735011100769043,0.010921626751306856,-0.006925909837468489,-0.08244496757131774
1559244483.955174,-0.4489963352680206,-0.8740366101264954,-9.73262310028076,0.06806038148001312,-0.012519913516842205,-0.07751691280980222
1559244483.9651716,-0.32958242297172546,-1.4663296937942503,-9.976226806640623,0.0482149877346902,-0.006526337886010328,-0.07591862500396956
1559244483.975172,-0.31525275111198425,-1.3039267063140867,-9.992944717407225,-0.008391005779134899,0.005194432248064204,-0.0712569529304892
1559244483.985138,-0.4251135587692261,-0.9098607897758484,-9.536784172058104,0.03383040580457477,0.009190149682051223,-0.06566295393245332
1559244483.9951358,-0.5158681273460388,-1.120029330253601,-9.885472297668455,0.06526337990040056,-0.01611605899937106,-0.06859314269489425
1559244484.0051343,-0.26748716831207275,-1.4615530967712405,-10.050263404846191,0.025306207641124987,0.001997858586956347,-0.06406466612662069
1559244484.0151868,-0.38928937911987294,-1.129582405090332,-9.770834922790526,0.012386723213121916,0.004928051120474981,-0.064863810029537
1559244484.0251853,-0.496761918067932,-0.8382124304771423,-9.70396327972412,0.03942440896379984,-0.010788436447586574,-0.06766081160914955
1559244484.035149,0.8717216253280639,-2.882578849792481,-8.450117111206055,0.12613147041535594,-0.09456530497551255,-0.05394218223793285
1559244484.0451353,-0.2722637355327607,-0.7235751152038574,-13.568198204040527,-0.25386123695892293,0.2421404652644025,-0.07485310257420724
1559244484.0551362,-2.758461475372314,-0.052468866109848016,-6.410527706146241,0.10415502348813006,-0.14317986258106633,-0.08510877780691266
1559244484.065133,-0.08836629986763,-0.15755310654640195,-11.012740135192873,0.09829464596324824,-0.12613147041535594,-0.044752033596178936
1559244484.0751889,-0.16479121148586273,-3.307692289352417,-10.246102333068848,0.1850017115759936,0.06006894661203906,-0.14384581930115428
1559244484.085165,-1.932117223739624,-2.04429292678833,-9.983391761779783,-0.31179913871143744,-0.022242825454071878,-0.02876916386023085
1559244484.095145,0.4728791117668152,1.0341978073120115,-9.938014984130861,0.13252462163868656,-0.07112376158647161,-0.1591627406393928
1559244484.1051354,-0.2555457949638366,-1.6358973979949951,-8.540871620178223,0.1835366067918001,0.018380299364102445,-0.042620984575465135
1559244484.115134,-0.8526153564453125,-2.6891281604766846,-12.894702911376951,-0.064863810029537,-0.03942440896379984,-0.12173618102991078
1559244484.125134,0.2388278394937515,-0.7976117134094239,-7.3730034828186035,-0.07139014427450678,0.023308349964428775,-0.13252462163868656
1559244484.1352355,-0.554080605506897,0.4944468736648559,-11.074834823608398,0.08337729865706242,0.006526337886010328,-0.054208560764778826
1559244484.1451674,-1.1559267044067383,-2.5697143077850337,-8.810747146606445,0.21190619661997817,-0.08763939669849005,-0.1666214059701073
1559244484.155154,0.7690256237983703,-1.8293479681015012,-11.378146171569824,-0.1750124107089449,0.007325481268778002,-0.07258885804828667
1559244484.16514,-0.6567765474319457,-0.265025645494461,-9.314674377441406,0.06193361710590689,0.058071088935342866,-0.1454440987846085
1559244484.1751344,-1.2896703481674194,-1.057934045791626,-8.591025352478027,0.09762868924316029,-0.10162440459655273,-0.09616359278134526
1559244484.1851363,0.955311357975006,-1.7242637872695925,-12.003875732421875,0.05261027712013538,-0.015982868695650777,-0.12280170345967313
1559244484.1951334,-0.7738022208213806,-1.9296556711196895,-8.7510404586792,-0.046749891272875134,0.056872375161562974,-0.12826252359725895
1559244484.2051332,-0.976805865764618,-0.1957655698060989,-10.212666511535645,-0.024507065818803263,-0.0661957151473345,-0.10282311837033259
1559244484.2151353,0.3558534681797028,-1.0507692098617551,-9.33616828918457,0.1815387532762931,-0.04568436468192364,-0.1445117760212422
1559244484.2251346,-0.39167764782905573,-2.113553047180176,-10.802571296691895,-0.05327622967903412,0.029435116419129593,-0.07911520061563483
1559244484.2351336,-0.671106219291687,-0.9719560146331788,-9.844871520996094,-0.031965737391301555,-0.043420124317192256,-0.16688778865814247
1559244484.2451742,0.15046153962612152,-0.17665934562683105,-8.987480163574219,0.06952547794182817,-0.00825781547541461,-0.09709592386708993
1559244484.2554023,-0.7570842504501343,-1.3421392440795898,-10.716593742370605,0.09096916365417294,-0.02757044800585637,-0.123467660179761
1559244484.265208,-0.19106227159500122,-1.8054652214050289,-9.622761726379393,-0.019046251923001186,-0.03169935678386097,-0.14051605234547135
1559244484.2751675,-0.16479121148586273,-0.3199560344219208,-10.286703109741211,-0.021044109599697394,0.027703639349873955,-0.10535374558428832
1559244484.2851436,-1.0556190013885498,-0.7641758322715758,-9.121223449707031,0.14437858467722464,-0.055540470043765514,-0.1383850074859468
1559244484.2951372,-0.12180219590663907,-1.5618607997894287,-10.599567413330078,0.030900212880944643,-0.0303674495854689,-0.1090830782496456
1559244484.3051367,-0.31525275111198425,-1.3015384674072263,-10.090864181518553,-0.007059100141188775,0.010788436447586574,-0.14344624526910152
1559244484.3151715,-0.7905201315879821,-0.527736246585846,-9.25735569000244,0.031832546047283965,-0.02597216228061832,-0.12240213774999872
1559244484.3251557,-0.15284982323646545,-0.9146373867988584,-10.317750930786131,0.11614217787068573,-0.053808990893915255,-0.1247995652975585
1559244484.3351533,-0.1026959717273712,-1.7266520261764526,-9.990556716918944,0.015450106440472322,-0.0009323340115808674,-0.1236008515237786
1559244484.3451395,-0.5158681273460388,-0.8931428790092467,-10.000109672546385,-0.030500640929486487,0.00013319057192193499,-0.11734089164446562
1559244484.3551347,-0.458549439907074,-0.4871355295181273,-9.262131690979006,0.07765010415381977,-0.03516231092237225,-0.12439999126550574
1559244484.3651366,-0.4561611711978912,-1.2967618703842163,-10.243714332580566,0.07312162342435702,-0.02863597251621327,-0.11254603654934606
1559244484.3751898,-0.35824176669120783,-1.602461576461792,-10.219831466674803,0.001731477459367122,-0.005727194503242653,-0.11987151053604295
1559244484.3851812,-0.6448351740837097,-0.7235751152038574,-9.780387878417969,-0.004794860816754693,-0.013985009978657264,-0.11241284520532847
1559244484.395159,-0.5110915899276732,-0.776117205619812,-9.775611877441406,0.09416573094345983,-0.046749891272875134,-0.1121464625172933
1559244484.4051418,-0.1289670318365097,-1.5164835453033445,-10.14101791381836,0.04222141054341237,-0.025705779592583147,-0.10695202506774258
1559244484.415137,-0.2316630035638809,-1.2561612129211421,-10.20072555541992,-0.021710062158596128,0.003596145482528857,-0.10668565070208583
1559244484.4251363,-0.4537729024887085,-0.5946080684661865,-9.47468852996826,0.019046251923001186,-0.020644537648239227,-0.09936016839301055
1559244484.4351475,-0.2507692277431488,-0.9003077149391174,-9.847260475158691,0.07432033719813691,-0.025838970936600734,-0.09922697704899294
1559244484.445179,-0.44183149933815,-1.600073218345642,-10.152959823608398,0.024507065818803263,-0.02264239740553004,-0.10149121325253513
1559244484.4551635,-0.29853481054306036,-1.1271941661834717,-9.971450805664064,-0.0230419693569882,-0.017847536068626695,-0.09323339985771512
1559244484.4651546,-0.34152379631996155,-0.659091591835022,-9.567831039428713,0.031832546047283965,-0.005194432248064204,-0.09003682424604981
1559244484.4751391,-0.6615530848503113,-1.0865933895111086,-9.811435699462889,0.0703246218447445,-0.04355331566120985,-0.08510877780691266
1559244484.4851398,-0.08358974009752274,-1.3755750656127927,-10.453883171081545,0.007725053220236161,-0.019046251923001186,-0.09243426011598799
1559244484.4951358,-0.4919853508472442,-0.9600146412849426,-9.883084297180176,-0.004928051120474981,0.006259956758421103,-0.08750620535447245
1559244484.50516,-0.8478388190269471,-0.6304322481155396,-9.83531856536865,0.03010106897802833,-0.02610535154404131,-0.08377687268911521
1559244484.5151756,-0.27465200424194336,-1.0268864631652832,-10.002498626708984,0.06326552222370438,-0.04048993555475134,-0.08684024863438451
1559244484.5251548,-0.2483809590339661,-1.2919853925704958,-10.320138931274414,0.005727194503242653,-0.005594004199522367,-0.07738372146578462
1559244484.5351388,-0.5707985162734985,-0.8501538634300232,-9.895025253295898,0.0023974304083773466,-0.025838970936600734,-0.08843853644021715
1559244484.5451388,-0.21972161531448364,-0.6638681292533875,-9.68246841430664,0.05101198931430273,-0.022775588749547628,-0.07591862500396956
1559244484.5551343,-0.4728791117668152,-1.2370549440383911,-10.012051582336424,0.06273276100882322,-0.023707921915886932,-0.07938158330367001
1559244484.5651748,-0.2603223323822021,-1.2203370332717896,-10.327303886413574,-0.006659528709879265,-0.024906637770261423,-0.08364368134509763
1559244484.575171,-0.17673259973526,-0.6352087855339049,-9.856813430786131,0.008391005779134899,-0.0042620983015019195,-0.0765845817240575
1559244484.5851629,-0.5421391725540161,-0.6973040103912354,-9.59410285949707,0.05700556650558055,-0.019445823874459343,-0.0744535285421545
1559244484.5951355,-0.41794872283935547,-1.0483809709548952,-10.281927108764648,0.022376016798089468,-0.029834688370587763,-0.07751691280980222
1559244484.6051357,-0.1552380919456482,-0.9576264023780824,-9.761281967163086,0.01651563095082922,-0.003995717173912694,-0.06845995551206585
1559244484.615134,-0.5827399492263794,-0.5444542169570922,-9.94995594024658,0.012253532909401631,-0.011720770654223183,-0.069259095253793
1559244484.625161,-0.4466080665588378,-0.7904468774795533,-9.789941787719725,0.06965866928584576,-0.02996787763401075,-0.07205610099459471
1559244484.6351724,-0.17912088334560392,-1.0316630601882935,-9.906967163085936,0.025572590329160164,-0.010522054799848697,-0.05767151906447929
1559244484.6451666,-0.5564688444137573,-0.7283516526222228,-10.320138931274414,0.006792719013599553,-0.005727194503242653,-0.06859314269489425
1559244484.6551442,-0.34152379631996155,-0.6375970840454102,-9.424534797668455,0.0566059924735278,-0.026504923495499474,-0.062199995632752865
1559244484.6651347,-0.1432967036962509,-0.8788132071495055,-10.119524002075197,0.05194432456123664,-0.0029301926635557957,-0.04781541370263744
1559244484.6751328,-0.6448351740837097,-1.3134799003601072,-10.16251277923584,0.0303674495854689,-0.018646679971543026,-0.0732548147683746
1559244484.685202,-0.2077802270650864,-0.8764249086380004,-10.05504035949707,0.003596145482528857,-0.012120341565384043,-0.04781541370263744
1559244484.6951616,-0.5373626351356506,-0.8835897445678712,-9.878307342529295,0.0566059924735278,-0.006126766454700816,-0.055007704667695154
1559244484.7051692,-0.7379780411720275,-1.1606299877166748,-10.031157493591309,0.03622783751332374,-0.02437387447478567,-0.055007704667695154
1559244484.7151484,-0.15762637555599213,-0.988673985004425,-10.20072555541992,0.009722911937229673,-0.013452247723478814,-0.055007704667695154
1559244484.7251346,-0.4322783946990967,-0.7116336822509765,-9.675304412841795,0.027437258742433378,0.0,-0.05700556650558055
1559244484.7351346,-0.6328938007354737,-0.895531117916107,-10.07653522491455,0.05007965406736882,-0.023974302523327513,-0.04914732298162412
1559244484.7451522,-0.42033699154853826,-1.1486886739730835,-9.940402984619139,0.028502783252790275,-0.01331905741975853,-0.055274087355730334
1559244484.7551622,-0.4943736195564269,-0.881201446056366,-10.224608421325684,0.011587579310205596,-0.011054817055027148,-0.05900342418227676
1559244484.7651634,-0.5803516507148744,-0.7689523696899415,-9.849648475646974,0.0346295476268965,-0.015982868695650777,-0.05167794187320147
1559244484.7751431,-0.44183149933815,-0.9910622835159298,-9.85203647613525,0.04368650700522742,-0.013985009978657264,-0.05074560662626756
1559244484.785159,-0.3988424837589264,-1.2251135110855103,-9.746952056884766,0.019978585089340493,-0.005460813375653428,-0.05207751174406503
1559244484.7951372,-0.6233406662940979,-1.0077801942825315,-9.971450805664064,0.0038625266101180804,-0.006925909837468489,-0.04994646272335124
1559244484.8051362,-0.5875164866447448,-0.917025625705719,-9.961897850036621,0.028902353123653836,-0.021044109599697394,-0.05540727869974791
1559244484.8151674,-0.26509889960289,-1.057934045791626,-9.79232978820801,0.039690791651835006,-0.013052675772020655,-0.046350317240822385
1559244484.8251588,-0.40600731968879694,-1.210783839225769,-9.863978385925295,0.0189130605789836,0.0025306209721719587,-0.04728265248775629
1559244484.835145,-0.4537729024887085,-1.0149450302124023,-9.68724536895752,0.023175158620411192,-0.016782011558269798,-0.03529550226638984
1559244484.8451355,-0.35346519947052,-1.0531575679779053,-10.083699226379393,0.032764881294217875,-0.013052675772020655,-0.03103340422496225
1559244484.8551357,-0.33435896039009094,-1.4376703500747678,-9.844871520996094,0.04222141054341237,-0.017847536068626695,-0.03116659348838523
1559244484.865133,-0.2627106308937073,-1.3158681392669676,-10.138629913330078,0.0034629549187342444,-0.018779871315560605,-0.020777728992256817
1559244484.875139,-0.3558534681797028,-1.141523838043213,-9.959508895874023,0.03782612115796719,-0.001997858586956347,-0.0157164870479129
1559244484.8852096,-0.5278095006942749,-1.3755750656127927,-9.79949474334717,0.04528479481106008,-0.0157164870479129,-0.005194432248064204
1559244484.8951766,-0.2077802270650864,-1.4567764997482302,-10.15534782409668,0.02250920606151245,-0.0003995717238931276,-0.0018646680231617348
1559244484.905154,-0.5134798288345337,-1.3684102296829224,-9.696798324584961,0.023175158620411192,0.012253532909401631,-0.007325481268778002
1559244484.915138,-0.4991501867771148,-1.3063150644302366,-9.84248352050781,0.027703639349873955,-0.01518372479273445,0.0033297643549396326
1559244484.925142,-0.4298900961875916,-1.3278095722198489,-9.768446922302246,0.0408895054256149,0.013851819674936976,-0.015450106440472322
1559244484.9351335,-0.8741098642349243,-1.4854358434677122,-9.668139457702637,0.041821840672548814,-0.020511348384816244,-0.007458672092646939
1559244484.9451644,-0.2961465120315552,-1.7123223543167114,-10.057428359985352,0.03116659348838523,-0.012919485468300367,-0.029301925075112006
1559244484.9551623,-0.3773479759693146,-1.6573919057846067,-9.79949474334717,0.01824710802008486,0.021443681551155558,-0.03449635836347351
1559244484.9651566,-0.9385933876037594,-1.3349744081497192,-9.902190208435059,0.019978585089340493,-0.053542608205880096,-0.043020554446328685
1559244484.975144,0.08597802370786665,-1.3110915422439575,-9.448417663574219,0.027836828613296942,-0.0018646680231617348,-0.043153745790346296
1559244484.9851577,-0.4776556789875031,-1.0292747020721436,-9.453193664550781,0.0025306209721719587,0.027170876054398208,-0.030767021536927067
1559244484.9951398,-0.3677948713302612,-0.530124545097351,-9.83531856536865,0.03609464616930616,-0.046749891272875134,-0.04328693713436387
1559244485.0051725,0.09791941195726393,-1.038827896118164,-9.837706565856932,0.07072419587679725,0.023308349964428775,-0.008524196603003837
1559244485.0151613,-0.8072381019592284,-1.5188717842102053,-10.274762153625488,0.02384111325990453,-0.02117730094371498,-0.02117730094371498
1559244485.0251675,-0.26509889960289,-1.1128644943237305,-10.012051582336424,0.0094565302894918,-0.01811391875666187,-0.006792719013599553
1559244485.0351484,-0.2627106308937073,-1.1248058080673216,-10.000109672546385,0.06126766454700815,0.01957901313788233,0.005727194503242653
1559244485.0451396,-0.8597801923751831,-1.442446827888489,-10.238937377929688,0.02996787763401075,-0.021443681551155558,0.0023974304083773466
1559244485.055134,-0.03582417592406272,-1.1056996583938599,-9.746952056884766,0.0010655245753754797,-0.0037293360463234696,0.0094565302894918
1559244485.065161,-0.13135531544685364,-0.5396776795387268,-9.606043815612793,0.05633960978549263,0.059136615526294366,0.029035544467671433
1559244485.075177,-0.2507692277431488,-1.3946813344955444,-10.014439582824707,0.04208821919939479,0.0230419693569882,0.024240683130768086
1559244485.085173,0.08836629986763,-1.4305055141448977,-10.212666511535645,-0.006925909837468489,-0.015583296744192612,0.023974302523327513
1559244485.0951583,-0.3677948713302612,-1.2633260488510132,-9.030468940734863,0.03103340422496225,0.028103211301332122,0.04408608103728019
1559244485.1051385,-1.8055384159088133,-0.7211868166923523,-10.114747047424316,0.05101198931430273,-0.04048993555475134,0.030767021536927067
1559244485.1151364,-0.29853481054306036,-1.3731868267059326,-9.522454261779783,0.09363297388976785,-0.07165652696254196,0.045950747369958814
1559244485.1251326,0.4895970821380615,-1.5188717842102053,-10.425223350524902,-0.024906637770261423,0.05713875368840896,0.049014131637606526
1559244485.135186,-0.7594725489616394,-1.174959659576416,-8.571919441223145,0.018513488627525432,-0.020777728992256817,0.0504792280994216
1559244485.1451852,0.1695677638053894,-1.0077801942825315,-10.16490077972412,0.02996787763401075,0.03209892873531914,0.06366509209456793
1559244485.1551502,-0.41556045413017273,-1.3230329751968384,-8.863289833068846,0.03502911957835465,0.022775588749547628,0.06526337990040056
1559244485.1651447,-0.5612454414367676,-1.1654065847396848,-10.217443466186525,0.02024496777737567,-0.0009323340115808674,0.07112376158647161
1559244485.17514,-0.8550036549568177,-1.473494529724121,-9.195260047912596,0.06606252380331688,0.006925909837468489,0.058071088935342866
1559244485.1851363,-0.7260366082191468,-1.494989037513733,-10.279538154602049,0.02916873581168902,-0.01651563095082922,0.0745867198861721
1559244485.1951683,-0.5278095006942749,-1.7481465339660645,-9.883084297180176,0.045551177499095256,-0.021576872895173148,0.054474943452814006
1559244485.2051609,-0.22927471995353696,-1.6669450998306277,-9.928461074829102,0.027437258742433378,0.020511348384816244,0.07991434035736197
1559244485.2151475,-0.8096264004707336,-1.719487190246582,-10.086088180541992,0.038358886534037545,-0.024107493867345096,0.06313233087968677
1559244485.225144,-0.038212455809116364,-1.705157518386841,-10.05504035949707,0.04754903517579146,-0.004928051120474981,0.07618500769200474
1559244485.2351418,-0.5875164866447448,-1.7576996088027956,-10.15534782409668,0.04235460188742996,0.015982868695650777,0.08058029707744992
1559244485.2451682,-0.7260366082191468,-1.7672528028488161,-9.823377609252928,0.06739442892111436,-0.01824710802008486,0.06992504781269172
1559244485.2551897,-0.23405128717422485,-1.8484542369842527,-10.095641136169432,0.03915802627576466,0.01185396095794347,0.08750620535447245
1559244485.2651708,-0.6663296818733215,-1.9702564477920528,-9.93323802947998,0.05314303833501653,0.004794860816754693,0.08391006403313278
1559244485.2751482,-0.635282039642334,-1.9081611633300783,-9.83531856536865,0.03316445324567604,-0.012386723213121916,0.08524196915093027
1559244485.2851455,-0.24360439181327814,-1.9487619400024412,-10.064593315124512,0.04488522077900731,0.012519913516842205,0.08430962974280716
1559244485.295147,-0.5851281881332397,-1.9821977615356443,-9.71351623535156,0.023574730571869346,0.0042620983015019195,0.08870491912825233
1559244485.305147,-0.4633260071277618,-1.743369936943054,-9.942790985107418,0.04048993555475134,-0.006393147582290041,0.08737301401045484
