ACCELEROMETER X (m/s²),ACCELEROMETER Y (m/s²),ACCELEROMETER Z (m/s²),GYROSCOPE X (rad/s),GYROSCOPE Y (rad/s),GYROSCOPE Z (rad/s),Time since start in ms ,YYYY-MO-DD HH-MI-SS_SSS
-0.58990478515625,-1.3015384674072266,-9.863978385925293,0.03223211799874212,-0.007325481268778002,-0.0029301926635557957,0.0,2019-06-03 12:23:35:564
-0.5564688444137573,-1.3182563781738281,-9.835318565368652,0.03343083385311661,-0.006126766454700816,-0.0062599567584211025,0.010002613067626953,2019-06-03 12:23:35:574
-0.599457859992981,-1.3278095722198486,-9.866366386413574,0.03236530934275971,-0.006792719013599553,0.0009323340115808674,0.020029544830322266,2019-06-03 12:23:35:584
-0.6185641288757324,-1.3230329751968384,-9.899802207946777,0.029834688370587756,-0.004128907737707306,0.0009323340115808674,0.030025959014892578,2019-06-03 12:23:35:594
-0.6185641288757324,-1.3230329751968384,-9.820988655090332,0.032498498606182695,-0.0027970020997611835,-0.0033297643549396326,0.04000234603881836,2019-06-03 12:23:35:604
-0.58990478515625,-1.284820556640625,-9.837706565856934,0.033564023116539596,-0.0025306209721719587,-0.00013319057192193496,0.05000019073486328,2019-06-03 12:23:35:614
-0.6448351740837097,-1.2967618703842163,-9.861589431762695,0.02863597251621327,-0.003063383227350408,-0.0009323340115808674,0.059999942779541016,2019-06-03 12:23:35:624
-0.5946813225746155,-1.2537728548049927,-9.844871520996094,0.031965737391301555,-0.005594004199522367,0.00013319057192193496,0.06999826431274414,2019-06-03 12:23:35:634
-0.599457859992981,-1.3110915422439575,-9.866366386413574,0.029435116419129593,-0.0027970020997611835,-0.0006659528839916427,0.08000946044921875,2019-06-03 12:23:35:644
-0.6615530848503113,-1.2633260488510132,-9.83054256439209,0.03303126190165845,-0.007192290965057714,-0.004262098301501919,0.09000730514526367,2019-06-03 12:23:35:654
-0.635282039642334,-1.2728791236877441,-9.80427074432373,0.0303674495854689,-0.005327623071933142,-0.0050612419443439175,0.10000181198120117,2019-06-03 12:23:35:664
-0.6448351740837097,-1.2800439596176147,-9.80427074432373,0.03449635836347351,-0.0062599567584211025,0.0011987152041886733,0.11000633239746094,2019-06-03 12:23:35:674
-0.6400586366653442,-1.284820556640625,-9.873531341552734,0.03209892873531914,-0.002663811535966571,-0.00319657379114502,0.11999940872192383,2019-06-03 12:23:35:684
-0.6018461585044861,-1.2872087955474854,-9.878307342529297,0.032631689950200285,-0.006126766454700816,-0.0033297643549396326,0.13001012802124023,2019-06-03 12:23:35:694
-0.635282039642334,-1.2633260488510132,-9.883084297180176,0.03396359506799776,-0.007192290965057714,-0.012919485468300369,0.14000368118286133,2019-06-03 12:23:35:704
-0.6113992929458618,-1.2919853925704956,-9.880696296691895,0.031965737391301555,-0.0062599567584211025,-0.006526337886010328,0.15000009536743164,2019-06-03 12:23:35:714
-0.5851281881332397,-1.3134799003601074,-9.852036476135254,0.03409678641201535,-0.0050612419443439175,-0.010388864496128409,0.15999841690063477,2019-06-03 12:23:35:724
-0.6305055022239685,-1.2895970344543457,-9.782776832580566,0.032631689950200285,-0.0013319057679832855,-0.0037293360463234696,0.7301368713378906,2019-06-03 12:23:36:294
-0.625728964805603,-1.2537728548049927,-9.80427074432373,0.03289807055764086,-0.006925909837468489,-0.007991434347825389,0.7400283813476562,2019-06-03 12:23:36:304
-0.6042344570159912,-1.2872087955474854,-9.885472297668457,0.03289807055764086,-0.001997858586956347,0.0011987152041886733,0.7500109672546387,2019-06-03 12:23:36:314
-0.5922930240631104,-1.3373626470565796,-9.866366386413574,0.03316445324567604,-0.008124624651545674,-0.0050612419443439175,0.7599949836730957,2019-06-03 12:23:36:324
-0.6161758303642273,-1.2513846158981323,-9.849648475646973,0.03209892873531914,-0.004661669992885756,-0.004661669992885756,0.7699904441833496,2019-06-03 12:23:36:334
-0.5970696210861206,-1.2633260488510132,-9.863978385925293,0.03156616543984339,-0.008391005779134899,-0.00159828689557251,0.7800383567810059,2019-06-03 12:23:36:344
-0.6185641288757324,-1.284820556640625,-9.806659698486328,0.03343083385311661,-0.006659528709879265,-0.005327623071933142,0.7900209426879883,2019-06-03 12:23:36:354
-0.5946813225746155,-1.284820556640625,-9.837706565856934,0.029435116419129593,-0.005993575630831878,-0.0038625266101180813,0.8000121116638184,2019-06-03 12:23:36:364
-0.635282039642334,-1.2800439596176147,-9.832930564880371,0.031965737391301555,-0.007458672092646939,-0.004794860816754693,0.8100004196166992,2019-06-03 12:23:36:374
-0.6042344570159912,-1.248996376991272,-9.832930564880371,0.03090021288094465,-0.00639314758229004,-0.0021310491507509593,0.8199934959411621,2019-06-03 12:23:36:384
-0.5731868147850037,-1.2776557207107544,-9.758893966674805,0.02956830776314718,-0.005327623071933142,-0.00159828689557251,0.8300137519836426,2019-06-03 12:23:36:394
-0.58990478515625,-1.2728791236877441,-9.861589431762695,0.03502911957835465,0.00013319057192193496,-0.0006659528839916427,0.839993953704834,2019-06-03 12:23:36:404
-0.5827399492263794,-1.2251135110855103,-9.840095520019531,0.02916873581168902,-0.0034629549187342444,-0.0006659528839916427,0.8500165939331055,2019-06-03 12:23:36:414
-0.5755751132965088,-1.2776557207107544,-9.875919342041016,0.03129978483240282,-0.006659528709879265,-0.002663811535966571,0.8600068092346191,2019-06-03 12:23:36:424
-0.58990478515625,-1.294373631477356,-9.820988655090332,0.029834688370587756,-0.005727194503242653,-0.0027970020997611835,0.8700041770935059,2019-06-03 12:23:36:434
-0.5755751132965088,-1.2872087955474854,-9.792329788208008,0.031166593488385227,-0.001997858586956347,-0.0014650963317778978,0.8799948692321777,2019-06-03 12:23:36:444
-0.5660219788551331,-1.3134799003601074,-9.861589431762695,0.02903554446767143,-0.005194432248064204,-0.004794860816754693,0.8899931907653809,2019-06-03 12:23:36:454
-0.6018461585044861,-1.2752673625946045,-9.859201431274414,0.031965737391301555,-0.007192290965057714,-0.004528479689165468,0.899991512298584,2019-06-03 12:23:36:464
-0.6137875318527222,-1.258549451828003,-9.81621265411377,0.03662740738418731,-0.005594004199522367,-0.006659528709879265,0.9099912643432617,2019-06-03 12:23:36:474
-0.5660219788551331,-1.2155604362487793,-9.859201431274414,0.032764881294217875,-0.007192290965057714,-0.005594004199522367,0.9199938774108887,2019-06-03 12:23:36:484
-0.6066226959228516,-1.2752673625946045,-9.849648475646973,0.030500640929486494,-0.001997858586956347,-0.0062599567584211025,0.9300112724304199,2019-06-03 12:23:36:494
-0.5922930240631104,-1.3015384674072266,-9.832930564880371,0.03236530934275971,-0.004794860816754693,-0.004395288865296531,0.9399962425231934,2019-06-03 12:23:36:504
-0.6066226959228516,-1.2275018692016602,-9.782776832580566,0.03529550226638983,-0.005860385327111591,-0.00159828689557251,0.9499936103820801,2019-06-03 12:23:36:514
-0.6281172037124634,-1.2537728548049927,-9.861589431762695,0.02903554446767143,-0.006792719013599553,-0.0029301926635557957,0.9599928855895996,2019-06-03 12:23:36:524
-0.58990478515625,-1.2776557207107544,-9.871142387390137,0.029967877634010744,-0.007192290965057714,-0.005860385327111591,0.9699921607971191,2019-06-03 12:23:36:534
-0.6161758303642273,-1.2370549440383911,-9.885472297668457,0.0346295476268965,-0.005860385327111591,-0.006792719013599553,0.9800224304199219,2019-06-03 12:23:36:544
-0.6090109944343567,-1.2872087955474854,-9.799494743347168,0.03449635836347351,-0.005327623071933142,-0.00639314758229004,0.9900007247924805,2019-06-03 12:23:36:554
-0.6090109944343567,-1.2298901081085205,-9.820988655090332,0.03236530934275971,-0.007059100141188776,-0.006526337886010328,0.9999938011169434,2019-06-03 12:23:36:564
-0.6066226959228516,-1.2322783470153809,-9.868754386901855,0.03649421604016972,-0.0062599567584211025,-0.005860385327111591,1.0099921226501465,2019-06-03 12:23:36:574
-0.5875164866447449,-1.2322783470153809,-9.883084297180176,0.03516231092237225,-0.004395288865296531,-0.008790577730593063,1.0199952125549316,2019-06-03 12:23:36:584
-0.5636336803436279,-1.2537728548049927,-9.761281967163086,0.03303126190165845,-0.008524196603003837,-0.004262098301501919,1.0300302505493164,2019-06-03 12:23:36:594
-0.6018461585044861,-1.2633260488510132,-9.761281967163086,0.03289807055764086,-0.0027970020997611835,-0.0017314774593671222,1.0400161743164062,2019-06-03 12:23:36:604
-0.5970696210861206,-1.2800439596176147,-9.81860065460205,0.03343083385311661,-0.004262098301501919,-0.0018646680231617348,1.0499968528747559,2019-06-03 12:23:36:614
-0.6400586366653442,-1.248996376991272,-9.80188274383545,0.03396359506799776,-0.0038625266101180813,-0.00492805112047498,1.0599932670593262,2019-06-03 12:23:36:624
-0.6615530848503113,-1.258549451828003,-9.863978385925293,0.0346295476268965,-0.00159828689557251,-0.004262098301501919,1.069990634918213,2019-06-03 12:23:36:634
-0.5851281881332397,-1.2513846158981323,-9.859201431274414,0.03422997775603293,-0.007458672092646939,-0.007458672092646939,1.0800118446350098,2019-06-03 12:23:36:644
-0.635282039642334,-1.2370549440383911,-9.871142387390137,0.03289807055764086,-0.0033297643549396326,-0.005327623071933142,1.090010166168213,2019-06-03 12:23:36:654
-0.5803516507148743,-1.2370549440383911,-9.844871520996094,0.0346295476268965,-0.003063383227350408,-0.009989292544670247,1.09999418258667,2019-06-03 12:23:36:664
-0.6066226959228516,-1.2275018692016602,-9.887861251831055,0.033830405804574776,-0.006792719013599553,-0.008657386906724124,1.109997272491455,2019-06-03 12:23:36:674
-0.5731868147850037,-1.2394431829452515,-9.871142387390137,0.03183254604728396,-0.007192290965057714,-0.0017314774593671222,1.1199913024902344,2019-06-03 12:23:36:684
-0.6090109944343567,-1.2418315410614014,-9.871142387390137,0.03329764250909902,-0.004262098301501919,-0.010388864496128409,1.1300272941589355,2019-06-03 12:23:36:694
-0.5946813225746155,-1.210783839225769,-9.80427074432373,0.031699356783860974,-0.009056959378330936,-0.00785824352395645,1.140031337738037,2019-06-03 12:23:36:704
-0.6520000100135803,-1.2418315410614014,-9.799494743347168,0.032498498606182695,-0.0062599567584211025,-0.008124624651545674,1.150001049041748,2019-06-03 12:23:36:714
-0.5779633522033691,-1.248996376991272,-9.856813430786133,0.0346295476268965,0.0010655245753754797,-0.0062599567584211025,1.1599922180175781,2019-06-03 12:23:36:724
-0.635282039642334,-1.3087033033370972,-9.80904769897461,0.030767021536927064,-0.00159828689557251,-0.005327623071933142,1.1699934005737305,2019-06-03 12:23:36:734
-0.6400586366653442,-1.2036190032958984,-9.835318565368652,0.031965737391301555,-0.00492805112047498,-0.006126766454700816,1.1799921989440918,2019-06-03 12:23:36:744
-0.6066226959228516,-1.282432198524475,-9.837706565856934,0.03223211799874212,-0.005194432248064204,-0.00985610224094996,1.1900229454040527,2019-06-03 12:23:36:754
-0.6018461585044861,-1.258549451828003,-9.835318565368652,0.033564023116539596,-0.000799143447786255,-0.004395288865296531,1.200014591217041,2019-06-03 12:23:36:764
-0.6328938007354736,-1.2609376907348633,-9.852036476135254,0.0346295476268965,0.00013319057192193496,-0.006526337886010328,1.2100000381469727,2019-06-03 12:23:36:774
-0.5731868147850037,-1.2609376907348633,-9.847260475158691,0.028369591908772692,-0.0009323340115808674,-0.007725053220236163,1.2199926376342773,2019-06-03 12:23:36:784
-0.5875164866447449,-1.2394431829452515,-9.890249252319336,0.029301925075112006,-0.0021310491507509593,-0.004528479689165468,1.2299914360046387,2019-06-03 12:23:36:794
-0.5875164866447449,-1.2609376907348633,-9.878307342529297,0.032631689950200285,-0.0023974304083773466,0.0003995717238931275,1.2400116920471191,2019-06-03 12:23:36:804
-0.5707985162734985,-1.282432198524475,-9.837706565856934,0.029301925075112006,-0.005727194503242653,-0.005460813375653429,1.2500886917114258,2019-06-03 12:23:36:814
-0.5827399492263794,-1.2513846158981323,-9.875919342041016,0.02810321130133212,-0.005993575630831878,0.003063383227350408,1.2601542472839355,2019-06-03 12:23:36:824
-0.5469157695770264,-1.3063150644302368,-9.892637252807617,0.031166593488385227,-0.007458672092646939,-0.0017314774593671222,1.270014762878418,2019-06-03 12:23:36:834
-0.58990478515625,-1.2083956003189087,-9.892637252807617,0.02810321130133212,-0.005327623071933142,0.0003995717238931275,1.2800021171569824,2019-06-03 12:23:36:844
-0.5755751132965088,-1.2275018692016602,-9.80904769897461,0.025972162280618324,-0.002663811535966571,0.0034629549187342444,1.2900028228759766,2019-06-03 12:23:36:854
-0.5684102773666382,-1.2275018692016602,-9.813823699951172,0.0303674495854689,-0.006126766454700816,0.001997858586956347,1.3000335693359375,2019-06-03 12:23:36:864
-0.5731868147850037,-1.2155604362487793,-9.80427074432373,0.03183254604728396,-0.00639314758229004,0.0013319057679832855,1.3100032806396484,2019-06-03 12:23:36:874
-0.6018461585044861,-1.2346667051315308,-9.861589431762695,0.03129978483240282,-0.005860385327111591,0.0014650963317778978,1.3199939727783203,2019-06-03 12:23:36:884
-0.5707985162734985,-1.2275018692016602,-9.813823699951172,0.03090021288094465,-0.004794860816754693,-0.002264239844582734,1.3299922943115234,2019-06-03 12:23:36:894
-0.6400586366653442,-1.2370549440383911,-9.83054256439209,0.03409678641201535,-0.005993575630831878,-0.0006659528839916427,1.3400120735168457,2019-06-03 12:23:36:904
-0.6305055022239685,-1.2633260488510132,-9.9117431640625,0.03129978483240282,-0.0003995717238931275,0.0017314774593671222,1.3499932289123535,2019-06-03 12:23:36:914
-0.5827399492263794,-1.2322783470153809,-9.873531341552734,0.029967877634010744,-0.009989292544670247,-0.0023974304083773466,1.3600068092346191,2019-06-03 12:23:36:924
-0.6066226959228516,-1.1988425254821777,-9.83054256439209,0.03343083385311661,-0.006659528709879265,0.0025306209721719587,1.369997501373291,2019-06-03 12:23:36:934
-0.5684102773666382,-1.258549451828003,-9.847260475158691,0.03782612115796719,-0.008657386906724124,-0.00985610224094996,1.3799934387207031,2019-06-03 12:23:36:944
-0.6042344570159912,-1.2895970344543457,-9.895025253295898,0.03236530934275971,-0.005327623071933142,-0.00785824352395645,1.3899922370910645,2019-06-03 12:23:36:954
-0.6400586366653442,-1.2895970344543457,-9.875919342041016,0.033830405804574776,-0.007591862396367225,-0.005860385327111591,1.399991512298584,2019-06-03 12:23:36:964
-0.6066226959228516,-1.2872087955474854,-9.813823699951172,0.03010106897802833,-0.004661669992885756,-0.007192290965057714,1.4099903106689453,2019-06-03 12:23:36:974
-0.6806593537330627,-1.2370549440383911,-9.847260475158691,0.032764881294217875,-0.0027970020997611835,-0.005727194503242653,1.4199938774108887,2019-06-03 12:23:36:984
-0.6543882489204407,-1.3421392440795898,-9.880696296691895,0.03556188079323581,-0.0033297643549396326,-0.008524196603003837,1.4300103187561035,2019-06-03 12:23:36:994
-0.6328938007354736,-1.2681025266647339,-9.91890811920166,0.027304067398415795,-0.006526337886010328,-0.00785824352395645,1.440016269683838,2019-06-03 12:23:37:004
-0.6233406662940979,-1.2800439596176147,-9.847260475158691,0.03409678641201535,-0.005327623071933142,-0.01278629516458008,1.4499945640563965,2019-06-03 12:23:37:014
-0.5660219788551331,-1.2967618703842163,-9.837706565856934,0.033830405804574776,-0.005327623071933142,-0.011454389006485306,1.4599933624267578,2019-06-03 12:23:37:024
-0.5827399492263794,-1.303926706314087,-9.83054256439209,0.03316445324567604,-0.004262098301501919,-0.011188008399044734,1.4699926376342773,2019-06-03 12:23:37:034
-0.599457859992981,-1.2251135110855103,-9.909355163574219,0.0303674495854689,-0.006526337886010328,-0.008391005779134899,1.480029582977295,2019-06-03 12:23:37:044
-0.6376703381538391,-1.2895970344543457,-9.83054256439209,0.03449635836347351,-0.010921626751306857,-0.010122483888687835,1.4900312423706055,2019-06-03 12:23:37:054
-0.5564688444137573,-1.330197811126709,-9.890249252319336,0.028769163860230856,-0.008124624651545674,-0.010921626751306857,1.5000052452087402,2019-06-03 12:23:37:064
-0.5922930240631104,-1.282432198524475,-9.897414207458496,0.03063383227350408,-0.00639314758229004,-0.0010655245753754797,1.5099949836730957,2019-06-03 12:23:37:074
-0.6209523677825928,-1.248996376991272,-9.921297073364258,0.0314329740958258,-0.00492805112047498,-0.004528479689165468,1.5199933052062988,2019-06-03 12:23:37:084
-0.58990478515625,-1.2442197799682617,-9.83054256439209,0.032764881294217875,-0.0062599567584211025,-0.0013319057679832855,1.9601082801818848,2019-06-03 12:23:37:524
-0.6615530848503113,-1.2346667051315308,-9.828153610229492,0.03129978483240282,-0.009190149682051223,0.005594004199522367,1.9700427055358887,2019-06-03 12:23:37:534
-0.58990478515625,-1.2561612129211426,-9.849648475646973,0.0314329740958258,-0.005860385327111591,-0.0009323340115808674,1.980003833770752,2019-06-03 12:23:37:544
-0.6305055022239685,-1.2155604362487793,-9.825765609741211,0.03396359506799776,-0.005194432248064204,0.005727194503242653,1.9899954795837402,2019-06-03 12:23:37:554
-0.5779633522033691,-1.2251135110855103,-9.847260475158691,0.029701497026570163,-0.007591862396367225,-0.0025306209721719587,1.9999947547912598,2019-06-03 12:23:37:564
-0.5707985162734985,-1.2394431829452515,-9.861589431762695,0.033697214460557186,-0.00013319057192193496,0.0011987152041886733,2.0099921226501465,2019-06-03 12:23:37:574
-0.5875164866447449,-1.2275018692016602,-9.813823699951172,0.033564023116539596,-0.007325481268778002,0.00159828689557251,2.0200138092041016,2019-06-03 12:23:37:584
-0.5922930240631104,-1.2322783470153809,-9.847260475158691,0.031699356783860974,-0.0017314774593671222,-0.0014650963317778978,2.0300135612487793,2019-06-03 12:23:37:594
-0.5875164866447449,-1.2513846158981323,-9.866366386413574,0.033697214460557186,-0.0038625266101180813,-0.0003995717238931275,2.0399999618530273,2019-06-03 12:23:37:604
-0.58990478515625,-1.2537728548049927,-9.856813430786133,0.03129978483240282,-0.007192290965057714,-0.001997858586956347,2.049994945526123,2019-06-03 12:23:37:614
-0.6113992929458618,-1.2251135110855103,-9.844871520996094,0.031166593488385227,-0.004661669992885756,-0.0014650963317778978,2.0600132942199707,2019-06-03 12:23:37:624
-0.5851281881332397,-1.2609376907348633,-9.840095520019531,0.03236530934275971,0.00013319057192193496,0.007725053220236163,2.0699920654296875,2019-06-03 12:23:37:634
-0.6281172037124634,-1.213172197341919,-9.842483520507812,0.03129978483240282,-0.0023974304083773466,-0.0017314774593671222,2.080029010772705,2019-06-03 12:23:37:644
-0.5827399492263794,-1.2394431829452515,-9.892637252807617,0.029701497026570163,-0.006792719013599553,-0.005194432248064204,2.0900073051452637,2019-06-03 12:23:37:654
-0.6161758303642273,-1.2179486751556396,-9.852036476135254,0.03502911957835465,-0.004262098301501919,-0.004794860816754693,2.099994659423828,2019-06-03 12:23:37:664
-0.5684102773666382,-1.248996376991272,-9.887861251831055,0.032631689950200285,-0.005993575630831878,-0.009190149682051223,2.1099953651428223,2019-06-03 12:23:37:674
-0.6376703381538391,-1.2394431829452515,-9.789941787719727,0.03090021288094465,-0.0034629549187342444,-0.008923768034313348,2.119992733001709,2019-06-03 12:23:37:684
-0.625728964805603,-1.2251135110855103,-9.892637252807617,0.03316445324567604,-0.005860385327111591,-0.008124624651545674,2.129991054534912,2019-06-03 12:23:37:694
-0.6209523677825928,-1.2442197799682617,-9.873531341552734,0.031965737391301555,-0.002264239844582734,-0.003596145482528857,2.139991283416748,2019-06-03 12:23:37:704
-0.58990478515625,-1.2704908847808838,-9.885472297668457,0.031965737391301555,-0.004794860816754693,-0.007192290965057714,2.1499929428100586,2019-06-03 12:23:37:714
-0.6066226959228516,-1.213172197341919,-9.871142387390137,0.032631689950200285,-0.007591862396367225,-0.007591862396367225,2.1600193977355957,2019-06-03 12:23:37:724
-0.5731868147850037,-1.248996376991272,-9.880696296691895,0.032631689950200285,-0.003995717173912694,-0.005327623071933142,2.169997215270996,2019-06-03 12:23:37:734
-0.5875164866447449,-1.2394431829452515,-9.878307342529297,0.0314329740958258,-0.005594004199522367,-0.009323339985771511,2.1799941062927246,2019-06-03 12:23:37:744
-0.5707985162734985,-1.258549451828003,-9.847260475158691,0.02863597251621327,-0.009456530289491798,-0.005194432248064204,2.189993381500244,2019-06-03 12:23:37:754
-0.5875164866447449,-1.2036190032958984,-9.80904769897461,0.03156616543984339,-0.004661669992885756,-0.005860385327111591,2.1999917030334473,2019-06-03 12:23:37:764
-0.6328938007354736,-1.2442197799682617,-9.866366386413574,0.028502783252790282,-0.004794860816754693,-0.005194432248064204,2.2100090980529785,2019-06-03 12:23:37:774
-0.6066226959228516,-1.2322783470153809,-9.81860065460205,0.032631689950200285,-0.006526337886010328,-0.009456530289491798,2.2200074195861816,2019-06-03 12:23:37:784
-0.6520000100135803,-1.2275018692016602,-9.861589431762695,0.031699356783860974,-0.003995717173912694,-0.005194432248064204,2.230003833770752,2019-06-03 12:23:37:794
-0.5684102773666382,-1.2322783470153809,-9.868754386901855,0.0314329740958258,-0.003596145482528857,-0.009190149682051223,2.2399964332580566,2019-06-03 12:23:37:804
-0.6113992929458618,-1.258549451828003,-9.854424476623535,0.03476273897091409,-0.0034629549187342444,-0.005194432248064204,2.2499938011169434,2019-06-03 12:23:37:814
-0.6042344570159912,-1.2633260488510132,-9.916520118713379,0.031965737391301555,-0.004128907737707306,-0.011188008399044734,2.2600340843200684,2019-06-03 12:23:37:824
-0.5970696210861206,-1.2418315410614014,-9.82337760925293,0.03436316701945592,-0.00785824352395645,-0.012519913516842205,2.2700114250183105,2019-06-03 12:23:37:834
-0.6472234725952148,-1.2704908847808838,-9.828153610229492,0.03223211799874212,-0.004128907737707306,-0.004128907737707306,2.280012607574463,2019-06-03 12:23:37:844
-0.6281172037124634,-1.2919853925704956,-9.832930564880371,0.03129978483240282,0.0011987152041886733,-0.004661669992885756,2.289997100830078,2019-06-03 12:23:37:854
-0.6113992929458618,-1.2991502285003662,-9.844871520996094,0.029834688370587756,-0.004128907737707306,-0.0025306209721719587,2.2999916076660156,2019-06-03 12:23:37:864
-0.6018461585044861,-1.2919853925704956,-9.840095520019531,0.031166593488385227,-0.007192290965057714,-0.0037293360463234696,2.309995174407959,2019-06-03 12:23:37:874
-0.6090109944343567,-1.2418315410614014,-9.80427074432373,0.0314329740958258,-0.004128907737707306,0.0003995717238931275,2.3200011253356934,2019-06-03 12:23:37:884
-0.599457859992981,-1.2322783470153809,-9.83054256439209,0.03396359506799776,-0.007591862396367225,-0.0017314774593671222,2.3300018310546875,2019-06-03 12:23:37:894
-0.5755751132965088,-1.248996376991272,-9.909355163574219,0.030767021536927064,-0.0005327622876877398,-0.0010655245753754797,2.3399930000305176,2019-06-03 12:23:37:904
-0.6209523677825928,-1.2800439596176147,-9.835318565368652,0.03676059872820489,-0.00492805112047498,-0.008923768034313348,2.3499865531921387,2019-06-03 12:23:37:914
-0.6113992929458618,-1.2800439596176147,-9.840095520019531,0.027703639349873955,-0.0050612419443439175,-0.0037293360463234696,2.360013484954834,2019-06-03 12:23:37:924
-0.5779633522033691,-1.2370549440383911,-9.859201431274414,0.03596145482528857,-0.004395288865296531,-0.006792719013599553,2.369995594024658,2019-06-03 12:23:37:934
-0.6018461585044861,-1.282432198524475,-9.840095520019531,0.0346295476268965,-0.005860385327111591,-0.00492805112047498,2.379992961883545,2019-06-03 12:23:37:944
-0.6113992929458618,-1.3134799003601074,-9.902190208435059,0.02610535154404131,-0.0050612419443439175,-0.0029301926635557957,2.38999080657959,2019-06-03 12:23:37:954
-0.5922930240631104,-1.3087033033370972,-9.847260475158691,0.031965737391301555,-0.004262098301501919,-0.002264239844582734,2.399991512298584,2019-06-03 12:23:37:964
-0.5875164866447449,-1.2394431829452515,-9.806659698486328,0.03316445324567604,-0.00639314758229004,-0.006526337886010328,2.4099903106689453,2019-06-03 12:23:37:974
-0.6066226959228516,-1.2776557207107544,-9.828153610229492,0.029967877634010744,-0.002663811535966571,-0.0018646680231617348,2.4199929237365723,2019-06-03 12:23:37:984
-0.5827399492263794,-1.2919853925704956,-9.897414207458496,0.03156616543984339,-0.007059100141188776,-0.005993575630831878,2.4299917221069336,2019-06-03 12:23:37:994
-0.599457859992981,-1.2346667051315308,-9.787552833557129,0.03343083385311661,-0.007325481268778002,-0.005327623071933142,2.440016269683838,2019-06-03 12:23:38:004
-0.5946813225746155,-1.2681025266647339,-9.859201431274414,0.029435116419129593,-0.0011987152041886733,-0.0014650963317778978,2.4500651359558105,2019-06-03 12:23:38:014
-0.5827399492263794,-1.2776557207107544,-9.847260475158691,0.03489593031493167,-0.009056959378330936,-0.003995717173912694,2.460022449493408,2019-06-03 12:23:38:024
-0.5875164866447449,-1.2203370332717896,-9.83054256439209,0.03090021288094465,-0.0017314774593671222,-0.004661669992885756,2.469998359680176,2019-06-03 12:23:38:034
-0.5636336803436279,-1.3134799003601074,-9.868754386901855,0.03329764250909902,-0.006126766454700816,-0.004395288865296531,2.479994297027588,2019-06-03 12:23:38:044
-0.635282039642334,-1.2776557207107544,-9.866366386413574,0.032498498606182695,-0.005727194503242653,0.0,2.489999294281006,2019-06-03 12:23:38:054
-0.6185641288757324,-1.294373631477356,-9.856813430786133,0.028369591908772692,-0.0050612419443439175,-0.00159828689557251,2.500075340270996,2019-06-03 12:23:38:064
-0.6424468755722046,-1.2609376907348633,-9.806659698486328,0.03582826348127098,-0.0014650963317778978,-0.0038625266101180813,2.5101141929626465,2019-06-03 12:23:38:074
-0.6137875318527222,-1.2513846158981323,-9.81860065460205,0.03090021288094465,-0.006792719013599553,-0.003596145482528857,2.5200114250183105,2019-06-03 12:23:38:084
-0.6066226959228516,-1.2418315410614014,-9.825765609741211,0.029701497026570163,-0.008657386906724124,-0.008524196603003837,2.529999256134033,2019-06-03 12:23:38:094
-0.5851281881332397,-1.2800439596176147,-9.782776832580566,0.031033404224962244,-0.005594004199522367,-0.006126766454700816,2.5399928092956543,2019-06-03 12:23:38:104
-0.5779633522033691,-1.282432198524475,-9.847260475158691,0.033830405804574776,-0.005327623071933142,-0.005194432248064204,2.5499930381774902,2019-06-03 12:23:38:114
-0.5755751132965088,-1.2776557207107544,-9.892637252807617,0.03569507213725339,-0.006925909837468489,-0.002663811535966571,2.5600295066833496,2019-06-03 12:23:38:124
-0.5707985162734985,-1.246608018875122,-9.902190208435059,0.028769163860230856,-0.0050612419443439175,-0.005194432248064204,2.570021152496338,2019-06-03 12:23:38:134
-0.6090109944343567,-1.2800439596176147,-9.887861251831055,0.03489593031493167,-0.007325481268778002,-0.0018646680231617348,2.5799999237060547,2019-06-03 12:23:38:144
-0.5827399492263794,-1.258549451828003,-9.813823699951172,0.033564023116539596,-0.007725053220236163,-0.004262098301501919,2.589993476867676,2019-06-03 12:23:38:154
-0.6161758303642273,-1.2919853925704956,-9.852036476135254,0.03129978483240282,-0.003995717173912694,-0.0029301926635557957,2.5999889373779297,2019-06-03 12:23:38:164
-0.599457859992981,-1.258549451828003,-9.828153610229492,0.032631689950200285,-0.007458672092646939,-0.007725053220236163,2.6099953651428223,2019-06-03 12:23:38:174
-0.6185641288757324,-1.2322783470153809,-9.80188274383545,0.03662740738418731,-0.006659528709879265,-0.006126766454700816,2.620011806488037,2019-06-03 12:23:38:184
-0.6018461585044861,-1.2442197799682617,-9.81143569946289,0.032764881294217875,-0.0027970020997611835,-0.0013319057679832855,2.6299986839294434,2019-06-03 12:23:38:194
-0.6591648459434509,-1.258549451828003,-9.854424476623535,0.033830405804574776,-0.007192290965057714,-0.005594004199522367,2.6399922370910645,2019-06-03 12:23:38:204
-0.599457859992981,-1.2513846158981323,-9.799494743347168,0.03183254604728396,-0.008391005779134899,-0.005460813375653429,2.649991512298584,2019-06-03 12:23:38:214
-0.6233406662940979,-1.2728791236877441,-9.854424476623535,0.03316445324567604,-0.005860385327111591,-0.006126766454700816,2.6599926948547363,2019-06-03 12:23:38:224
-0.5827399492263794,-1.3063150644302368,-9.81860065460205,0.030767021536927064,-0.0010655245753754797,0.0006659528839916427,2.6700096130371094,2019-06-03 12:23:38:234
-0.5803516507148743,-1.3158681392669678,-9.820988655090332,0.032631689950200285,-0.006792719013599553,-0.005327623071933142,2.680063247680664,2019-06-03 12:23:38:244
-0.6639413833618164,-1.3015384674072266,-9.849648475646973,0.026771304102940045,-0.004395288865296531,-0.009456530289491798,2.69002103805542,2019-06-03 12:23:38:254
-0.58990478515625,-1.2657142877578735,-9.837706565856934,0.032498498606182695,-0.002663811535966571,-0.006526337886010328,2.700000286102295,2019-06-03 12:23:38:264
-0.6018461585044861,-1.2872087955474854,-9.871142387390137,0.031033404224962244,-0.0009323340115808674,-0.008790577730593063,2.709993839263916,2019-06-03 12:23:38:274
-0.6305055022239685,-1.303926706314087,-9.770834922790527,0.026371734232076487,-0.00639314758229004,-0.005727194503242653,2.7199912071228027,2019-06-03 12:23:38:284
-0.6161758303642273,-1.2418315410614014,-9.81621265411377,0.02903554446767143,-0.008657386906724124,-0.006126766454700816,2.7299914360046387,2019-06-03 12:23:38:294
-0.635282039642334,-1.2657142877578735,-9.854424476623535,0.0346295476268965,-0.006526337886010328,-0.004128907737707306,2.7399916648864746,2019-06-03 12:23:38:304
-0.5636336803436279,-1.2394431829452515,-9.863978385925293,0.03516231092237225,-0.004528479689165468,-0.005460813375653429,2.7500433921813965,2019-06-03 12:23:38:314
-0.5970696210861206,-1.2394431829452515,-9.892637252807617,0.03556188079323581,-0.002264239844582734,-0.0014650963317778978,2.7601675987243652,2019-06-03 12:23:38:324
-0.599457859992981,-1.2609376907348633,-9.871142387390137,0.03236530934275971,-0.00319657379114502,-0.008524196603003837,2.770042896270752,2019-06-03 12:23:38:334
-0.6161758303642273,-1.2442197799682617,-9.868754386901855,0.032498498606182695,-0.003596145482528857,-0.00492805112047498,3.1401028633117676,2019-06-03 12:23:38:704
-0.5684102773666382,-1.2442197799682617,-9.880696296691895,0.03129978483240282,-0.005860385327111591,-0.009056959378330936,3.1500115394592285,2019-06-03 12:23:38:714
-0.5875164866447449,-1.282432198524475,-9.770834922790527,0.03542869361040742,-0.0037293360463234696,0.0003995717238931275,3.159994602203369,2019-06-03 12:23:38:724
-0.6233406662940979,-1.246608018875122,-9.766058921813965,0.02863597251621327,-0.005460813375653429,-0.011054817055027146,3.169991970062256,2019-06-03 12:23:38:734
-0.5827399492263794,-1.22272527217865,-9.866366386413574,0.03343083385311661,-0.008124624651545674,-0.00159828689557251,3.1799912452697754,2019-06-03 12:23:38:744
-0.5875164866447449,-1.2370549440383911,-9.887861251831055,0.0303674495854689,-0.0050612419443439175,-0.005327623071933142,3.1900038719177246,2019-06-03 12:23:38:754
-0.6066226959228516,-1.2394431829452515,-9.871142387390137,0.03289807055764086,-0.005993575630831878,-0.0017314774593671222,3.1999945640563965,2019-06-03 12:23:38:764
-0.6233406662940979,-1.2394431829452515,-9.849648475646973,0.033830405804574776,-0.006126766454700816,-0.007325481268778002,3.209991455078125,2019-06-03 12:23:38:774
-0.6185641288757324,-1.2967618703842163,-9.835318565368652,0.03422997775603293,-0.00639314758229004,-0.00639314758229004,3.219992160797119,2019-06-03 12:23:38:784
-0.58990478515625,-1.258549451828003,-9.868754386901855,0.03289807055764086,-0.004528479689165468,-0.008790577730593063,3.2299933433532715,2019-06-03 12:23:38:794
-0.6185641288757324,-1.2394431829452515,-9.883084297180176,0.029701497026570163,-0.0033297643549396326,-0.002663811535966571,3.239992618560791,2019-06-03 12:23:38:804
-0.5922930240631104,-1.246608018875122,-9.828153610229492,0.03129978483240282,-0.004395288865296531,-0.005993575630831878,3.249992847442627,2019-06-03 12:23:38:814
-0.6090109944343567,-1.2418315410614014,-9.866366386413574,0.029967877634010744,-0.005194432248064204,-0.005460813375653429,3.260007381439209,2019-06-03 12:23:38:824
-0.599457859992981,-1.246608018875122,-9.832930564880371,0.033564023116539596,-0.005993575630831878,-0.011454389006485306,3.2700047492980957,2019-06-03 12:23:38:834
-0.6090109944343567,-1.2776557207107544,-9.785164833068848,0.03090021288094465,-0.010388864496128409,-0.004262098301501919,3.2799954414367676,2019-06-03 12:23:38:844
-0.6113992929458618,-1.2633260488510132,-9.852036476135254,0.029967877634010744,-0.004528479689165468,-0.0038625266101180813,3.2900147438049316,2019-06-03 12:23:38:854
-0.6161758303642273,-1.2752673625946045,-9.766058921813965,0.03502911957835465,-0.006925909837468489,-0.005460813375653429,3.2999930381774902,2019-06-03 12:23:38:864
-0.625728964805603,-1.2657142877578735,-9.82337760925293,0.03569507213725339,-0.004262098301501919,-0.0017314774593671222,3.310006618499756,2019-06-03 12:23:38:874
-0.6113992929458618,-1.2681025266647339,-9.840095520019531,0.03303126190165845,-0.005594004199522367,-0.006659528709879265,3.3200106620788574,2019-06-03 12:23:38:884
-0.6090109944343567,-1.3182563781738281,-9.820988655090332,0.027836828613296942,-0.005327623071933142,-0.006126766454700816,3.3300132751464844,2019-06-03 12:23:38:894
-0.6018461585044861,-1.2513846158981323,-9.890249252319336,0.03090021288094465,-0.0013319057679832855,-0.0062599567584211025,3.339999198913574,2019-06-03 12:23:38:904
-0.5970696210861206,-1.258549451828003,-9.863978385925293,0.032631689950200285,-0.005860385327111591,-0.0002663811438438699,3.349987506866455,2019-06-03 12:23:38:914
-0.5851281881332397,-1.282432198524475,-9.83054256439209,0.029301925075112006,-0.004262098301501919,-0.0002663811438438699,3.3599953651428223,2019-06-03 12:23:38:924
-0.5803516507148743,-1.2752673625946045,-9.854424476623535,0.029301925075112006,-0.005594004199522367,-0.00492805112047498,3.370009422302246,2019-06-03 12:23:38:934
-0.6137875318527222,-1.2681025266647339,-9.794717788696289,0.03449635836347351,-0.005993575630831878,-0.005460813375653429,3.3800430297851562,2019-06-03 12:23:38:944
-0.6209523677825928,-1.2752673625946045,-9.897414207458496,0.033697214460557186,-0.008790577730593063,-0.006659528709879265,3.390026569366455,2019-06-03 12:23:38:954
-0.6113992929458618,-1.2872087955474854,-9.81621265411377,0.029967877634010744,-0.004528479689165468,-0.00159828689557251,3.399998188018799,2019-06-03 12:23:38:964
-0.6018461585044861,-1.284820556640625,-9.835318565368652,0.026771304102940045,-0.0037293360463234696,-0.00013319057192193496,3.4099926948547363,2019-06-03 12:23:38:974
-0.6185641288757324,-1.258549451828003,-9.835318565368652,0.03556188079323581,-0.004528479689165468,-0.00492805112047498,3.4199914932250977,2019-06-03 12:23:38:984
-0.5946813225746155,-1.2370549440383911,-9.871142387390137,0.03329764250909902,-0.006925909837468489,-0.0037293360463234696,3.4300103187561035,2019-06-03 12:23:38:994
-0.6161758303642273,-1.2322783470153809,-9.844871520996094,0.0303674495854689,-0.0038625266101180813,-0.0050612419443439175,3.440014362335205,2019-06-03 12:23:39:004
-0.58990478515625,-1.2298901081085205,-9.861589431762695,0.0346295476268965,-0.004661669992885756,-0.002663811535966571,3.449998378753662,2019-06-03 12:23:39:014
-0.5684102773666382,-1.2346667051315308,-9.844871520996094,0.03316445324567604,-0.0014650963317778978,-0.004794860816754693,3.459993839263916,2019-06-03 12:23:39:024
-0.6090109944343567,-1.2704908847808838,-9.840095520019531,0.028769163860230856,-0.0027970020997611835,-0.005194432248064204,3.4699902534484863,2019-06-03 12:23:39:034
-0.6042344570159912,-1.1869010925292969,-9.81860065460205,0.03329764250909902,-0.0033297643549396326,-0.003596145482528857,3.4799914360046387,2019-06-03 12:23:39:044
-0.599457859992981,-1.2537728548049927,-9.806659698486328,0.03449635836347351,-0.005327623071933142,-0.003063383227350408,3.4900264739990234,2019-06-03 12:23:39:054
-0.6137875318527222,-1.2681025266647339,-9.861589431762695,0.03529550226638983,-0.0037293360463234696,-0.0029301926635557957,3.500000476837158,2019-06-03 12:23:39:064
-0.58990478515625,-1.2681025266647339,-9.842483520507812,0.032764881294217875,-0.00639314758229004,-0.006659528709879265,3.5099921226501465,2019-06-03 12:23:39:074
-0.599457859992981,-1.258549451828003,-9.883084297180176,0.029967877634010744,-0.0027970020997611835,-0.008257815475414612,3.5199904441833496,2019-06-03 12:23:39:084
-0.6137875318527222,-1.2370549440383911,-9.80904769897461,0.031965737391301555,-0.008657386906724124,-0.0050612419443439175,3.5299911499023438,2019-06-03 12:23:39:094
-0.6042344570159912,-1.2513846158981323,-9.80427074432373,0.03556188079323581,-0.007325481268778002,-0.008923768034313348,3.5399909019470215,2019-06-03 12:23:39:104
-0.6137875318527222,-1.2370549440383911,-9.878307342529297,0.03183254604728396,0.002663811535966571,-0.009989292544670247,3.5499911308288574,2019-06-03 12:23:39:114
-0.6328938007354736,-1.2609376907348633,-9.878307342529297,0.029834688370587756,-0.006925909837468489,-0.007591862396367225,3.5600075721740723,2019-06-03 12:23:39:124
-0.6042344570159912,-1.2728791236877441,-9.854424476623535,0.029435116419129593,-0.004262098301501919,-0.004528479689165468,3.570004940032959,2019-06-03 12:23:39:134
-0.6113992929458618,-1.2752673625946045,-9.866366386413574,0.03129978483240282,-0.0038625266101180813,-0.005860385327111591,3.579995632171631,2019-06-03 12:23:39:144
-0.5707985162734985,-1.2418315410614014,-9.832930564880371,0.03183254604728396,-0.006659528709879265,-0.009456530289491798,3.59000825881958,2019-06-03 12:23:39:154
-0.5851281881332397,-1.246608018875122,-9.875919342041016,0.031965737391301555,-0.007591862396367225,-0.008257815475414612,3.5999913215637207,2019-06-03 12:23:39:164
-0.6209523677825928,-1.2609376907348633,-9.847260475158691,0.03476273897091409,-0.005860385327111591,-0.008124624651545674,3.6100125312805176,2019-06-03 12:23:39:174
-0.6018461585044861,-1.2418315410614014,-9.840095520019531,0.03396359506799776,-0.00319657379114502,-0.00639314758229004,3.6200051307678223,2019-06-03 12:23:39:184
-0.5970696210861206,-1.2681025266647339,-9.842483520507812,0.029967877634010744,-0.0050612419443439175,-0.0018646680231617348,3.6299962997436523,2019-06-03 12:23:39:194
-0.6161758303642273,-1.2776557207107544,-9.868754386901855,0.03329764250909902,-0.003596145482528857,-0.0017314774593671222,3.639993667602539,2019-06-03 12:23:39:204
-0.599457859992981,-1.2919853925704956,-9.909355163574219,0.030500640929486494,-0.00492805112047498,-0.006925909837468489,3.649991512298584,2019-06-03 12:23:39:214
-0.5755751132965088,-1.248996376991272,-9.825765609741211,0.02690449544695763,-0.004528479689165468,-0.004794860816754693,3.65999174118042,2019-06-03 12:23:39:224
-0.6161758303642273,-1.2251135110855103,-9.854424476623535,0.031965737391301555,-0.00319657379114502,-0.010655246143866284,3.6700124740600586,2019-06-03 12:23:39:234
-0.58990478515625,-1.2919853925704956,-9.82337760925293,0.03236530934275971,-0.009722911937229673,-0.007059100141188776,3.679999828338623,2019-06-03 12:23:39:244
-0.5707985162734985,-1.2537728548049927,-9.883084297180176,0.031965737391301555,-0.009190149682051223,-0.009589721633509386,3.690019130706787,2019-06-03 12:23:39:254
-0.5851281881332397,-1.2633260488510132,-9.794717788696289,0.03343083385311661,-0.006659528709879265,-0.004528479689165468,3.6999988555908203,2019-06-03 12:23:39:264
-0.5803516507148743,-1.2537728548049927,-9.880696296691895,0.03223211799874212,-0.0027970020997611835,-0.005594004199522367,3.709993839263916,2019-06-03 12:23:39:274
-0.6066226959228516,-1.3182563781738281,-9.80904769897461,0.0314329740958258,-0.005594004199522367,-0.007192290965057714,4.160092830657959,2019-06-03 12:23:39:724
-0.6137875318527222,-1.2442197799682617,-9.873531341552734,0.03449635836347351,-0.00785824352395645,-0.005860385327111591,4.170008659362793,2019-06-03 12:23:39:734
-0.6209523677825928,-1.2561612129211426,-9.863978385925293,0.032498498606182695,-0.007059100141188776,-0.009589721633509386,4.179991245269775,2019-06-03 12:23:39:744
-0.5827399492263794,-1.284820556640625,-9.820988655090332,0.03129978483240282,-0.006925909837468489,-0.012120341565384043,4.190012454986572,2019-06-03 12:23:39:754
-0.5731868147850037,-1.2322783470153809,-9.81143569946289,0.03436316701945592,-0.0023974304083773466,-0.0050612419443439175,4.200003623962402,2019-06-03 12:23:39:764
-0.6090109944343567,-1.2872087955474854,-9.813823699951172,0.03396359506799776,-0.006126766454700816,-0.00492805112047498,4.210017681121826,2019-06-03 12:23:39:774
-0.5779633522033691,-1.2513846158981323,-9.878307342529297,0.03502911957835465,-0.007059100141188776,-0.007192290965057714,4.220016002655029,2019-06-03 12:23:39:784
-0.5875164866447449,-1.2298901081085205,-9.837706565856934,0.032764881294217875,-0.0010655245753754797,0.00013319057192193496,4.229997158050537,2019-06-03 12:23:39:794
-0.5875164866447449,-1.2346667051315308,-9.878307342529297,0.03236530934275971,-0.004128907737707306,-0.010655246143866284,4.239990711212158,2019-06-03 12:23:39:804
-0.6424468755722046,-1.2728791236877441,-9.887861251831055,0.02956830776314718,-0.006925909837468489,-0.0033297643549396326,4.2499918937683105,2019-06-03 12:23:39:814
-0.6066226959228516,-1.294373631477356,-9.852036476135254,0.032498498606182695,-0.008391005779134899,-0.005594004199522367,4.260221004486084,2019-06-03 12:23:39:824
-0.6305055022239685,-1.2537728548049927,-9.81860065460205,0.031033404224962244,-0.005993575630831878,-0.00319657379114502,4.2700371742248535,2019-06-03 12:23:39:834
-0.5803516507148743,-1.2537728548049927,-9.863978385925293,0.03316445324567604,-0.0027970020997611835,-0.004128907737707306,4.280020236968994,2019-06-03 12:23:39:844
-0.6161758303642273,-1.284820556640625,-9.81860065460205,0.02903554446767143,-0.0033297643549396326,-0.0062599567584211025,4.290036678314209,2019-06-03 12:23:39:854
-0.6113992929458618,-1.2275018692016602,-9.782776832580566,0.0303674495854689,-0.005327623071933142,-0.0018646680231617348,4.300013542175293,2019-06-03 12:23:39:864
-0.5970696210861206,-1.2752673625946045,-9.849648475646973,0.03343083385311661,-0.0018646680231617348,-0.004794860816754693,4.31000280380249,2019-06-03 12:23:39:874
-0.6448351740837097,-1.2633260488510132,-9.849648475646973,0.031965737391301555,-0.002663811535966571,-0.0011987152041886733,4.319995403289795,2019-06-03 12:23:39:884
-0.5922930240631104,-1.2919853925704956,-9.825765609741211,0.03289807055764086,-0.006659528709879265,-0.0037293360463234696,4.329992294311523,2019-06-03 12:23:39:894
-0.5803516507148743,-1.258549451828003,-9.875919342041016,0.033830405804574776,-0.006925909837468489,-0.007325481268778002,4.339992523193359,2019-06-03 12:23:39:904
-0.625728964805603,-1.248996376991272,-9.80904769897461,0.031965737391301555,-0.002663811535966571,-0.0018646680231617348,4.349987983703613,2019-06-03 12:23:39:914
-0.5707985162734985,-1.248996376991272,-9.856813430786133,0.03223211799874212,-0.005460813375653429,-0.0011987152041886733,4.3599982261657715,2019-06-03 12:23:39:924
-0.6305055022239685,-1.248996376991272,-9.856813430786133,0.03396359506799776,-0.0037293360463234696,-0.005993575630831878,4.369994163513184,2019-06-03 12:23:39:934
-0.6305055022239685,-1.2704908847808838,-9.890249252319336,0.033830405804574776,-0.005194432248064204,-0.005327623071933142,4.3799920082092285,2019-06-03 12:23:39:944
-0.635282039642334,-1.258549451828003,-9.842483520507812,0.031699356783860974,-0.009056959378330936,-0.005594004199522367,4.390020847320557,2019-06-03 12:23:39:954
-0.5922930240631104,-1.2370549440383911,-9.916520118713379,0.03516231092237225,-0.005727194503242653,-0.007725053220236163,4.399998188018799,2019-06-03 12:23:39:964
-0.5779633522033691,-1.2728791236877441,-9.742176055908203,0.028236400564755106,-0.004395288865296531,-0.009456530289491798,4.409992694854736,2019-06-03 12:23:39:974
-0.58990478515625,-1.2513846158981323,-9.81860065460205,0.03409678641201535,-0.005993575630831878,-0.007991434347825389,4.419992446899414,2019-06-03 12:23:39:984
-0.5684102773666382,-1.294373631477356,-9.852036476135254,0.03063383227350408,-0.001997858586956347,-0.0038625266101180813,4.429994106292725,2019-06-03 12:23:39:994
-0.6042344570159912,-1.2251135110855103,-9.842483520507812,0.029834688370587756,-0.0038625266101180813,-0.003063383227350408,4.440006732940674,2019-06-03 12:23:40:004
-0.58990478515625,-1.2657142877578735,-9.883084297180176,0.03529550226638983,-0.010255674192408122,-0.007991434347825389,4.450014591217041,2019-06-03 12:23:40:014
-0.6185641288757324,-1.2728791236877441,-9.840095520019531,0.03209892873531914,-0.003596145482528857,-0.006126766454700816,4.460001468658447,2019-06-03 12:23:40:024
-0.5946813225746155,-1.1845128536224365,-9.844871520996094,0.033830405804574776,-0.005194432248064204,0.0002663811438438699,4.469992160797119,2019-06-03 12:23:40:034
-0.6496117115020752,-1.248996376991272,-9.863978385925293,0.03636102469615213,-0.008524196603003837,-0.005993575630831878,4.479992389678955,2019-06-03 12:23:40:044
-0.6090109944343567,-1.2728791236877441,-9.82337760925293,0.02690449544695763,-0.004395288865296531,-0.0027970020997611835,4.490009784698486,2019-06-03 12:23:40:054
-0.625728964805603,-1.2322783470153809,-9.92607307434082,0.03329764250909902,-0.005460813375653429,-0.00319657379114502,4.500020503997803,2019-06-03 12:23:40:064
-0.6137875318527222,-1.2251135110855103,-9.813823699951172,0.03502911957835465,-0.005860385327111591,-0.009722911937229673,4.51001501083374,2019-06-03 12:23:40:074
-0.6113992929458618,-1.294373631477356,-9.895025253295898,0.03449635836347351,-0.00159828689557251,-0.007192290965057714,4.520000457763672,2019-06-03 12:23:40:084
-0.58990478515625,-1.246608018875122,-9.890249252319336,0.02956830776314718,-0.007725053220236163,-0.005327623071933142,4.529991626739502,2019-06-03 12:23:40:094
-0.6018461585044861,-1.2394431829452515,-9.787552833557129,0.0303674495854689,-0.0033297643549396326,-0.006126766454700816,4.539993762969971,2019-06-03 12:23:40:104
-0.6090109944343567,-1.2513846158981323,-9.892637252807617,0.03409678641201535,-0.005327623071933142,-0.0029301926635557957,4.549992084503174,2019-06-03 12:23:40:114
-0.5827399492263794,-1.2776557207107544,-9.792329788208008,0.0314329740958258,-0.007192290965057714,-0.0025306209721719587,4.5600152015686035,2019-06-03 12:23:40:124
-0.6305055022239685,-1.22272527217865,-9.852036476135254,0.03223211799874212,-0.006659528709879265,-0.005194432248064204,4.5699992179870605,2019-06-03 12:23:40:134
-0.6042344570159912,-1.2275018692016602,-9.782776832580566,0.031166593488385227,-0.005993575630831878,-0.0010655245753754797,4.579992771148682,2019-06-03 12:23:40:144
-0.6161758303642273,-1.2537728548049927,-9.871142387390137,0.031166593488385227,-0.004528479689165468,-0.001997858586956347,4.5900092124938965,2019-06-03 12:23:40:154
-0.6018461585044861,-1.22272527217865,-9.782776832580566,0.03236530934275971,-0.0062599567584211025,0.0021310491507509593,4.5999932289123535,2019-06-03 12:23:40:164
-0.6185641288757324,-1.2060073614120483,-9.863978385925293,0.03449635836347351,-0.003596145482528857,-0.0018646680231617348,4.609996318817139,2019-06-03 12:23:40:174
-0.5875164866447449,-1.2561612129211426,-9.837706565856934,0.03449635836347351,-0.0050612419443439175,-0.004395288865296531,4.619993686676025,2019-06-03 12:23:40:184
-0.58990478515625,-1.2800439596176147,-9.852036476135254,0.03316445324567604,-0.004262098301501919,-0.0029301926635557957,4.630063533782959,2019-06-03 12:23:40:194
-0.6281172037124634,-1.2561612129211426,-9.916520118713379,0.03609464616930616,-0.00159828689557251,-0.0038625266101180813,4.640023231506348,2019-06-03 12:23:40:204
-0.6161758303642273,-1.2728791236877441,-9.806659698486328,0.03129978483240282,-0.004661669992885756,-0.00319657379114502,4.6500091552734375,2019-06-03 12:23:40:214
-0.5707985162734985,-1.2657142877578735,-9.828153610229492,0.03449635836347351,-0.006659528709879265,-0.0003995717238931275,4.659992694854736,2019-06-03 12:23:40:224
-0.6137875318527222,-1.2704908847808838,-9.80188274383545,0.03156616543984339,-0.004528479689165468,-0.006526337886010328,4.669992923736572,2019-06-03 12:23:40:234
-0.6137875318527222,-1.2633260488510132,-9.777999877929688,0.03329764250909902,-0.004528479689165468,-0.003596145482528857,4.679991245269775,2019-06-03 12:23:40:244
-0.5970696210861206,-1.2322783470153809,-9.82337760925293,0.03063383227350408,-0.008790577730593063,-0.00785824352395645,4.690030574798584,2019-06-03 12:23:40:254
-0.5970696210861206,-1.2513846158981323,-9.854424476623535,0.02903554446767143,-0.00159828689557251,0.0005327622876877398,4.700001239776611,2019-06-03 12:23:40:264
-0.5875164866447449,-1.2275018692016602,-9.897414207458496,0.032764881294217875,-0.005194432248064204,-0.004794860816754693,4.7099928855896,2019-06-03 12:23:40:274
-0.5779633522033691,-1.2442197799682617,-9.885472297668457,0.03316445324567604,-0.00319657379114502,-0.009323339985771511,4.719991207122803,2019-06-03 12:23:40:284
-0.6137875318527222,-1.2704908847808838,-9.906967163085938,0.030767021536927064,-0.00319657379114502,0.0017314774593671222,4.729990482330322,2019-06-03 12:23:40:294
-0.6281172037124634,-1.22272527217865,-9.842483520507812,0.03476273897091409,-0.007591862396367225,-0.008391005779134899,4.739991664886475,2019-06-03 12:23:40:304
-0.6066226959228516,-1.2728791236877441,-9.895025253295898,0.033564023116539596,-0.009190149682051223,-0.00319657379114502,4.749992370605469,2019-06-03 12:23:40:314
-0.6018461585044861,-1.294373631477356,-9.949955940246582,0.03622783751332374,-0.004528479689165468,-0.011720770654223183,4.76001501083374,2019-06-03 12:23:40:324
-0.6281172037124634,-1.2776557207107544,-9.840095520019531,0.031166593488385227,-0.005460813375653429,-0.004661669992885756,4.770005702972412,2019-06-03 12:23:40:334
-0.6209523677825928,-1.2776557207107544,-9.83054256439209,0.032498498606182695,-0.0062599567584211025,-0.005727194503242653,4.779996871948242,2019-06-03 12:23:40:344
-0.5851281881332397,-1.2752673625946045,-9.875919342041016,0.0314329740958258,-0.005594004199522367,-0.004395288865296531,4.789991855621338,2019-06-03 12:23:40:354
-0.625728964805603,-1.213172197341919,-9.835318565368652,0.02956830776314718,-0.005327623071933142,-0.007192290965057714,5.310165882110596,2019-06-03 12:23:40:874
-0.5803516507148743,-1.2633260488510132,-9.890249252319336,0.03409678641201535,-0.006659528709879265,0.0018646680231617348,5.320024490356445,2019-06-03 12:23:40:884
-0.5827399492263794,-1.258549451828003,-9.859201431274414,0.029834688370587756,-0.004528479689165468,-0.0009323340115808674,5.32999849319458,2019-06-03 12:23:40:894
-0.6113992929458618,-1.246608018875122,-9.854424476623535,0.03396359506799776,-0.00985610224094996,-0.00492805112047498,5.340013027191162,2019-06-03 12:23:40:904
-0.6161758303642273,-1.284820556640625,-9.849648475646973,0.033564023116539596,-0.009722911937229673,-0.009323339985771511,5.349989891052246,2019-06-03 12:23:40:914
-0.5922930240631104,-1.2800439596176147,-9.878307342529297,0.0346295476268965,-0.003596145482528857,-0.0009323340115808674,5.360013484954834,2019-06-03 12:23:40:924
-0.6090109944343567,-1.2442197799682617,-9.875919342041016,0.02916873581168902,0.0009323340115808674,-0.0021310491507509593,5.370009899139404,2019-06-03 12:23:40:934
-0.5516923069953918,-1.248996376991272,-9.854424476623535,0.0303674495854689,-0.010655246143866284,-0.005327623071933142,5.379997253417969,2019-06-03 12:23:40:944
-0.6233406662940979,-1.22272527217865,-9.842483520507812,0.02557259032916016,-0.007325481268778002,-0.0023974304083773466,5.389991283416748,2019-06-03 12:23:40:954
-0.5779633522033691,-1.2609376907348633,-9.81860065460205,0.03316445324567604,-0.005594004199522367,-0.009323339985771511,5.399991512298584,2019-06-03 12:23:40:964
-0.6520000100135803,-1.2633260488510132,-9.81143569946289,0.03289807055764086,-0.002264239844582734,-0.007059100141188776,5.4100117683410645,2019-06-03 12:23:40:974
-0.5731868147850037,-1.2394431829452515,-9.828153610229492,0.03236530934275971,-0.003995717173912694,-0.0027970020997611835,5.420010089874268,2019-06-03 12:23:40:984
-0.6090109944343567,-1.303926706314087,-9.875919342041016,0.03289807055764086,-0.008923768034313348,-0.0050612419443439175,5.429999828338623,2019-06-03 12:23:40:994
-0.5922930240631104,-1.282432198524475,-9.820988655090332,0.027970019957314532,-0.004395288865296531,-0.0011987152041886733,5.440014362335205,2019-06-03 12:23:41:004
-0.5946813225746155,-1.2513846158981323,-9.825765609741211,0.03129978483240282,-0.006126766454700816,-0.005194432248064204,5.4499945640563965,2019-06-03 12:23:41:014
-0.5731868147850037,-1.2561612129211426,-9.906967163085938,0.03489593031493167,-0.008790577730593063,-0.007458672092646939,5.4599928855896,2019-06-03 12:23:41:024
-0.58990478515625,-1.2370549440383911,-9.81860065460205,0.026371734232076487,-0.0018646680231617348,-0.005460813375653429,5.4700093269348145,2019-06-03 12:23:41:034
-0.58990478515625,-1.2418315410614014,-9.83054256439209,0.031965737391301555,-0.004262098301501919,-0.0034629549187342444,5.4799981117248535,2019-06-03 12:23:41:044
-0.5827399492263794,-1.2537728548049927,-9.904579162597656,0.03090021288094465,-0.0014650963317778978,-0.007458672092646939,5.490002155303955,2019-06-03 12:23:41:054
-0.6137875318527222,-1.2346667051315308,-9.832930564880371,0.0314329740958258,-0.0034629549187342444,-0.003995717173912694,5.499996185302734,2019-06-03 12:23:41:064
-0.6161758303642273,-1.2513846158981323,-9.866366386413574,0.030500640929486494,-0.005993575630831878,-0.005460813375653429,5.509995460510254,2019-06-03 12:23:41:074
-0.5779633522033691,-1.2370549440383911,-9.844871520996094,0.0314329740958258,-0.00492805112047498,-0.003596145482528857,5.519991874694824,2019-06-03 12:23:41:084
-0.6137875318527222,-1.2346667051315308,-9.890249252319336,0.033830405804574776,-0.007325481268778002,-0.0013319057679832855,5.529994487762451,2019-06-03 12:23:41:094
-0.5779633522033691,-1.2537728548049927,-9.825765609741211,0.03316445324567604,-0.006126766454700816,-0.007059100141188776,5.540014266967773,2019-06-03 12:23:41:104
-0.6233406662940979,-1.2681025266647339,-9.785164833068848,0.0314329740958258,-0.004794860816754693,-0.007059100141188776,5.54999303817749,2019-06-03 12:23:41:114
-0.6185641288757324,-1.3015384674072266,-9.871142387390137,0.03329764250909902,-0.005993575630831878,-0.0010655245753754797,5.55999231338501,2019-06-03 12:23:41:124
-0.6233406662940979,-1.2657142877578735,-9.825765609741211,0.033564023116539596,-0.006659528709879265,-0.004661669992885756,5.569991111755371,2019-06-03 12:23:41:134
-0.5922930240631104,-1.284820556640625,-9.842483520507812,0.0314329740958258,-0.007192290965057714,-0.004661669992885756,5.579991817474365,2019-06-03 12:23:41:144
-0.6209523677825928,-1.2681025266647339,-9.868754386901855,0.03223211799874212,-0.007991434347825389,-0.005727194503242653,5.590000629425049,2019-06-03 12:23:41:154
-0.6185641288757324,-1.2609376907348633,-9.875919342041016,0.03289807055764086,-0.0038625266101180813,-0.004128907737707306,5.599989891052246,2019-06-03 12:23:41:164
-0.6137875318527222,-1.2681025266647339,-9.859201431274414,0.02916873581168902,-0.005594004199522367,-0.00492805112047498,5.6099958419799805,2019-06-03 12:23:41:174
-0.6090109944343567,-1.2298901081085205,-9.837706565856934,0.033830405804574776,-0.005460813375653429,-0.006659528709879265,5.619993686676025,2019-06-03 12:23:41:184
-0.6161758303642273,-1.2633260488510132,-9.832930564880371,0.032764881294217875,-0.0025306209721719587,-0.0023974304083773466,5.629990100860596,2019-06-03 12:23:41:194
-0.5707985162734985,-1.2752673625946045,-9.849648475646973,0.03662740738418731,-0.0037293360463234696,-0.005860385327111591,5.64000940322876,2019-06-03 12:23:41:204
-0.6090109944343567,-1.2800439596176147,-9.859201431274414,0.033564023116539596,-0.005727194503242653,-0.007458672092646939,5.649996280670166,2019-06-03 12:23:41:214
-0.599457859992981,-1.2442197799682617,-9.854424476623535,0.03236530934275971,-0.006526337886010328,-0.003596145482528857,5.6599931716918945,2019-06-03 12:23:41:224
-0.6066226959228516,-1.2776557207107544,-9.840095520019531,0.03396359506799776,-0.004661669992885756,-0.0003995717238931275,5.669990062713623,2019-06-03 12:23:41:234
-0.6066226959228516,-1.2561612129211426,-9.81860065460205,0.031166593488385227,-0.0009323340115808674,-0.003063383227350408,5.680011749267578,2019-06-03 12:23:41:244
-0.599457859992981,-1.2394431829452515,-9.81143569946289,0.03329764250909902,-0.004661669992885756,-0.010388864496128409,5.689996242523193,2019-06-03 12:23:41:254
-0.6042344570159912,-1.282432198524475,-9.861589431762695,0.029834688370587756,-0.006925909837468489,-0.007192290965057714,5.6999921798706055,2019-06-03 12:23:41:264
-0.599457859992981,-1.2657142877578735,-9.83054256439209,0.03090021288094465,-0.005460813375653429,-0.005727194503242653,5.709991931915283,2019-06-03 12:23:41:274
-0.6161758303642273,-1.258549451828003,-9.878307342529297,0.02757044800585637,-0.005993575630831878,-0.005327623071933142,5.719992160797119,2019-06-03 12:23:41:284
-0.5946813225746155,-1.248996376991272,-9.899802207946777,0.027703639349873955,-0.00319657379114502,-0.0062599567584211025,5.7300028800964355,2019-06-03 12:23:41:294
-0.6042344570159912,-1.258549451828003,-9.878307342529297,0.02956830776314718,-0.005860385327111591,-0.003596145482528857,5.740010738372803,2019-06-03 12:23:41:304
-0.6281172037124634,-1.2633260488510132,-9.849648475646973,0.0314329740958258,-0.003596145482528857,-0.005594004199522367,5.749996662139893,2019-06-03 12:23:41:314
-0.6066226959228516,-1.2394431829452515,-9.794717788696289,0.030234260322045917,-0.0037293360463234696,-0.006792719013599553,5.760184288024902,2019-06-03 12:23:41:324
-0.6042344570159912,-1.2442197799682617,-9.909355163574219,0.03209892873531914,-0.00639314758229004,-0.004262098301501919,5.770020961761475,2019-06-03 12:23:41:334
-0.6113992929458618,-1.2418315410614014,-9.849648475646973,0.030500640929486494,-0.006526337886010328,-0.009056959378330936,5.779999256134033,2019-06-03 12:23:41:344
-0.5779633522033691,-1.2776557207107544,-9.81143569946289,0.0303674495854689,-0.006925909837468489,-0.0018646680231617348,6.200128078460693,2019-06-03 12:23:41:764
-0.6233406662940979,-1.2298901081085205,-9.837706565856934,0.03289807055764086,-0.0034629549187342444,-0.006792719013599553,6.210021018981934,2019-06-03 12:23:41:774
-0.5827399492263794,-1.2537728548049927,-9.825765609741211,0.03236530934275971,-0.007192290965057714,-0.00639314758229004,6.220000267028809,2019-06-03 12:23:41:784
-0.5946813225746155,-1.2561612129211426,-9.844871520996094,0.03303126190165845,-0.002663811535966571,-0.0014650963317778978,6.229992389678955,2019-06-03 12:23:41:794
-0.6113992929458618,-1.2179486751556396,-9.866366386413574,0.031033404224962244,-0.004528479689165468,-0.010522054799848697,6.239993572235107,2019-06-03 12:23:41:804
-0.5803516507148743,-1.2513846158981323,-9.875919342041016,0.031699356783860974,-0.0050612419443439175,-0.005194432248064204,6.250006675720215,2019-06-03 12:23:41:814
-0.5922930240631104,-1.2537728548049927,-9.892637252807617,0.03476273897091409,-0.005327623071933142,-0.007458672092646939,6.260011196136475,2019-06-03 12:23:41:824
-0.5922930240631104,-1.2728791236877441,-9.868754386901855,0.02956830776314718,0.00013319057192193496,-0.004262098301501919,6.270010471343994,2019-06-03 12:23:41:834
-0.6137875318527222,-1.2394431829452515,-9.852036476135254,0.03303126190165845,-0.005327623071933142,-0.006659528709879265,6.280005931854248,2019-06-03 12:23:41:844
-0.5970696210861206,-1.2394431829452515,-9.828153610229492,0.03129978483240282,-0.003063383227350408,-0.004661669992885756,6.289995193481445,2019-06-03 12:23:41:854
-0.5755751132965088,-1.2370549440383911,-9.902190208435059,0.03529550226638983,-0.004794860816754693,-0.007325481268778002,6.300012588500977,2019-06-03 12:23:41:864
-0.599457859992981,-1.282432198524475,-9.828153610229492,0.031699356783860974,-0.004128907737707306,-0.00492805112047498,6.309993267059326,2019-06-03 12:23:41:874
-0.5684102773666382,-1.2418315410614014,-9.80188274383545,0.03010106897802833,-0.005727194503242653,-0.004262098301501919,6.320003032684326,2019-06-03 12:23:41:884
-0.6090109944343567,-1.2633260488510132,-9.863978385925293,0.030767021536927064,-0.006126766454700816,-0.004661669992885756,6.329995155334473,2019-06-03 12:23:41:894
-0.6042344570159912,-1.2657142877578735,-9.866366386413574,0.032498498606182695,-0.005327623071933142,-0.008923768034313348,6.339992046356201,2019-06-03 12:23:41:904
-0.599457859992981,-1.248996376991272,-9.916520118713379,0.03343083385311661,-0.007059100141188776,-0.006792719013599553,6.349987983703613,2019-06-03 12:23:41:914
-0.5588571429252625,-1.2537728548049927,-9.861589431762695,0.030767021536927064,-0.0033297643549396326,-0.006526337886010328,6.359996318817139,2019-06-03 12:23:41:924
-0.5684102773666382,-1.258549451828003,-9.820988655090332,0.03542869361040742,-0.003596145482528857,-0.0023974304083773466,6.369992733001709,2019-06-03 12:23:41:934
-0.599457859992981,-1.2561612129211426,-9.880696296691895,0.03489593031493167,-0.0062599567584211025,-0.005993575630831878,6.379990100860596,2019-06-03 12:23:41:944
-0.5827399492263794,-1.2346667051315308,-9.852036476135254,0.03516231092237225,-0.004262098301501919,-0.008257815475414612,6.389992713928223,2019-06-03 12:23:41:954
-0.6066226959228516,-1.3349744081497192,-9.892637252807617,0.026771304102940045,-0.003995717173912694,-0.0013319057679832855,6.400024890899658,2019-06-03 12:23:41:964
-0.6328938007354736,-1.2800439596176147,-9.825765609741211,0.029701497026570163,-0.003596145482528857,-0.005993575630831878,6.409997940063477,2019-06-03 12:23:41:974
-0.6090109944343567,-1.258549451828003,-9.773223876953125,0.0314329740958258,-0.005993575630831878,-0.0034629549187342444,6.4199934005737305,2019-06-03 12:23:41:984
-0.5827399492263794,-1.2346667051315308,-9.782776832580566,0.03329764250909902,-0.003596145482528857,-0.00639314758229004,6.429991245269775,2019-06-03 12:23:41:994
-0.6018461585044861,-1.2513846158981323,-9.868754386901855,0.03063383227350408,-0.006526337886010328,-0.006792719013599553,6.439992427825928,2019-06-03 12:23:42:004
-0.5731868147850037,-1.258549451828003,-9.868754386901855,0.03662740738418731,-0.0033297643549396326,-0.007325481268778002,6.450001239776611,2019-06-03 12:23:42:014
-0.5755751132965088,-1.248996376991272,-9.859201431274414,0.028769163860230856,-0.005594004199522367,-0.004794860816754693,6.459995746612549,2019-06-03 12:23:42:024
-0.5970696210861206,-1.2346667051315308,-9.890249252319336,0.03209892873531914,-0.007059100141188776,-0.004661669992885756,6.469990253448486,2019-06-03 12:23:42:034
-0.599457859992981,-1.294373631477356,-9.856813430786133,0.029967877634010744,-0.007059100141188776,-0.00492805112047498,6.4799933433532715,2019-06-03 12:23:42:044
-0.6137875318527222,-1.2633260488510132,-9.897414207458496,0.03542869361040742,-0.003596145482528857,-0.0003995717238931275,6.489993572235107,2019-06-03 12:23:42:054
-0.5946813225746155,-1.2155604362487793,-9.854424476623535,0.027836828613296942,-0.003063383227350408,-0.0033297643549396326,6.500028133392334,2019-06-03 12:23:42:064
-0.5946813225746155,-1.2633260488510132,-9.835318565368652,0.02810321130133212,-0.0018646680231617348,-0.002264239844582734,6.51000452041626,2019-06-03 12:23:42:074
-0.6233406662940979,-1.2370549440383911,-9.825765609741211,0.03223211799874212,-0.002663811535966571,-0.0034629549187342444,6.519993782043457,2019-06-03 12:23:42:084
-0.625728964805603,-1.282432198524475,-9.873531341552734,0.03596145482528857,-0.0034629549187342444,-0.004395288865296531,6.529991149902344,2019-06-03 12:23:42:094
-0.6066226959228516,-1.2537728548049927,-9.825765609741211,0.031033404224962244,-0.003995717173912694,-0.005860385327111591,6.5399909019470215,2019-06-03 12:23:42:104
-0.5803516507148743,-1.2609376907348633,-9.82337760925293,0.03422997775603293,-0.004794860816754693,-0.0062599567584211025,6.550013065338135,2019-06-03 12:23:42:114
-0.6042344570159912,-1.2537728548049927,-9.863978385925293,0.03449635836347351,-0.007991434347825389,-0.00639314758229004,6.560008525848389,2019-06-03 12:23:42:124
-0.5946813225746155,-1.2203370332717896,-9.852036476135254,0.03223211799874212,-0.00492805112047498,-0.006659528709879265,6.569998741149902,2019-06-03 12:23:42:134
-0.58990478515625,-1.2537728548049927,-9.902190208435059,0.03422997775603293,-0.004262098301501919,-0.0062599567584211025,6.579992294311523,2019-06-03 12:23:42:144
-0.6090109944343567,-1.2322783470153809,-9.837706565856934,0.031033404224962244,-0.002663811535966571,-0.003596145482528857,6.589992046356201,2019-06-03 12:23:42:154
-0.6066226959228516,-1.2609376907348633,-9.890249252319336,0.03476273897091409,-0.0029301926635557957,-0.005194432248064204,6.599997043609619,2019-06-03 12:23:42:164
-0.599457859992981,-1.2633260488510132,-9.828153610229492,0.032498498606182695,-0.005327623071933142,-0.008124624651545674,6.610019207000732,2019-06-03 12:23:42:174
-0.5851281881332397,-1.2776557207107544,-9.80188274383545,0.029435116419129593,-0.007991434347825389,-0.005327623071933142,6.620001316070557,2019-06-03 12:23:42:184
-0.5636336803436279,-1.2728791236877441,-9.873531341552734,0.028502783252790282,-0.003063383227350408,-0.0029301926635557957,6.629994869232178,2019-06-03 12:23:42:194
-0.6090109944343567,-1.2537728548049927,-9.861589431762695,0.028502783252790282,-0.004262098301501919,-0.008524196603003837,6.6399922370910645,2019-06-03 12:23:42:204
-0.5970696210861206,-1.2895970344543457,-9.859201431274414,0.03209892873531914,-0.011853960957943468,-0.0038625266101180813,6.6499924659729,2019-06-03 12:23:42:214
-0.5851281881332397,-1.2537728548049927,-9.80188274383545,0.03609464616930616,-0.005327623071933142,-0.00785824352395645,6.660026550292969,2019-06-03 12:23:42:224
-0.5731868147850037,-1.2633260488510132,-9.856813430786133,0.030500640929486494,-0.004794860816754693,-0.005460813375653429,6.670012950897217,2019-06-03 12:23:42:234
-0.6042344570159912,-1.2681025266647339,-9.80904769897461,0.03329764250909902,-0.0034629549187342444,-0.004661669992885756,6.680001735687256,2019-06-03 12:23:42:244
-0.6066226959228516,-1.2657142877578735,-9.799494743347168,0.03236530934275971,-0.003596145482528857,-0.0062599567584211025,6.69000244140625,2019-06-03 12:23:42:254
-0.6066226959228516,-1.2704908847808838,-9.849648475646973,0.029301925075112006,-0.005594004199522367,-0.0014650963317778978,6.700014591217041,2019-06-03 12:23:42:264
-0.58990478515625,-1.258549451828003,-9.852036476135254,0.03409678641201535,-0.006659528709879265,-0.007059100141188776,6.710004806518555,2019-06-03 12:23:42:274
-0.625728964805603,-1.2633260488510132,-9.906967163085938,0.029301925075112006,-0.005327623071933142,-0.0050612419443439175,6.7200093269348145,2019-06-03 12:23:42:284
-0.6042344570159912,-1.2872087955474854,-9.820988655090332,0.033697214460557186,-0.002663811535966571,-0.005194432248064204,6.729995250701904,2019-06-03 12:23:42:294
-0.5970696210861206,-1.2298901081085205,-9.832930564880371,0.029834688370587756,-0.005327623071933142,-0.0017314774593671222,6.739992618560791,2019-06-03 12:23:42:304
-0.6137875318527222,-1.2633260488510132,-9.832930564880371,0.033564023116539596,-0.005194432248064204,-0.0033297643549396326,6.7499918937683105,2019-06-03 12:23:42:314
-0.6042344570159912,-1.2418315410614014,-9.885472297668457,0.031166593488385227,-0.00639314758229004,-0.004395288865296531,6.7599945068359375,2019-06-03 12:23:42:324
-0.5779633522033691,-1.258549451828003,-9.880696296691895,0.032631689950200285,-0.008391005779134899,-0.004395288865296531,6.7700018882751465,2019-06-03 12:23:42:334
-0.5803516507148743,-1.2179486751556396,-9.83054256439209,0.03289807055764086,-0.004128907737707306,-0.0025306209721719587,6.779993057250977,2019-06-03 12:23:42:344
-0.5469157695770264,-1.2322783470153809,-9.852036476135254,0.030767021536927064,-0.0033297643549396326,-0.007059100141188776,6.789994239807129,2019-06-03 12:23:42:354
-0.6305055022239685,-1.248996376991272,-9.91890811920166,0.0346295476268965,-0.004528479689165468,-0.00985610224094996,7.380168914794922,2019-06-03 12:23:42:944
-0.6113992929458618,-1.2752673625946045,-9.873531341552734,0.025972162280618324,-0.000799143447786255,-0.010522054799848697,7.390011310577393,2019-06-03 12:23:42:954
-0.6113992929458618,-1.2704908847808838,-9.897414207458496,0.02810321130133212,-0.00492805112047498,-0.004528479689165468,7.399993896484375,2019-06-03 12:23:42:964
-0.6424468755722046,-1.2872087955474854,-9.787552833557129,0.032498498606182695,-0.004395288865296531,-0.011587579310205596,7.409994602203369,2019-06-03 12:23:42:974
-0.6137875318527222,-1.2681025266647339,-9.873531341552734,0.02903554446767143,-0.00639314758229004,-0.008124624651545674,7.420002460479736,2019-06-03 12:23:42:984
-0.5707985162734985,-1.2704908847808838,-9.81860065460205,0.03422997775603293,-0.006925909837468489,-0.004128907737707306,7.4300150871276855,2019-06-03 12:23:42:994
-0.6137875318527222,-1.2609376907348633,-9.835318565368652,0.033697214460557186,-0.005594004199522367,-0.010122483888687835,7.439999580383301,2019-06-03 12:23:43:004
-0.5684102773666382,-1.2537728548049927,-9.878307342529297,0.031033404224962244,-0.007192290965057714,-0.005594004199522367,7.449993133544922,2019-06-03 12:23:43:014
-0.58990478515625,-1.258549451828003,-9.777999877929688,0.031699356783860974,-0.003596145482528857,-0.008124624651545674,7.459993362426758,2019-06-03 12:23:43:024
-0.6066226959228516,-1.2418315410614014,-9.892637252807617,0.03343083385311661,-0.008391005779134899,-0.008124624651545674,7.4700117111206055,2019-06-03 12:23:43:034
-0.6448351740837097,-1.258549451828003,-9.863978385925293,0.03409678641201535,-0.008257815475414612,-0.0033297643549396326,7.4800124168396,2019-06-03 12:23:43:044
-0.5827399492263794,-1.282432198524475,-9.852036476135254,0.03289807055764086,-0.00319657379114502,-0.001997858586956347,7.490011692047119,2019-06-03 12:23:43:054
-0.5922930240631104,-1.2633260488510132,-9.906967163085938,0.03236530934275971,-0.00492805112047498,-0.005594004199522367,7.499998569488525,2019-06-03 12:23:43:064
-0.5851281881332397,-1.2155604362487793,-9.854424476623535,0.03609464616930616,-0.006792719013599553,-0.002663811535966571,7.509993076324463,2019-06-03 12:23:43:074
-0.5922930240631104,-1.2251135110855103,-9.880696296691895,0.030500640929486494,-0.003995717173912694,-0.00985610224094996,7.519992828369141,2019-06-03 12:23:43:084
-0.5588571429252625,-1.284820556640625,-9.844871520996094,0.030500640929486494,-0.0023974304083773466,-0.007458672092646939,7.530009746551514,2019-06-03 12:23:43:094
-0.5684102773666382,-1.2442197799682617,-9.794717788696289,0.03542869361040742,-0.00492805112047498,-0.0021310491507509593,7.539999008178711,2019-06-03 12:23:43:104
-0.6161758303642273,-1.2513846158981323,-9.82337760925293,0.03223211799874212,-0.00639314758229004,-0.005327623071933142,7.549990177154541,2019-06-03 12:23:43:114
-0.6113992929458618,-1.282432198524475,-9.820988655090332,0.02903554446767143,-0.004528479689165468,-0.003995717173912694,7.559994697570801,2019-06-03 12:23:43:124
-0.5922930240631104,-1.2895970344543457,-9.861589431762695,0.028769163860230856,-0.005327623071933142,-0.005993575630831878,7.570014476776123,2019-06-03 12:23:43:134
-0.6042344570159912,-1.2633260488510132,-9.80904769897461,0.031699356783860974,-0.005460813375653429,-0.006126766454700816,7.580012798309326,2019-06-03 12:23:43:144
-0.6042344570159912,-1.2681025266647339,-9.875919342041016,0.03516231092237225,-0.006526337886010328,-0.005594004199522367,7.589998245239258,2019-06-03 12:23:43:154
-0.6328938007354736,-1.2442197799682617,-9.875919342041016,0.03316445324567604,-0.004528479689165468,-0.00492805112047498,7.599987506866455,2019-06-03 12:23:43:164
-0.5970696210861206,-1.2728791236877441,-9.849648475646973,0.03516231092237225,-0.004661669992885756,-0.0013319057679832855,7.6099982261657715,2019-06-03 12:23:43:174
-0.5684102773666382,-1.2346667051315308,-9.782776832580566,0.03183254604728396,-0.004395288865296531,-0.0029301926635557957,7.619993686676025,2019-06-03 12:23:43:184
-0.6066226959228516,-1.2704908847808838,-9.873531341552734,0.030767021536927064,-0.007591862396367225,-0.009190149682051223,7.630012512207031,2019-06-03 12:23:43:194
-0.58990478515625,-1.2919853925704956,-9.873531341552734,0.032631689950200285,-0.004262098301501919,-0.003596145482528857,7.6399993896484375,2019-06-03 12:23:43:204
-0.6137875318527222,-1.2633260488510132,-9.842483520507812,0.031166593488385227,-0.004395288865296531,-0.003995717173912694,7.649991989135742,2019-06-03 12:23:43:214
-0.5707985162734985,-1.2872087955474854,-9.844871520996094,0.03476273897091409,-0.004128907737707306,-0.0033297643549396326,7.6599907875061035,2019-06-03 12:23:43:224
-0.58990478515625,-1.2681025266647339,-9.871142387390137,0.03090021288094465,-0.005460813375653429,-0.005194432248064204,7.670032978057861,2019-06-03 12:23:43:234
-0.6209523677825928,-1.246608018875122,-9.854424476623535,0.02810321130133212,-0.0023974304083773466,-0.003995717173912694,7.680013656616211,2019-06-03 12:23:43:244
-0.599457859992981,-1.2394431829452515,-9.828153610229492,0.031166593488385227,-0.0050612419443439175,0.0009323340115808674,7.690000057220459,2019-06-03 12:23:43:254
-0.5779633522033691,-1.248996376991272,-9.873531341552734,0.031033404224962244,-0.006659528709879265,-0.0005327622876877398,7.6999945640563965,2019-06-03 12:23:43:264
-0.6496117115020752,-1.2203370332717896,-9.80904769897461,0.03422997775603293,-0.005727194503242653,0.0027970020997611835,7.709993839263916,2019-06-03 12:23:43:274
-0.5922930240631104,-1.284820556640625,-9.82337760925293,0.02956830776314718,-0.008124624651545674,-0.006925909837468489,7.720006465911865,2019-06-03 12:23:43:284
-0.5755751132965088,-1.2776557207107544,-9.885472297668457,0.03303126190165845,-0.0029301926635557957,0.000799143447786255,7.7300124168396,2019-06-03 12:23:43:294
-0.6233406662940979,-1.2442197799682617,-9.883084297180176,0.033830405804574776,-0.007192290965057714,-0.007059100141188776,7.7399983406066895,2019-06-03 12:23:43:304
-0.6066226959228516,-1.2681025266647339,-9.789941787719727,0.03422997775603293,-0.007059100141188776,-0.0050612419443439175,7.749992847442627,2019-06-03 12:23:43:314
-0.58990478515625,-1.2561612129211426,-9.820988655090332,0.03662740738418731,-0.0037293360463234696,-0.006792719013599553,7.75999116897583,2019-06-03 12:23:43:324
-0.5731868147850037,-1.2609376907348633,-9.854424476623535,0.03609464616930616,0.0006659528839916427,-0.004528479689165468,7.7700276374816895,2019-06-03 12:23:43:334
-0.6066226959228516,-1.2609376907348633,-9.758893966674805,0.027836828613296942,-0.004128907737707306,-0.002663811535966571,7.780013561248779,2019-06-03 12:23:43:344
-0.5779633522033691,-1.2776557207107544,-9.840095520019531,0.03183254604728396,-0.0034629549187342444,-0.009589721633509386,7.7899980545043945,2019-06-03 12:23:43:354
-0.554080605506897,-1.2609376907348633,-9.880696296691895,0.029967877634010744,-0.008790577730593063,-0.0010655245753754797,7.799991130828857,2019-06-03 12:23:43:364
-0.6137875318527222,-1.2537728548049927,-9.928461074829102,0.03209892873531914,-0.006526337886010328,-0.003995717173912694,7.809990406036377,2019-06-03 12:23:43:374
-0.5922930240631104,-1.2251135110855103,-9.854424476623535,0.03556188079323581,-0.0050612419443439175,-0.008524196603003837,7.82001256942749,2019-06-03 12:23:43:384
-0.6042344570159912,-1.2418315410614014,-9.835318565368652,0.03289807055764086,-0.001997858586956347,-0.008657386906724124,7.830012798309326,2019-06-03 12:23:43:394
-0.5970696210861206,-1.2537728548049927,-9.878307342529297,0.03316445324567604,-0.004262098301501919,-0.0009323340115808674,7.839998722076416,2019-06-03 12:23:43:404
-0.5660219788551331,-1.2919853925704956,-9.859201431274414,0.032631689950200285,-0.010655246143866284,-0.007591862396367225,7.8499884605407715,2019-06-03 12:23:43:414
-0.5851281881332397,-1.2681025266647339,-9.859201431274414,0.03316445324567604,-0.002264239844582734,-0.004128907737707306,7.859993934631348,2019-06-03 12:23:43:424
-0.6066226959228516,-1.2370549440383911,-9.861589431762695,0.03422997775603293,-0.005993575630831878,-0.006659528709879265,7.870008945465088,2019-06-03 12:23:43:434
-0.5779633522033691,-1.248996376991272,-9.868754386901855,0.03343083385311661,-0.0062599567584211025,-0.004661669992885756,7.880016803741455,2019-06-03 12:23:43:444
-0.5875164866447449,-1.2418315410614014,-9.775611877441406,0.029967877634010744,-0.003596145482528857,-0.004661669992885756,7.890018463134766,2019-06-03 12:23:43:454
-0.5970696210861206,-1.2561612129211426,-9.852036476135254,0.032498498606182695,-0.00639314758229004,-0.00785824352395645,7.899997234344482,2019-06-03 12:23:43:464
-0.6233406662940979,-1.248996376991272,-9.813823699951172,0.03090021288094465,-0.00639314758229004,-0.005860385327111591,7.909994602203369,2019-06-03 12:23:43:474
-0.6233406662940979,-1.2776557207107544,-9.83054256439209,0.03010106897802833,-0.005727194503242653,-0.0003995717238931275,7.919991970062256,2019-06-03 12:23:43:484
-0.6185641288757324,-1.303926706314087,-9.921297073364258,0.025439398985142574,0.0011987152041886733,-0.003995717173912694,7.930017948150635,2019-06-03 12:23:43:494
-0.6328938007354736,-1.246608018875122,-9.871142387390137,0.03010106897802833,-0.004661669992885756,-0.002264239844582734,7.940014839172363,2019-06-03 12:23:43:504
-0.5612454414367676,-1.2657142877578735,-9.866366386413574,0.03303126190165845,-0.008923768034313348,-0.00319657379114502,7.949999809265137,2019-06-03 12:23:43:514
-0.5731868147850037,-1.2298901081085205,-9.887861251831055,0.03183254604728396,-0.004794860816754693,-0.007192290965057714,7.959993839263916,2019-06-03 12:23:43:524
-0.5970696210861206,-1.2561612129211426,-9.868754386901855,0.0314329740958258,-0.003596145482528857,-0.0025306209721719587,7.969995975494385,2019-06-03 12:23:43:534
-0.5851281881332397,-1.2298901081085205,-9.859201431274414,0.02863597251621327,-0.005860385327111591,-0.006792719013599553,7.980032444000244,2019-06-03 12:23:43:544
-0.5612454414367676,-1.2919853925704956,-9.852036476135254,0.03343083385311661,-0.0023974304083773466,-0.005993575630831878,7.9900126457214355,2019-06-03 12:23:43:554
-0.6161758303642273,-1.2513846158981323,-9.871142387390137,0.02903554446767143,-0.005993575630831878,-0.0010655245753754797,7.999999523162842,2019-06-03 12:23:43:564
-0.5946813225746155,-1.258549451828003,-9.868754386901855,0.03396359506799776,-0.004661669992885756,-0.00159828689557251,8.00999402999878,2019-06-03 12:23:43:574
-0.6042344570159912,-1.2657142877578735,-9.861589431762695,0.03609464616930616,-0.004661669992885756,-0.005727194503242653,8.019992351531982,2019-06-03 12:23:43:584
-0.6185641288757324,-1.2418315410614014,-9.897414207458496,0.031033404224962244,-0.006526337886010328,-0.004128907737707306,8.030031681060791,2019-06-03 12:23:43:594
-0.5922930240631104,-1.258549451828003,-9.780387878417969,0.027037686790975218,-0.0034629549187342444,-0.0014650963317778978,8.04002857208252,2019-06-03 12:23:43:604
-0.58990478515625,-1.2370549440383911,-9.859201431274414,0.03529550226638983,-0.009190149682051223,-0.008124624651545674,8.050001621246338,2019-06-03 12:23:43:614
-0.6066226959228516,-1.2251135110855103,-9.887861251831055,0.03183254604728396,-0.005727194503242653,-0.004395288865296531,8.05999231338501,2019-06-03 12:23:43:624
-0.6090109944343567,-1.2275018692016602,-9.868754386901855,0.031699356783860974,-0.004528479689165468,-0.005460813375653429,8.070001602172852,2019-06-03 12:23:43:634
-0.5707985162734985,-1.248996376991272,-9.863978385925293,0.03343083385311661,-0.0013319057679832855,-0.000799143447786255,8.080012798309326,2019-06-03 12:23:43:644
-0.6090109944343567,-1.2561612129211426,-9.837706565856934,0.02956830776314718,-0.003596145482528857,-0.002663811535966571,8.090007781982422,2019-06-03 12:23:43:654
-0.5970696210861206,-1.2275018692016602,-9.861589431762695,0.02916873581168902,-0.0037293360463234696,-0.0050612419443439175,8.100003719329834,2019-06-03 12:23:43:664
-0.6137875318527222,-1.2203370332717896,-9.840095520019531,0.03622783751332374,-0.005860385327111591,-0.0062599567584211025,8.110002994537354,2019-06-03 12:23:43:674
-0.58990478515625,-1.2275018692016602,-9.863978385925293,0.033830405804574776,-0.0038625266101180813,-0.008257815475414612,8.1199951171875,2019-06-03 12:23:43:684
-0.5636336803436279,-1.2370549440383911,-9.854424476623535,0.037026977255050865,-0.005727194503242653,-0.008257815475414612,8.129991054534912,2019-06-03 12:23:43:694
-0.5922930240631104,-1.248996376991272,-9.880696296691895,0.03569507213725339,-0.005194432248064204,-0.006792719013599553,8.139991283416748,2019-06-03 12:23:43:704
-0.5588571429252625,-1.2609376907348633,-9.852036476135254,0.031699356783860974,-0.004395288865296531,-0.002264239844582734,8.150010585784912,2019-06-03 12:23:43:714
-0.58990478515625,-1.282432198524475,-9.732623100280762,0.03755974263112122,-0.008257815475414612,-0.007725053220236163,8.159996509552002,2019-06-03 12:23:43:724
-0.6066226959228516,-1.2394431829452515,-9.83054256439209,0.03303126190165845,-0.006792719013599553,-0.004395288865296531,8.169992923736572,2019-06-03 12:23:43:734
-0.625728964805603,-1.2776557207107544,-9.837706565856934,0.031699356783860974,-0.005194432248064204,-0.00492805112047498,8.180011749267578,2019-06-03 12:23:43:744
-0.6424468755722046,-1.2657142877578735,-9.749341011047363,0.03316445324567604,-0.009190149682051223,-0.007325481268778002,8.190024375915527,2019-06-03 12:23:43:754
-0.6113992929458618,-1.2370549440383911,-9.852036476135254,0.032498498606182695,-0.0029301926635557957,-0.0025306209721719587,8.20000410079956,2019-06-03 12:23:43:764
-0.58990478515625,-1.248996376991272,-9.847260475158691,0.03316445324567604,-0.0023974304083773466,-0.005327623071933142,8.209999561309814,2019-06-03 12:23:43:774
-0.5803516507148743,-1.2561612129211426,-9.92607307434082,0.02956830776314718,-0.003596145482528857,-0.0027970020997611835,8.219991683959961,2019-06-03 12:23:43:784
-0.5851281881332397,-1.2752673625946045,-9.81860065460205,0.027037686790975218,-0.002264239844582734,-0.0014650963317778978,8.229995250701904,2019-06-03 12:23:43:794
-0.5946813225746155,-1.2609376907348633,-9.880696296691895,0.02956830776314718,-0.003063383227350408,-0.009456530289491798,8.240017414093018,2019-06-03 12:23:43:804
-0.5851281881332397,-1.2275018692016602,-9.80427074432373,0.03209892873531914,-0.002663811535966571,-0.0006659528839916427,8.250013828277588,2019-06-03 12:23:43:814
-0.6090109944343567,-1.2275018692016602,-9.852036476135254,0.03329764250909902,-0.004661669992885756,-0.005727194503242653,8.260008335113525,2019-06-03 12:23:43:824
-0.599457859992981,-1.2776557207107544,-9.849648475646973,0.03529550226638983,-0.002264239844582734,-0.00639314758229004,8.269997119903564,2019-06-03 12:23:43:834
-0.5851281881332397,-1.2633260488510132,-9.80427074432373,0.03476273897091409,-0.008524196603003837,-0.009722911937229673,8.280012607574463,2019-06-03 12:23:43:844
-0.6113992929458618,-1.246608018875122,-9.832930564880371,0.03156616543984339,-0.005460813375653429,-0.002264239844582734,8.290001392364502,2019-06-03 12:23:43:854
-0.5827399492263794,-1.2442197799682617,-9.794717788696289,0.033830405804574776,-0.003596145482528857,-0.003063383227350408,8.300032138824463,2019-06-03 12:23:43:864
-0.5660219788551331,-1.2322783470153809,-9.847260475158691,0.027836828613296942,-0.005727194503242653,-0.004794860816754693,8.310014247894287,2019-06-03 12:23:43:874
-0.5875164866447449,-1.2179486751556396,-9.878307342529297,0.033830405804574776,-0.002264239844582734,-0.003596145482528857,8.320001125335693,2019-06-03 12:23:43:884
-0.6137875318527222,-1.2561612129211426,-9.878307342529297,0.03409678641201535,-0.004262098301501919,-0.004528479689165468,8.329993724822998,2019-06-03 12:23:43:894
-0.6161758303642273,-1.2394431829452515,-9.868754386901855,0.03183254604728396,-0.000799143447786255,-0.006126766454700816,8.339993476867676,2019-06-03 12:23:43:904
-0.6113992929458618,-1.2752673625946045,-9.832930564880371,0.02663811483951706,-0.005594004199522367,-0.008657386906724124,8.350016117095947,2019-06-03 12:23:43:914
-0.5755751132965088,-1.2752673625946045,-9.897414207458496,0.028369591908772692,-0.0029301926635557957,-0.0029301926635557957,8.360012531280518,2019-06-03 12:23:43:924
-0.5731868147850037,-1.2298901081085205,-9.866366386413574,0.03010106897802833,-0.003596145482528857,-0.009190149682051223,8.369998455047607,2019-06-03 12:23:43:934
-0.635282039642334,-1.2895970344543457,-9.883084297180176,0.03316445324567604,-0.0017314774593671222,-0.0062599567584211025,8.38001298904419,2019-06-03 12:23:43:944
-0.599457859992981,-1.2633260488510132,-9.902190208435059,0.02903554446767143,-0.004262098301501919,-0.004128907737707306,8.389994144439697,2019-06-03 12:23:43:954
-0.5827399492263794,-1.2298901081085205,-9.883084297180176,0.03303126190165845,-0.005460813375653429,0.0011987152041886733,8.399991989135742,2019-06-03 12:23:43:964
-0.5922930240631104,-1.2728791236877441,-9.847260475158691,0.028502783252790282,-0.007059100141188776,-0.004128907737707306,8.41000747680664,2019-06-03 12:23:43:974
-0.5612454414367676,-1.2776557207107544,-9.854424476623535,0.02743725874243338,-0.003596145482528857,-0.0033297643549396326,8.420010089874268,2019-06-03 12:23:43:984
-0.6137875318527222,-1.2752673625946045,-9.782776832580566,0.031166593488385227,-0.008657386906724124,-0.007059100141188776,8.42999792098999,2019-06-03 12:23:43:994
-0.5803516507148743,-1.2370549440383911,-9.885472297668457,0.028902353123653843,-0.007725053220236163,-0.007991434347825389,8.439993381500244,2019-06-03 12:23:44:004
-0.58990478515625,-1.2633260488510132,-9.880696296691895,0.03329764250909902,-0.0038625266101180813,-0.003063383227350408,8.449993133544922,2019-06-03 12:23:44:014
-0.6018461585044861,-1.2633260488510132,-9.844871520996094,0.03289807055764086,-0.007192290965057714,-0.006792719013599553,8.4599928855896,2019-06-03 12:23:44:024
-0.5660219788551331,-1.2752673625946045,-9.849648475646973,0.028769163860230856,-0.005860385327111591,-0.00492805112047498,8.470003128051758,2019-06-03 12:23:44:034
-0.6185641288757324,-1.258549451828003,-9.852036476135254,0.033564023116539596,-0.006526337886010328,-0.00785824352395645,8.480010509490967,2019-06-03 12:23:44:044
-0.599457859992981,-1.2681025266647339,-9.887861251831055,0.03303126190165845,-0.00639314758229004,-0.004128907737707306,8.490007877349854,2019-06-03 12:23:44:054
-0.6376703381538391,-1.2394431829452515,-9.885472297668457,0.03063383227350408,-0.004794860816754693,-0.008923768034313348,8.49999475479126,2019-06-03 12:23:44:064
-0.5922930240631104,-1.2800439596176147,-9.81860065460205,0.03343083385311661,-0.004262098301501919,-0.005727194503242653,8.509993076324463,2019-06-03 12:23:44:074
-0.5970696210861206,-1.2776557207107544,-9.861589431762695,0.031699356783860974,-0.007325481268778002,-0.0006659528839916427,8.51999044418335,2019-06-03 12:23:44:084
-0.5707985162734985,-1.2370549440383911,-9.828153610229492,0.03156616543984339,-0.009190149682051223,-0.008124624651545674,8.529992580413818,2019-06-03 12:23:44:094
-0.6018461585044861,-1.22272527217865,-9.852036476135254,0.031033404224962244,-0.0033297643549396326,-0.007725053220236163,8.539990901947021,2019-06-03 12:23:44:104
-0.6018461585044861,-1.246608018875122,-9.866366386413574,0.03782612115796719,-0.004395288865296531,-0.0033297643549396326,8.549992561340332,2019-06-03 12:23:44:114
-0.635282039642334,-1.258549451828003,-9.861589431762695,0.03063383227350408,-0.007725053220236163,-0.004528479689165468,8.560007572174072,2019-06-03 12:23:44:124
-0.5851281881332397,-1.2561612129211426,-9.904579162597656,0.03316445324567604,-0.008790577730593063,-0.003995717173912694,8.569997310638428,2019-06-03 12:23:44:134
-0.6090109944343567,-1.2633260488510132,-9.813823699951172,0.03329764250909902,-0.006925909837468489,-0.0002663811438438699,8.57999324798584,2019-06-03 12:23:44:144
-0.635282039642334,-1.2298901081085205,-9.861589431762695,0.0303674495854689,-0.004794860816754693,-0.004528479689165468,8.590013027191162,2019-06-03 12:23:44:154
-0.5970696210861206,-1.2537728548049927,-9.875919342041016,0.02903554446767143,-0.004262098301501919,-0.004661669992885756,8.59998893737793,2019-06-03 12:23:44:164
-0.6113992929458618,-1.248996376991272,-9.856813430786133,0.03343083385311661,-0.0010655245753754797,-0.005194432248064204,8.609996318817139,2019-06-03 12:23:44:174
-0.6113992929458618,-1.2633260488510132,-9.849648475646973,0.03329764250909902,-0.004528479689165468,-0.0037293360463234696,8.620004177093506,2019-06-03 12:23:44:184
-0.5827399492263794,-1.2346667051315308,-9.768446922302246,0.030500640929486494,-0.005594004199522367,-0.0033297643549396326,8.629993915557861,2019-06-03 12:23:44:194
-0.6281172037124634,-1.248996376991272,-9.863978385925293,0.031033404224962244,-0.0062599567584211025,-0.0027970020997611835,8.63999319076538,2019-06-03 12:23:44:204
-0.625728964805603,-1.258549451828003,-9.942790985107422,0.02916873581168902,-0.003596145482528857,-0.005460813375653429,8.649993419647217,2019-06-03 12:23:44:214
-0.625728964805603,-1.2704908847808838,-9.832930564880371,0.03329764250909902,-0.0050612419443439175,-0.0038625266101180813,8.659993648529053,2019-06-03 12:23:44:224
-0.5731868147850037,-1.2370549440383911,-9.878307342529297,0.03516231092237225,-0.004661669992885756,-0.004395288865296531,8.670008659362793,2019-06-03 12:23:44:234
-0.6066226959228516,-1.2513846158981323,-9.799494743347168,0.03436316701945592,-0.002663811535966571,-0.0050612419443439175,8.68001413345337,2019-06-03 12:23:44:244
-0.6018461585044861,-1.2633260488510132,-9.81860065460205,0.03316445324567604,-0.008124624651545674,-0.004661669992885756,8.690020084381104,2019-06-03 12:23:44:254
-0.5588571429252625,-1.2298901081085205,-9.80904769897461,0.03409678641201535,-0.00492805112047498,-0.005993575630831878,8.699995517730713,2019-06-03 12:23:44:264
-0.6209523677825928,-1.2561612129211426,-9.80427074432373,0.03316445324567604,-0.006526337886010328,-0.010655246143866284,8.709993839263916,2019-06-03 12:23:44:274
-0.5564688444137573,-1.2561612129211426,-9.792329788208008,0.03409678641201535,-0.0033297643549396326,-0.009722911937229673,8.720009326934814,2019-06-03 12:23:44:284
-0.6090109944343567,-1.213172197341919,-9.861589431762695,0.03542869361040742,-0.003596145482528857,-0.004661669992885756,8.730010509490967,2019-06-03 12:23:44:294
-0.5779633522033691,-1.2537728548049927,-9.842483520507812,0.03422997775603293,-0.002264239844582734,-0.004794860816754693,8.74000883102417,2019-06-03 12:23:44:304
-0.5946813225746155,-1.2752673625946045,-9.868754386901855,0.03316445324567604,-0.010388864496128409,-0.009989292544670247,8.749998569488525,2019-06-03 12:23:44:314
-0.5684102773666382,-1.2418315410614014,-9.82337760925293,0.03316445324567604,-0.007192290965057714,0.0,8.76017427444458,2019-06-03 12:23:44:324
-0.5922930240631104,-1.248996376991272,-9.861589431762695,0.03209892873531914,-0.0033297643549396326,-0.005993575630831878,8.770013809204102,2019-06-03 12:23:44:334
-0.6113992929458618,-1.2633260488510132,-9.854424476623535,0.027836828613296942,-0.00492805112047498,-0.0027970020997611835,8.779998779296875,2019-06-03 12:23:44:344
-0.5970696210861206,-1.2442197799682617,-9.840095520019531,0.033830405804574776,-0.005594004199522367,-0.003995717173912694,8.79003095626831,2019-06-03 12:23:44:354
-0.5970696210861206,-1.2561612129211426,-9.873531341552734,0.031965737391301555,-0.009722911937229673,-0.007192290965057714,8.800000667572021,2019-06-03 12:23:44:364
-0.6018461585044861,-1.258549451828003,-9.828153610229492,0.028769163860230856,-0.009989292544670247,-0.010522054799848697,8.809994220733643,2019-06-03 12:23:44:374
-0.625728964805603,-1.2370549440383911,-9.902190208435059,0.03396359506799776,-0.004794860816754693,-0.004262098301501919,9.240092277526855,2019-06-03 12:23:44:804
-0.6137875318527222,-1.2513846158981323,-9.878307342529297,0.029301925075112006,-0.0027970020997611835,-0.006659528709879265,9.250024318695068,2019-06-03 12:23:44:814
-0.5827399492263794,-1.2657142877578735,-9.883084297180176,0.033697214460557186,-0.0029301926635557957,-0.00492805112047498,9.260000705718994,2019-06-03 12:23:44:824
-0.599457859992981,-1.2561612129211426,-9.820988655090332,0.03622783751332374,-0.003596145482528857,-0.00492805112047498,9.269992351531982,2019-06-03 12:23:44:834
-0.6591648459434509,-1.2633260488510132,-9.923685073852539,0.028369591908772692,-0.007725053220236163,0.0002663811438438699,9.280012130737305,2019-06-03 12:23:44:844
-0.5875164866447449,-1.246608018875122,-9.806659698486328,0.03209892873531914,-0.004794860816754693,-0.0021310491507509593,9.289996147155762,2019-06-03 12:23:44:854
-0.5922930240631104,-1.2609376907348633,-9.81621265411377,0.037293359943086045,-0.005194432248064204,-0.006925909837468489,9.300014019012451,2019-06-03 12:23:44:864
-0.6066226959228516,-1.2322783470153809,-9.828153610229492,0.03329764250909902,-0.004128907737707306,-0.0062599567584211025,9.310014247894287,2019-06-03 12:23:44:874
-0.5660219788551331,-1.2394431829452515,-9.849648475646973,0.029967877634010744,-0.0062599567584211025,-0.005860385327111591,9.31999921798706,2019-06-03 12:23:44:884
-0.5922930240631104,-1.2609376907348633,-9.866366386413574,0.03156616543984339,-0.005327623071933142,-0.007991434347825389,9.329992771148682,2019-06-03 12:23:44:894
-0.5875164866447449,-1.2561612129211426,-9.83054256439209,0.031699356783860974,-0.008124624651545674,-0.007725053220236163,9.339993476867676,2019-06-03 12:23:44:904
-0.5875164866447449,-1.2322783470153809,-9.923685073852539,0.03063383227350408,-0.00639314758229004,-0.008657386906724124,9.34998893737793,2019-06-03 12:23:44:914
-0.6305055022239685,-1.2513846158981323,-9.868754386901855,0.032498498606182695,-0.0029301926635557957,-0.004395288865296531,9.360015392303467,2019-06-03 12:23:44:924
-0.6328938007354736,-1.258549451828003,-9.832930564880371,0.030500640929486494,-0.008923768034313348,-0.004528479689165468,9.369998455047607,2019-06-03 12:23:44:934
-0.5970696210861206,-1.2298901081085205,-9.832930564880371,0.02916873581168902,-0.0038625266101180813,-0.004262098301501919,9.380013942718506,2019-06-03 12:23:44:944
-0.5946813225746155,-1.2561612129211426,-9.792329788208008,0.030234260322045917,0.0,-0.004262098301501919,9.389991760253906,2019-06-03 12:23:44:954
-0.6113992929458618,-1.2681025266647339,-9.902190208435059,0.03569507213725339,-0.006659528709879265,-0.005194432248064204,9.399993896484375,2019-06-03 12:23:44:964
-0.5827399492263794,-1.2537728548049927,-9.794717788696289,0.03329764250909902,-0.005194432248064204,-0.010388864496128409,9.409992694854736,2019-06-03 12:23:44:974
-0.6281172037124634,-1.2298901081085205,-9.81143569946289,0.03303126190165845,-0.0037293360463234696,-0.005860385327111591,9.419993877410889,2019-06-03 12:23:44:984
-0.6042344570159912,-1.2752673625946045,-9.859201431274414,0.03329764250909902,-0.004661669992885756,-0.004661669992885756,9.429992198944092,2019-06-03 12:23:44:994
-0.6042344570159912,-1.3182563781738281,-9.842483520507812,0.031033404224962244,-0.007991434347825389,-0.009589721633509386,9.439993381500244,2019-06-03 12:23:45:004
-0.6161758303642273,-1.2322783470153809,-9.799494743347168,0.03329764250909902,-0.004128907737707306,-0.0033297643549396326,9.450007915496826,2019-06-03 12:23:45:014
-0.6161758303642273,-1.2633260488510132,-9.895025253295898,0.030234260322045917,0.0003995717238931275,-0.0009323340115808674,9.459997177124023,2019-06-03 12:23:45:024
-0.6472234725952148,-1.2394431829452515,-9.806659698486328,0.03129978483240282,-0.005594004199522367,-0.0050612419443439175,9.46999454498291,2019-06-03 12:23:45:034
-0.5779633522033691,-1.2800439596176147,-9.844871520996094,0.030767021536927064,-0.005460813375653429,-0.006526337886010328,9.480011463165283,2019-06-03 12:23:45:044
-0.5755751132965088,-1.2370549440383911,-9.916520118713379,0.03063383227350408,-0.0037293360463234696,-0.00785824352395645,9.49000883102417,2019-06-03 12:23:45:054
-0.5779633522033691,-1.258549451828003,-9.880696296691895,0.03476273897091409,-0.005594004199522367,-0.005993575630831878,9.500007152557373,2019-06-03 12:23:45:064
-0.599457859992981,-1.294373631477356,-9.859201431274414,0.029967877634010744,-0.00785824352395645,-0.008257815475414612,9.509998798370361,2019-06-03 12:23:45:074
-0.6209523677825928,-1.2537728548049927,-9.875919342041016,0.03329764250909902,-0.0025306209721719587,-0.006526337886010328,9.519991397857666,2019-06-03 12:23:45:084
-0.5827399492263794,-1.2895970344543457,-9.899802207946777,0.03489593031493167,-0.008257815475414612,-0.00785824352395645,9.529993534088135,2019-06-03 12:23:45:094
-0.5684102773666382,-1.2633260488510132,-9.792329788208008,0.029301925075112006,-0.003995717173912694,-0.0033297643549396326,9.539994239807129,2019-06-03 12:23:45:104
-0.6448351740837097,-1.2322783470153809,-9.854424476623535,0.03289807055764086,-0.0029301926635557957,-0.003063383227350408,9.550014019012451,2019-06-03 12:23:45:114
-0.5803516507148743,-1.2203370332717896,-9.859201431274414,0.03090021288094465,-0.005594004199522367,-0.006659528709879265,9.560000896453857,2019-06-03 12:23:45:124
-0.5707985162734985,-1.2776557207107544,-9.868754386901855,0.03476273897091409,-0.0018646680231617348,-0.004262098301501919,9.56999158859253,2019-06-03 12:23:45:134
-0.6113992929458618,-1.2394431829452515,-9.875919342041016,0.03010106897802833,-0.008124624651545674,-0.004794860816754693,9.579992771148682,2019-06-03 12:23:45:144
-0.6209523677825928,-1.2609376907348633,-9.80904769897461,0.032498498606182695,-0.003596145482528857,-0.004262098301501919,9.590012073516846,2019-06-03 12:23:45:154
-0.6018461585044861,-1.303926706314087,-9.835318565368652,0.03449635836347351,-0.000799143447786255,-0.0006659528839916427,9.600006103515625,2019-06-03 12:23:45:164
-0.6018461585044861,-1.2346667051315308,-9.849648475646973,0.031033404224962244,-0.0050612419443439175,-0.001997858586956347,9.610011577606201,2019-06-03 12:23:45:174
-0.599457859992981,-1.2394431829452515,-9.914132118225098,0.03223211799874212,0.000799143447786255,-0.007725053220236163,9.619999408721924,2019-06-03 12:23:45:184
-0.5970696210861206,-1.2681025266647339,-9.854424476623535,0.0314329740958258,-0.0034629549187342444,-0.007325481268778002,9.629991054534912,2019-06-03 12:23:45:194
-0.6209523677825928,-1.2275018692016602,-9.880696296691895,0.02903554446767143,-0.0033297643549396326,-0.0038625266101180813,9.639992237091064,2019-06-03 12:23:45:204
-0.599457859992981,-1.2609376907348633,-9.81621265411377,0.032764881294217875,-0.004528479689165468,-0.006659528709879265,9.65001630783081,2019-06-03 12:23:45:214
-0.6233406662940979,-1.2561612129211426,-9.852036476135254,0.028369591908772692,-0.0027970020997611835,-0.007192290965057714,9.660011291503906,2019-06-03 12:23:45:224
-0.6305055022239685,-1.282432198524475,-9.847260475158691,0.030767021536927064,-0.005460813375653429,-0.006526337886010328,9.670003414154053,2019-06-03 12:23:45:234
-0.6042344570159912,-1.2704908847808838,-9.895025253295898,0.02956830776314718,-0.00785824352395645,-0.009589721633509386,9.68001127243042,2019-06-03 12:23:45:244
-0.5827399492263794,-1.3087033033370972,-9.854424476623535,0.032631689950200285,-0.005993575630831878,-0.008124624651545674,9.690004825592041,2019-06-03 12:23:45:254
-0.635282039642334,-1.282432198524475,-9.883084297180176,0.03303126190165845,-0.0062599567584211025,-0.005727194503242653,9.70001745223999,2019-06-03 12:23:45:264
-0.6185641288757324,-1.2609376907348633,-9.885472297668457,0.03289807055764086,-0.005194432248064204,-0.007991434347825389,9.710012912750244,2019-06-03 12:23:45:274
-0.599457859992981,-1.2800439596176147,-9.873531341552734,0.02863597251621327,-0.004262098301501919,-0.006659528709879265,9.719999313354492,2019-06-03 12:23:45:284
-0.5493040084838867,-1.2895970344543457,-9.854424476623535,0.03636102469615213,-0.004128907737707306,-0.007059100141188776,9.729995250701904,2019-06-03 12:23:45:294
-0.5779633522033691,-1.2657142877578735,-9.842483520507812,0.031965737391301555,-0.0033297643549396326,-0.003063383227350408,9.739993572235107,2019-06-03 12:23:45:304
-0.6281172037124634,-1.2418315410614014,-9.835318565368652,0.030767021536927064,-0.008391005779134899,-0.0025306209721719587,9.749992370605469,2019-06-03 12:23:45:314
-0.6233406662940979,-1.2561612129211426,-9.863978385925293,0.031965737391301555,-0.004794860816754693,-0.004528479689165468,9.759992122650146,2019-06-03 12:23:45:324
-0.6161758303642273,-1.2728791236877441,-9.863978385925293,0.03156616543984339,-0.00785824352395645,-0.007458672092646939,9.769993305206299,2019-06-03 12:23:45:334
-0.6137875318527222,-1.2752673625946045,-9.887861251831055,0.027037686790975218,-0.003063383227350408,-0.006925909837468489,9.779993534088135,2019-06-03 12:23:45:344
-0.5707985162734985,-1.2561612129211426,-9.856813430786133,0.028769163860230856,-0.003995717173912694,-0.005460813375653429,9.7900071144104,2019-06-03 12:23:45:354
-0.5612454414367676,-1.246608018875122,-9.813823699951172,0.03316445324567604,-0.00639314758229004,-0.003596145482528857,9.79999589920044,2019-06-03 12:23:45:364
-0.5588571429252625,-1.2776557207107544,-9.878307342529297,0.032498498606182695,-0.0037293360463234696,-0.002663811535966571,9.809994220733643,2019-06-03 12:23:45:374
-0.5779633522033691,-1.2370549440383911,-9.861589431762695,0.032631689950200285,-0.008524196603003837,-0.00639314758229004,9.819993019104004,2019-06-03 12:23:45:384
-0.5827399492263794,-1.2251135110855103,-9.868754386901855,0.03396359506799776,-0.003596145482528857,-0.0029301926635557957,9.829991817474365,2019-06-03 12:23:45:394
-0.5922930240631104,-1.2537728548049927,-9.81860065460205,0.03236530934275971,-0.00639314758229004,-0.0018646680231617348,9.840006828308105,2019-06-03 12:23:45:404
-0.5970696210861206,-1.2394431829452515,-9.883084297180176,0.0314329740958258,-0.009190149682051223,-0.00319657379114502,9.849992275238037,2019-06-03 12:23:45:414
-0.6018461585044861,-1.284820556640625,-9.885472297668457,0.03582826348127098,-0.004661669992885756,-0.003596145482528857,9.85999345779419,2019-06-03 12:23:45:424
-0.6042344570159912,-1.2370549440383911,-9.847260475158691,0.032498498606182695,-0.00985610224094996,-0.0025306209721719587,9.869992733001709,2019-06-03 12:23:45:434
-0.5660219788551331,-1.246608018875122,-9.820988655090332,0.03090021288094465,-0.007725053220236163,-0.007991434347825389,9.880125522613525,2019-06-03 12:23:45:444
-0.6209523677825928,-1.248996376991272,-9.904579162597656,0.031699356783860974,-0.009190149682051223,-0.005860385327111591,9.890047550201416,2019-06-03 12:23:45:454
-0.5875164866447449,-1.246608018875122,-9.871142387390137,0.0346295476268965,-0.005993575630831878,-0.0029301926635557957,9.900018692016602,2019-06-03 12:23:45:464
-0.5707985162734985,-1.2704908847808838,-9.849648475646973,0.03316445324567604,-0.005460813375653429,-0.002264239844582734,9.910000324249268,2019-06-03 12:23:45:474
-0.6042344570159912,-1.2561612129211426,-9.856813430786133,0.03236530934275971,-0.004661669992885756,-0.0038625266101180813,9.919999599456787,2019-06-03 12:23:45:484
-0.5970696210861206,-1.22272527217865,-9.82337760925293,0.033697214460557186,-0.007458672092646939,0.00013319057192193496,9.929995059967041,2019-06-03 12:23:45:494
-0.6090109944343567,-1.2609376907348633,-9.80188274383545,0.032498498606182695,-0.006659528709879265,-0.010522054799848697,10.300183773040771,2019-06-03 12:23:45:864
-0.5660219788551331,-1.2346667051315308,-9.866366386413574,0.03156616543984339,-0.004794860816754693,-0.0025306209721719587,10.310015678405762,2019-06-03 12:23:45:874
-0.599457859992981,-1.2752673625946045,-9.852036476135254,0.0346295476268965,-0.00159828689557251,-0.008257815475414612,10.319994926452637,2019-06-03 12:23:45:884
-0.6066226959228516,-1.282432198524475,-9.840095520019531,0.03742655128710363,-0.007192290965057714,-0.012386723213121918,10.330016136169434,2019-06-03 12:23:45:894
-0.6400586366653442,-1.2346667051315308,-9.792329788208008,0.030500640929486494,-0.007192290965057714,-0.010655246143866284,10.339993953704834,2019-06-03 12:23:45:904
-0.5875164866447449,-1.2728791236877441,-9.842483520507812,0.03129978483240282,-0.003596145482528857,-0.005194432248064204,10.350011348724365,2019-06-03 12:23:45:914
-0.635282039642334,-1.2728791236877441,-9.9308500289917,0.033697214460557186,-0.005194432248064204,-0.003596145482528857,10.360017776489258,2019-06-03 12:23:45:924
-0.5946813225746155,-1.2394431829452515,-9.81621265411377,0.032498498606182695,-0.006126766454700816,-0.007725053220236163,10.369999885559082,2019-06-03 12:23:45:934
-0.6424468755722046,-1.2346667051315308,-9.9475679397583,0.030500640929486494,-0.005993575630831878,-0.007725053220236163,10.379993438720703,2019-06-03 12:23:45:944
-0.5970696210861206,-1.258549451828003,-9.806659698486328,0.03183254604728396,-0.005993575630831878,-0.001997858586956347,10.389994144439697,2019-06-03 12:23:45:954
-0.6209523677825928,-1.2704908847808838,-9.81143569946289,0.030500640929486494,-0.0027970020997611835,-0.005860385327111591,10.400015354156494,2019-06-03 12:23:45:964
-0.5851281881332397,-1.2155604362487793,-9.837706565856934,0.03596145482528857,-0.00492805112047498,-0.006659528709879265,10.410009860992432,2019-06-03 12:23:45:974
-0.6137875318527222,-1.246608018875122,-9.890249252319336,0.033830405804574776,-0.00639314758229004,-0.007458672092646939,10.419999599456787,2019-06-03 12:23:45:984
-0.5612454414367676,-1.2681025266647339,-9.856813430786133,0.03569507213725339,-0.0017314774593671222,-0.005194432248064204,10.430013179779053,2019-06-03 12:23:45:994
-0.6066226959228516,-1.2537728548049927,-9.835318565368652,0.031166593488385227,-0.005727194503242653,-0.008657386906724124,10.439995288848877,2019-06-03 12:23:46:004
-0.6090109944343567,-1.2370549440383911,-9.861589431762695,0.031699356783860974,-0.010255674192408122,-0.0033297643549396326,10.449992656707764,2019-06-03 12:23:46:014
-0.6090109944343567,-1.282432198524475,-9.849648475646973,0.03129978483240282,-0.00985610224094996,-0.0009323340115808674,10.460014820098877,2019-06-03 12:23:46:024
-0.6161758303642273,-1.2633260488510132,-9.856813430786133,0.03010106897802833,-0.0003995717238931275,-0.0033297643549396326,10.470010757446289,2019-06-03 12:23:46:034
-0.6185641288757324,-1.2681025266647339,-9.852036476135254,0.0346295476268965,-0.011454389006485306,-0.007059100141188776,10.479998111724854,2019-06-03 12:23:46:044
-0.5636336803436279,-1.2418315410614014,-9.825765609741211,0.03436316701945592,-0.0038625266101180813,-0.00492805112047498,10.489992618560791,2019-06-03 12:23:46:054
-0.6113992929458618,-1.2704908847808838,-9.866366386413574,0.027970019957314532,-0.0021310491507509593,-0.000799143447786255,10.499992370605469,2019-06-03 12:23:46:064
-0.5946813225746155,-1.2633260488510132,-9.866366386413574,0.031699356783860974,-0.004128907737707306,-0.003063383227350408,10.509992122650146,2019-06-03 12:23:46:074
-0.6066226959228516,-1.2800439596176147,-9.837706565856934,0.03396359506799776,-0.005594004199522367,-0.0027970020997611835,10.520020008087158,2019-06-03 12:23:46:084
-0.6042344570159912,-1.282432198524475,-9.842483520507812,0.03676059872820489,-0.008923768034313348,-0.005460813375653429,10.530023574829102,2019-06-03 12:23:46:094
-0.6496117115020752,-1.2513846158981323,-9.873531341552734,0.032764881294217875,-0.007325481268778002,-0.003995717173912694,10.539995193481445,2019-06-03 12:23:46:104
-0.6161758303642273,-1.2609376907348633,-9.849648475646973,0.03676059872820489,-0.009323339985771511,-0.007991434347825389,10.549991130828857,2019-06-03 12:23:46:114
-0.6042344570159912,-1.2537728548049927,-9.849648475646973,0.03236530934275971,-0.0021310491507509593,-0.005594004199522367,10.559991359710693,2019-06-03 12:23:46:124
-0.5707985162734985,-1.246608018875122,-9.79710578918457,0.032631689950200285,-0.00159828689557251,-0.006126766454700816,10.569990634918213,2019-06-03 12:23:46:134
-0.5636336803436279,-1.2346667051315308,-9.842483520507812,0.02956830776314718,-0.002264239844582734,-0.007591862396367225,10.579990863800049,2019-06-03 12:23:46:144
-0.5922930240631104,-1.282432198524475,-9.871142387390137,0.029834688370587756,-0.006526337886010328,-0.009456530289491798,10.589993000030518,2019-06-03 12:23:46:154
-0.5755751132965088,-1.3134799003601074,-9.842483520507812,0.033564023116539596,-0.009456530289491798,-0.008124624651545674,10.599988460540771,2019-06-03 12:23:46:164
-0.5851281881332397,-1.2251135110855103,-9.895025253295898,0.03449635836347351,-0.0062599567584211025,-0.008124624651545674,10.609994411468506,2019-06-03 12:23:46:174
-0.5970696210861206,-1.2346667051315308,-9.861589431762695,0.031033404224962244,-0.005727194503242653,-0.006659528709879265,10.619993686676025,2019-06-03 12:23:46:184
-0.6113992929458618,-1.2752673625946045,-9.873531341552734,0.03436316701945592,-0.006126766454700816,-0.004395288865296531,10.63001012802124,2019-06-03 12:23:46:194
-0.5779633522033691,-1.2728791236877441,-9.856813430786133,0.03209892873531914,-0.0029301926635557957,-0.010122483888687835,10.639994144439697,2019-06-03 12:23:46:204
-0.6161758303642273,-1.246608018875122,-9.916520118713379,0.03289807055764086,-0.009589721633509386,-0.005194432248064204,10.65003490447998,2019-06-03 12:23:46:214
-0.6113992929458618,-1.2704908847808838,-9.81143569946289,0.026771304102940045,-0.0034629549187342444,-0.003995717173912694,10.660000324249268,2019-06-03 12:23:46:224
-0.6018461585044861,-1.303926706314087,-9.81621265411377,0.03542869361040742,-0.004128907737707306,-0.0017314774593671222,10.669995784759521,2019-06-03 12:23:46:234
-0.6233406662940979,-1.2322783470153809,-9.849648475646973,0.03209892873531914,-0.0037293360463234696,-0.004794860816754693,10.679994583129883,2019-06-03 12:23:46:244
-0.5851281881332397,-1.2991502285003662,-9.890249252319336,0.03489593031493167,-0.006126766454700816,-0.0062599567584211025,10.689993381500244,2019-06-03 12:23:46:254
-0.6090109944343567,-1.2657142877578735,-9.868754386901855,0.029435116419129593,-0.003995717173912694,-0.003995717173912694,10.699993133544922,2019-06-03 12:23:46:264
-0.6209523677825928,-1.2298901081085205,-9.83054256439209,0.0346295476268965,-0.001997858586956347,0.0033297643549396326,10.709993839263916,2019-06-03 12:23:46:274
-0.6209523677825928,-1.246608018875122,-9.789941787719727,0.028769163860230856,-0.0010655245753754797,0.0014650963317778978,10.719993114471436,2019-06-03 12:23:46:284
-0.6113992929458618,-1.2322783470153809,-9.806659698486328,0.028769163860230856,-0.007591862396367225,-0.00492805112047498,10.730011463165283,2019-06-03 12:23:46:294
-0.6090109944343567,-1.2179486751556396,-9.875919342041016,0.02916873581168902,-0.006526337886010328,-0.009989292544670247,10.739995956420898,2019-06-03 12:23:46:304
-0.6042344570159912,-1.2633260488510132,-9.79710578918457,0.03329764250909902,-0.005327623071933142,-0.005993575630831878,10.749993801116943,2019-06-03 12:23:46:314
-0.5970696210861206,-1.2442197799682617,-9.873531341552734,0.03010106897802833,-0.008257815475414612,-0.009722911937229673,10.760020732879639,2019-06-03 12:23:46:324
-0.5731868147850037,-1.2179486751556396,-9.847260475158691,0.032498498606182695,-0.002663811535966571,0.0,10.769999027252197,2019-06-03 12:23:46:334
-0.6137875318527222,-1.2800439596176147,-9.840095520019531,0.031033404224962244,-0.003995717173912694,-0.00319657379114502,10.779991149902344,2019-06-03 12:23:46:344
-0.6137875318527222,-1.2298901081085205,-9.832930564880371,0.02956830776314718,-0.007458672092646939,-0.008257815475414612,10.789991855621338,2019-06-03 12:23:46:354
-0.599457859992981,-1.2752673625946045,-9.80188274383545,0.031033404224962244,-0.005727194503242653,-0.0033297643549396326,10.79999589920044,2019-06-03 12:23:46:364
-0.58990478515625,-1.2418315410614014,-9.861589431762695,0.03010106897802833,-0.007591862396367225,-0.004661669992885756,10.81001615524292,2019-06-03 12:23:46:374
-0.6137875318527222,-1.2346667051315308,-9.82337760925293,0.032631689950200285,-0.0062599567584211025,-0.0034629549187342444,10.820019245147705,2019-06-03 12:23:46:384
-0.6305055022239685,-1.2895970344543457,-9.847260475158691,0.03542869361040742,-0.006126766454700816,-0.0011987152041886733,10.830019474029541,2019-06-03 12:23:46:394
-0.5970696210861206,-1.246608018875122,-9.828153610229492,0.03183254604728396,-0.009056959378330936,-0.007192290965057714,10.839996337890625,2019-06-03 12:23:46:404
-0.5970696210861206,-1.2537728548049927,-9.897414207458496,0.03156616543984339,-0.004794860816754693,-0.0038625266101180813,10.849990367889404,2019-06-03 12:23:46:414
-0.6042344570159912,-1.2275018692016602,-9.866366386413574,0.0346295476268965,-0.0037293360463234696,-0.005594004199522367,10.859996318817139,2019-06-03 12:23:46:424
-0.5946813225746155,-1.2298901081085205,-9.897414207458496,0.027970019957314532,-0.003063383227350408,-0.004661669992885756,10.870036602020264,2019-06-03 12:23:46:434
-0.6209523677825928,-1.282432198524475,-9.868754386901855,0.027970019957314532,-0.00319657379114502,-0.009323339985771511,10.87999963760376,2019-06-03 12:23:46:444
-0.5875164866447449,-1.2752673625946045,-9.871142387390137,0.03329764250909902,-0.00985610224094996,-0.00785824352395645,10.890004634857178,2019-06-03 12:23:46:454
-0.625728964805603,-1.2322783470153809,-9.899802207946777,0.03516231092237225,-0.006126766454700816,-0.003995717173912694,10.899996280670166,2019-06-03 12:23:46:464
-0.5588571429252625,-1.2442197799682617,-9.806659698486328,0.03183254604728396,-0.009456530289491798,-0.008391005779134899,10.909993648529053,2019-06-03 12:23:46:474
-0.6137875318527222,-1.282432198524475,-9.82337760925293,0.030500640929486494,-0.006925909837468489,-0.012919485468300369,10.91999101638794,2019-06-03 12:23:46:484
-0.5946813225746155,-1.284820556640625,-9.861589431762695,0.032764881294217875,-0.006126766454700816,0.0018646680231617348,10.930012226104736,2019-06-03 12:23:46:494
-0.5946813225746155,-1.2179486751556396,-9.868754386901855,0.03063383227350408,-0.005860385327111591,-0.004794860816754693,10.940011978149414,2019-06-03 12:23:46:504
-0.5875164866447449,-1.2609376907348633,-9.832930564880371,0.031033404224962244,-0.00492805112047498,-0.005594004199522367,10.950007915496826,2019-06-03 12:23:46:514
-0.6090109944343567,-1.2776557207107544,-9.828153610229492,0.03396359506799776,-0.0013319057679832855,-0.007991434347825389,10.959996223449707,2019-06-03 12:23:46:524
-0.6185641288757324,-1.2728791236877441,-9.80427074432373,0.031699356783860974,-0.009056959378330936,-0.005993575630831878,10.969994068145752,2019-06-03 12:23:46:534
-0.5803516507148743,-1.2251135110855103,-9.856813430786133,0.031033404224962244,-0.005860385327111591,-0.008257815475414612,11.510137557983398,2019-06-03 12:23:47:074
-0.6113992929458618,-1.2298901081085205,-9.849648475646973,0.029701497026570163,-0.00492805112047498,-0.011188008399044734,11.520010948181152,2019-06-03 12:23:47:084
-0.599457859992981,-1.2657142877578735,-9.859201431274414,0.0303674495854689,-0.005594004199522367,-0.011054817055027146,11.530005931854248,2019-06-03 12:23:47:094
-0.6042344570159912,-1.2752673625946045,-9.871142387390137,0.0346295476268965,-0.0034629549187342444,-0.008524196603003837,11.53999948501587,2019-06-03 12:23:47:104
-0.58990478515625,-1.2322783470153809,-9.875919342041016,0.032498498606182695,-0.0017314774593671222,-0.005594004199522367,11.550014972686768,2019-06-03 12:23:47:114
-0.6113992929458618,-1.2442197799682617,-9.935626029968262,0.03316445324567604,-0.003596145482528857,-0.0038625266101180813,11.560028076171875,2019-06-03 12:23:47:124
-0.6161758303642273,-1.2681025266647339,-9.863978385925293,0.031033404224962244,-0.005594004199522367,-0.00639314758229004,11.57001256942749,2019-06-03 12:23:47:134
-0.5684102773666382,-1.2394431829452515,-9.854424476623535,0.032631689950200285,-0.007192290965057714,-0.005460813375653429,11.580008029937744,2019-06-03 12:23:47:144
-0.599457859992981,-1.282432198524475,-9.899802207946777,0.031166593488385227,-0.004794860816754693,-0.006792719013599553,11.590006351470947,2019-06-03 12:23:47:154
-0.5970696210861206,-1.2537728548049927,-9.835318565368652,0.038225695190019955,-0.005194432248064204,-0.007325481268778002,11.599991798400879,2019-06-03 12:23:47:164
-0.5970696210861206,-1.2728791236877441,-9.890249252319336,0.03236530934275971,-0.004262098301501919,-0.006659528709879265,11.609995365142822,2019-06-03 12:23:47:174
-0.5946813225746155,-1.2704908847808838,-9.832930564880371,0.03303126190165845,-0.0037293360463234696,-0.007991434347825389,11.619995594024658,2019-06-03 12:23:47:184
-0.5445274710655212,-1.2561612129211426,-9.866366386413574,0.032764881294217875,0.0009323340115808674,-0.004262098301501919,11.630000114440918,2019-06-03 12:23:47:194
-0.599457859992981,-1.246608018875122,-9.875919342041016,0.028769163860230856,-0.005460813375653429,-0.003995717173912694,11.639994144439697,2019-06-03 12:23:47:204
-0.58990478515625,-1.1964541673660278,-9.849648475646973,0.030500640929486494,-0.007591862396367225,-0.005727194503242653,11.650012493133545,2019-06-03 12:23:47:214
-0.599457859992981,-1.22272527217865,-9.842483520507812,0.028769163860230856,-0.005194432248064204,-0.008790577730593063,11.659997463226318,2019-06-03 12:23:47:224
-0.6090109944343567,-1.2609376907348633,-9.849648475646973,0.0314329740958258,-0.0009323340115808674,-0.005860385327111591,11.669992923736572,2019-06-03 12:23:47:234
-0.6018461585044861,-1.2179486751556396,-9.887861251831055,0.03129978483240282,-0.00319657379114502,-0.00492805112047498,11.680023670196533,2019-06-03 12:23:47:244
-0.6113992929458618,-1.2036190032958984,-9.863978385925293,0.029435116419129593,-0.004128907737707306,-0.006925909837468489,11.690011501312256,2019-06-03 12:23:47:254
-0.5970696210861206,-1.2513846158981323,-9.775611877441406,0.03622783751332374,-0.007725053220236163,-0.004794860816754693,11.699998378753662,2019-06-03 12:23:47:264
-0.5922930240631104,-1.2394431829452515,-9.904579162597656,0.028369591908772692,-0.00639314758229004,-0.0017314774593671222,11.709994792938232,2019-06-03 12:23:47:274
-0.599457859992981,-1.2418315410614014,-9.81621265411377,0.030234260322045917,-0.005327623071933142,-0.0021310491507509593,11.71999216079712,2019-06-03 12:23:47:284
-0.5970696210861206,-1.258549451828003,-9.794717788696289,0.03316445324567604,-0.006659528709879265,-0.0010655245753754797,11.729992866516113,2019-06-03 12:23:47:294
-0.6209523677825928,-1.2967618703842163,-9.9117431640625,0.03329764250909902,-0.005860385327111591,-0.0011987152041886733,11.739993572235107,2019-06-03 12:23:47:304
-0.6018461585044861,-1.2776557207107544,-9.849648475646973,0.0314329740958258,-0.0038625266101180813,-0.005327623071933142,11.75001049041748,2019-06-03 12:23:47:314
-0.6161758303642273,-1.2537728548049927,-9.863978385925293,0.03582826348127098,-0.007192290965057714,-0.00985610224094996,11.760182857513428,2019-06-03 12:23:47:324
-0.6066226959228516,-1.2513846158981323,-9.828153610229492,0.030767021536927064,-0.005194432248064204,-0.0017314774593671222,11.770023822784424,2019-06-03 12:23:47:334
-0.5803516507148743,-1.2561612129211426,-9.768446922302246,0.03289807055764086,-0.0025306209721719587,-0.004262098301501919,11.780000686645508,2019-06-03 12:23:47:344
-0.6066226959228516,-1.246608018875122,-9.81621265411377,0.03343083385311661,-0.007325481268778002,-0.011054817055027146,11.789998531341553,2019-06-03 12:23:47:354
