ACCELEROMETER X (m/s²),ACCELEROMETER Y (m/s²),ACCELEROMETER Z (m/s²),GRAVITY X (m/s²),GRAVITY Y (m/s²),GRAVITY Z (m/s²),LINEAR ACCELERATION X (m/s²),LINEAR ACCELERATION Y (m/s²),LINEAR ACCELERATION Z (m/s²),GYROSCOPE X (rad/s),GYROSCOPE Y (rad/s),GYROSCOPE Z (rad/s),MAGNETIC FIELD X (μT),MAGNETIC FIELD Y (μT),MAGNETIC FIELD Z (μT),ORIENTATION Z (azimuth °),ORIENTATION X (pitch °),ORIENTATION Y (roll °),Time since start in ms ,YYYY-MO-DD HH-MI-SS_SSS
-0.72,-0.32,-9.48,0.05,0.5,-9.79,-0.05,0.03,-0.1,0,0,0.01,-11.1,10.01,67.98,321.637,-2.924,-179.707,4,2019-05-30 12:12:14:353
-0.72,-0.32,-9.48,0.05,0.5,-9.79,-0.05,0.03,-0.1,0,0,0.01,-11.1,10.01,67.98,321.637,-2.924,-179.707,10,2019-05-30 12:12:14:359
-0.72,-0.32,-9.48,0.05,0.5,-9.79,-0.05,0.03,-0.1,0,0,0.01,-11.1,10.01,67.98,321.637,-2.924,-179.707,15,2019-05-30 12:12:14:364
-0.72,-0.32,-9.48,0.05,0.5,-9.79,-0.05,0.03,-0.1,0,0,0.01,-11.1,10.01,67.98,321.637,-2.924,-179.707,20,2019-05-30 12:12:14:369
-0.72,-0.32,-9.48,0.05,0.5,-9.79,-0.05,0.03,-0.1,0,0,0.01,-11.1,10.01,67.98,321.637,-2.924,-179.707,25,2019-05-30 12:12:14:374
0.73,1,-10.73,0.05,0.5,-9.79,-0.05,0.03,-0.1,0.04,-0.03,0.03,-10.44,10.19,67.86,324.35,-2.924,-179.707,30,2019-05-30 12:12:14:379
0.73,1,-10.73,0.05,0.51,-9.79,0.61,0.53,-1,0.04,-0.03,0.03,-10.44,10.19,67.86,324.35,-2.924,-179.707,35,2019-05-30 12:12:14:384
0.73,1,-10.73,0.05,0.51,-9.79,0.61,0.53,-1,0.04,-0.03,0.03,-10.44,10.19,67.86,324.35,-2.924,-179.707,40,2019-05-30 12:12:14:389
0.73,1,-10.73,0.05,0.51,-9.79,0.61,0.53,-1,0.04,-0.03,0.03,-10.44,10.19,67.86,324.35,-2.924,-179.707,45,2019-05-30 12:12:14:394
0.73,1,-10.73,0.05,0.51,-9.79,0.61,0.53,-1,0.04,-0.03,0.03,-10.44,10.19,67.86,324.35,-2.924,-179.707,50,2019-05-30 12:12:14:399
0.73,1,-10.73,0.05,0.51,-9.79,0.61,0.53,-1,0.04,-0.03,0.03,-10.44,10.19,67.86,324.35,-2.924,-179.707,55,2019-05-30 12:12:14:404
-0.18,0.61,-10.73,0.05,0.51,-9.79,0.61,0.53,-1,0.04,-0.03,0.03,-10.44,10.19,67.86,324.35,-2.924,-179.707,61,2019-05-30 12:12:14:410
-0.18,0.61,-10.73,0.05,0.51,-9.79,0.61,0.53,-1,0.04,-0.03,0.03,-10.44,10.19,67.86,324.35,-2.924,-179.707,65,2019-05-30 12:12:14:414
-0.18,0.61,-10.73,0.05,0.51,-9.79,0,0.03,0.36,0.01,0,-0.01,-10.13,10.97,67.56,324.35,-2.924,-179.707,70,2019-05-30 12:12:14:419
-0.18,0.61,-10.73,0.05,0.51,-9.79,0,0.03,0.36,0.01,0,-0.01,-10.13,10.97,67.56,324.35,-2.924,-179.707,75,2019-05-30 12:12:14:424
-0.18,0.61,-10.73,0.05,0.51,-9.79,0,0.03,0.36,0.01,0,-0.01,-10.13,10.97,67.56,324.35,-2.924,-179.707,80,2019-05-30 12:12:14:429
-0.18,0.61,-10.73,0.05,0.51,-9.79,0,0.03,0.36,0.01,0,-0.01,-10.13,10.97,67.56,324.35,-2.924,-179.707,84,2019-05-30 12:12:14:433
0.38,0.25,-9.63,0.05,0.51,-9.79,0,0.03,0.36,0.01,0,-0.01,-10.13,10.97,67.56,324.35,-2.924,-179.707,90,2019-05-30 12:12:14:439
0.38,0.25,-9.63,0.05,0.51,-9.79,0,0.03,0.36,0.01,0,-0.01,-10.13,10.97,67.56,324.35,-2.924,-179.707,95,2019-05-30 12:12:14:444
0.38,0.25,-9.63,0.05,0.51,-9.79,0,0.03,0.36,0.02,0.01,0,-10.08,10.91,67.38,326.286,-2.982,-179.707,100,2019-05-30 12:12:14:449
0.38,0.25,-9.63,0.05,0.51,-9.79,-0.06,-0.1,-0.27,0.02,0.01,0,-10.08,10.91,67.38,326.286,-2.982,-179.707,105,2019-05-30 12:12:14:454
0.38,0.25,-9.63,0.05,0.51,-9.79,-0.06,-0.1,-0.27,0.02,0.01,0,-10.08,10.91,67.38,326.286,-2.982,-179.707,110,2019-05-30 12:12:14:459
0.38,0.25,-9.63,0.05,0.51,-9.79,-0.06,-0.1,-0.27,0.02,0.01,0,-10.08,10.91,67.38,326.286,-2.982,-179.707,115,2019-05-30 12:12:14:464
0.38,0.25,-9.63,0.05,0.51,-9.79,-0.06,-0.1,-0.27,0.02,0.01,0,-10.08,10.91,67.38,326.286,-2.982,-179.707,120,2019-05-30 12:12:14:469
0.38,0.25,-9.63,0.05,0.51,-9.79,-0.06,-0.1,-0.27,0.02,0.01,0,-10.08,10.91,67.38,326.286,-2.982,-179.707,125,2019-05-30 12:12:14:474
0.38,0.25,-9.63,0.05,0.51,-9.79,-0.06,-0.1,-0.27,0.02,0.01,0,-10.08,10.91,67.38,326.286,-2.982,-179.707,130,2019-05-30 12:12:14:479
-0.11,0.32,-9.47,0.05,0.51,-9.79,-0.21,-0.13,0.23,-0.01,0,0.01,-10.25,11.04,67.68,326.286,-2.982,-179.707,135,2019-05-30 12:12:14:484
-0.11,0.32,-9.47,0.05,0.51,-9.79,-0.21,-0.13,0.23,-0.01,0,0.01,-10.25,11.04,67.68,326.286,-2.982,-179.707,140,2019-05-30 12:12:14:489
-0.11,0.32,-9.47,0.05,0.51,-9.79,-0.21,-0.13,0.23,-0.01,0,0.01,-10.25,11.04,67.68,326.286,-2.982,-179.707,144,2019-05-30 12:12:14:493
-0.11,0.32,-9.47,0.05,0.51,-9.79,-0.21,-0.13,0.23,-0.01,0,0.01,-10.25,11.04,67.68,326.286,-2.982,-179.707,150,2019-05-30 12:12:14:499
-0.11,0.32,-9.47,0.05,0.51,-9.79,-0.21,-0.13,0.23,-0.01,0,0.01,-10.25,11.04,67.68,326.286,-2.982,-179.707,154,2019-05-30 12:12:14:503
-0.11,0.32,-9.47,0.05,0.51,-9.79,-0.21,-0.13,0.23,-0.01,0,0.01,-10.25,11.04,67.68,326.286,-2.982,-179.707,160,2019-05-30 12:12:14:509
-0.11,0.32,-9.47,0.05,0.51,-9.79,-0.21,-0.13,0.23,-0.01,0,0.01,-10.25,11.04,67.68,326.286,-2.982,-179.707,165,2019-05-30 12:12:14:514
0.02,0.45,-9.59,0.05,0.51,-9.79,-0.21,-0.13,0.23,-0.01,0,0.01,-10.74,10.01,68.04,321.779,-2.982,-179.707,170,2019-05-30 12:12:14:519
0.02,0.45,-9.59,0.05,0.51,-9.79,-0.07,0,0.12,-0.01,0.01,0,-10.74,10.01,68.04,321.779,-2.982,-179.707,175,2019-05-30 12:12:14:524
0.02,0.45,-9.59,0.05,0.51,-9.79,-0.07,0,0.12,-0.01,0.01,0,-10.74,10.01,68.04,321.779,-2.982,-179.707,179,2019-05-30 12:12:14:528
0.02,0.45,-9.59,0.05,0.51,-9.79,-0.07,0,0.12,-0.01,0.01,0,-10.74,10.01,68.04,321.779,-2.982,-179.707,184,2019-05-30 12:12:14:533
0.02,0.45,-9.59,0.05,0.51,-9.79,-0.07,0,0.12,-0.01,0.01,0,-10.74,10.01,68.04,321.779,-2.982,-179.707,190,2019-05-30 12:12:14:539
0.02,0.45,-9.59,0.05,0.51,-9.79,-0.07,0,0.12,-0.01,0.01,0,-10.74,10.01,68.04,321.779,-2.982,-179.707,195,2019-05-30 12:12:14:544
0.02,0.45,-9.59,0.05,0.51,-9.79,-0.07,0,0.12,-0.01,0.01,0,-10.74,10.01,68.04,321.779,-2.982,-179.707,200,2019-05-30 12:12:14:549
0.02,0.45,-9.59,0.05,0.51,-9.79,-0.07,0,0.12,-0.01,0.01,0,-10.74,10.01,68.04,321.779,-2.982,-179.707,205,2019-05-30 12:12:14:554
0.26,0.56,-9.58,0.05,0.51,-9.79,-0.07,0,0.12,-0.01,0.01,0,-10.74,10.55,68.52,321.779,-2.982,-179.707,209,2019-05-30 12:12:14:558
0.26,0.56,-9.58,0.05,0.51,-9.79,0.15,0.07,0.12,-0.01,0,0,-11.16,10.55,68.52,321.779,-2.982,-179.707,215,2019-05-30 12:12:14:564
0.26,0.56,-9.58,0.05,0.51,-9.79,0.15,0.07,0.12,-0.01,0,0,-11.16,10.55,68.52,321.779,-2.982,-179.707,219,2019-05-30 12:12:14:568
0.26,0.56,-9.58,0.05,0.51,-9.79,0.15,0.07,0.12,-0.01,0,0,-11.16,10.55,68.52,321.779,-2.982,-179.707,225,2019-05-30 12:12:14:574
0.26,0.56,-9.58,0.05,0.51,-9.79,0.15,0.07,0.12,-0.01,0,0,-11.16,10.55,68.52,321.779,-2.982,-179.707,230,2019-05-30 12:12:14:579
0.26,0.56,-9.58,0.05,0.51,-9.79,0.15,0.07,0.12,-0.01,0,0,-11.16,10.55,68.52,321.779,-2.982,-179.707,235,2019-05-30 12:12:14:584
0.26,0.56,-9.58,0.05,0.51,-9.79,0.15,0.07,0.12,-0.01,0,0,-11.16,10.55,68.52,321.779,-2.982,-179.707,240,2019-05-30 12:12:14:589
0.26,0.56,-9.58,0.05,0.51,-9.79,0.15,0.07,0.12,-0.01,0,0,-11.16,10.55,68.52,321.779,-2.982,-179.707,245,2019-05-30 12:12:14:594
0.15,0.38,-9.68,0.05,0.51,-9.79,0.04,-0.09,0.04,0,0,0,-10.5,10.01,67.8,324.488,-2.982,-179.707,250,2019-05-30 12:12:14:599
0.15,0.38,-9.68,0.05,0.51,-9.79,0.04,-0.09,0.04,0,0,0,-10.5,10.01,67.8,324.488,-2.982,-179.707,255,2019-05-30 12:12:14:604
0.15,0.38,-9.68,0.05,0.51,-9.79,0.04,-0.09,0.04,0,0,0,-10.5,10.01,67.8,324.488,-2.982,-179.707,260,2019-05-30 12:12:14:609
0.15,0.38,-9.68,0.05,0.51,-9.79,0.04,-0.09,0.04,0,0,0,-10.5,10.01,67.8,324.488,-2.982,-179.707,265,2019-05-30 12:12:14:614
0.15,0.38,-9.68,0.05,0.51,-9.79,0.04,-0.09,0.04,0,0,0,-10.5,10.01,67.8,324.488,-2.982,-179.707,270,2019-05-30 12:12:14:619
0.15,0.38,-9.68,0.05,0.51,-9.79,0.04,-0.09,0.04,0,0,0,-10.5,10.01,67.8,324.488,-2.982,-179.707,275,2019-05-30 12:12:14:624
0.15,0.38,-9.68,0.05,0.51,-9.79,0.04,-0.09,0.04,0,0,0,-10.5,10.01,67.8,324.488,-2.982,-179.707,280,2019-05-30 12:12:14:629
-0.02,0.47,-9.68,0.05,0.51,-9.79,-0.1,-0.01,0.03,0,0,0,-10.44,10.32,68.69,324.488,-2.982,-179.707,285,2019-05-30 12:12:14:634
-0.02,0.47,-9.68,0.05,0.51,-9.79,-0.1,-0.01,0.03,0,0,0,-10.44,10.32,68.69,324.488,-2.982,-179.707,290,2019-05-30 12:12:14:639
-0.02,0.47,-9.68,0.05,0.51,-9.79,-0.1,-0.01,0.03,0,0,0,-10.44,10.32,68.69,324.488,-2.982,-179.707,295,2019-05-30 12:12:14:644
-0.02,0.47,-9.68,0.05,0.51,-9.79,-0.1,-0.01,0.03,0,0,0,-10.44,10.32,68.69,324.488,-2.982,-179.707,300,2019-05-30 12:12:14:649
-0.02,0.47,-9.68,0.05,0.51,-9.79,-0.1,-0.01,0.03,0,0,0,-10.44,10.32,68.69,324.488,-2.982,-179.707,305,2019-05-30 12:12:14:654
-0.02,0.47,-9.68,0.05,0.51,-9.79,-0.1,-0.01,0.03,0,0,0,-10.44,10.32,68.69,324.488,-2.982,-179.707,309,2019-05-30 12:12:14:658
-0.02,0.47,-9.68,0.05,0.51,-9.79,-0.1,-0.01,0.03,0,0,0,-10.44,10.32,68.69,324.488,-2.982,-179.707,315,2019-05-30 12:12:14:664
-0.02,0.47,-9.68,0.05,0.51,-9.79,-0.1,-0.01,0.03,0,0,0,-10.44,10.32,68.69,324.488,-2.982,-179.707,319,2019-05-30 12:12:14:668
-0.02,0.47,-9.68,0.05,0.51,-9.79,-0.1,-0.01,0.03,0,0,0,-10.44,10.32,68.69,324.488,-2.982,-179.707,325,2019-05-30 12:12:14:674
0.17,0.51,-9.61,0.05,0.51,-9.79,-0.1,-0.01,0.03,0,0,0,-10.44,10.32,68.69,324.488,-2.982,-179.707,329,2019-05-30 12:12:14:678
0.17,0.51,-9.61,0.05,0.51,-9.79,0.08,0.02,0.1,0,0,0,-11.16,10.97,68.22,323.745,-2.982,-179.707,335,2019-05-30 12:12:14:684
0.17,0.51,-9.61,0.05,0.51,-9.79,0.08,0.02,0.1,0,0,0,-11.16,10.97,68.22,323.745,-2.982,-179.707,341,2019-05-30 12:12:14:690
0.17,0.51,-9.61,0.05,0.51,-9.79,0.08,0.02,0.1,0,0,0,-11.16,10.97,68.22,323.745,-2.982,-179.707,345,2019-05-30 12:12:14:694
0.17,0.51,-9.61,0.05,0.51,-9.79,0.08,0.02,0.1,0,0,0,-11.16,10.97,68.22,323.745,-2.982,-179.707,352,2019-05-30 12:12:14:701
0.17,0.51,-9.61,0.05,0.51,-9.79,0.08,0.02,0.1,0,0,0,-11.16,10.97,68.22,323.745,-2.982,-179.707,355,2019-05-30 12:12:14:704
0.17,0.51,-9.61,0.05,0.51,-9.79,0.08,0.02,0.1,0,0,0,-11.16,10.97,68.22,323.745,-2.982,-179.707,360,2019-05-30 12:12:14:709
0.17,0.51,-9.61,0.05,0.51,-9.79,0.08,0.02,0.1,0,0,0,-11.16,10.97,68.22,323.745,-2.982,-179.707,365,2019-05-30 12:12:14:714
0.17,0.51,-9.61,0.05,0.51,-9.79,0.08,0.02,0.1,0,0,0,-11.16,10.97,68.22,323.745,-2.982,-179.707,370,2019-05-30 12:12:14:719
0.08,0.49,-9.69,0.05,0.51,-9.79,-0.01,0,0.02,0,0,0,-11.27,9.77,67.68,323.745,-2.982,-179.707,374,2019-05-30 12:12:14:723
0.08,0.49,-9.69,0.05,0.51,-9.79,-0.01,0,0.02,0,0,0,-11.27,9.77,67.68,323.745,-2.982,-179.707,380,2019-05-30 12:12:14:729
0.08,0.49,-9.69,0.05,0.51,-9.79,-0.01,0,0.02,0,0,0,-11.27,9.77,67.68,323.745,-2.982,-179.707,385,2019-05-30 12:12:14:734
0.08,0.49,-9.69,0.05,0.51,-9.79,-0.01,0,0.02,0,0,0,-11.27,9.77,67.68,323.745,-2.982,-179.707,390,2019-05-30 12:12:14:739
0.08,0.49,-9.69,0.05,0.51,-9.79,-0.01,0,0.02,0,0,0,-11.27,9.77,67.68,323.745,-2.982,-179.707,395,2019-05-30 12:12:14:744
0.08,0.49,-9.69,0.05,0.51,-9.79,-0.01,0,0.02,0,0,0,-11.27,9.77,67.68,323.745,-2.982,-179.707,400,2019-05-30 12:12:14:749
0.08,0.49,-9.69,0.05,0.51,-9.79,-0.01,0,0.02,0,0,0,-11.27,9.77,67.68,323.745,-2.982,-179.707,405,2019-05-30 12:12:14:754
0.07,0.49,-9.66,0.05,0.51,-9.79,-0.01,0,0.02,0,0,0,-11.27,9.77,67.68,323.745,-2.982,-179.707,410,2019-05-30 12:12:14:759
0.07,0.49,-9.66,0.05,0.51,-9.79,0,0,0.06,0,0,0,-10.97,10.32,68.04,321.779,-2.982,-179.707,415,2019-05-30 12:12:14:764
0.07,0.49,-9.66,0.05,0.51,-9.79,0,0,0.06,0,0,0,-10.97,10.32,68.04,321.779,-2.982,-179.707,420,2019-05-30 12:12:14:769
0.07,0.49,-9.66,0.05,0.51,-9.79,0,0,0.06,0,0,0,-10.97,10.32,68.04,321.779,-2.982,-179.707,425,2019-05-30 12:12:14:774
0.07,0.49,-9.66,0.05,0.51,-9.79,0,0,0.06,0,0,0,-10.97,10.32,68.04,321.779,-2.982,-179.707,430,2019-05-30 12:12:14:779
0.07,0.49,-9.66,0.05,0.51,-9.79,0,0,0.06,0,0,0,-10.97,10.32,68.04,321.779,-2.982,-179.707,435,2019-05-30 12:12:14:784
0.06,0.46,-9.76,0.05,0.51,-9.79,0,0,0.06,0,0,0,-10.97,10.32,68.04,321.779,-2.982,-179.707,439,2019-05-30 12:12:14:788
0.06,0.46,-9.76,0.05,0.51,-9.79,-0.01,-0.02,-0.04,0,0,0,-10.55,10.79,68.22,321.779,-2.982,-179.707,444,2019-05-30 12:12:14:793
0.06,0.46,-9.76,0.05,0.51,-9.79,-0.01,-0.02,-0.04,0,0,0,-10.55,10.79,68.22,321.779,-2.982,-179.707,450,2019-05-30 12:12:14:799
0.06,0.46,-9.76,0.05,0.51,-9.79,-0.01,-0.02,-0.04,0,0,0,-10.55,10.79,68.22,321.779,-2.982,-179.707,455,2019-05-30 12:12:14:804
0.06,0.46,-9.76,0.05,0.51,-9.79,-0.01,-0.02,-0.04,0,0,0,-10.55,10.79,68.22,321.779,-2.982,-179.707,460,2019-05-30 12:12:14:809
0.06,0.46,-9.76,0.05,0.51,-9.79,-0.01,-0.02,-0.04,0,0,0,-10.55,10.79,68.22,321.779,-2.982,-179.707,465,2019-05-30 12:12:14:814
0.02,0.51,-9.74,0.05,0.51,-9.79,-0.04,0,-0.02,0,0,0,-10.55,10.79,68.22,321.779,-2.982,-179.707,470,2019-05-30 12:12:14:819
0.02,0.51,-9.74,0.05,0.51,-9.79,-0.04,0,-0.02,0,0,0,-10.55,10.79,68.22,321.779,-2.982,-179.707,475,2019-05-30 12:12:14:824
0.02,0.51,-9.74,0.05,0.51,-9.79,-0.04,0,-0.02,0,0,0,-10.55,10.79,68.22,321.779,-2.982,-179.707,479,2019-05-30 12:12:14:828
0.02,0.51,-9.74,0.05,0.51,-9.79,-0.04,0,-0.02,0,0,0,-10.97,10.01,68.16,321.779,-2.982,-179.707,485,2019-05-30 12:12:14:834
0.02,0.51,-9.74,0.05,0.51,-9.79,-0.04,0,-0.02,0,0,0,-10.97,10.01,68.16,321.779,-2.982,-179.707,490,2019-05-30 12:12:14:839
0.02,0.51,-9.74,0.05,0.51,-9.79,-0.04,0,-0.02,0,0,0,-10.97,10.01,68.16,321.779,-2.982,-179.707,495,2019-05-30 12:12:14:844
0.02,0.51,-9.74,0.05,0.51,-9.79,-0.04,0,-0.02,0,0,0,-10.97,10.01,68.16,321.779,-2.982,-179.707,500,2019-05-30 12:12:14:849
0.04,0.47,-9.72,0.05,0.51,-9.79,-0.04,-0.02,0,0,0,0,-10.97,10.01,68.16,321.779,-2.982,-179.707,507,2019-05-30 12:12:14:856
0.04,0.47,-9.72,0.05,0.51,-9.79,-0.04,-0.02,0,0,0,0,-10.97,10.01,68.16,321.779,-2.982,-179.707,509,2019-05-30 12:12:14:858
0.04,0.47,-9.72,0.05,0.51,-9.79,-0.04,-0.02,0,0,0,0,-10.97,10.01,68.16,321.779,-2.982,-179.707,514,2019-05-30 12:12:14:863
0.04,0.47,-9.72,0.05,0.51,-9.79,-0.04,-0.02,0,0,0,0.01,-10.74,9.77,67.8,321.779,-2.982,-179.707,519,2019-05-30 12:12:14:868
0.04,0.47,-9.72,0.05,0.51,-9.79,-0.04,-0.02,0,0,0,0.01,-10.74,9.77,67.8,321.779,-2.982,-179.707,525,2019-05-30 12:12:14:874
0.04,0.47,-9.72,0.05,0.51,-9.79,-0.04,-0.02,0,0,0,0.01,-10.74,9.77,67.8,321.779,-2.982,-179.707,530,2019-05-30 12:12:14:879
0.04,0.47,-9.72,0.05,0.51,-9.79,-0.04,-0.02,0,0,0,0.01,-10.74,9.77,67.8,321.779,-2.982,-179.707,535,2019-05-30 12:12:14:884
0.04,0.47,-9.72,0.05,0.51,-9.79,-0.04,-0.02,0,0,0,0.01,-10.74,9.77,67.8,321.779,-2.982,-179.707,540,2019-05-30 12:12:14:889
0.04,0.47,-9.72,0.05,0.51,-9.79,-0.04,-0.02,0,0,0,0.01,-10.74,9.77,67.8,321.779,-2.982,-179.707,544,2019-05-30 12:12:14:893
0.06,0.42,-9.71,0.05,0.51,-9.79,-0.04,-0.02,0,0,0,0.01,-11.03,9.89,67.98,321.779,-2.982,-179.707,549,2019-05-30 12:12:14:898
0.06,0.42,-9.71,0.05,0.51,-9.79,-0.01,-0.07,0,0,0,0.01,-11.03,9.89,67.98,321.779,-2.982,-179.707,555,2019-05-30 12:12:14:904
0.06,0.42,-9.71,0.05,0.51,-9.79,-0.01,-0.07,0,0,0,0.01,-11.03,9.89,67.98,321.779,-2.982,-179.707,560,2019-05-30 12:12:14:909
0.06,0.42,-9.71,0.05,0.51,-9.79,-0.01,-0.07,0,0,0,0.01,-11.03,9.89,67.98,321.779,-2.982,-179.707,564,2019-05-30 12:12:14:913
0.06,0.42,-9.71,0.05,0.51,-9.79,-0.01,-0.07,0,0,0,0.01,-11.03,9.89,67.98,321.779,-2.982,-179.707,570,2019-05-30 12:12:14:919
0.06,0.42,-9.71,0.05,0.51,-9.79,-0.01,-0.07,0,0,0,0.01,-11.03,9.89,67.98,321.779,-2.982,-179.707,575,2019-05-30 12:12:14:924
0.06,0.42,-9.71,0.05,0.51,-9.79,-0.01,-0.07,0,0,0,0.01,-11.03,9.89,67.98,321.779,-2.982,-179.707,580,2019-05-30 12:12:14:929
0.06,0.42,-9.71,0.05,0.51,-9.79,-0.01,-0.07,0,0,0,0.01,-11.03,9.89,67.98,321.779,-2.982,-179.707,585,2019-05-30 12:12:14:934
0.08,0.6,-9.7,0.05,0.51,-9.79,0,0.1,0,0,0,0.01,-10.74,9.71,67.68,321.779,-2.982,-179.707,590,2019-05-30 12:12:14:939
0.08,0.6,-9.7,0.05,0.51,-9.79,0,0.1,0,0,0,0.01,-10.74,9.71,67.68,321.779,-2.982,-179.707,595,2019-05-30 12:12:14:944
0.08,0.6,-9.7,0.05,0.51,-9.79,0,0.1,0,0,0,0.01,-10.74,9.71,67.68,321.779,-2.982,-179.707,600,2019-05-30 12:12:14:949
0.08,0.6,-9.7,0.05,0.51,-9.79,0,0.1,0,0,0,0.01,-10.74,9.71,67.68,321.779,-2.982,-179.707,604,2019-05-30 12:12:14:953
0.08,0.6,-9.7,0.05,0.51,-9.79,0,0.1,0,0,0,0.01,-10.74,9.71,67.68,321.779,-2.982,-179.707,609,2019-05-30 12:12:14:958
0.08,0.6,-9.7,0.05,0.51,-9.79,0,0.1,0,0,0,0.01,-10.74,9.71,67.68,321.779,-2.982,-179.707,615,2019-05-30 12:12:14:964
0.08,0.6,-9.7,0.05,0.51,-9.79,0,0.1,0,0,0,0.01,-10.74,9.71,67.68,321.779,-2.982,-179.707,620,2019-05-30 12:12:14:969
0.08,0.6,-9.7,0.05,0.51,-9.79,0,0.1,0,0,0,0.01,-10.74,9.71,67.68,321.779,-2.982,-179.707,625,2019-05-30 12:12:14:974
0.1,0.53,-9.82,0.05,0.51,-9.79,0,0.1,0,0,0,0.01,-10.91,11.64,67.98,325.542,-2.982,-179.707,629,2019-05-30 12:12:14:978
0.1,0.53,-9.82,0.05,0.51,-9.79,0.02,0.02,-0.11,0,0,0.01,-10.91,11.64,67.98,325.542,-2.982,-179.707,635,2019-05-30 12:12:14:984
0.1,0.53,-9.82,0.05,0.51,-9.79,0.02,0.02,-0.11,0,0,0.01,-10.91,11.64,67.98,325.542,-2.982,-179.707,639,2019-05-30 12:12:14:988
0.1,0.53,-9.82,0.05,0.51,-9.79,0.02,0.02,-0.11,0,0,0.01,-10.91,11.64,67.98,325.542,-2.982,-179.707,645,2019-05-30 12:12:14:994
0.1,0.53,-9.82,0.05,0.51,-9.79,0.02,0.02,-0.11,0,0,0.01,-10.91,11.64,67.98,325.542,-2.982,-179.707,649,2019-05-30 12:12:14:998
0.1,0.53,-9.82,0.05,0.51,-9.79,0.02,0.02,-0.11,0,0,0.01,-10.91,11.64,67.98,325.542,-2.982,-179.707,655,2019-05-30 12:12:15:004
0.15,0.47,-9.8,0.05,0.51,-9.79,0.07,-0.02,-0.08,0,0,0.01,-10.91,11.64,67.98,325.542,-2.982,-179.707,660,2019-05-30 12:12:15:009
0.15,0.47,-9.8,0.05,0.51,-9.79,0.07,-0.02,-0.08,0,0,0.01,-10.91,11.64,67.98,325.542,-2.982,-179.707,665,2019-05-30 12:12:15:014
0.15,0.47,-9.8,0.05,0.51,-9.79,0.07,-0.02,-0.08,0,0,0,-10.86,9.83,67.74,325.542,-2.982,-179.707,670,2019-05-30 12:12:15:019
0.15,0.47,-9.8,0.05,0.51,-9.79,0.07,-0.02,-0.08,0,0,0,-10.86,9.83,67.74,325.542,-2.982,-179.707,675,2019-05-30 12:12:15:024
0.15,0.47,-9.8,0.05,0.51,-9.79,0.07,-0.02,-0.08,0,0,0,-10.86,9.83,67.74,325.542,-2.982,-179.707,680,2019-05-30 12:12:15:029
0.15,0.47,-9.8,0.05,0.51,-9.79,0.07,-0.02,-0.08,0,0,0,-10.86,9.83,67.74,325.542,-2.982,-179.707,685,2019-05-30 12:12:15:034
0.14,0.43,-9.63,0.05,0.51,-9.79,0.07,-0.02,-0.08,0,0,0,-10.86,9.83,67.74,325.542,-2.982,-179.707,689,2019-05-30 12:12:15:038
0.14,0.43,-9.63,0.05,0.51,-9.79,0.07,-0.02,-0.08,0,0,0,-10.86,9.83,67.74,325.542,-2.982,-179.707,695,2019-05-30 12:12:15:044
0.14,0.43,-9.63,0.05,0.51,-9.79,0,-0.06,-0.09,0,0,0,-10.55,10.5,68.4,323.745,-2.982,-179.707,700,2019-05-30 12:12:15:049
0.14,0.43,-9.63,0.05,0.51,-9.79,0,-0.06,-0.09,0,0,0,-10.55,10.5,68.4,323.745,-2.982,-179.707,705,2019-05-30 12:12:15:054
0.14,0.43,-9.63,0.05,0.51,-9.79,0,-0.06,-0.09,0,0,0,-10.55,10.5,68.4,323.745,-2.982,-179.707,709,2019-05-30 12:12:15:058
0.14,0.43,-9.63,0.05,0.51,-9.79,0,-0.06,-0.09,0,0,0,-10.55,10.5,68.4,323.745,-2.982,-179.707,714,2019-05-30 12:12:15:063
0.14,0.43,-9.63,0.05,0.51,-9.79,0,-0.06,-0.09,0,0,0,-10.55,10.5,68.4,323.745,-2.982,-179.707,719,2019-05-30 12:12:15:068
0.14,0.43,-9.63,0.05,0.51,-9.79,0,-0.06,-0.09,0,0,0,-10.55,10.5,68.4,323.745,-2.982,-179.707,725,2019-05-30 12:12:15:074
0.14,0.43,-9.63,0.05,0.51,-9.79,0,-0.06,-0.09,0,0,0,-10.55,10.5,68.4,323.745,-2.982,-179.707,729,2019-05-30 12:12:15:078
0.08,0.37,-9.62,0.05,0.5,-9.79,-0.01,-0.1,0.08,0,0,0,-10.61,9.95,68.4,323.745,-2.982,-179.707,735,2019-05-30 12:12:15:084
0.08,0.37,-9.62,0.05,0.5,-9.79,-0.01,-0.1,0.08,0,0,0,-10.61,9.95,68.4,323.745,-2.982,-179.707,740,2019-05-30 12:12:15:089
0.08,0.37,-9.62,0.05,0.5,-9.79,-0.01,-0.1,0.08,0,0,0,-10.61,9.95,68.4,323.745,-2.982,-179.707,745,2019-05-30 12:12:15:094
0.08,0.37,-9.62,0.05,0.5,-9.79,-0.01,-0.1,0.08,0,0,0,-10.61,9.95,68.4,323.745,-2.982,-179.707,749,2019-05-30 12:12:15:098
0.08,0.37,-9.62,0.05,0.5,-9.79,-0.01,-0.1,0.08,0,0,0,-10.61,9.95,68.4,323.745,-2.982,-179.707,755,2019-05-30 12:12:15:104
0.08,0.37,-9.62,0.05,0.5,-9.79,-0.01,-0.1,0.08,0,0,0,-10.61,9.95,68.4,323.745,-2.982,-179.707,760,2019-05-30 12:12:15:109
0.08,0.37,-9.62,0.05,0.5,-9.79,-0.01,-0.1,0.08,0,0,0,-10.61,9.95,68.4,323.745,-2.982,-179.707,765,2019-05-30 12:12:15:114
0.04,0.41,-9.72,0.05,0.5,-9.79,0,0,-0.02,0,0,0,-11.03,9.95,67.56,321.637,-2.924,-179.707,770,2019-05-30 12:12:15:119
0.04,0.41,-9.72,0.05,0.5,-9.79,0,0,-0.02,0,0,0,-11.03,9.95,67.56,321.637,-2.924,-179.707,775,2019-05-30 12:12:15:124
0.04,0.41,-9.72,0.05,0.5,-9.79,0,0,-0.02,0,0,0,-11.03,9.95,67.56,321.637,-2.924,-179.707,780,2019-05-30 12:12:15:129
0.04,0.41,-9.72,0.05,0.5,-9.79,0,0,-0.02,0,0,0,-11.03,9.95,67.56,321.637,-2.924,-179.707,785,2019-05-30 12:12:15:134
0.04,0.41,-9.72,0.05,0.5,-9.79,0,0,-0.02,0,0,0,-11.03,9.95,67.56,321.637,-2.924,-179.707,790,2019-05-30 12:12:15:139
0.04,0.41,-9.72,0.05,0.5,-9.79,0,0,-0.02,0,0,0,-11.03,9.95,67.56,321.637,-2.924,-179.707,795,2019-05-30 12:12:15:144
0.04,0.41,-9.72,0.05,0.5,-9.79,0,0,-0.02,0,0,0,-11.03,9.95,67.56,321.637,-2.924,-179.707,800,2019-05-30 12:12:15:149
0.04,0.41,-9.72,0.05,0.5,-9.79,0,0,-0.02,0,0,0,-11.03,9.95,67.56,321.637,-2.924,-179.707,805,2019-05-30 12:12:15:154
0.04,0.42,-9.71,0.05,0.5,-9.79,0,0,-0.02,0,0,0.01,-10.31,9.77,68.4,321.637,-2.924,-179.707,809,2019-05-30 12:12:15:158
0.04,0.42,-9.71,0.05,0.5,-9.79,-0.03,-0.02,0.01,0,0,0.01,-10.31,9.77,68.4,321.637,-2.924,-179.707,815,2019-05-30 12:12:15:164
0.04,0.42,-9.71,0.05,0.5,-9.79,-0.03,-0.02,0.01,0,0,0.01,-10.31,9.77,68.4,321.637,-2.924,-179.707,820,2019-05-30 12:12:15:169
0.04,0.42,-9.71,0.05,0.5,-9.79,-0.03,-0.02,0.01,0,0,0.01,-10.31,9.77,68.4,321.637,-2.924,-179.707,825,2019-05-30 12:12:15:174
0.04,0.42,-9.71,0.05,0.5,-9.79,-0.03,-0.02,0.01,0,0,0.01,-10.31,9.77,68.4,321.637,-2.924,-179.707,829,2019-05-30 12:12:15:178
0.04,0.42,-9.71,0.05,0.5,-9.79,-0.03,-0.02,0.01,0,0,0.01,-10.31,9.77,68.4,321.637,-2.924,-179.707,834,2019-05-30 12:12:15:183
0.04,0.42,-9.71,0.05,0.5,-9.79,-0.03,-0.02,0.01,0,0,0.01,-10.31,9.77,68.4,321.637,-2.924,-179.707,840,2019-05-30 12:12:15:189
0.04,0.42,-9.71,0.05,0.5,-9.79,-0.03,-0.02,0.01,0,0,0.01,-10.31,9.77,68.4,321.637,-2.924,-179.707,845,2019-05-30 12:12:15:194
0.09,0.45,-9.71,0.05,0.5,-9.79,-0.03,-0.02,0.01,0,0,0.01,-10.31,9.77,68.4,321.637,-2.924,-179.707,850,2019-05-30 12:12:15:199
0.09,0.45,-9.71,0.05,0.5,-9.79,0.01,0,0.01,0,0,0.01,-10.25,10.79,68.28,326.269,-2.924,-179.707,855,2019-05-30 12:12:15:204
0.09,0.45,-9.71,0.05,0.5,-9.79,0.01,0,0.01,0,0,0.01,-10.25,10.79,68.28,326.269,-2.924,-179.707,860,2019-05-30 12:12:15:209
0.09,0.45,-9.71,0.05,0.5,-9.79,0.01,0,0.01,0,0,0.01,-10.25,10.79,68.28,326.269,-2.924,-179.707,864,2019-05-30 12:12:15:213
0.09,0.45,-9.71,0.05,0.5,-9.79,0.01,0,0.01,0,0,0.01,-10.25,10.79,68.28,326.269,-2.924,-179.707,869,2019-05-30 12:12:15:218
0.09,0.45,-9.71,0.05,0.5,-9.79,0.01,0,0.01,0,0,0.01,-10.25,10.79,68.28,326.269,-2.924,-179.707,875,2019-05-30 12:12:15:224
0.09,0.45,-9.71,0.05,0.5,-9.79,0.01,0,0.01,0,0,0.01,-10.25,10.79,68.28,326.269,-2.924,-179.707,880,2019-05-30 12:12:15:229
0.09,0.45,-9.71,0.05,0.5,-9.79,0.01,0,0.01,0,0,0.01,-10.25,10.79,67.92,326.269,-2.924,-179.707,885,2019-05-30 12:12:15:234
-0.01,0.4,-9.65,0.05,0.5,-9.79,-0.07,-0.03,0.05,0,0,0.01,-10.55,10.32,67.92,326.269,-2.924,-179.707,890,2019-05-30 12:12:15:239
-0.01,0.4,-9.65,0.05,0.5,-9.79,-0.07,-0.03,0.05,0,0,0.01,-10.55,10.32,67.92,326.269,-2.924,-179.707,895,2019-05-30 12:12:15:244
-0.01,0.4,-9.65,0.05,0.5,-9.79,-0.07,-0.03,0.05,0,0,0.01,-10.55,10.32,67.92,326.269,-2.924,-179.707,900,2019-05-30 12:12:15:249
-0.01,0.4,-9.65,0.05,0.5,-9.79,-0.07,-0.03,0.05,0,0,0.01,-10.55,10.32,67.92,326.269,-2.924,-179.707,905,2019-05-30 12:12:15:254
-0.01,0.4,-9.65,0.05,0.5,-9.79,-0.07,-0.03,0.05,0,0,0.01,-10.55,10.32,67.92,326.269,-2.924,-179.707,910,2019-05-30 12:12:15:259
-0.01,0.4,-9.65,0.05,0.5,-9.79,-0.07,-0.03,0.05,0,0,0.01,-10.55,10.32,67.92,326.269,-2.924,-179.707,915,2019-05-30 12:12:15:264
0.22,0.51,-9.67,0.05,0.5,-9.79,0.15,0.06,0.04,0,0,0.01,-10.91,9.77,68.04,321.637,-2.924,-179.707,920,2019-05-30 12:12:15:269
0.22,0.51,-9.67,0.05,0.5,-9.79,0.15,0.06,0.04,0,0,0.01,-10.91,9.77,68.04,321.637,-2.924,-179.707,925,2019-05-30 12:12:15:274
0.22,0.51,-9.67,0.05,0.5,-9.79,0.15,0.06,0.04,0,0,0.01,-10.91,9.77,68.04,321.637,-2.924,-179.707,930,2019-05-30 12:12:15:279
0.22,0.51,-9.67,0.05,0.5,-9.79,0.15,0.06,0.04,0,0,0.01,-10.91,9.77,68.04,321.637,-2.924,-179.707,935,2019-05-30 12:12:15:284
0.22,0.51,-9.67,0.05,0.5,-9.79,0.15,0.06,0.04,0,0,0.01,-10.91,9.77,68.04,321.637,-2.924,-179.707,940,2019-05-30 12:12:15:289
0.22,0.51,-9.67,0.05,0.5,-9.79,0.15,0.06,0.04,0,0,0.01,-10.91,9.77,68.04,321.637,-2.924,-179.707,944,2019-05-30 12:12:15:293
0.22,0.51,-9.67,0.05,0.5,-9.79,0.15,0.06,0.04,0,0,0.01,-10.91,9.77,68.04,321.637,-2.924,-179.707,949,2019-05-30 12:12:15:298
0.07,0.49,-9.7,0.05,0.5,-9.79,0,0.02,0.01,0,0,0.01,-10.44,10.43,68.52,321.637,-2.924,-179.707,955,2019-05-30 12:12:15:304
0.07,0.49,-9.7,0.05,0.5,-9.79,0,0.02,0.01,0,0,0.01,-10.44,10.43,68.52,321.637,-2.924,-179.707,960,2019-05-30 12:12:15:309
0.07,0.49,-9.7,0.05,0.5,-9.79,0,0.02,0.01,0,0,0.01,-10.44,10.43,68.52,321.637,-2.924,-179.707,964,2019-05-30 12:12:15:313
0.07,0.49,-9.7,0.05,0.5,-9.79,0,0.02,0.01,0,0,0.01,-10.44,10.43,68.52,321.637,-2.924,-179.707,969,2019-05-30 12:12:15:318
0.07,0.49,-9.7,0.05,0.5,-9.79,0,0.02,0.01,0,0,0.01,-10.44,10.43,68.52,321.637,-2.924,-179.707,975,2019-05-30 12:12:15:324
0.11,0.41,-9.78,0.05,0.5,-9.79,0,0.02,0.01,0,0,0,-10.5,10.37,68.22,324.35,-2.924,-179.707,979,2019-05-30 12:12:15:328
0.11,0.41,-9.78,0.05,0.5,-9.79,0.04,-0.05,-0.06,0,0,0,-10.5,10.37,68.22,324.35,-2.924,-179.707,985,2019-05-30 12:12:15:334
0.11,0.41,-9.78,0.05,0.5,-9.79,0.04,-0.05,-0.06,0,0,0,-10.5,10.37,68.22,324.35,-2.924,-179.707,990,2019-05-30 12:12:15:339
0.11,0.41,-9.78,0.05,0.5,-9.79,0.04,-0.05,-0.06,0,0,0,-10.5,10.37,68.22,324.35,-2.924,-179.707,995,2019-05-30 12:12:15:344
0.11,0.41,-9.78,0.05,0.5,-9.79,0.04,-0.05,-0.06,0,0,0,-10.5,10.37,68.22,324.35,-2.924,-179.707,1000,2019-05-30 12:12:15:349
0.11,0.41,-9.78,0.05,0.5,-9.79,0.04,-0.05,-0.06,0,0,0,-10.5,10.37,68.22,324.35,-2.924,-179.707,1005,2019-05-30 12:12:15:354
0.12,0.55,-9.75,0.05,0.5,-9.79,0.04,-0.05,-0.06,0,0,0,-10.5,10.37,68.22,324.35,-2.924,-179.707,1010,2019-05-30 12:12:15:359
0.12,0.55,-9.75,0.05,0.5,-9.79,0.04,-0.05,-0.06,0,0,0,-10.5,10.37,68.22,324.35,-2.924,-179.707,1015,2019-05-30 12:12:15:364
0.12,0.55,-9.75,0.05,0.5,-9.79,0.03,0.07,-0.02,0,0,0.01,-10.44,10.37,67.74,324.35,-2.924,-179.707,1020,2019-05-30 12:12:15:369
0.12,0.55,-9.75,0.05,0.5,-9.79,0.03,0.07,-0.02,0,0,0.01,-10.44,10.37,67.74,324.35,-2.924,-179.707,1024,2019-05-30 12:12:15:373
0.12,0.55,-9.75,0.05,0.5,-9.79,0.03,0.07,-0.02,0,0,0.01,-10.44,10.37,67.74,324.35,-2.924,-179.707,1029,2019-05-30 12:12:15:378
0.12,0.55,-9.75,0.05,0.5,-9.79,0.03,0.07,-0.02,0,0,0.01,-10.44,10.37,67.74,324.35,-2.924,-179.707,1035,2019-05-30 12:12:15:384
0.15,0.46,-9.7,0.05,0.5,-9.79,0.03,0.07,-0.02,0,0,0.01,-10.44,10.37,67.74,324.35,-2.924,-179.707,1040,2019-05-30 12:12:15:389
0.15,0.46,-9.7,0.05,0.5,-9.79,0.03,0.07,-0.02,0,0,0.01,-10.44,10.37,67.74,324.35,-2.924,-179.707,1046,2019-05-30 12:12:15:395
0.15,0.46,-9.7,0.05,0.5,-9.79,0.03,0.07,-0.02,0,0,0.01,-10.44,10.37,67.74,324.35,-2.924,-179.707,1050,2019-05-30 12:12:15:399
0.15,0.46,-9.7,0.05,0.5,-9.79,0.03,-0.03,-0.04,0,0,0,-10.67,10.01,67.86,321.637,-2.924,-179.707,1054,2019-05-30 12:12:15:403
0.15,0.46,-9.7,0.05,0.5,-9.79,0.03,-0.03,-0.04,0,0,0,-10.67,10.01,67.86,321.637,-2.924,-179.707,1061,2019-05-30 12:12:15:410
0.15,0.46,-9.7,0.05,0.5,-9.79,0.03,-0.03,-0.04,0,0,0,-10.67,10.01,67.86,321.637,-2.924,-179.707,1065,2019-05-30 12:12:15:414
0.06,0.49,-9.69,0.05,0.5,-9.79,0.03,-0.03,-0.04,0,0,0,-10.67,10.01,67.86,321.637,-2.924,-179.707,1070,2019-05-30 12:12:15:419
0.06,0.49,-9.69,0.05,0.5,-9.79,0.03,-0.03,-0.04,0,0,0,-10.67,10.01,67.86,321.637,-2.924,-179.707,1075,2019-05-30 12:12:15:424
0.06,0.49,-9.69,0.05,0.5,-9.79,0.03,-0.03,-0.04,0,0,0,-10.67,10.01,67.86,321.637,-2.924,-179.707,1080,2019-05-30 12:12:15:429
0.06,0.49,-9.69,0.05,0.5,-9.79,0.03,-0.03,-0.04,0,0,0,-10.67,10.01,67.86,321.637,-2.924,-179.707,1085,2019-05-30 12:12:15:434
0.06,0.49,-9.69,0.05,0.5,-9.79,0.03,-0.03,-0.04,0,0,0,-10.67,10.01,67.86,321.637,-2.924,-179.707,1089,2019-05-30 12:12:15:438
0.06,0.49,-9.69,0.05,0.5,-9.79,0.03,-0.03,-0.04,0,0,0,-10.67,10.01,67.86,321.637,-2.924,-179.707,1094,2019-05-30 12:12:15:443
0.07,0.59,-9.72,0.05,0.5,-9.79,0.03,-0.03,-0.04,0,0,0,-10.86,10.61,68.16,321.637,-2.924,-179.707,1099,2019-05-30 12:12:15:448
0.07,0.59,-9.72,0.05,0.5,-9.79,-0.01,0.1,0,0,0,0,-10.86,10.61,68.16,321.637,-2.924,-179.707,1106,2019-05-30 12:12:15:455
0.07,0.59,-9.72,0.05,0.5,-9.79,-0.01,0.1,0,0,0,0,-10.86,10.61,68.16,321.637,-2.924,-179.707,1110,2019-05-30 12:12:15:459
0.07,0.59,-9.72,0.05,0.5,-9.79,-0.01,0.1,0,0,0,0,-10.86,10.61,68.16,321.637,-2.924,-179.707,1115,2019-05-30 12:12:15:464
0.07,0.59,-9.72,0.05,0.5,-9.79,-0.01,0.1,0,0,0,0,-10.86,10.61,68.16,321.637,-2.924,-179.707,1120,2019-05-30 12:12:15:469
0.07,0.59,-9.72,0.05,0.5,-9.79,-0.01,0.1,0,0,0,0,-10.86,10.61,68.16,321.637,-2.924,-179.707,1125,2019-05-30 12:12:15:474
0.07,0.59,-9.72,0.05,0.5,-9.79,-0.01,0.1,0,0,0,0,-10.86,10.61,68.16,321.637,-2.924,-179.707,1129,2019-05-30 12:12:15:478
0.1,0.51,-9.72,0.05,0.5,-9.79,0,0.02,0,0,0,0,-10.61,11.09,68.46,323.615,-2.924,-179.707,1135,2019-05-30 12:12:15:484
0.1,0.51,-9.72,0.05,0.5,-9.79,0,0.02,0,0,0,0,-10.61,11.09,68.46,323.615,-2.924,-179.707,1140,2019-05-30 12:12:15:489
0.1,0.51,-9.72,0.05,0.5,-9.79,0,0.02,0,0,0,0,-10.61,11.09,68.46,323.615,-2.924,-179.707,1145,2019-05-30 12:12:15:494
0.1,0.51,-9.72,0.05,0.5,-9.79,0,0.02,0,0,0,0,-10.61,11.09,68.46,323.615,-2.924,-179.707,1150,2019-05-30 12:12:15:499
0.1,0.51,-9.72,0.05,0.5,-9.79,0,0.02,0,0,0,0,-10.61,11.09,68.46,323.615,-2.924,-179.707,1154,2019-05-30 12:12:15:503
0.1,0.51,-9.72,0.05,0.5,-9.79,0,0.02,0,0,0,0,-10.61,11.09,68.46,323.615,-2.924,-179.707,1160,2019-05-30 12:12:15:509
0.1,0.51,-9.72,0.05,0.5,-9.79,0,0.02,0,0,0,0,-10.61,11.09,68.46,323.615,-2.924,-179.707,1165,2019-05-30 12:12:15:514
0.04,0.61,-9.75,0.05,0.5,-9.79,-0.04,0.09,-0.03,0,0,0,-10.61,9.83,68.33,323.615,-2.924,-179.707,1170,2019-05-30 12:12:15:519
0.04,0.61,-9.75,0.05,0.5,-9.79,-0.04,0.09,-0.03,0,0,0,-10.61,9.83,68.33,323.615,-2.924,-179.707,1175,2019-05-30 12:12:15:524
0.04,0.61,-9.75,0.05,0.5,-9.79,-0.04,0.09,-0.03,0,0,0,-10.61,9.83,68.33,323.615,-2.924,-179.707,1180,2019-05-30 12:12:15:529
0.04,0.61,-9.75,0.05,0.5,-9.79,-0.04,0.09,-0.03,0,0,0,-10.61,9.83,68.33,323.615,-2.924,-179.707,1185,2019-05-30 12:12:15:534
0.04,0.61,-9.75,0.05,0.5,-9.79,-0.04,0.09,-0.03,0,0,0,-10.61,9.83,68.33,323.615,-2.924,-179.707,1189,2019-05-30 12:12:15:538
0.04,0.61,-9.75,0.05,0.5,-9.79,-0.04,0.09,-0.03,0,0,0,-10.61,9.83,68.33,323.615,-2.924,-179.707,1195,2019-05-30 12:12:15:544
0.04,0.61,-9.75,0.05,0.5,-9.79,-0.04,0.09,-0.03,0,0,0,-10.61,9.83,68.33,323.615,-2.924,-179.707,1200,2019-05-30 12:12:15:549
0.04,0.54,-9.64,0.05,0.5,-9.79,-0.04,0.01,0.07,0,0,0,-10.74,10.13,68.33,321.637,-2.924,-179.707,1205,2019-05-30 12:12:15:554
0.04,0.54,-9.64,0.05,0.5,-9.79,-0.04,0.01,0.07,0,0,0,-10.74,10.13,68.33,321.637,-2.924,-179.707,1210,2019-05-30 12:12:15:559
0.04,0.54,-9.64,0.05,0.5,-9.79,-0.04,0.01,0.07,0,0,0,-10.74,10.13,68.33,321.637,-2.924,-179.707,1215,2019-05-30 12:12:15:564
0.04,0.54,-9.64,0.05,0.5,-9.79,-0.04,0.01,0.07,0,0,0,-10.74,10.13,68.33,321.637,-2.924,-179.707,1219,2019-05-30 12:12:15:568
0.04,0.54,-9.64,0.05,0.5,-9.79,-0.04,0.01,0.07,0,0,0,-10.74,10.13,68.33,321.637,-2.924,-179.707,1225,2019-05-30 12:12:15:574
0.04,0.54,-9.64,0.05,0.5,-9.79,-0.04,0.01,0.07,0,0,0,-10.74,10.13,68.33,321.637,-2.924,-179.707,1229,2019-05-30 12:12:15:578
0.04,0.54,-9.64,0.05,0.5,-9.79,-0.04,0.01,0.07,0,0,0,-10.74,10.13,68.33,321.637,-2.924,-179.707,1234,2019-05-30 12:12:15:583
0.04,0.48,-9.62,0.05,0.5,-9.79,-0.03,-0.05,0.08,0,0,0,-10.67,11.33,68.52,321.637,-2.924,-179.707,1240,2019-05-30 12:12:15:589
0.04,0.48,-9.62,0.05,0.5,-9.79,-0.03,-0.05,0.08,0,0,0,-10.67,11.33,68.52,321.637,-2.924,-179.707,1245,2019-05-30 12:12:15:594
0.04,0.48,-9.62,0.05,0.5,-9.79,-0.03,-0.05,0.08,0,0,0,-10.67,11.33,68.52,321.637,-2.924,-179.707,1249,2019-05-30 12:12:15:598
0.04,0.48,-9.62,0.05,0.5,-9.79,-0.03,-0.05,0.08,0,0,0,-10.67,11.33,68.52,321.637,-2.924,-179.707,1254,2019-05-30 12:12:15:603
0.04,0.48,-9.62,0.05,0.5,-9.79,-0.03,-0.05,0.08,0,0,0,-10.67,11.33,68.52,321.637,-2.924,-179.707,1260,2019-05-30 12:12:15:609
0.01,0.59,-9.76,0.05,0.5,-9.79,-0.03,-0.05,0.08,0,0,0,-10.67,11.33,68.52,321.637,-2.924,-179.707,1265,2019-05-30 12:12:15:614
0.01,0.59,-9.76,0.05,0.5,-9.79,-0.04,0.02,0.05,0,0,0,-10.67,11.33,68.52,321.637,-2.924,-179.707,1270,2019-05-30 12:12:15:619
0.01,0.59,-9.76,0.05,0.51,-9.79,-0.04,0.02,0.05,0,0,0,-10.55,10.43,68.4,321.779,-2.982,-179.707,1275,2019-05-30 12:12:15:624
0.01,0.59,-9.76,0.05,0.51,-9.79,-0.04,0.02,0.05,0,0,0,-10.55,10.43,68.4,321.779,-2.982,-179.707,1280,2019-05-30 12:12:15:629
0.01,0.59,-9.76,0.05,0.51,-9.79,-0.04,0.02,0.05,0,0,0,-10.55,10.43,68.4,321.779,-2.982,-179.707,1285,2019-05-30 12:12:15:634
0.01,0.59,-9.76,0.05,0.51,-9.79,-0.04,0.02,0.05,0,0,0,-10.55,10.43,68.4,321.779,-2.982,-179.707,1290,2019-05-30 12:12:15:639
0.01,0.59,-9.76,0.05,0.51,-9.79,-0.04,0.02,0.05,0,0,0,-10.55,10.43,68.4,321.779,-2.982,-179.707,1295,2019-05-30 12:12:15:644
0.01,0.59,-9.76,0.05,0.51,-9.79,-0.04,0.02,0.05,0,0,0,-10.55,10.43,68.4,321.779,-2.982,-179.707,1300,2019-05-30 12:12:15:649
0.06,0.6,-9.75,0.05,0.51,-9.79,0,0.03,-0.04,0,0,0.01,-10.8,10.25,68.64,321.779,-2.982,-179.707,1305,2019-05-30 12:12:15:654
0.06,0.6,-9.75,0.05,0.51,-9.79,0,0.03,-0.04,0,0,0.01,-10.8,10.25,68.64,321.779,-2.982,-179.707,1310,2019-05-30 12:12:15:659
0.06,0.6,-9.75,0.05,0.51,-9.79,0,0.03,-0.04,0,0,0.01,-10.8,10.25,68.64,321.779,-2.982,-179.707,1315,2019-05-30 12:12:15:664
0.06,0.6,-9.75,0.05,0.51,-9.79,0,0.03,-0.04,0,0,0.01,-10.8,10.25,68.64,321.779,-2.982,-179.707,1320,2019-05-30 12:12:15:669
0.06,0.6,-9.75,0.05,0.51,-9.79,0,0.03,-0.04,0,0,0.01,-10.8,10.25,68.64,321.779,-2.982,-179.707,1325,2019-05-30 12:12:15:674
0.04,0.53,-9.73,0.05,0.51,-9.79,0,0.03,-0.04,0,0,0.01,-10.8,10.25,68.64,321.779,-2.982,-179.707,1330,2019-05-30 12:12:15:679
0.04,0.53,-9.73,0.05,0.51,-9.79,0,-0.04,-0.02,0,0,0.01,-10.8,10.25,68.64,321.779,-2.982,-179.707,1335,2019-05-30 12:12:15:684
0.04,0.53,-9.73,0.05,0.51,-9.79,0,-0.04,-0.02,0,0,0.01,-10.8,10.25,68.64,321.779,-2.982,-179.707,1340,2019-05-30 12:12:15:689
0.04,0.53,-9.73,0.05,0.51,-9.79,0,-0.04,-0.02,0,0,0.01,-10.8,10.25,68.64,321.779,-2.982,-179.707,1344,2019-05-30 12:12:15:693
0.04,0.53,-9.73,0.05,0.51,-9.79,0,-0.04,-0.02,0,0,0.01,-10.86,10.13,67.92,321.779,-2.982,-179.707,1350,2019-05-30 12:12:15:699
0.04,0.53,-9.73,0.05,0.51,-9.79,0,-0.04,-0.02,0,0,0.01,-10.86,10.13,67.92,321.779,-2.982,-179.707,1355,2019-05-30 12:12:15:704
0.04,0.53,-9.73,0.05,0.51,-9.79,0,-0.04,-0.02,0,0,0.01,-10.86,10.13,67.92,321.779,-2.982,-179.707,1360,2019-05-30 12:12:15:709
0.04,0.53,-9.73,0.05,0.51,-9.79,0,-0.04,-0.02,0,0,0.01,-10.86,10.13,67.92,321.779,-2.982,-179.707,1365,2019-05-30 12:12:15:714
0.04,0.53,-9.73,0.05,0.51,-9.79,0,-0.04,-0.02,0,0,0.01,-10.86,10.13,67.92,321.779,-2.982,-179.707,1370,2019-05-30 12:12:15:719
0.04,0.53,-9.73,0.05,0.51,-9.79,0,-0.04,-0.02,0,0,0.01,-10.86,10.13,67.92,321.779,-2.982,-179.707,1375,2019-05-30 12:12:15:724
0.04,0.53,-9.73,0.05,0.51,-9.79,0,-0.04,-0.02,0,0,0.01,-10.86,10.13,67.92,321.779,-2.982,-179.707,1379,2019-05-30 12:12:15:728
-0.02,0.46,-9.71,0.05,0.51,-9.79,-0.05,-0.09,0.01,0,0,0.01,-10.67,9.77,67.68,321.779,-2.982,-179.707,1386,2019-05-30 12:12:15:735
-0.02,0.46,-9.71,0.05,0.51,-9.79,-0.05,-0.09,0.01,0,0,0.01,-10.67,9.77,67.68,321.779,-2.982,-179.707,1389,2019-05-30 12:12:15:738
-0.02,0.46,-9.71,0.05,0.51,-9.79,-0.05,-0.09,0.01,0,0,0.01,-10.67,9.77,67.68,321.779,-2.982,-179.707,1395,2019-05-30 12:12:15:744
-0.02,0.46,-9.71,0.05,0.51,-9.79,-0.05,-0.09,0.01,0,0,0.01,-10.67,9.77,67.68,321.779,-2.982,-179.707,1400,2019-05-30 12:12:15:749
-0.02,0.46,-9.71,0.05,0.51,-9.79,-0.05,-0.09,0.01,0,0,0.01,-10.67,9.77,67.68,321.779,-2.982,-179.707,1405,2019-05-30 12:12:15:754
0.08,0.65,-10.02,0.05,0.51,-9.79,-0.05,-0.09,0.01,0,0,0.01,-10.67,9.77,67.68,321.779,-2.982,-179.707,1410,2019-05-30 12:12:15:759
0.08,0.65,-10.02,0.05,0.5,-9.79,0.02,0.1,-0.29,0,0,0.01,-11.1,10.68,68.28,323.615,-2.924,-179.707,1415,2019-05-30 12:12:15:764
0.08,0.65,-10.02,0.05,0.5,-9.79,0.02,0.1,-0.29,0,0,0.01,-11.1,10.68,68.28,323.615,-2.924,-179.707,1420,2019-05-30 12:12:15:769
0.08,0.65,-10.02,0.05,0.5,-9.79,0.02,0.1,-0.29,0,0,0.01,-11.1,10.68,68.28,323.615,-2.924,-179.707,1424,2019-05-30 12:12:15:773
0.08,0.65,-10.02,0.05,0.5,-9.79,0.02,0.1,-0.29,0,0,0.01,-11.1,10.68,68.28,323.615,-2.924,-179.707,1430,2019-05-30 12:12:15:779
0.08,0.65,-10.02,0.05,0.5,-9.79,0.02,0.1,-0.29,0,0,0.01,-11.1,10.68,68.28,323.615,-2.924,-179.707,1435,2019-05-30 12:12:15:784
0.08,0.65,-10.02,0.05,0.5,-9.79,0.02,0.1,-0.29,0,0,0.01,-11.1,10.68,68.28,323.615,-2.924,-179.707,1439,2019-05-30 12:12:15:788
0.08,0.65,-10.02,0.05,0.5,-9.79,0.02,0.1,-0.29,0,0,0.01,-11.1,10.68,68.28,323.615,-2.924,-179.707,1444,2019-05-30 12:12:15:793
-0.01,0.75,-10.07,0.05,0.5,-9.79,-0.06,0.2,-0.35,0.03,0,0.01,-11.33,10.61,67.56,323.615,-2.924,-179.707,1450,2019-05-30 12:12:15:799
-0.01,0.75,-10.07,0.05,0.5,-9.79,-0.06,0.2,-0.35,0.03,0,0.01,-11.33,10.61,67.56,323.615,-2.924,-179.707,1455,2019-05-30 12:12:15:804
-0.01,0.75,-10.07,0.05,0.5,-9.79,-0.06,0.2,-0.35,0.03,0,0.01,-11.33,10.61,67.56,323.615,-2.924,-179.707,1459,2019-05-30 12:12:15:808
-0.01,0.75,-10.07,0.05,0.5,-9.79,-0.06,0.2,-0.35,0.03,0,0.01,-11.33,10.61,67.56,323.615,-2.924,-179.707,1465,2019-05-30 12:12:15:814
-0.01,0.75,-10.07,0.05,0.5,-9.79,-0.06,0.2,-0.35,0.03,0,0.01,-11.33,10.61,67.56,323.615,-2.924,-179.707,1470,2019-05-30 12:12:15:819
-0.01,0.75,-10.07,0.05,0.5,-9.79,-0.06,0.2,-0.35,0.03,0,0.01,-11.33,10.61,67.56,323.615,-2.924,-179.707,1475,2019-05-30 12:12:15:824
-0.01,0.75,-10.07,0.05,0.5,-9.79,-0.06,0.2,-0.35,0.03,0,0.01,-11.33,10.61,67.56,323.615,-2.924,-179.707,1480,2019-05-30 12:12:15:829
-0.01,0.75,-10.07,0.05,0.5,-9.79,-0.06,0.2,-0.35,0.03,0,0.01,-11.33,10.61,67.56,323.615,-2.924,-179.707,1485,2019-05-30 12:12:15:834
0.14,0.37,-9.37,0.05,0.5,-9.79,0.08,-0.16,0.32,-0.03,0,0.03,-10.8,10.91,67.92,323.615,-2.924,-179.707,1489,2019-05-30 12:12:15:838
0.14,0.37,-9.37,0.05,0.5,-9.79,0.08,-0.16,0.32,-0.03,0,0.03,-10.8,10.91,67.92,323.615,-2.924,-179.707,1494,2019-05-30 12:12:15:843
0.14,0.37,-9.37,0.05,0.5,-9.79,0.08,-0.16,0.32,-0.03,0,0.03,-10.8,10.91,67.92,323.615,-2.924,-179.707,1500,2019-05-30 12:12:15:849
0.14,0.37,-9.37,0.05,0.5,-9.79,0.08,-0.16,0.32,-0.03,0,0.03,-10.8,10.91,67.92,323.615,-2.924,-179.707,1505,2019-05-30 12:12:15:854
0.14,0.37,-9.37,0.05,0.5,-9.79,0.08,-0.16,0.32,-0.03,0,0.03,-10.8,10.91,67.92,323.615,-2.924,-179.707,1510,2019-05-30 12:12:15:859
0.14,0.37,-9.37,0.05,0.5,-9.79,0.08,-0.16,0.32,-0.03,0,0.03,-10.8,10.91,67.92,323.615,-2.924,-179.707,1515,2019-05-30 12:12:15:864
0.14,0.37,-9.37,0.05,0.5,-9.79,0.08,-0.16,0.32,-0.03,0,0.03,-10.8,10.91,67.92,323.615,-2.924,-179.707,1519,2019-05-30 12:12:15:868
0.14,0.37,-9.37,0.05,0.5,-9.79,0.08,-0.16,0.32,-0.03,0,0.03,-10.8,10.91,67.92,323.615,-2.924,-179.707,1525,2019-05-30 12:12:15:874
0.14,0.37,-9.37,0.05,0.5,-9.79,0.08,-0.16,0.32,-0.03,0,0.03,-10.8,10.91,67.92,323.615,-2.924,-179.707,1530,2019-05-30 12:12:15:879
0.14,0.37,-9.37,0.05,0.5,-9.79,0.08,-0.16,0.32,-0.03,0,0.03,-10.8,10.91,67.92,323.615,-2.924,-179.707,1535,2019-05-30 12:12:15:884
0.13,0.56,-9.92,0.05,0.5,-9.79,0.07,0.05,-0.2,0.02,-0.01,0.03,-10.44,10.55,68.28,326.269,-2.924,-179.707,1540,2019-05-30 12:12:15:889
0.13,0.56,-9.92,0.05,0.5,-9.79,0.07,0.05,-0.2,0.02,-0.01,0.03,-10.44,10.55,68.28,326.269,-2.924,-179.707,1545,2019-05-30 12:12:15:894
0.13,0.56,-9.92,0.05,0.5,-9.79,0.07,0.05,-0.2,0.02,-0.01,0.03,-10.44,10.55,68.28,326.269,-2.924,-179.707,1550,2019-05-30 12:12:15:899
0.13,0.56,-9.92,0.05,0.5,-9.79,0.07,0.05,-0.2,0.02,-0.01,0.03,-10.44,10.55,68.28,326.269,-2.924,-179.707,1554,2019-05-30 12:12:15:903
0.13,0.56,-9.92,0.05,0.5,-9.79,0.07,0.05,-0.2,0.02,-0.01,0.03,-10.44,10.55,68.28,326.269,-2.924,-179.707,1559,2019-05-30 12:12:15:908
0.13,0.56,-9.92,0.05,0.5,-9.79,0.07,0.05,-0.2,0.02,-0.01,0.03,-10.44,10.55,68.28,326.269,-2.924,-179.707,1566,2019-05-30 12:12:15:915
0.13,0.56,-9.92,0.05,0.5,-9.79,0.07,0.05,-0.2,0.02,-0.01,0.03,-10.44,10.55,68.28,326.269,-2.924,-179.707,1574,2019-05-30 12:12:15:923
0.13,0.56,-9.92,0.05,0.5,-9.79,0.07,0.05,-0.2,0.02,-0.01,0.03,-10.44,10.55,68.28,326.269,-2.924,-179.707,1575,2019-05-30 12:12:15:924
0.13,0.56,-9.92,0.05,0.5,-9.79,0.07,0.05,-0.2,0.02,-0.01,0.03,-10.44,10.55,68.28,326.269,-2.924,-179.707,1580,2019-05-30 12:12:15:929
0.06,0.57,-9.84,0.05,0.5,-9.79,0,0.06,-0.12,0.01,0,0.02,-10.91,9.77,68.04,326.269,-2.924,-179.707,1586,2019-05-30 12:12:15:935
0.06,0.57,-9.84,0.05,0.5,-9.79,0,0.06,-0.12,0.01,0,0.02,-10.91,9.77,68.04,326.269,-2.924,-179.707,1590,2019-05-30 12:12:15:939
0.06,0.57,-9.84,0.05,0.5,-9.79,0,0.06,-0.12,0.01,0,0.02,-10.91,9.77,68.04,326.269,-2.924,-179.707,1595,2019-05-30 12:12:15:944
0.06,0.57,-9.84,0.05,0.5,-9.79,0,0.06,-0.12,0.01,0,0.02,-10.91,9.77,68.04,326.269,-2.924,-179.707,1601,2019-05-30 12:12:15:950
0.06,0.57,-9.84,0.05,0.5,-9.79,0,0.06,-0.12,0.01,0,0.02,-10.91,9.77,68.04,326.269,-2.924,-179.707,1605,2019-05-30 12:12:15:954
0.04,0.55,-9.77,0.05,0.5,-9.79,0.01,0.05,-0.06,0.01,0,0.02,-10.91,9.77,68.04,326.269,-2.924,-179.707,1610,2019-05-30 12:12:15:959
0.04,0.55,-9.77,0.05,0.5,-9.79,0.01,0.05,-0.06,0,0,0.02,-10.86,9.77,68.28,321.637,-2.924,-179.707,1615,2019-05-30 12:12:15:964
0.04,0.55,-9.77,0.05,0.5,-9.79,0.01,0.05,-0.06,0,0,0.02,-10.86,9.77,68.28,321.637,-2.924,-179.707,1619,2019-05-30 12:12:15:968
0.04,0.55,-9.77,0.05,0.5,-9.79,0.01,0.05,-0.06,0,0,0.02,-10.86,9.77,68.28,321.637,-2.924,-179.707,1625,2019-05-30 12:12:15:974
0.04,0.55,-9.77,0.05,0.5,-9.79,0.01,0.05,-0.06,0,0,0.02,-10.86,9.77,68.28,321.637,-2.924,-179.707,1629,2019-05-30 12:12:15:978
-0.03,0.48,-9.71,0.05,0.5,-9.79,0.01,0.05,-0.06,0,0,0.02,-10.86,9.77,68.28,321.637,-2.924,-179.707,1635,2019-05-30 12:12:15:984
-0.03,0.48,-9.71,0.05,0.5,-9.79,0.01,0.05,-0.06,0,0,0.02,-10.86,9.77,68.28,321.637,-2.924,-179.707,1639,2019-05-30 12:12:15:988
-0.03,0.48,-9.71,0.05,0.5,-9.79,0.01,0.05,-0.06,0,0,0.02,-10.86,9.77,68.28,321.637,-2.924,-179.707,1647,2019-05-30 12:12:15:996
-0.03,0.48,-9.71,0.05,0.5,-9.79,0.13,0,-0.05,0,0,0.02,-10.5,10.07,68.76,321.637,-2.924,-179.707,1650,2019-05-30 12:12:15:999
-0.03,0.48,-9.71,0.05,0.5,-9.79,0.13,0,-0.05,0,0,0.02,-10.5,10.07,68.76,321.637,-2.924,-179.707,1655,2019-05-30 12:12:16:004
-0.03,0.48,-9.71,0.05,0.5,-9.79,0.13,0,-0.05,0,0,0.02,-10.5,10.07,68.76,321.637,-2.924,-179.707,1661,2019-05-30 12:12:16:010
-0.03,0.48,-9.71,0.05,0.5,-9.79,0.13,0,-0.05,0,0,0.02,-10.5,10.07,68.76,321.637,-2.924,-179.707,1666,2019-05-30 12:12:16:015
0.05,0.39,-9.74,0.05,0.5,-9.79,0.13,0,-0.05,0,0,0.02,-10.5,10.07,68.76,321.637,-2.924,-179.707,1669,2019-05-30 12:12:16:018
0.05,0.39,-9.74,0.05,0.5,-9.79,0.13,0,-0.05,0,0,0.02,-10.5,10.07,68.76,321.637,-2.924,-179.707,1675,2019-05-30 12:12:16:024
0.05,0.39,-9.74,0.05,0.5,-9.79,0.13,0,-0.05,0,0,0.02,-10.5,10.07,68.76,321.637,-2.924,-179.707,1679,2019-05-30 12:12:16:028
0.05,0.39,-9.74,0.05,0.5,-9.79,0.13,0,-0.05,0,0,0.02,-10.5,10.07,68.76,321.637,-2.924,-179.707,1685,2019-05-30 12:12:16:034
0.05,0.39,-9.74,0.05,0.5,-9.79,0.13,0,-0.05,0,0,0.02,-10.5,10.07,68.76,321.637,-2.924,-179.707,1690,2019-05-30 12:12:16:039
0.05,0.39,-9.74,0.05,0.5,-9.79,-0.07,-0.02,-0.1,0,0,0.01,-10.5,10.68,68.04,326.269,-2.924,-179.707,1695,2019-05-30 12:12:16:044
0.05,0.39,-9.74,0.05,0.5,-9.79,-0.07,-0.02,-0.1,0,0,0.01,-10.5,10.68,68.04,326.269,-2.924,-179.707,1699,2019-05-30 12:12:16:048
0.05,0.39,-9.74,0.05,0.5,-9.79,-0.07,-0.02,-0.1,0,0,0.01,-10.5,10.68,68.04,326.269,-2.924,-179.707,1705,2019-05-30 12:12:16:054
0.05,0.39,-9.74,0.05,0.5,-9.79,-0.07,-0.02,-0.1,0,0,0.01,-10.5,10.68,68.04,326.269,-2.924,-179.707,1711,2019-05-30 12:12:16:060
0.05,0.39,-9.74,0.05,0.5,-9.79,-0.07,-0.02,-0.1,0,0,0.01,-10.5,10.68,68.04,326.269,-2.924,-179.707,1715,2019-05-30 12:12:16:064
0.1,0.44,-9.67,0.05,0.5,-9.79,0.05,-0.03,0.06,0,0,0.01,-10.5,10.68,68.04,326.269,-2.924,-179.707,1719,2019-05-30 12:12:16:068
0.1,0.44,-9.67,0.05,0.5,-9.79,0.05,-0.03,0.06,0,0,0.01,-10.97,9.83,67.68,326.269,-2.924,-179.707,1725,2019-05-30 12:12:16:074
0.1,0.44,-9.67,0.05,0.5,-9.79,0.05,-0.03,0.06,0,0,0.01,-10.97,9.83,67.68,326.269,-2.924,-179.707,1730,2019-05-30 12:12:16:079
0.1,0.44,-9.67,0.05,0.5,-9.79,0.05,-0.03,0.06,0,0,0.01,-10.97,9.83,67.68,326.269,-2.924,-179.707,1735,2019-05-30 12:12:16:084
0.1,0.44,-9.67,0.05,0.5,-9.79,0.05,-0.03,0.06,0,0,0.01,-10.97,9.83,67.68,326.269,-2.924,-179.707,1740,2019-05-30 12:12:16:089
0.1,0.44,-9.67,0.05,0.5,-9.79,0.05,-0.03,0.06,0,0,0.01,-10.97,9.83,67.68,326.269,-2.924,-179.707,1745,2019-05-30 12:12:16:094
0.1,0.44,-9.67,0.05,0.5,-9.79,0.05,-0.03,0.06,0,0,0.01,-10.97,9.83,67.68,326.269,-2.924,-179.707,1750,2019-05-30 12:12:16:099
0.03,0.4,-9.68,0.05,0.5,-9.79,0,-0.06,0.03,0,0,0.02,-10.74,9.89,67.86,321.637,-2.924,-179.707,1755,2019-05-30 12:12:16:104
0.03,0.4,-9.68,0.05,0.5,-9.79,0,-0.06,0.03,0,0,0.02,-10.74,9.89,67.86,321.637,-2.924,-179.707,1760,2019-05-30 12:12:16:109
0.03,0.4,-9.68,0.05,0.5,-9.79,0,-0.06,0.03,0,0,0.02,-10.74,9.89,67.86,321.637,-2.924,-179.707,1765,2019-05-30 12:12:16:114
0.03,0.4,-9.68,0.05,0.5,-9.79,0,-0.06,0.03,0,0,0.02,-10.74,9.89,67.86,321.637,-2.924,-179.707,1770,2019-05-30 12:12:16:119
0.03,0.4,-9.68,0.05,0.5,-9.79,0,-0.06,0.03,0,0,0.02,-10.74,9.89,67.86,321.637,-2.924,-179.707,1774,2019-05-30 12:12:16:123
0.03,0.4,-9.68,0.05,0.5,-9.79,0,-0.06,0.03,0,0,0.02,-10.74,9.89,67.86,321.637,-2.924,-179.707,1779,2019-05-30 12:12:16:128
0.03,0.4,-9.68,0.05,0.5,-9.79,0,-0.06,0.03,0,0,0.02,-10.74,9.89,67.86,321.637,-2.924,-179.707,1785,2019-05-30 12:12:16:134
0.03,0.4,-9.7,0.05,0.5,-9.79,0,-0.06,0.03,0,0,0.02,-10.74,9.89,67.86,321.637,-2.924,-179.707,1790,2019-05-30 12:12:16:139
0.03,0.4,-9.7,0.05,0.5,-9.79,0,-0.04,0.01,0,0,0.02,-10.91,10.32,68.1,321.637,-2.924,-179.707,1795,2019-05-30 12:12:16:144
0.03,0.4,-9.7,0.05,0.5,-9.79,0,-0.04,0.01,0,0,0.02,-10.91,10.32,68.1,321.637,-2.924,-179.707,1802,2019-05-30 12:12:16:151
0.03,0.4,-9.7,0.05,0.5,-9.79,0,-0.04,0.01,0,0,0.02,-10.91,10.32,68.1,321.637,-2.924,-179.707,1804,2019-05-30 12:12:16:153
0.03,0.4,-9.7,0.05,0.5,-9.79,0,-0.04,0.01,0,0,0.02,-10.91,10.32,68.1,321.637,-2.924,-179.707,1810,2019-05-30 12:12:16:159
0.03,0.4,-9.7,0.05,0.5,-9.79,0,-0.04,0.01,0,0,0.02,-10.91,10.32,68.1,321.637,-2.924,-179.707,1815,2019-05-30 12:12:16:164
0.03,0.4,-9.7,0.05,0.5,-9.79,0,-0.04,0.01,0,0,0.02,-10.91,10.32,68.1,321.637,-2.924,-179.707,1820,2019-05-30 12:12:16:169
0.04,0.43,-9.67,0.05,0.5,-9.79,-0.01,0,0.05,0,0,0.02,-10.5,10.61,68.28,326.269,-2.924,-179.707,1824,2019-05-30 12:12:16:173
0.04,0.43,-9.67,0.05,0.5,-9.79,-0.01,0,0.05,0,0,0.02,-10.5,10.61,68.28,326.269,-2.924,-179.707,1830,2019-05-30 12:12:16:179
0.04,0.43,-9.67,0.05,0.5,-9.79,-0.01,0,0.05,0,0,0.02,-10.5,10.61,68.28,326.269,-2.924,-179.707,1835,2019-05-30 12:12:16:184
0.04,0.43,-9.67,0.05,0.5,-9.79,-0.01,0,0.05,0,0,0.02,-10.5,10.61,68.28,326.269,-2.924,-179.707,1841,2019-05-30 12:12:16:190
0.04,0.43,-9.67,0.05,0.5,-9.79,-0.01,0,0.05,0,0,0.02,-10.5,10.61,68.28,326.269,-2.924,-179.707,1845,2019-05-30 12:12:16:194
0.04,0.43,-9.67,0.05,0.5,-9.79,-0.01,0,0.05,0,0,0.02,-10.5,10.61,68.28,326.269,-2.924,-179.707,1849,2019-05-30 12:12:16:198
0.04,0.41,-9.73,0.05,0.5,-9.79,0,0,-0.01,0,0,0.02,-10.5,10.61,68.28,326.269,-2.924,-179.707,1855,2019-05-30 12:12:16:204
0.04,0.41,-9.73,0.05,0.5,-9.79,0,0,-0.01,0,0,0.02,-10.5,10.61,68.28,326.269,-2.924,-179.707,1859,2019-05-30 12:12:16:208
0.04,0.41,-9.73,0.05,0.5,-9.79,0,0,-0.01,0,0,0.02,-10.5,10.61,68.28,326.269,-2.924,-179.707,1865,2019-05-30 12:12:16:214
0.04,0.41,-9.73,0.05,0.5,-9.79,0,0,-0.01,0,0,0.01,-10.19,9.83,67.92,326.269,-2.924,-179.707,1870,2019-05-30 12:12:16:219
0.04,0.41,-9.73,0.05,0.5,-9.79,0,0,-0.01,0,0,0.01,-10.19,9.83,67.92,326.269,-2.924,-179.707,1875,2019-05-30 12:12:16:224
0.04,0.41,-9.73,0.05,0.5,-9.79,0,0,-0.01,0,0,0.01,-10.19,9.83,67.92,326.269,-2.924,-179.707,1881,2019-05-30 12:12:16:230
0.04,0.41,-9.73,0.05,0.5,-9.79,0,0,-0.01,0,0,0.01,-10.19,9.83,67.92,326.269,-2.924,-179.707,1886,2019-05-30 12:12:16:235
0.09,0.39,-9.73,0.05,0.5,-9.79,0.04,-0.03,-0.01,0,0,0.01,-10.19,9.83,67.92,326.269,-2.924,-179.707,1890,2019-05-30 12:12:16:239
0.09,0.39,-9.73,0.05,0.5,-9.79,0.04,-0.03,-0.01,0,0,0.01,-10.19,9.83,67.92,326.269,-2.924,-179.707,1895,2019-05-30 12:12:16:244
0.09,0.39,-9.73,0.05,0.5,-9.79,0.04,-0.03,-0.01,0,0,0.01,-10.19,9.83,67.92,326.269,-2.924,-179.707,1903,2019-05-30 12:12:16:252
0.09,0.39,-9.73,0.05,0.5,-9.79,0.04,-0.03,-0.01,0,0,0.01,-10.19,9.83,67.92,326.269,-2.924,-179.707,1905,2019-05-30 12:12:16:254
0.09,0.39,-9.73,0.05,0.5,-9.79,0.04,-0.03,-0.01,0,0,0.01,-9.89,9.83,67.98,324.35,-2.924,-179.707,1909,2019-05-30 12:12:16:258
0.11,0.45,-9.72,0.05,0.5,-9.79,0.04,-0.03,-0.01,0,0,0.01,-9.89,9.83,67.98,324.35,-2.924,-179.707,1915,2019-05-30 12:12:16:264
0.11,0.45,-9.72,0.05,0.5,-9.79,0.04,-0.03,-0.01,0,0,0.01,-9.89,9.83,67.98,324.35,-2.924,-179.707,1920,2019-05-30 12:12:16:269
0.11,0.45,-9.72,0.05,0.5,-9.79,0.04,-0.03,-0.01,0,0,0.01,-9.89,9.83,67.98,324.35,-2.924,-179.707,1925,2019-05-30 12:12:16:274
0.11,0.45,-9.72,0.05,0.5,-9.79,0.04,-0.03,-0.01,0,0,0.01,-9.89,9.83,67.98,324.35,-2.924,-179.707,1930,2019-05-30 12:12:16:279
0.11,0.45,-9.72,0.05,0.5,-9.79,0.06,0.03,-0.02,0,0,0.01,-9.89,9.83,67.98,324.35,-2.924,-179.707,1935,2019-05-30 12:12:16:284
0.11,0.45,-9.72,0.05,0.5,-9.79,0.06,0.03,-0.02,0,0,0.01,-9.89,9.83,67.98,324.35,-2.924,-179.707,1940,2019-05-30 12:12:16:289
0.11,0.45,-9.72,0.05,0.5,-9.79,0.06,0.03,-0.02,0,0,0.01,-9.89,9.83,67.98,324.35,-2.924,-179.707,1946,2019-05-30 12:12:16:295
0.04,0.5,-9.7,0.05,0.5,-9.79,0.06,0.03,-0.02,0,0,0.01,-10.13,10.79,67.98,324.35,-2.924,-179.707,1951,2019-05-30 12:12:16:300
0.04,0.5,-9.7,0.05,0.5,-9.79,0.06,0.03,-0.02,0,0,0.01,-10.13,10.79,67.98,324.35,-2.924,-179.707,1955,2019-05-30 12:12:16:304
0.04,0.5,-9.7,0.05,0.5,-9.79,0.06,0.03,-0.02,0,0,0.01,-10.13,10.79,67.98,324.35,-2.924,-179.707,1961,2019-05-30 12:12:16:310
0.04,0.5,-9.7,0.05,0.5,-9.79,0.06,0.03,-0.02,0,0,0.01,-10.13,10.79,67.98,324.35,-2.924,-179.707,1965,2019-05-30 12:12:16:314
0.04,0.5,-9.7,0.05,0.5,-9.79,0.06,0.03,-0.02,0,0,0.01,-10.13,10.79,67.98,324.35,-2.924,-179.707,1970,2019-05-30 12:12:16:319
0.04,0.5,-9.7,0.05,0.5,-9.79,0.06,0.03,-0.02,0,0,0.01,-10.13,10.79,67.98,324.35,-2.924,-179.707,1975,2019-05-30 12:12:16:324
0.04,0.5,-9.7,0.05,0.5,-9.79,0.06,0.03,-0.02,0,0,0.01,-10.13,10.79,67.98,324.35,-2.924,-179.707,1981,2019-05-30 12:12:16:330
0.04,0.5,-9.7,0.05,0.5,-9.79,0.06,0.03,-0.02,0,0,0.01,-10.13,10.79,67.98,324.35,-2.924,-179.707,1985,2019-05-30 12:12:16:334
0.07,0.48,-9.77,0.05,0.5,-9.79,0,0.05,-0.04,0,0,0,-10.67,10.61,68.28,323.615,-2.924,-179.707,1990,2019-05-30 12:12:16:339
0.07,0.48,-9.77,0.05,0.5,-9.79,0,0.05,-0.04,0,0,0,-10.67,10.61,68.28,323.615,-2.924,-179.707,1996,2019-05-30 12:12:16:345
0.07,0.48,-9.77,0.05,0.5,-9.79,0,0.05,-0.04,0,0,0,-10.67,10.61,68.28,323.615,-2.924,-179.707,2000,2019-05-30 12:12:16:349
0.07,0.48,-9.77,0.05,0.5,-9.79,0,0.05,-0.04,0,0,0,-10.67,10.61,68.28,323.615,-2.924,-179.707,2006,2019-05-30 12:12:16:355
0.07,0.48,-9.77,0.05,0.5,-9.79,0,0.05,-0.04,0,0,0,-10.67,10.61,68.28,323.615,-2.924,-179.707,2010,2019-05-30 12:12:16:359
0.05,0.47,-9.72,0.05,0.5,-9.79,0,0.05,-0.04,0,0,0,-10.67,10.61,68.28,323.615,-2.924,-179.707,2015,2019-05-30 12:12:16:364
0.05,0.47,-9.72,0.05,0.5,-9.79,0,0.05,-0.04,0,0,0,-10.67,10.61,68.28,323.615,-2.924,-179.707,2020,2019-05-30 12:12:16:369
0.05,0.47,-9.72,0.05,0.5,-9.79,0,0.05,-0.04,0,0,0,-10.67,10.61,68.28,323.615,-2.924,-179.707,2025,2019-05-30 12:12:16:374
0.05,0.47,-9.72,0.05,0.5,-9.79,0,0.05,-0.04,0,0,0,-10.67,10.61,68.28,323.615,-2.924,-179.707,2029,2019-05-30 12:12:16:378
0.05,0.47,-9.72,0.05,0.5,-9.79,-0.02,0,0,0,0,0,-10.5,9.59,68.64,323.615,-2.924,-179.707,2035,2019-05-30 12:12:16:384
0.05,0.47,-9.72,0.05,0.5,-9.79,-0.02,0,0,0,0,0,-10.5,9.59,68.64,323.615,-2.924,-179.707,2040,2019-05-30 12:12:16:389
0.05,0.47,-9.72,0.05,0.5,-9.79,-0.02,0,0,0,0,0,-10.5,9.59,68.64,323.615,-2.924,-179.707,2052,2019-05-30 12:12:16:401
0.06,0.48,-9.76,0.05,0.5,-9.79,-0.02,0,0,0,0,0,-10.5,9.59,68.64,323.615,-2.924,-179.707,2057,2019-05-30 12:12:16:406
0.06,0.48,-9.76,0.05,0.5,-9.79,-0.02,0,0,0,0,0,-10.5,9.59,68.64,323.615,-2.924,-179.707,2057,2019-05-30 12:12:16:406
0.06,0.48,-9.76,0.05,0.5,-9.79,-0.02,0,0,0,0,0,-10.5,9.59,68.64,323.615,-2.924,-179.707,2060,2019-05-30 12:12:16:409
0.06,0.48,-9.76,0.05,0.5,-9.79,-0.02,0,0,0,0,0,-10.5,9.59,68.64,323.615,-2.924,-179.707,2064,2019-05-30 12:12:16:413
0.06,0.48,-9.76,0.05,0.5,-9.79,-0.02,0,0,0,0,0,-10.86,9.47,68.28,319.47,-2.924,-179.707,2069,2019-05-30 12:12:16:418
0.06,0.48,-9.76,0.05,0.5,-9.79,-0.04,0.03,-0.02,0,0,0,-10.86,9.47,68.28,319.47,-2.924,-179.707,2075,2019-05-30 12:12:16:424
0.06,0.48,-9.76,0.05,0.5,-9.79,-0.04,0.03,-0.02,0,0,0,-10.86,9.47,68.28,319.47,-2.924,-179.707,2082,2019-05-30 12:12:16:431
0.06,0.48,-9.76,0.05,0.5,-9.79,-0.04,0.03,-0.02,0,0,0,-10.86,9.47,68.28,319.47,-2.924,-179.707,2088,2019-05-30 12:12:16:437
0.06,0.48,-9.76,0.05,0.5,-9.79,-0.04,0.03,-0.02,0,0,0,-10.86,9.47,68.28,319.47,-2.924,-179.707,2090,2019-05-30 12:12:16:439
0.06,0.48,-9.76,0.05,0.5,-9.79,-0.04,0.03,-0.02,0,0,0,-10.86,9.47,68.28,319.47,-2.924,-179.707,2096,2019-05-30 12:12:16:445
0.06,0.48,-9.76,0.05,0.5,-9.79,-0.04,0.03,-0.02,0,0,0,-10.86,9.47,68.28,319.47,-2.924,-179.707,2100,2019-05-30 12:12:16:449
0.06,0.45,-9.73,0.05,0.5,-9.79,0.01,-0.02,0,0,0,0,-10.67,10.43,67.38,319.47,-2.924,-179.707,2106,2019-05-30 12:12:16:455
0.06,0.45,-9.73,0.05,0.5,-9.79,0.01,-0.02,0,0,0,0,-10.67,10.43,67.38,319.47,-2.924,-179.707,2112,2019-05-30 12:12:16:461
0.06,0.45,-9.73,0.05,0.5,-9.79,0.01,-0.02,0,0,0,0,-10.67,10.43,67.38,319.47,-2.924,-179.707,2115,2019-05-30 12:12:16:464
0.06,0.45,-9.73,0.05,0.5,-9.79,0.01,-0.02,0,0,0,0,-10.67,10.43,67.38,319.47,-2.924,-179.707,2119,2019-05-30 12:12:16:468
0.06,0.45,-9.73,0.05,0.5,-9.79,0.01,-0.02,0,0,0,0,-10.67,10.43,67.38,319.47,-2.924,-179.707,2125,2019-05-30 12:12:16:474
0.06,0.42,-9.68,0.05,0.5,-9.79,0.01,-0.02,0,0,0,0,-10.67,10.43,67.38,319.47,-2.924,-179.707,2130,2019-05-30 12:12:16:479
0.06,0.42,-9.68,0.05,0.5,-9.79,-0.03,0,-0.04,0,0,0,-10.5,9.77,67.98,324.35,-2.924,-179.707,2136,2019-05-30 12:12:16:485
0.06,0.42,-9.68,0.05,0.5,-9.79,-0.03,0,-0.04,0,0,0,-10.5,9.77,67.98,324.35,-2.924,-179.707,2140,2019-05-30 12:12:16:489
0.06,0.42,-9.68,0.05,0.5,-9.79,-0.03,0,-0.04,0,0,0,-10.5,9.77,67.98,324.35,-2.924,-179.707,2145,2019-05-30 12:12:16:494
0.06,0.42,-9.68,0.05,0.5,-9.79,-0.03,0,-0.04,0,0,0,-10.5,9.77,67.98,324.35,-2.924,-179.707,2150,2019-05-30 12:12:16:499
0.05,0.48,-9.67,0.05,0.5,-9.79,-0.03,0,-0.04,0,0,0,-10.5,9.77,67.98,324.35,-2.924,-179.707,2155,2019-05-30 12:12:16:504
0.05,0.48,-9.67,0.05,0.5,-9.79,-0.03,0,-0.04,0,0,0,-10.5,9.77,67.98,324.35,-2.924,-179.707,2160,2019-05-30 12:12:16:509
0.05,0.48,-9.67,0.05,0.5,-9.79,-0.03,0,-0.04,0,0,0,-10.5,9.77,67.98,324.35,-2.924,-179.707,2165,2019-05-30 12:12:16:514
0.05,0.48,-9.67,0.05,0.5,-9.79,-0.03,0,-0.04,0,0,0,-10.25,10.55,68.33,324.35,-2.924,-179.707,2169,2019-05-30 12:12:16:518
0.05,0.48,-9.67,0.05,0.5,-9.79,0.02,0.02,-0.03,0,0,0,-10.25,10.55,68.33,324.35,-2.924,-179.707,2175,2019-05-30 12:12:16:524
0.05,0.48,-9.67,0.05,0.5,-9.79,0.02,0.02,-0.03,0,0,0,-10.25,10.55,68.33,324.35,-2.924,-179.707,2179,2019-05-30 12:12:16:528
0.05,0.48,-9.67,0.05,0.5,-9.79,0.02,0.02,-0.03,0,0,0,-10.25,10.55,68.33,324.35,-2.924,-179.707,2185,2019-05-30 12:12:16:534
0.05,0.48,-9.67,0.05,0.5,-9.79,0.02,0.02,-0.03,0,0,0,-10.25,10.55,68.33,324.35,-2.924,-179.707,2190,2019-05-30 12:12:16:539
0.05,0.48,-9.67,0.05,0.5,-9.79,0.02,0.02,-0.03,0,0,0,-10.25,10.55,68.33,324.35,-2.924,-179.707,2196,2019-05-30 12:12:16:545
0.05,0.48,-9.67,0.05,0.5,-9.79,0.02,0.02,-0.03,0,0,0,-10.25,10.55,68.33,324.35,-2.924,-179.707,2200,2019-05-30 12:12:16:549
0.06,0.46,-9.73,0.05,0.5,-9.79,0.01,0,0,0,0,0,-10.61,10.55,68.04,323.615,-2.924,-179.707,2205,2019-05-30 12:12:16:554
0.06,0.46,-9.73,0.05,0.5,-9.79,0.01,0,0,0,0,0,-10.61,10.55,68.04,323.615,-2.924,-179.707,2210,2019-05-30 12:12:16:559
0.06,0.46,-9.73,0.05,0.5,-9.79,0.01,0,0,0,0,0,-10.61,10.55,68.04,323.615,-2.924,-179.707,2214,2019-05-30 12:12:16:563
0.06,0.46,-9.73,0.05,0.5,-9.79,0.01,0,0,0,0,0,-10.61,10.55,68.04,323.615,-2.924,-179.707,2219,2019-05-30 12:12:16:568
0.06,0.46,-9.73,0.05,0.5,-9.79,0.01,0,0,0,0,0,-10.61,10.55,68.04,323.615,-2.924,-179.707,2227,2019-05-30 12:12:16:576
0.06,0.46,-9.73,0.05,0.5,-9.79,0.01,0,0,0,0,0,-10.61,10.55,68.04,323.615,-2.924,-179.707,2232,2019-05-30 12:12:16:581
0.06,0.46,-9.73,0.05,0.5,-9.79,0.01,0,0,0,0,0,-10.61,10.55,68.04,323.615,-2.924,-179.707,2235,2019-05-30 12:12:16:584
0.08,0.43,-9.7,0.05,0.5,-9.79,0.01,0,0,0,0,0,-10.61,10.55,68.04,323.615,-2.924,-179.707,2240,2019-05-30 12:12:16:589
0.08,0.43,-9.7,0.05,0.5,-9.79,0.03,-0.03,0.01,0,0,0,-10.44,9.47,68.16,323.615,-2.924,-179.707,2246,2019-05-30 12:12:16:595
0.08,0.43,-9.7,0.05,0.5,-9.79,0.03,-0.03,0.01,0,0,0,-10.44,9.47,68.16,323.615,-2.924,-179.707,2250,2019-05-30 12:12:16:599
0.08,0.43,-9.7,0.05,0.5,-9.79,0.03,-0.03,0.01,0,0,0,-10.44,9.47,68.16,323.615,-2.924,-179.707,2255,2019-05-30 12:12:16:604
0.08,0.43,-9.7,0.05,0.5,-9.79,0.03,-0.03,0.01,0,0,0,-10.44,9.47,68.16,323.615,-2.924,-179.707,2260,2019-05-30 12:12:16:609
0.08,0.43,-9.7,0.05,0.5,-9.79,0.03,-0.03,0.01,0,0,0,-10.44,9.47,68.16,323.615,-2.924,-179.707,2265,2019-05-30 12:12:16:614
0.04,0.45,-9.73,0.05,0.5,-9.79,-0.01,-0.01,-0.01,0,0,0,-10.44,9.47,68.16,323.615,-2.924,-179.707,2270,2019-05-30 12:12:16:619
0.04,0.45,-9.73,0.05,0.5,-9.79,-0.01,-0.01,-0.01,0,0,0,-10.31,10.07,68.33,324.35,-2.924,-179.707,2275,2019-05-30 12:12:16:624
0.04,0.45,-9.73,0.05,0.5,-9.79,-0.01,-0.01,-0.01,0,0,0,-10.31,10.07,68.33,324.35,-2.924,-179.707,2280,2019-05-30 12:12:16:629
0.04,0.45,-9.73,0.05,0.5,-9.79,-0.01,-0.01,-0.01,0,0,0,-10.31,10.07,68.33,324.35,-2.924,-179.707,2284,2019-05-30 12:12:16:633
0.04,0.45,-9.73,0.05,0.5,-9.79,-0.01,-0.01,-0.01,0,0,0,-10.31,10.07,68.33,324.35,-2.924,-179.707,2290,2019-05-30 12:12:16:639
0.04,0.45,-9.73,0.05,0.5,-9.79,-0.01,-0.01,-0.01,0,0,0,-10.31,10.07,68.33,324.35,-2.924,-179.707,2295,2019-05-30 12:12:16:644
0.04,0.45,-9.73,0.05,0.5,-9.79,-0.01,-0.01,-0.01,0,0,0,-10.31,10.07,68.33,324.35,-2.924,-179.707,2300,2019-05-30 12:12:16:649
0.05,0.41,-9.72,0.05,0.5,-9.79,0,-0.04,0,0,0,0,-10.61,10.5,68.1,324.35,-2.924,-179.707,2305,2019-05-30 12:12:16:654
0.05,0.41,-9.72,0.05,0.5,-9.79,0,-0.04,0,0,0,0,-10.61,10.5,68.1,324.35,-2.924,-179.707,2310,2019-05-30 12:12:16:659
0.05,0.41,-9.72,0.05,0.5,-9.79,0,-0.04,0,0,0,0,-10.61,10.5,68.1,324.35,-2.924,-179.707,2315,2019-05-30 12:12:16:664
0.05,0.41,-9.72,0.05,0.5,-9.79,0,-0.04,0,0,0,0,-10.61,10.5,68.1,324.35,-2.924,-179.707,2320,2019-05-30 12:12:16:669
0.05,0.41,-9.72,0.05,0.5,-9.79,0,-0.04,0,0,0,0,-10.61,10.5,68.1,324.35,-2.924,-179.707,2324,2019-05-30 12:12:16:673
0.05,0.41,-9.72,0.05,0.5,-9.79,0,-0.04,0,0,0,0,-10.61,10.5,68.1,324.35,-2.924,-179.707,2330,2019-05-30 12:12:16:679
0.05,0.41,-9.72,0.05,0.5,-9.79,0,-0.04,0,0,0,0,-10.61,10.5,68.1,324.35,-2.924,-179.707,2335,2019-05-30 12:12:16:684
0.07,0.45,-9.71,0.05,0.5,-9.79,0,-0.04,0,0,0,0,-10.8,10.32,68.1,321.637,-2.924,-179.707,2340,2019-05-30 12:12:16:689
0.07,0.45,-9.71,0.05,0.5,-9.79,0,-0.01,0.01,0,0,0,-10.8,10.32,68.1,321.637,-2.924,-179.707,2345,2019-05-30 12:12:16:694
0.07,0.45,-9.71,0.05,0.5,-9.79,0,-0.01,0.01,0,0,0,-10.8,10.32,68.1,321.637,-2.924,-179.707,2353,2019-05-30 12:12:16:702
0.07,0.45,-9.71,0.05,0.5,-9.79,0,-0.01,0.01,0,0,0,-10.8,10.32,68.1,321.637,-2.924,-179.707,2354,2019-05-30 12:12:16:703
0.07,0.45,-9.71,0.05,0.5,-9.79,0,-0.01,0.01,0,0,0,-10.8,10.32,68.1,321.637,-2.924,-179.707,2361,2019-05-30 12:12:16:710
0.07,0.45,-9.71,0.05,0.5,-9.79,0,-0.01,0.01,0,0,0,-10.8,10.32,68.1,321.637,-2.924,-179.707,2366,2019-05-30 12:12:16:715
0.07,0.52,-9.7,0.05,0.5,-9.79,0,0.05,0.02,0,0,0,-10.44,9.95,68.46,321.637,-2.924,-179.707,2370,2019-05-30 12:12:16:719
0.07,0.52,-9.7,0.05,0.5,-9.79,0,0.05,0.02,0,0,0,-10.44,9.95,68.46,321.637,-2.924,-179.707,2375,2019-05-30 12:12:16:724
0.07,0.52,-9.7,0.05,0.5,-9.79,0,0.05,0.02,0,0,0,-10.44,9.95,68.46,321.637,-2.924,-179.707,2380,2019-05-30 12:12:16:729
0.07,0.52,-9.7,0.05,0.5,-9.79,0,0.05,0.02,0,0,0,-10.44,9.95,68.46,321.637,-2.924,-179.707,2385,2019-05-30 12:12:16:734
0.07,0.52,-9.7,0.05,0.5,-9.79,0,0.05,0.02,0,0,0,-10.44,9.95,68.46,321.637,-2.924,-179.707,2389,2019-05-30 12:12:16:738
0.07,0.52,-9.7,0.05,0.5,-9.79,0,0.05,0.02,0,0,0,-10.44,9.95,68.46,321.637,-2.924,-179.707,2395,2019-05-30 12:12:16:744
0.07,0.52,-9.7,0.05,0.5,-9.79,0,0.05,0.02,0,0,0,-10.44,9.95,68.46,321.637,-2.924,-179.707,2400,2019-05-30 12:12:16:749
0.07,0.52,-9.7,0.05,0.5,-9.79,0,0.05,0.02,0,0,0,-10.44,9.95,68.46,321.637,-2.924,-179.707,2405,2019-05-30 12:12:16:754
0.06,0.44,-9.7,0.05,0.5,-9.79,0,0.05,0.02,0,0,0,-10.19,10.73,68.04,326.269,-2.924,-179.707,2411,2019-05-30 12:12:16:760
0.06,0.44,-9.7,0.05,0.5,-9.79,0,-0.02,0.01,0,0,0,-10.19,10.73,68.04,326.269,-2.924,-179.707,2415,2019-05-30 12:12:16:764
0.06,0.44,-9.7,0.05,0.5,-9.79,0,-0.02,0.01,0,0,0,-10.19,10.73,68.04,326.269,-2.924,-179.707,2420,2019-05-30 12:12:16:769
0.06,0.44,-9.7,0.05,0.5,-9.79,0,-0.02,0.01,0,0,0,-10.19,10.73,68.04,326.269,-2.924,-179.707,2425,2019-05-30 12:12:16:774
0.06,0.44,-9.7,0.05,0.5,-9.79,0,-0.02,0.01,0,0,0,-10.19,10.73,68.04,326.269,-2.924,-179.707,2429,2019-05-30 12:12:16:778
0.06,0.44,-9.7,0.05,0.5,-9.79,0,-0.02,0.01,0,0,0,-10.19,10.73,68.04,326.269,-2.924,-179.707,2435,2019-05-30 12:12:16:784
0.06,0.44,-9.7,0.05,0.5,-9.79,0,-0.02,0.01,0,0,0,-10.19,10.73,68.04,326.269,-2.924,-179.707,2440,2019-05-30 12:12:16:789
0.06,0.44,-9.7,0.05,0.5,-9.79,0,-0.02,0.01,0,0,0,-10.19,10.73,68.04,326.269,-2.924,-179.707,2444,2019-05-30 12:12:16:793
0.05,0.5,-9.7,0.05,0.5,-9.79,0,-0.02,0.01,0,0,0,-10.61,10.55,68.33,326.269,-2.924,-179.707,2449,2019-05-30 12:12:16:798
0.05,0.5,-9.7,0.05,0.5,-9.79,-0.01,0.03,0.01,0,0,0,-10.61,10.55,68.33,326.269,-2.924,-179.707,2455,2019-05-30 12:12:16:804
0.05,0.5,-9.7,0.05,0.5,-9.79,-0.01,0.03,0.01,0,0,0,-10.61,10.55,68.33,326.269,-2.924,-179.707,2461,2019-05-30 12:12:16:810
0.05,0.5,-9.7,0.05,0.5,-9.79,-0.01,0.03,0.01,0,0,0,-10.61,10.55,68.33,326.269,-2.924,-179.707,2465,2019-05-30 12:12:16:814
0.05,0.5,-9.7,0.05,0.5,-9.79,-0.01,0.03,0.01,0,0,0,-10.61,10.55,68.33,326.269,-2.924,-179.707,2473,2019-05-30 12:12:16:822
0.05,0.5,-9.7,0.05,0.5,-9.79,-0.01,0.03,0.01,0,0,0,-10.61,10.55,68.33,326.269,-2.924,-179.707,2475,2019-05-30 12:12:16:824
0.05,0.5,-9.7,0.05,0.5,-9.79,-0.01,0.03,0.01,0,0,0,-10.61,10.55,68.33,326.269,-2.924,-179.707,2480,2019-05-30 12:12:16:829
0.02,0.45,-9.72,0.05,0.5,-9.79,-0.03,-0.01,0,0,0,0,-10.31,10.5,68.22,326.269,-2.924,-179.707,2486,2019-05-30 12:12:16:835
0.02,0.45,-9.72,0.05,0.5,-9.79,-0.03,-0.01,0,0,0,0,-10.31,10.5,68.22,326.269,-2.924,-179.707,2490,2019-05-30 12:12:16:839
0.02,0.45,-9.72,0.05,0.5,-9.79,-0.03,-0.01,0,0,0,0,-10.31,10.5,68.22,326.269,-2.924,-179.707,2495,2019-05-30 12:12:16:844
0.02,0.45,-9.72,0.05,0.5,-9.79,-0.03,-0.01,0,0,0,0,-10.31,10.5,68.22,326.269,-2.924,-179.707,2499,2019-05-30 12:12:16:848
0.02,0.45,-9.72,0.05,0.5,-9.79,-0.03,-0.01,0,0,0,0,-10.31,10.5,68.22,326.269,-2.924,-179.707,2506,2019-05-30 12:12:16:855
0.04,0.5,-9.75,0.05,0.5,-9.79,-0.03,-0.01,0,0,0,0,-10.31,10.5,68.22,326.269,-2.924,-179.707,2511,2019-05-30 12:12:16:860
0.04,0.5,-9.75,0.05,0.5,-9.79,-0.03,-0.01,0,0,0,0,-10.31,10.5,68.22,326.269,-2.924,-179.707,2515,2019-05-30 12:12:16:864
0.04,0.5,-9.75,0.05,0.5,-9.79,-0.03,-0.01,0,0,0,0,-10.31,10.5,68.22,326.269,-2.924,-179.707,2519,2019-05-30 12:12:16:868
0.04,0.5,-9.75,0.05,0.5,-9.79,-0.03,-0.01,0,0,0,0,-10.31,10.5,68.22,326.269,-2.924,-179.707,2525,2019-05-30 12:12:16:874
0.04,0.5,-9.75,0.05,0.5,-9.79,-0.02,0.03,-0.01,0,0,0,-10.19,10.19,68.33,326.269,-2.924,-179.707,2529,2019-05-30 12:12:16:878
0.04,0.5,-9.75,0.05,0.5,-9.79,-0.02,0.03,-0.01,0,0,0,-10.19,10.19,68.33,326.269,-2.924,-179.707,2535,2019-05-30 12:12:16:884
0.04,0.5,-9.75,0.05,0.5,-9.79,-0.02,0.03,-0.01,0,0,0,-10.19,10.19,68.33,326.269,-2.924,-179.707,2540,2019-05-30 12:12:16:889
0.04,0.5,-9.75,0.05,0.5,-9.79,-0.02,0.03,-0.01,0,0,0,-10.19,10.19,68.33,326.269,-2.924,-179.707,2544,2019-05-30 12:12:16:893
0.07,0.47,-9.73,0.05,0.5,-9.79,-0.02,0.03,-0.01,0,0,0,-10.19,10.19,68.33,326.269,-2.924,-179.707,2550,2019-05-30 12:12:16:899
0.07,0.47,-9.73,0.05,0.5,-9.79,-0.02,0.03,-0.01,0,0,0,-10.19,10.19,68.33,326.269,-2.924,-179.707,2555,2019-05-30 12:12:16:904
0.07,0.47,-9.73,0.05,0.5,-9.79,-0.02,0.03,-0.01,0,0,0,-10.19,10.19,68.33,326.269,-2.924,-179.707,2560,2019-05-30 12:12:16:909
0.07,0.47,-9.73,0.05,0.5,-9.79,-0.02,0.03,-0.01,0,0,0,-10.19,10.19,68.33,326.269,-2.924,-179.707,2565,2019-05-30 12:12:16:914
0.07,0.47,-9.73,0.05,0.5,-9.79,-0.01,-0.01,0.02,0,0,0.01,-10.67,10.55,68.33,323.615,-2.924,-179.707,2570,2019-05-30 12:12:16:919
0.07,0.47,-9.73,0.05,0.5,-9.79,-0.01,-0.01,0.02,0,0,0.01,-10.67,10.55,68.33,323.615,-2.924,-179.707,2575,2019-05-30 12:12:16:924
0.07,0.47,-9.73,0.05,0.5,-9.79,-0.01,-0.01,0.02,0,0,0.01,-10.67,10.55,68.33,323.615,-2.924,-179.707,2580,2019-05-30 12:12:16:929
0.07,0.47,-9.73,0.05,0.5,-9.79,-0.01,-0.01,0.02,0,0,0.01,-10.67,10.55,68.33,323.615,-2.924,-179.707,2585,2019-05-30 12:12:16:934
0.07,0.47,-9.73,0.05,0.5,-9.79,-0.01,-0.01,0.02,0,0,0.01,-10.67,10.55,68.33,323.615,-2.924,-179.707,2589,2019-05-30 12:12:16:938
0.07,0.47,-9.73,0.05,0.5,-9.79,-0.01,-0.01,0.02,0,0,0.01,-10.67,10.55,68.33,323.615,-2.924,-179.707,2595,2019-05-30 12:12:16:944
0.07,0.47,-9.73,0.05,0.5,-9.79,-0.01,-0.01,0.02,0,0,0.01,-10.67,10.55,68.33,323.615,-2.924,-179.707,2599,2019-05-30 12:12:16:948
0.05,0.5,-9.73,0.05,0.5,-9.79,0,0,0,0,0,0.01,-10.86,10.37,68.1,323.615,-2.924,-179.707,2606,2019-05-30 12:12:16:955
0.05,0.5,-9.73,0.05,0.5,-9.79,0,0,0,0,0,0.01,-10.86,10.37,68.1,323.615,-2.924,-179.707,2610,2019-05-30 12:12:16:959
0.05,0.5,-9.73,0.05,0.5,-9.79,0,0,0,0,0,0.01,-10.86,10.37,68.1,323.615,-2.924,-179.707,2615,2019-05-30 12:12:16:964
0.05,0.5,-9.73,0.05,0.5,-9.79,0,0,0,0,0,0.01,-10.86,10.37,68.1,323.615,-2.924,-179.707,2620,2019-05-30 12:12:16:969
0.05,0.5,-9.73,0.05,0.5,-9.79,0,0,0,0,0,0.01,-10.86,10.37,68.1,323.615,-2.924,-179.707,2625,2019-05-30 12:12:16:974
0.09,0.43,-9.74,0.05,0.5,-9.79,0,0,0,0,0,0.01,-10.86,10.37,68.1,323.615,-2.924,-179.707,2629,2019-05-30 12:12:16:978
0.09,0.43,-9.74,0.05,0.5,-9.79,0.04,-0.06,-0.02,0,0,0.01,-10.86,10.37,68.1,323.615,-2.924,-179.707,2635,2019-05-30 12:12:16:984
0.09,0.43,-9.74,0.05,0.5,-9.79,0.04,-0.06,-0.02,0,0,0.01,-10.86,10.37,68.1,323.615,-2.924,-179.707,2640,2019-05-30 12:12:16:989
0.09,0.43,-9.74,0.05,0.5,-9.79,0.04,-0.06,-0.02,0,0,0.01,-10.86,10.37,68.1,323.615,-2.924,-179.707,2645,2019-05-30 12:12:16:994
0.09,0.43,-9.74,0.05,0.5,-9.79,0.04,-0.06,-0.02,0,0,0,-10.67,10.97,67.8,323.615,-2.924,-179.707,2650,2019-05-30 12:12:16:999
0.09,0.43,-9.74,0.05,0.5,-9.79,0.04,-0.06,-0.02,0,0,0,-10.67,10.97,67.8,323.615,-2.924,-179.707,2655,2019-05-30 12:12:17:004
0.09,0.43,-9.74,0.05,0.5,-9.79,0.04,-0.06,-0.02,0,0,0,-10.67,10.97,67.8,323.615,-2.924,-179.707,2660,2019-05-30 12:12:17:009
0.09,0.43,-9.74,0.05,0.5,-9.79,0.04,-0.06,-0.02,0,0,0,-10.67,10.97,67.8,323.615,-2.924,-179.707,2667,2019-05-30 12:12:17:016
0.09,0.43,-9.74,0.05,0.5,-9.79,0.04,-0.06,-0.02,0,0,0,-10.67,10.97,67.8,323.615,-2.924,-179.707,2670,2019-05-30 12:12:17:019
0.09,0.43,-9.74,0.05,0.5,-9.79,0.04,-0.06,-0.02,0,0,0,-10.67,10.97,67.8,323.615,-2.924,-179.707,2675,2019-05-30 12:12:17:024
0.09,0.43,-9.74,0.05,0.5,-9.79,0.04,-0.06,-0.02,0,0,0,-10.67,10.97,67.8,323.615,-2.924,-179.707,2680,2019-05-30 12:12:17:029
0.02,0.42,-9.74,0.05,0.5,-9.79,-0.02,-0.05,-0.01,0,0,0,-10.13,10.68,67.98,323.615,-2.924,-179.707,2685,2019-05-30 12:12:17:034
0.02,0.42,-9.74,0.05,0.5,-9.79,-0.02,-0.05,-0.01,0,0,0,-10.13,10.68,67.98,323.615,-2.924,-179.707,2690,2019-05-30 12:12:17:039
0.02,0.42,-9.74,0.05,0.5,-9.79,-0.02,-0.05,-0.01,0,0,0,-10.13,10.68,67.98,323.615,-2.924,-179.707,2695,2019-05-30 12:12:17:044
0.02,0.42,-9.74,0.05,0.5,-9.79,-0.02,-0.05,-0.01,0,0,0,-10.13,10.68,67.98,323.615,-2.924,-179.707,2700,2019-05-30 12:12:17:049
0.02,0.42,-9.74,0.05,0.5,-9.79,-0.02,-0.05,-0.01,0,0,0,-10.13,10.68,67.98,323.615,-2.924,-179.707,2706,2019-05-30 12:12:17:055
0.02,0.42,-9.74,0.05,0.5,-9.79,-0.02,-0.05,-0.01,0,0,0,-10.13,10.68,67.98,323.615,-2.924,-179.707,2710,2019-05-30 12:12:17:059
0.1,0.38,-9.66,0.05,0.5,-9.79,0.04,-0.07,0.05,0,0,0,-10.13,10.68,67.98,323.615,-2.924,-179.707,2715,2019-05-30 12:12:17:064
0.1,0.38,-9.66,0.05,0.5,-9.79,0.04,-0.07,0.05,0,0,0,-10.13,10.68,67.98,323.615,-2.924,-179.707,2719,2019-05-30 12:12:17:068
0.1,0.38,-9.66,0.05,0.5,-9.79,0.04,-0.07,0.05,0,0,0,-10.13,10.68,67.98,323.615,-2.924,-179.707,2725,2019-05-30 12:12:17:074
0.1,0.38,-9.66,0.05,0.5,-9.79,0.04,-0.07,0.05,0,0,0,-10.74,10.19,68.16,321.637,-2.924,-179.707,2733,2019-05-30 12:12:17:082
0.1,0.38,-9.66,0.05,0.5,-9.79,0.04,-0.07,0.05,0,0,0,-10.74,10.19,68.16,321.637,-2.924,-179.707,2735,2019-05-30 12:12:17:084
0.1,0.38,-9.66,0.05,0.5,-9.79,0.04,-0.07,0.05,0,0,0,-10.74,10.19,68.16,321.637,-2.924,-179.707,2740,2019-05-30 12:12:17:089
0.1,0.38,-9.66,0.05,0.5,-9.79,0.04,-0.07,0.05,0,0,0,-10.74,10.19,68.16,321.637,-2.924,-179.707,2745,2019-05-30 12:12:17:094
0.1,0.38,-9.66,0.05,0.5,-9.79,0.04,-0.07,0.05,0,0,0,-10.74,10.19,68.16,321.637,-2.924,-179.707,2750,2019-05-30 12:12:17:099
0.1,0.38,-9.66,0.05,0.5,-9.79,0.04,-0.07,0.05,0,0,0,-10.74,10.19,68.16,321.637,-2.924,-179.707,2755,2019-05-30 12:12:17:104
0.05,0.42,-9.75,0.05,0.5,-9.79,-0.01,-0.01,-0.02,0,0,0,-10.74,10.19,68.16,321.637,-2.924,-179.707,2760,2019-05-30 12:12:17:109
0.05,0.42,-9.75,0.05,0.5,-9.79,-0.01,-0.01,-0.02,0,0,0,-10.74,10.19,68.16,321.637,-2.924,-179.707,2765,2019-05-30 12:12:17:114
0.05,0.42,-9.75,0.05,0.5,-9.79,-0.01,-0.01,-0.02,0,0,0,-10.74,10.19,68.16,321.637,-2.924,-179.707,2770,2019-05-30 12:12:17:119
0.05,0.42,-9.75,0.05,0.5,-9.79,-0.01,-0.01,-0.02,0,0,0,-10.74,10.19,68.16,321.637,-2.924,-179.707,2774,2019-05-30 12:12:17:123
0.05,0.42,-9.75,0.05,0.5,-9.79,-0.01,-0.01,-0.02,0,0,-0.01,-10.8,10.61,67.92,323.615,-2.924,-179.707,2780,2019-05-30 12:12:17:129
0.06,0.43,-9.69,0.05,0.5,-9.79,-0.01,-0.01,-0.02,0,0,-0.01,-10.8,10.61,67.92,323.615,-2.924,-179.707,2786,2019-05-30 12:12:17:135
0.06,0.43,-9.69,0.05,0.5,-9.79,-0.01,0,0.01,0,0,-0.01,-10.8,10.61,67.92,323.615,-2.924,-179.707,2790,2019-05-30 12:12:17:139
0.06,0.43,-9.69,0.05,0.5,-9.79,-0.01,0,0.01,0,0,-0.01,-10.8,10.61,67.92,323.615,-2.924,-179.707,2795,2019-05-30 12:12:17:144
0.06,0.43,-9.69,0.05,0.5,-9.79,-0.01,0,0.01,0,0,-0.01,-10.8,10.61,67.92,323.615,-2.924,-179.707,2800,2019-05-30 12:12:17:149
0.06,0.43,-9.69,0.05,0.5,-9.79,-0.01,0,0.01,0,0,-0.01,-10.8,10.61,67.92,323.615,-2.924,-179.707,2806,2019-05-30 12:12:17:155
0.02,0.43,-9.71,0.05,0.5,-9.79,-0.01,0,0.01,0,0,-0.01,-10.8,10.61,67.92,323.615,-2.924,-179.707,2811,2019-05-30 12:12:17:160
0.02,0.43,-9.71,0.05,0.5,-9.79,-0.01,0,0.01,0,0,-0.01,-10.8,10.61,67.92,323.615,-2.924,-179.707,2815,2019-05-30 12:12:17:164
0.02,0.43,-9.71,0.05,0.5,-9.79,-0.02,0.07,0.02,0,0,-0.01,-11.1,11.15,68.46,323.615,-2.924,-179.707,2823,2019-05-30 12:12:17:172
0.02,0.43,-9.71,0.05,0.5,-9.79,-0.02,0.07,0.02,0,0,-0.01,-11.1,11.15,68.46,323.615,-2.924,-179.707,2824,2019-05-30 12:12:17:173
0.02,0.43,-9.71,0.05,0.5,-9.79,-0.02,0.07,0.02,0,0,-0.01,-11.1,11.15,68.46,323.615,-2.924,-179.707,2829,2019-05-30 12:12:17:178
0.02,0.43,-9.71,0.05,0.5,-9.79,-0.02,0.07,0.02,0,0,-0.01,-11.1,11.15,68.46,323.615,-2.924,-179.707,2838,2019-05-30 12:12:17:187
0.02,0.43,-9.71,0.05,0.5,-9.79,-0.02,0.07,0.02,0,0,-0.01,-11.1,11.15,68.46,323.615,-2.924,-179.707,2839,2019-05-30 12:12:17:188
0.02,0.43,-9.71,0.05,0.5,-9.79,-0.02,0.07,0.02,0,0,-0.01,-11.1,11.15,68.46,323.615,-2.924,-179.707,2845,2019-05-30 12:12:17:194
0.04,0.47,-9.7,0.05,0.5,-9.79,-0.02,0.04,0,0,0,-0.01,-9.89,10.61,68.58,326.376,-2.924,-179.707,2850,2019-05-30 12:12:17:199
0.04,0.47,-9.7,0.05,0.5,-9.79,-0.02,0.04,0,0,0,-0.01,-9.89,10.61,68.58,326.376,-2.924,-179.707,2855,2019-05-30 12:12:17:204
0.04,0.47,-9.7,0.05,0.5,-9.79,-0.02,0.04,0,0,0,-0.01,-9.89,10.61,68.58,326.376,-2.924,-179.707,2860,2019-05-30 12:12:17:209
0.04,0.47,-9.7,0.05,0.5,-9.79,-0.02,0.04,0,0,0,-0.01,-9.89,10.61,68.58,326.376,-2.924,-179.707,2866,2019-05-30 12:12:17:215
0.04,0.47,-9.7,0.05,0.5,-9.79,-0.02,0.04,0,0,0,-0.01,-9.89,10.61,68.58,326.376,-2.924,-179.707,2870,2019-05-30 12:12:17:219
0.04,0.47,-9.7,0.05,0.5,-9.79,-0.02,0.04,0,0,0,-0.01,-9.89,10.61,68.58,326.376,-2.924,-179.707,2875,2019-05-30 12:12:17:224
0.04,0.47,-9.7,0.05,0.5,-9.79,-0.02,0.04,0,0,0,-0.01,-9.89,10.61,68.58,326.376,-2.924,-179.707,2879,2019-05-30 12:12:17:228
0.04,0.47,-9.7,0.05,0.5,-9.79,-0.02,0.04,0,0,0,-0.01,-9.89,10.61,68.58,326.376,-2.924,-179.707,2885,2019-05-30 12:12:17:234
0.04,0.54,-9.69,0.05,0.5,-9.79,-0.01,0.09,0,0,0,0,-10.02,10.61,68.1,326.376,-2.924,-179.707,2890,2019-05-30 12:12:17:239
0.04,0.54,-9.69,0.05,0.5,-9.79,-0.01,0.09,0,0,0,0,-10.02,10.61,68.1,326.376,-2.924,-179.707,2895,2019-05-30 12:12:17:244
0.04,0.54,-9.69,0.05,0.5,-9.79,-0.01,0.09,0,0,0,0,-10.02,10.61,68.1,326.376,-2.924,-179.707,2900,2019-05-30 12:12:17:249
0.04,0.54,-9.69,0.05,0.5,-9.79,-0.01,0.09,0,0,0,0,-10.02,10.61,68.1,326.376,-2.924,-179.707,2905,2019-05-30 12:12:17:254
0.04,0.54,-9.69,0.05,0.5,-9.79,-0.01,0.09,0,0,0,0,-10.02,10.61,68.1,326.376,-2.924,-179.707,2910,2019-05-30 12:12:17:259
0.07,0.59,-9.73,0.05,0.5,-9.79,0.01,0.11,-0.03,0,0,0,-10.02,10.61,68.1,326.376,-2.924,-179.707,2914,2019-05-30 12:12:17:263
0.07,0.59,-9.73,0.05,0.5,-9.79,0.01,0.11,-0.03,0,0,0,-10.02,10.61,68.1,326.376,-2.924,-179.707,2920,2019-05-30 12:12:17:269
0.07,0.59,-9.73,0.05,0.5,-9.79,0.01,0.11,-0.03,0,0,0,-10.02,10.61,68.1,326.376,-2.924,-179.707,2925,2019-05-30 12:12:17:274
0.07,0.59,-9.73,0.05,0.5,-9.79,0.01,0.11,-0.03,0,0,0,-10.02,10.61,68.1,326.376,-2.924,-179.707,2930,2019-05-30 12:12:17:279
0.07,0.59,-9.73,0.05,0.5,-9.79,0.01,0.11,-0.03,0,0,0,-11.1,10.19,68.04,321.637,-2.924,-179.707,2935,2019-05-30 12:12:17:284
0.07,0.59,-9.73,0.05,0.5,-9.79,0.01,0.11,-0.03,0,0,0,-11.1,10.19,68.04,321.637,-2.924,-179.707,2940,2019-05-30 12:12:17:289
0.07,0.59,-9.73,0.05,0.5,-9.79,0.01,0.11,-0.03,0,0,0,-11.1,10.19,68.04,321.637,-2.924,-179.707,2945,2019-05-30 12:12:17:294
0.07,0.59,-9.73,0.05,0.5,-9.79,0.01,0.11,-0.03,0,0,0,-11.1,10.19,68.04,321.637,-2.924,-179.707,2950,2019-05-30 12:12:17:299
0.07,0.6,-9.75,0.05,0.5,-9.79,0.02,0.1,-0.04,0,0,0,-11.1,10.19,68.04,321.637,-2.924,-179.707,2955,2019-05-30 12:12:17:304
0.07,0.6,-9.75,0.05,0.5,-9.79,0.02,0.1,-0.04,0,0,0,-11.1,10.19,68.04,321.637,-2.924,-179.707,2961,2019-05-30 12:12:17:310
0.07,0.6,-9.75,0.05,0.5,-9.79,0.02,0.1,-0.04,0,0,0,-11.1,10.19,68.04,321.637,-2.924,-179.707,2966,2019-05-30 12:12:17:315
0.07,0.6,-9.75,0.05,0.5,-9.79,0.02,0.1,-0.04,0,0,0,-10.19,10.25,69.24,321.637,-2.924,-179.707,2970,2019-05-30 12:12:17:319
0.07,0.6,-9.75,0.05,0.5,-9.79,0.02,0.1,-0.04,0,0,0,-10.19,10.25,69.24,321.637,-2.924,-179.707,2975,2019-05-30 12:12:17:324
0.07,0.6,-9.75,0.05,0.5,-9.79,0.02,0.1,-0.04,0,0,0,-10.19,10.25,69.24,321.637,-2.924,-179.707,2980,2019-05-30 12:12:17:329
0.07,0.6,-9.75,0.05,0.5,-9.79,0.02,0.1,-0.04,0,0,0,-10.19,10.25,69.24,321.637,-2.924,-179.707,2985,2019-05-30 12:12:17:334
0.02,0.61,-9.75,0.05,0.5,-9.79,0.02,0.1,-0.04,0,0,0,-10.19,10.25,69.24,321.637,-2.924,-179.707,2990,2019-05-30 12:12:17:339
0.02,0.61,-9.75,0.05,0.5,-9.79,-0.02,0.08,-0.04,0,0,0,-10.19,10.25,69.24,321.637,-2.924,-179.707,2995,2019-05-30 12:12:17:344
0.02,0.61,-9.75,0.05,0.5,-9.79,-0.02,0.08,-0.04,0,0,0,-10.19,10.25,69.24,321.637,-2.924,-179.707,3000,2019-05-30 12:12:17:349
0.02,0.61,-9.75,0.05,0.5,-9.79,-0.02,0.08,-0.04,0,0,0,-10.19,10.25,69.24,321.637,-2.924,-179.707,3005,2019-05-30 12:12:17:354
0.02,0.61,-9.75,0.05,0.5,-9.79,-0.02,0.08,-0.04,0,0,0.01,-10.31,10.55,67.62,326.269,-2.924,-179.707,3010,2019-05-30 12:12:17:359
0.06,0.58,-9.68,0.05,0.5,-9.79,-0.02,0.08,-0.04,0,0,0.01,-10.31,10.55,67.62,326.269,-2.924,-179.707,3014,2019-05-30 12:12:17:363
0.06,0.58,-9.68,0.05,0.5,-9.79,-0.02,0.08,-0.04,0,0,0.01,-10.31,10.55,67.62,326.269,-2.924,-179.707,3020,2019-05-30 12:12:17:369
0.06,0.58,-9.68,0.05,0.5,-9.79,-0.02,0.08,-0.04,0,0,0.01,-10.31,10.55,67.62,326.269,-2.924,-179.707,3025,2019-05-30 12:12:17:374
0.06,0.58,-9.68,0.05,0.5,-9.79,0.01,0.01,-0.02,0,0,0.01,-10.31,10.55,67.62,326.269,-2.924,-179.707,3029,2019-05-30 12:12:17:378
0.06,0.58,-9.68,0.05,0.5,-9.79,0.01,0.01,-0.02,0,0,0.01,-10.31,10.55,67.62,326.269,-2.924,-179.707,3036,2019-05-30 12:12:17:385
0.06,0.58,-9.68,0.05,0.5,-9.79,0.01,0.01,-0.02,0,0,0.01,-10.31,10.55,67.62,326.269,-2.924,-179.707,3042,2019-05-30 12:12:17:391
0.06,0.58,-9.68,0.05,0.5,-9.79,0.01,0.01,-0.02,0,0,0.01,-10.31,10.55,67.62,326.269,-2.924,-179.707,3045,2019-05-30 12:12:17:394
0.06,0.58,-9.68,0.05,0.5,-9.79,0.01,0.01,-0.02,0,0,0.01,-10.31,10.55,67.62,326.269,-2.924,-179.707,3050,2019-05-30 12:12:17:399
0.05,0.5,-9.64,0.05,0.5,-9.79,0.01,0.01,-0.02,0,0,0.01,-10.19,10.68,67.86,326.269,-2.924,-179.707,3056,2019-05-30 12:12:17:405
0.05,0.5,-9.64,0.05,0.5,-9.79,0.01,0.01,-0.02,0,0,0.01,-10.19,10.68,67.86,326.269,-2.924,-179.707,3060,2019-05-30 12:12:17:409
0.05,0.5,-9.64,0.05,0.5,-9.79,0.01,0.01,-0.02,0,0,0.01,-10.19,10.68,67.86,326.269,-2.924,-179.707,3065,2019-05-30 12:12:17:414
0.05,0.5,-9.64,0.05,0.5,-9.79,0.01,0.01,-0.02,0,0,0.01,-10.19,10.68,67.86,326.269,-2.924,-179.707,3069,2019-05-30 12:12:17:418
0.05,0.5,-9.64,0.05,0.5,-9.79,0.01,0.01,-0.02,0,0,0.01,-10.19,10.68,67.86,326.269,-2.924,-179.707,3075,2019-05-30 12:12:17:424
0.03,0.55,-9.75,0.05,0.5,-9.79,-0.02,0,-0.04,0,0,0.01,-10.19,10.68,67.86,326.269,-2.924,-179.707,3079,2019-05-30 12:12:17:428
0.03,0.55,-9.75,0.05,0.5,-9.79,-0.02,0,-0.04,0,0,0.02,-10.55,10.91,67.5,323.615,-2.924,-179.707,3084,2019-05-30 12:12:17:433
0.03,0.55,-9.75,0.05,0.5,-9.79,-0.02,0,-0.04,0,0,0.02,-10.55,10.91,67.5,323.615,-2.924,-179.707,3089,2019-05-30 12:12:17:438
0.03,0.55,-9.75,0.05,0.5,-9.79,-0.02,0,-0.04,0,0,0.02,-10.55,10.91,67.5,323.615,-2.924,-179.707,3095,2019-05-30 12:12:17:444
0.03,0.55,-9.75,0.05,0.5,-9.79,-0.02,0,-0.04,0,0,0.02,-10.55,10.91,67.5,323.615,-2.924,-179.707,3101,2019-05-30 12:12:17:450
0.03,0.55,-9.75,0.05,0.5,-9.79,-0.02,0,-0.04,0,0,0.02,-10.55,10.91,67.5,323.615,-2.924,-179.707,3105,2019-05-30 12:12:17:454
0.04,0.56,-9.73,0.05,0.5,-9.79,-0.02,0,-0.02,0,0,0.02,-10.55,10.91,67.5,323.615,-2.924,-179.707,3110,2019-05-30 12:12:17:459
0.04,0.56,-9.73,0.05,0.5,-9.79,-0.01,0,-0.02,0,0,0.02,-10.55,10.91,67.5,323.615,-2.924,-179.707,3115,2019-05-30 12:12:17:464
0.04,0.56,-9.73,0.05,0.5,-9.79,-0.01,0,-0.02,0,0,0.02,-10.38,10.5,67.68,323.615,-2.924,-179.707,3122,2019-05-30 12:12:17:471
0.04,0.56,-9.73,0.05,0.5,-9.79,-0.01,0,-0.02,0,0,0.02,-10.38,10.5,67.68,323.615,-2.924,-179.707,3125,2019-05-30 12:12:17:474
0.04,0.56,-9.73,0.05,0.5,-9.79,-0.01,0,-0.02,0,0,0.02,-10.38,10.5,67.68,323.615,-2.924,-179.707,3130,2019-05-30 12:12:17:479
0.04,0.56,-9.73,0.05,0.5,-9.79,-0.01,0,-0.02,0,0,0.02,-10.38,10.5,67.68,323.615,-2.924,-179.707,3134,2019-05-30 12:12:17:483
0.04,0.53,-9.66,0.05,0.5,-9.79,-0.01,0,-0.02,0,0,0.02,-10.38,10.5,67.68,323.615,-2.924,-179.707,3139,2019-05-30 12:12:17:488
0.04,0.53,-9.66,0.05,0.5,-9.79,-0.01,0,-0.02,0,0,0.02,-10.38,10.5,67.68,323.615,-2.924,-179.707,3145,2019-05-30 12:12:17:494
0.04,0.53,-9.66,0.05,0.5,-9.79,-0.01,0,-0.02,0,0,0.02,-10.38,10.5,67.68,323.615,-2.924,-179.707,3149,2019-05-30 12:12:17:498
0.04,0.53,-9.66,0.05,0.5,-9.79,0,-0.02,0,0,0,0.02,-10.31,9.89,68.04,324.35,-2.924,-179.707,3154,2019-05-30 12:12:17:503
0.04,0.53,-9.66,0.05,0.5,-9.79,0,-0.02,0,0,0,0.02,-10.31,9.89,68.04,324.35,-2.924,-179.707,3160,2019-05-30 12:12:17:509
0.04,0.53,-9.66,0.05,0.5,-9.79,0,-0.02,0,0,0,0.02,-10.31,9.89,68.04,324.35,-2.924,-179.707,3165,2019-05-30 12:12:17:514
0.04,0.53,-9.66,0.05,0.5,-9.79,0,-0.02,0,0,0,0.02,-10.31,9.89,68.04,324.35,-2.924,-179.707,3170,2019-05-30 12:12:17:519
0.09,0.49,-9.68,0.05,0.5,-9.79,0,-0.02,0,0,0,0.02,-10.31,9.89,68.04,324.35,-2.924,-179.707,3175,2019-05-30 12:12:17:524
0.09,0.49,-9.68,0.05,0.5,-9.79,0,-0.02,0,0,0,0.02,-10.31,9.89,68.04,324.35,-2.924,-179.707,3180,2019-05-30 12:12:17:529
0.09,0.49,-9.68,0.05,0.5,-9.79,0,-0.02,0,0,0,0.02,-10.31,9.89,68.04,324.35,-2.924,-179.707,3185,2019-05-30 12:12:17:534
0.09,0.49,-9.68,0.05,0.5,-9.79,0,-0.02,0,0,0,0.02,-10.31,9.89,68.04,324.35,-2.924,-179.707,3189,2019-05-30 12:12:17:538
0.09,0.49,-9.68,0.05,0.5,-9.79,0,-0.02,0,0,0,0.02,-10.31,9.89,68.04,324.35,-2.924,-179.707,3195,2019-05-30 12:12:17:544
0.09,0.49,-9.68,0.05,0.5,-9.79,0,-0.02,0,0,0,0.02,-10.02,10.91,68.52,324.35,-2.924,-179.707,3199,2019-05-30 12:12:17:548
0,0.46,-9.73,0.05,0.5,-9.79,0.02,-0.07,-0.04,0,0,0.01,-10.02,10.91,68.52,324.35,-2.924,-179.707,3205,2019-05-30 12:12:17:554
0,0.46,-9.73,0.05,0.5,-9.79,0.02,-0.07,-0.04,0,0,0.01,-10.02,10.91,68.52,324.35,-2.924,-179.707,3210,2019-05-30 12:12:17:559
0,0.46,-9.73,0.05,0.5,-9.79,0.02,-0.07,-0.04,0,0,0.01,-10.02,10.91,68.52,324.35,-2.924,-179.707,3216,2019-05-30 12:12:17:565
0,0.46,-9.73,0.05,0.5,-9.79,0.02,-0.07,-0.04,0,0,0.01,-10.02,10.91,68.52,324.35,-2.924,-179.707,3220,2019-05-30 12:12:17:569
0,0.46,-9.73,0.05,0.5,-9.79,0.02,-0.07,-0.04,0,0,0.01,-10.02,10.91,68.52,324.35,-2.924,-179.707,3225,2019-05-30 12:12:17:574
0,0.46,-9.73,0.05,0.5,-9.79,0.02,-0.07,-0.04,0,0,0.01,-10.02,10.91,68.52,324.35,-2.924,-179.707,3229,2019-05-30 12:12:17:578
0,0.46,-9.73,0.05,0.5,-9.79,0.02,-0.07,-0.04,0,0,0.01,-10.02,10.91,68.52,324.35,-2.924,-179.707,3234,2019-05-30 12:12:17:583
0,0.43,-9.75,0.05,0.5,-9.79,-0.04,-0.07,-0.03,0,0,0.01,-11.03,10.55,68.46,323.615,-2.924,-179.707,3240,2019-05-30 12:12:17:589
0,0.43,-9.75,0.05,0.5,-9.79,-0.04,-0.07,-0.03,0,0,0.01,-11.03,10.55,68.46,323.615,-2.924,-179.707,3244,2019-05-30 12:12:17:593
0,0.43,-9.75,0.05,0.5,-9.79,-0.04,-0.07,-0.03,0,0,0.01,-11.03,10.55,68.46,323.615,-2.924,-179.707,3249,2019-05-30 12:12:17:598
0,0.43,-9.75,0.05,0.5,-9.79,-0.04,-0.07,-0.03,0,0,0.01,-11.03,10.55,68.46,323.615,-2.924,-179.707,3255,2019-05-30 12:12:17:604
0,0.43,-9.75,0.05,0.5,-9.79,-0.04,-0.07,-0.03,0,0,0.01,-11.03,10.55,68.46,323.615,-2.924,-179.707,3260,2019-05-30 12:12:17:609
0,0.43,-9.75,0.05,0.5,-9.79,-0.04,-0.07,-0.03,0,0,0.01,-11.03,10.55,68.46,323.615,-2.924,-179.707,3265,2019-05-30 12:12:17:614
0.03,0.45,-9.74,0.05,0.5,-9.79,-0.01,-0.03,-0.02,0,0,0.01,-10.97,10.19,68.04,323.615,-2.924,-179.707,3280,2019-05-30 12:12:17:629
0.03,0.45,-9.74,0.05,0.5,-9.79,-0.01,-0.03,-0.02,0,0,0.01,-10.97,10.19,68.04,323.615,-2.924,-179.707,3281,2019-05-30 12:12:17:630
0.03,0.45,-9.74,0.05,0.5,-9.79,-0.01,-0.03,-0.02,0,0,0.01,-10.97,10.19,68.04,323.615,-2.924,-179.707,3282,2019-05-30 12:12:17:631
0.03,0.45,-9.74,0.05,0.5,-9.79,-0.01,-0.03,-0.02,0,0,0.01,-10.97,10.19,68.04,323.615,-2.924,-179.707,3285,2019-05-30 12:12:17:634
0.03,0.45,-9.74,0.05,0.5,-9.79,-0.01,-0.03,-0.02,0,0,0.01,-10.97,10.19,68.04,323.615,-2.924,-179.707,3290,2019-05-30 12:12:17:639
0.03,0.45,-9.74,0.05,0.5,-9.79,-0.01,-0.03,-0.02,0,0,0.01,-10.97,10.19,68.04,323.615,-2.924,-179.707,3295,2019-05-30 12:12:17:644
0.03,0.45,-9.74,0.05,0.5,-9.79,-0.01,-0.03,-0.02,0,0,0.01,-10.97,10.19,68.04,323.615,-2.924,-179.707,3300,2019-05-30 12:12:17:649
0.04,0.41,-9.64,0.05,0.5,-9.79,0,-0.06,0.07,0,0,0.01,-10.13,9.95,68.1,324.35,-2.924,-179.707,3306,2019-05-30 12:12:17:655
0.04,0.41,-9.64,0.05,0.5,-9.79,0,-0.06,0.07,0,0,0.01,-10.13,9.95,68.1,324.35,-2.924,-179.707,3310,2019-05-30 12:12:17:659
0.04,0.41,-9.64,0.05,0.5,-9.79,0,-0.06,0.07,0,0,0.01,-10.13,9.95,68.1,324.35,-2.924,-179.707,3315,2019-05-30 12:12:17:664
0.04,0.41,-9.64,0.05,0.5,-9.79,0,-0.06,0.07,0,0,0.01,-10.13,9.95,68.1,324.35,-2.924,-179.707,3320,2019-05-30 12:12:17:669
0.04,0.41,-9.64,0.05,0.5,-9.79,0,-0.06,0.07,0,0,0.01,-10.13,9.95,68.1,324.35,-2.924,-179.707,3325,2019-05-30 12:12:17:674
0.11,0.41,-9.71,0.05,0.5,-9.79,0,-0.06,0.07,0,0,0.01,-10.13,9.95,68.1,324.35,-2.924,-179.707,3332,2019-05-30 12:12:17:681
0.11,0.41,-9.71,0.05,0.5,-9.79,0.01,-0.04,0,0,0,0.01,-10.13,9.95,68.1,324.35,-2.924,-179.707,3335,2019-05-30 12:12:17:684
0.11,0.41,-9.71,0.05,0.5,-9.79,0.01,-0.04,0,0,0,0.01,-10.13,9.95,68.1,324.35,-2.924,-179.707,3339,2019-05-30 12:12:17:688
0.11,0.41,-9.71,0.05,0.5,-9.79,0.01,-0.04,0,0,0,0.01,-10.13,9.95,68.1,324.35,-2.924,-179.707,3346,2019-05-30 12:12:17:695
0.11,0.41,-9.71,0.05,0.5,-9.79,0.01,-0.04,0,0,0,0.01,-10.25,10.43,67.92,324.35,-2.924,-179.707,3349,2019-05-30 12:12:17:698
0.11,0.41,-9.71,0.05,0.5,-9.79,0.01,-0.04,0,0,0,0.01,-10.25,10.43,67.92,324.35,-2.924,-179.707,3355,2019-05-30 12:12:17:704
0.11,0.41,-9.71,0.05,0.5,-9.79,0.01,-0.04,0,0,0,0.01,-10.25,10.43,67.92,324.35,-2.924,-179.707,3361,2019-05-30 12:12:17:710
0.11,0.41,-9.71,0.05,0.5,-9.79,0.01,-0.04,0,0,0,0.01,-10.25,10.43,67.92,324.35,-2.924,-179.707,3367,2019-05-30 12:12:17:716
0.04,0.41,-9.71,0.05,0.5,-9.79,-0.01,-0.01,0,0,0,0.01,-10.25,10.43,67.92,324.35,-2.924,-179.707,3370,2019-05-30 12:12:17:719
0.04,0.41,-9.71,0.05,0.5,-9.79,-0.01,-0.01,0,0,0,0.01,-10.25,10.43,67.92,324.35,-2.924,-179.707,3375,2019-05-30 12:12:17:724
0.04,0.41,-9.71,0.05,0.5,-9.79,-0.01,-0.01,0,0,0,0.01,-10.25,10.43,67.92,324.35,-2.924,-179.707,3380,2019-05-30 12:12:17:729
0.04,0.41,-9.71,0.05,0.5,-9.79,-0.01,-0.01,0,0,0,0.01,-10.25,10.43,67.92,324.35,-2.924,-179.707,3384,2019-05-30 12:12:17:733
0.04,0.41,-9.71,0.05,0.5,-9.79,-0.01,-0.01,0,0,0,0.01,-10.74,10.19,68.16,321.637,-2.924,-179.707,3390,2019-05-30 12:12:17:739
0.04,0.41,-9.71,0.05,0.5,-9.79,-0.01,-0.01,0,0,0,0.01,-10.74,10.19,68.16,321.637,-2.924,-179.707,3395,2019-05-30 12:12:17:744
0.04,0.41,-9.71,0.05,0.5,-9.79,-0.01,-0.01,0,0,0,0.01,-10.74,10.19,68.16,321.637,-2.924,-179.707,3400,2019-05-30 12:12:17:749
0.04,0.41,-9.71,0.05,0.5,-9.79,-0.01,-0.01,0,0,0,0.01,-10.74,10.19,68.16,321.637,-2.924,-179.707,3405,2019-05-30 12:12:17:754
0.07,0.43,-9.74,0.05,0.5,-9.79,-0.01,-0.01,0,0,0,0.01,-10.74,10.19,68.16,321.637,-2.924,-179.707,3410,2019-05-30 12:12:17:759
0.07,0.43,-9.74,0.05,0.5,-9.79,-0.01,-0.01,0,0,0,0.01,-10.74,10.19,68.16,321.637,-2.924,-179.707,3416,2019-05-30 12:12:17:765
0.07,0.43,-9.74,0.05,0.5,-9.79,0.01,0,-0.02,0,0,0.01,-10.74,10.19,68.16,321.637,-2.924,-179.707,3420,2019-05-30 12:12:17:769
0.07,0.43,-9.74,0.05,0.5,-9.79,0.01,0,-0.02,0,0,0.01,-10.74,10.19,68.16,321.637,-2.924,-179.707,3424,2019-05-30 12:12:17:773
0.07,0.43,-9.74,0.05,0.5,-9.79,0.01,0,-0.02,0,0,0.01,-10.74,10.19,68.16,321.637,-2.924,-179.707,3429,2019-05-30 12:12:17:778
0.07,0.43,-9.74,0.05,0.5,-9.79,0.01,0,-0.02,0,0,0.01,-10.74,10.19,68.16,321.637,-2.924,-179.707,3435,2019-05-30 12:12:17:784
0.07,0.42,-9.72,0.05,0.5,-9.79,0.01,0,-0.02,0,0,0.01,-10.55,10.5,68.33,321.637,-2.924,-179.707,3439,2019-05-30 12:12:17:788
0.07,0.42,-9.72,0.05,0.5,-9.79,0.01,0,-0.02,0,0,0.01,-10.55,10.5,68.33,321.637,-2.924,-179.707,3444,2019-05-30 12:12:17:793
0.07,0.42,-9.72,0.05,0.5,-9.79,0.01,0,-0.02,0,0,0.01,-10.55,10.5,68.33,321.637,-2.924,-179.707,3449,2019-05-30 12:12:17:798
0.07,0.42,-9.72,0.05,0.5,-9.79,0.02,0.05,-0.06,0,0,0,-10.55,10.5,68.33,321.637,-2.924,-179.707,3454,2019-05-30 12:12:17:803
0.07,0.42,-9.72,0.05,0.5,-9.79,0.02,0.05,-0.06,0,0,0,-10.55,10.5,68.33,321.637,-2.924,-179.707,3461,2019-05-30 12:12:17:810
0.07,0.42,-9.72,0.05,0.5,-9.79,0.02,0.05,-0.06,0,0,0,-10.55,10.5,68.33,321.637,-2.924,-179.707,3465,2019-05-30 12:12:17:814
0.05,0.45,-9.73,0.05,0.5,-9.79,0.02,0.05,-0.06,0,0,0,-10.74,10.68,67.56,323.615,-2.924,-179.707,3471,2019-05-30 12:12:17:820
0.05,0.45,-9.73,0.05,0.5,-9.79,0.02,0.05,-0.06,0,0,0,-10.74,10.68,67.56,323.615,-2.924,-179.707,3475,2019-05-30 12:12:17:824
0.05,0.45,-9.73,0.05,0.5,-9.79,0.02,0.05,-0.06,0,0,0,-10.74,10.68,67.56,323.615,-2.924,-179.707,3480,2019-05-30 12:12:17:829
0.05,0.45,-9.73,0.05,0.5,-9.79,0.02,0.05,-0.06,0,0,0,-10.74,10.68,67.56,323.615,-2.924,-179.707,3485,2019-05-30 12:12:17:834
0.05,0.45,-9.73,0.05,0.49,-9.79,0,0.05,0.04,0,0,0,-10.74,10.68,67.56,323.615,-2.924,-179.707,3490,2019-05-30 12:12:17:839
0.05,0.45,-9.73,0.05,0.49,-9.79,0,0.05,0.04,0,0,0,-10.74,10.68,67.56,323.615,-2.924,-179.707,3495,2019-05-30 12:12:17:844
0.05,0.45,-9.73,0.05,0.49,-9.79,0,0.05,0.04,0,0,0,-10.74,10.68,67.56,323.615,-2.924,-179.707,3500,2019-05-30 12:12:17:849
0.05,0.45,-9.73,0.05,0.49,-9.79,0,0.05,0.04,0,0,0,-10.74,10.68,67.56,323.615,-2.924,-179.707,3504,2019-05-30 12:12:17:853
0.11,0.48,-9.76,0.05,0.49,-9.79,0,0.05,0.04,0,0,0,-10.44,10.68,68.04,323.615,-2.924,-179.707,3510,2019-05-30 12:12:17:859
0.11,0.48,-9.76,0.05,0.49,-9.79,0,0.05,0.04,0,0,0,-10.44,10.68,68.04,323.615,-2.924,-179.707,3515,2019-05-30 12:12:17:864
0.11,0.48,-9.76,0.05,0.49,-9.79,0,0.05,0.04,0,0,0,-10.44,10.68,68.04,323.615,-2.924,-179.707,3520,2019-05-30 12:12:17:869
0.11,0.48,-9.76,0.05,0.49,-9.79,0,0.05,0.04,0,0,0,-10.44,10.68,68.04,323.615,-2.924,-179.707,3525,2019-05-30 12:12:17:874
0.11,0.48,-9.76,0.05,0.49,-9.79,0,0.05,0.04,0,0,0,-10.44,10.68,68.04,323.615,-2.924,-179.707,3530,2019-05-30 12:12:17:879
0.11,0.48,-9.76,0.05,0.49,-9.79,-0.01,0.05,0.04,0,0,0,-10.44,10.68,68.04,323.615,-2.924,-179.707,3535,2019-05-30 12:12:17:884
0.11,0.48,-9.76,0.05,0.49,-9.79,-0.01,0.05,0.04,0,0,0,-10.44,10.68,68.04,323.615,-2.924,-179.707,3540,2019-05-30 12:12:17:889
0.11,0.48,-9.76,0.05,0.49,-9.79,-0.01,0.05,0.04,0,0,0,-10.44,10.68,68.04,323.615,-2.924,-179.707,3545,2019-05-30 12:12:17:894
0.04,0.57,-9.79,0.05,0.49,-9.79,-0.01,0.05,0.04,0,0,0,-10.67,11.15,68.46,323.485,-2.865,-179.707,3550,2019-05-30 12:12:17:899
0.04,0.57,-9.79,0.05,0.49,-9.79,-0.01,0.05,0.04,0,0,0,-10.67,11.15,68.46,323.485,-2.865,-179.707,3555,2019-05-30 12:12:17:904
0.04,0.57,-9.79,0.05,0.49,-9.79,-0.01,0.05,0.04,0,0,0,-10.67,11.15,68.46,323.485,-2.865,-179.707,3560,2019-05-30 12:12:17:909
0.04,0.57,-9.79,0.05,0.49,-9.79,-0.01,0.05,0.04,0,0,0,-10.67,11.15,68.46,323.485,-2.865,-179.707,3566,2019-05-30 12:12:17:915
0.04,0.57,-9.79,0.05,0.49,-9.79,-0.02,0,0.03,0,0,0.01,-10.67,11.15,68.46,323.485,-2.865,-179.707,3573,2019-05-30 12:12:17:922
0.04,0.57,-9.79,0.05,0.49,-9.79,-0.02,0,0.03,0,0,0.01,-10.67,11.15,68.46,323.485,-2.865,-179.707,3574,2019-05-30 12:12:17:923
0.04,0.57,-9.79,0.05,0.49,-9.79,-0.02,0,0.03,0,0,0.01,-10.67,11.15,68.46,323.485,-2.865,-179.707,3580,2019-05-30 12:12:17:929
0.04,0.57,-9.79,0.05,0.49,-9.79,-0.02,0,0.03,0,0,0.01,-10.67,11.15,68.46,323.485,-2.865,-179.707,3585,2019-05-30 12:12:17:934
0.04,0.57,-9.79,0.05,0.49,-9.79,-0.02,0,0.03,0,0,0.01,-10.67,11.15,68.46,323.485,-2.865,-179.707,3590,2019-05-30 12:12:17:939
0.04,0.57,-9.79,0.05,0.49,-9.79,-0.02,0,0.03,0,0,0.01,-10.67,11.15,68.46,323.485,-2.865,-179.707,3594,2019-05-30 12:12:17:943
0,0.52,-9.77,0.05,0.49,-9.79,-0.02,0,0.03,0,0,0.01,-10.67,11.15,68.46,323.485,-2.865,-179.707,3600,2019-05-30 12:12:17:949
0,0.52,-9.77,0.05,0.49,-9.79,-0.06,0.05,-0.04,0,0,0,-10.91,10.37,68.58,321.612,-2.865,-179.707,3605,2019-05-30 12:12:17:954
0,0.52,-9.77,0.05,0.49,-9.79,-0.06,0.05,-0.04,0,0,0,-10.91,10.37,68.58,321.612,-2.865,-179.707,3609,2019-05-30 12:12:17:958
0,0.52,-9.77,0.05,0.49,-9.79,-0.06,0.05,-0.04,0,0,0,-10.91,10.37,68.58,321.612,-2.865,-179.707,3615,2019-05-30 12:12:17:964
0,0.52,-9.77,0.05,0.49,-9.79,-0.06,0.05,-0.04,0,0,0,-10.91,10.37,68.58,321.612,-2.865,-179.707,3620,2019-05-30 12:12:17:969
0,0.52,-9.77,0.05,0.49,-9.79,-0.06,0.05,-0.04,0,0,0,-10.91,10.37,68.58,321.612,-2.865,-179.707,3624,2019-05-30 12:12:17:973
0,0.52,-9.77,0.05,0.49,-9.79,-0.06,0.05,-0.04,0,0,0,-10.91,10.37,68.58,321.612,-2.865,-179.707,3630,2019-05-30 12:12:17:979
0,0.52,-9.77,0.05,0.49,-9.79,-0.06,0.05,-0.04,0,0,0,-10.91,10.37,68.58,321.612,-2.865,-179.707,3634,2019-05-30 12:12:17:983
0.06,0.53,-9.76,0.05,0.49,-9.79,0.01,0.04,-0.03,0,0,0.01,-10.25,10.5,67.86,321.612,-2.865,-179.707,3644,2019-05-30 12:12:17:993
0.06,0.53,-9.76,0.05,0.49,-9.79,0.01,0.04,-0.03,0,0,0.01,-10.25,10.5,67.86,321.612,-2.865,-179.707,3645,2019-05-30 12:12:17:994
0.06,0.53,-9.76,0.05,0.49,-9.79,0.01,0.04,-0.03,0,0,0.01,-10.25,10.5,67.86,321.612,-2.865,-179.707,3649,2019-05-30 12:12:17:998
0.06,0.53,-9.76,0.05,0.49,-9.79,0.01,0.04,-0.03,0,0,0.01,-10.25,10.5,67.86,321.612,-2.865,-179.707,3658,2019-05-30 12:12:18:007
0.06,0.53,-9.76,0.05,0.49,-9.79,0.01,0.04,-0.03,0,0,0.01,-10.25,10.5,67.86,321.612,-2.865,-179.707,3660,2019-05-30 12:12:18:009
0.06,0.53,-9.76,0.05,0.49,-9.79,0.01,0.04,-0.03,0,0,0.01,-10.25,10.5,67.86,321.612,-2.865,-179.707,3665,2019-05-30 12:12:18:014
0.07,0.5,-9.71,0.05,0.49,-9.79,0.01,0.04,-0.03,0,0,0.01,-10.25,10.5,67.86,321.612,-2.865,-179.707,3670,2019-05-30 12:12:18:019
0.07,0.5,-9.71,0.05,0.49,-9.79,0.02,0,0,0,0,0,-10.44,9.83,67.92,324.211,-2.865,-179.707,3675,2019-05-30 12:12:18:024
0.07,0.5,-9.71,0.05,0.49,-9.79,0.02,0,0,0,0,0,-10.44,9.83,67.92,324.211,-2.865,-179.707,3682,2019-05-30 12:12:18:031
0.07,0.5,-9.71,0.05,0.49,-9.79,0.02,0,0,0,0,0,-10.44,9.83,67.92,324.211,-2.865,-179.707,3685,2019-05-30 12:12:18:034
0.07,0.5,-9.71,0.05,0.49,-9.79,0.02,0,0,0,0,0,-10.44,9.83,67.92,324.211,-2.865,-179.707,3689,2019-05-30 12:12:18:038
0.07,0.5,-9.71,0.05,0.49,-9.79,0.02,0,0,0,0,0,-10.44,9.83,67.92,324.211,-2.865,-179.707,3696,2019-05-30 12:12:18:045
0.07,0.5,-9.71,0.05,0.49,-9.79,0.02,0,0,0,0,0,-10.44,9.83,67.92,324.211,-2.865,-179.707,3700,2019-05-30 12:12:18:049
0.07,0.5,-9.71,0.05,0.49,-9.79,0.02,0,0,0,0,0,-10.44,9.83,67.92,324.211,-2.865,-179.707,3706,2019-05-30 12:12:18:055
0.04,0.52,-9.79,0.05,0.49,-9.79,0.02,0.01,0,0,0,0,-10.55,10.91,67.92,324.211,-2.865,-179.707,3711,2019-05-30 12:12:18:060
0.04,0.52,-9.79,0.05,0.5,-9.79,0,0.01,-0.07,0,0,0,-10.55,10.91,67.92,324.211,-2.865,-179.707,3715,2019-05-30 12:12:18:064
0.04,0.52,-9.79,0.05,0.5,-9.79,0,0.01,-0.07,0,0,0,-10.55,10.91,67.92,324.211,-2.865,-179.707,3719,2019-05-30 12:12:18:068
0.04,0.52,-9.79,0.05,0.5,-9.79,0,0.01,-0.07,0,0,0,-10.55,10.91,67.92,324.211,-2.865,-179.707,3725,2019-05-30 12:12:18:074
0.04,0.52,-9.79,0.05,0.5,-9.79,0,0.01,-0.07,0,0,0,-10.55,10.91,67.92,324.211,-2.865,-179.707,3730,2019-05-30 12:12:18:079
0.07,0.53,-9.7,0.05,0.5,-9.79,0,0.01,-0.07,0,0,0,-10.55,10.91,67.92,324.211,-2.865,-179.707,3742,2019-05-30 12:12:18:091
0.07,0.53,-9.7,0.05,0.5,-9.79,0,0.01,-0.07,0,0,0,-10.55,10.91,67.92,324.211,-2.865,-179.707,3746,2019-05-30 12:12:18:095
0.07,0.53,-9.7,0.05,0.5,-9.79,0,0.01,-0.07,0,0,0,-10.55,10.91,67.92,324.211,-2.865,-179.707,3749,2019-05-30 12:12:18:098
0.07,0.53,-9.7,0.05,0.5,-9.79,0,0.01,-0.07,0,0,0,-10.55,10.91,67.92,324.211,-2.865,-179.707,3750,2019-05-30 12:12:18:099
0.07,0.53,-9.7,0.05,0.5,-9.79,0,0.01,-0.07,0,0,0,-10.55,10.91,67.92,324.211,-2.865,-179.707,3755,2019-05-30 12:12:18:104
0.07,0.53,-9.7,0.05,0.5,-9.79,0,0.01,-0.02,0,0,0,-10.67,10.19,68.28,321.637,-2.924,-179.707,3760,2019-05-30 12:12:18:109
0.11,0.51,-9.72,0.05,0.5,-9.79,0,0.01,-0.02,0,0,0,-10.67,10.19,68.28,321.637,-2.924,-179.707,3765,2019-05-30 12:12:18:114
0.11,0.51,-9.72,0.05,0.5,-9.79,0,0.01,-0.02,0,0,0,-10.67,10.19,68.28,321.637,-2.924,-179.707,3771,2019-05-30 12:12:18:120
0.11,0.51,-9.72,0.05,0.5,-9.79,0,0.01,-0.02,0,0,0,-10.67,10.19,68.28,321.637,-2.924,-179.707,3779,2019-05-30 12:12:18:128
0.11,0.51,-9.72,0.05,0.5,-9.79,0,0.01,-0.02,0,0,0,-10.67,10.19,68.28,321.637,-2.924,-179.707,3781,2019-05-30 12:12:18:130
0.11,0.51,-9.72,0.05,0.5,-9.79,0,0.01,-0.02,0,0,0,-10.67,10.19,68.28,321.637,-2.924,-179.707,3784,2019-05-30 12:12:18:133
0.03,0.51,-9.76,0.05,0.5,-9.79,-0.02,0,-0.04,0,0,0,-10.61,10.32,68.04,321.637,-2.924,-179.707,3790,2019-05-30 12:12:18:139
0.03,0.51,-9.76,0.05,0.5,-9.79,-0.02,0,-0.04,0,0,0,-10.61,10.32,68.04,321.637,-2.924,-179.707,3796,2019-05-30 12:12:18:145
0.03,0.51,-9.76,0.05,0.5,-9.79,-0.02,0,-0.04,0,0,0,-10.61,10.32,68.04,321.637,-2.924,-179.707,3800,2019-05-30 12:12:18:149
0.03,0.51,-9.76,0.05,0.5,-9.79,-0.02,0,-0.04,0,0,0,-10.61,10.32,68.04,321.637,-2.924,-179.707,3805,2019-05-30 12:12:18:154
0.03,0.51,-9.76,0.05,0.5,-9.79,-0.02,0,-0.04,0,0,0,-10.61,10.32,68.04,321.637,-2.924,-179.707,3809,2019-05-30 12:12:18:158
0.03,0.51,-9.76,0.05,0.5,-9.79,-0.02,0,-0.04,0,0,0,-10.61,10.32,68.04,321.637,-2.924,-179.707,3815,2019-05-30 12:12:18:164
0.03,0.51,-9.76,0.05,0.5,-9.79,-0.02,0,-0.04,0,0,0,-10.61,10.32,68.04,321.637,-2.924,-179.707,3820,2019-05-30 12:12:18:169
0.03,0.51,-9.76,0.05,0.5,-9.79,-0.02,0,-0.04,0,0,0,-10.61,10.32,68.04,321.637,-2.924,-179.707,3825,2019-05-30 12:12:18:174
0.07,0.5,-9.72,0.05,0.5,-9.79,0.01,-0.01,0,0,0,0,-10.61,10.55,68.69,323.725,-2.924,-179.707,3830,2019-05-30 12:12:18:179
0.07,0.5,-9.72,0.05,0.5,-9.79,0.01,-0.01,0,0,0,0,-10.61,10.55,68.69,323.725,-2.924,-179.707,3835,2019-05-30 12:12:18:184
0.07,0.5,-9.72,0.05,0.5,-9.79,0.01,-0.01,0,0,0,0,-10.61,10.55,68.69,323.725,-2.924,-179.707,3840,2019-05-30 12:12:18:189
0.07,0.5,-9.72,0.05,0.5,-9.79,0.01,-0.01,0,0,0,0,-10.61,10.55,68.69,323.725,-2.924,-179.707,3845,2019-05-30 12:12:18:194
0.07,0.5,-9.72,0.05,0.5,-9.79,0.01,-0.01,0,0,0,0,-10.61,10.55,68.69,323.725,-2.924,-179.707,3850,2019-05-30 12:12:18:199
0.07,0.5,-9.72,0.05,0.5,-9.79,0.01,-0.01,0,0,0,0,-10.61,10.55,68.69,323.725,-2.924,-179.707,3855,2019-05-30 12:12:18:204
0.07,0.5,-9.72,0.05,0.5,-9.79,0.01,-0.01,0,0,0,0,-10.61,10.55,68.69,323.725,-2.924,-179.707,3860,2019-05-30 12:12:18:209
0.07,0.5,-9.72,0.05,0.5,-9.79,0.01,-0.01,0,0,0,0,-10.61,10.55,68.69,323.725,-2.924,-179.707,3866,2019-05-30 12:12:18:215
0.07,0.5,-9.72,0.05,0.5,-9.79,0.01,-0.01,0,0,0,0,-10.61,10.55,68.69,323.725,-2.924,-179.707,3870,2019-05-30 12:12:18:219
0.07,0.5,-9.72,0.05,0.5,-9.79,0.01,-0.01,0,0,0,0,-10.61,10.55,68.69,323.725,-2.924,-179.707,3875,2019-05-30 12:12:18:224
0.05,0.51,-9.69,0.05,0.5,-9.79,0.01,-0.01,0,0,0,0,-10.61,10.55,68.69,323.725,-2.924,-179.707,3880,2019-05-30 12:12:18:229
0.05,0.51,-9.69,0.05,0.5,-9.79,0,0.01,0.02,0,0,0,-10.38,10.13,68.28,324.35,-2.924,-179.707,3885,2019-05-30 12:12:18:234
0.05,0.51,-9.69,0.05,0.5,-9.79,0,0.01,0.02,0,0,0,-10.38,10.13,68.28,324.35,-2.924,-179.707,3890,2019-05-30 12:12:18:239
0.05,0.51,-9.69,0.05,0.5,-9.79,0,0.01,0.02,0,0,0,-10.38,10.13,68.28,324.35,-2.924,-179.707,3895,2019-05-30 12:12:18:244
0.05,0.51,-9.69,0.05,0.5,-9.79,0,0.01,0.02,0,0,0,-10.38,10.13,68.28,324.35,-2.924,-179.707,3900,2019-05-30 12:12:18:249
0.03,0.42,-9.72,0.05,0.5,-9.79,0,0.01,0.02,0,0,0,-10.38,10.13,68.28,324.35,-2.924,-179.707,3905,2019-05-30 12:12:18:254
0.03,0.42,-9.72,0.05,0.5,-9.79,0,0.01,0.02,0,0,0,-10.38,10.13,68.28,324.35,-2.924,-179.707,3910,2019-05-30 12:12:18:259
0.03,0.42,-9.72,0.05,0.5,-9.79,0,0.01,0.02,0,0,0,-10.38,10.13,68.28,324.35,-2.924,-179.707,3915,2019-05-30 12:12:18:264
0.03,0.42,-9.72,0.05,0.5,-9.79,0,0.01,0.02,0,0,0,-10.38,10.13,68.28,324.35,-2.924,-179.707,3921,2019-05-30 12:12:18:270
0.03,0.42,-9.72,0.05,0.49,-9.79,-0.03,-0.11,0.02,0,0,0,-10.67,10.79,68.64,324.35,-2.924,-179.707,3925,2019-05-30 12:12:18:274
0.03,0.42,-9.72,0.05,0.49,-9.79,-0.03,-0.11,0.02,0,0,0,-10.67,10.79,68.64,324.35,-2.924,-179.707,3931,2019-05-30 12:12:18:280
0.03,0.42,-9.72,0.05,0.49,-9.79,-0.03,-0.11,0.02,0,0,0,-10.67,10.79,68.64,324.35,-2.924,-179.707,3935,2019-05-30 12:12:18:284
0.03,0.42,-9.72,0.05,0.49,-9.79,-0.03,-0.11,0.02,0,0,0,-10.67,10.79,68.64,324.35,-2.924,-179.707,3941,2019-05-30 12:12:18:290
0.03,0.42,-9.72,0.05,0.49,-9.79,-0.03,-0.11,0.02,0,0,0,-10.67,10.79,68.64,324.35,-2.924,-179.707,3945,2019-05-30 12:12:18:294
0.03,0.42,-9.72,0.05,0.49,-9.79,-0.03,-0.11,0.02,0,0,0,-10.67,10.79,68.64,324.35,-2.924,-179.707,3949,2019-05-30 12:12:18:298
0.09,0.45,-9.75,0.05,0.49,-9.79,0,-0.01,-0.05,0,0,0,-10.67,10.79,68.64,324.35,-2.924,-179.707,3955,2019-05-30 12:12:18:304
0.09,0.45,-9.75,0.05,0.49,-9.79,0,-0.01,-0.05,0,0,0,-10.38,10.68,68.33,326.143,-2.865,-179.707,3961,2019-05-30 12:12:18:310
0.09,0.45,-9.75,0.05,0.49,-9.79,0,-0.01,-0.05,0,0,0,-10.38,10.68,68.33,326.143,-2.865,-179.707,3965,2019-05-30 12:12:18:314
0.09,0.45,-9.75,0.05,0.49,-9.79,0,-0.01,-0.05,0,0,0,-10.38,10.68,68.33,326.143,-2.865,-179.707,3973,2019-05-30 12:12:18:322
0.09,0.45,-9.75,0.05,0.49,-9.79,0,-0.01,-0.05,0,0,0,-10.38,10.68,68.33,326.143,-2.865,-179.707,3975,2019-05-30 12:12:18:324
0.09,0.45,-9.75,0.05,0.49,-9.79,0,-0.01,-0.05,0,0,0,-10.38,10.68,68.33,326.143,-2.865,-179.707,3979,2019-05-30 12:12:18:328
0.09,0.45,-9.75,0.05,0.49,-9.79,0,-0.01,-0.05,0,0,0,-10.38,10.68,68.33,326.143,-2.865,-179.707,3985,2019-05-30 12:12:18:334
0.09,0.48,-9.74,0.05,0.49,-9.79,0.02,0.01,-0.01,0,0,0,-10.31,10.55,68.33,326.143,-2.865,-179.707,3991,2019-05-30 12:12:18:340
0.09,0.48,-9.74,0.05,0.49,-9.79,0.02,0.01,-0.01,0,0,0,-10.31,10.55,68.33,326.143,-2.865,-179.707,3995,2019-05-30 12:12:18:344
0.09,0.48,-9.74,0.05,0.49,-9.79,0.02,0.01,-0.01,0,0,0,-10.31,10.55,68.33,326.143,-2.865,-179.707,4001,2019-05-30 12:12:18:350
0.09,0.48,-9.74,0.05,0.49,-9.79,0.02,0.01,-0.01,0,0,0,-10.31,10.55,68.33,326.143,-2.865,-179.707,4005,2019-05-30 12:12:18:354
0.09,0.48,-9.74,0.05,0.49,-9.79,0.02,0.01,-0.01,0,0,0,-10.31,10.55,68.33,326.143,-2.865,-179.707,4010,2019-05-30 12:12:18:359
0.09,0.48,-9.74,0.05,0.49,-9.79,0.02,0.01,-0.01,0,0,0,-10.31,10.55,68.33,326.143,-2.865,-179.707,4015,2019-05-30 12:12:18:364
0.09,0.48,-9.74,0.05,0.49,-9.79,0.02,0.01,-0.01,0,0,0,-10.31,10.55,68.33,326.143,-2.865,-179.707,4019,2019-05-30 12:12:18:368
0.09,0.48,-9.74,0.05,0.49,-9.79,0.02,0.01,-0.01,0,0,0,-10.31,10.55,68.33,326.143,-2.865,-179.707,4025,2019-05-30 12:12:18:374
0.06,0.44,-9.75,0.05,0.49,-9.79,0.02,0.01,-0.01,0,0,0,-10.44,10.07,67.86,324.211,-2.865,-179.707,4030,2019-05-30 12:12:18:379
0.06,0.44,-9.75,0.05,0.49,-9.79,0,-0.01,-0.02,0,0,0,-10.44,10.07,67.86,324.211,-2.865,-179.707,4035,2019-05-30 12:12:18:384
0.06,0.44,-9.75,0.05,0.49,-9.79,0,-0.01,-0.02,0,0,0,-10.44,10.07,67.86,324.211,-2.865,-179.707,4040,2019-05-30 12:12:18:389
0.06,0.44,-9.75,0.05,0.49,-9.79,0,-0.01,-0.02,0,0,0,-10.44,10.07,67.86,324.211,-2.865,-179.707,4044,2019-05-30 12:12:18:393
0.06,0.44,-9.75,0.05,0.49,-9.79,0,-0.01,-0.02,0,0,0,-10.44,10.07,67.86,324.211,-2.865,-179.707,4054,2019-05-30 12:12:18:403
0.06,0.44,-9.75,0.05,0.49,-9.79,0,-0.01,-0.02,0,0,0,-10.44,10.07,67.86,324.211,-2.865,-179.707,4054,2019-05-30 12:12:18:403
0.04,0.48,-9.66,0.05,0.49,-9.79,0,-0.01,-0.02,0,0,0,-10.44,10.07,67.86,324.211,-2.865,-179.707,4062,2019-05-30 12:12:18:411
0.04,0.48,-9.66,0.05,0.49,-9.79,0,-0.01,-0.02,0,0,0,-10.44,10.07,67.86,324.211,-2.865,-179.707,4066,2019-05-30 12:12:18:415
0.04,0.48,-9.66,0.05,0.49,-9.79,-0.02,0.02,0.06,0,0,0,-10.55,9.77,68.82,324.211,-2.865,-179.707,4073,2019-05-30 12:12:18:422
0.04,0.48,-9.66,0.05,0.49,-9.79,-0.02,0.02,0.06,0,0,0,-10.55,9.77,68.82,324.211,-2.865,-179.707,4074,2019-05-30 12:12:18:423
0.04,0.48,-9.66,0.05,0.49,-9.79,-0.02,0.02,0.06,0,0,0,-10.55,9.77,68.82,324.211,-2.865,-179.707,4080,2019-05-30 12:12:18:429
0.04,0.48,-9.66,0.05,0.49,-9.79,-0.02,0.02,0.06,0,0,0,-10.55,9.77,68.82,324.211,-2.865,-179.707,4085,2019-05-30 12:12:18:434
0.04,0.48,-9.66,0.05,0.49,-9.79,-0.02,0.02,0.06,0,0,0,-10.55,9.77,68.82,324.211,-2.865,-179.707,4090,2019-05-30 12:12:18:439
0.04,0.48,-9.66,0.05,0.49,-9.79,-0.02,0.02,0.06,0,0,0,-10.55,9.77,68.82,324.211,-2.865,-179.707,4095,2019-05-30 12:12:18:444
0.04,0.48,-9.66,0.05,0.49,-9.79,-0.02,0.02,0.06,0,0,0,-10.55,9.77,68.82,324.211,-2.865,-179.707,4100,2019-05-30 12:12:18:449
0.04,0.48,-9.66,0.05,0.49,-9.79,-0.02,0.02,0.06,0,0,0,-10.55,9.77,68.82,324.211,-2.865,-179.707,4104,2019-05-30 12:12:18:453
0.05,0.43,-9.74,0.05,0.49,-9.79,-0.02,0.02,0.06,0,0,0,-10.44,9.47,67.92,322.08,-2.865,-179.707,4110,2019-05-30 12:12:18:459
0.05,0.43,-9.74,0.05,0.49,-9.79,0,-0.02,-0.01,0,0,0,-10.44,9.47,67.92,322.08,-2.865,-179.707,4114,2019-05-30 12:12:18:463
0.05,0.43,-9.74,0.05,0.49,-9.79,0,-0.02,-0.01,0,0,0,-10.44,9.47,67.92,322.08,-2.865,-179.707,4119,2019-05-30 12:12:18:468
0.05,0.43,-9.74,0.05,0.49,-9.79,0,-0.02,-0.01,0,0,0,-10.44,9.47,67.92,322.08,-2.865,-179.707,4126,2019-05-30 12:12:18:475
0.05,0.43,-9.74,0.05,0.49,-9.79,0,-0.02,-0.01,0,0,0,-10.44,9.47,67.92,322.08,-2.865,-179.707,4129,2019-05-30 12:12:18:478
0.05,0.43,-9.74,0.05,0.49,-9.79,0,-0.02,-0.01,0,0,0,-10.44,9.47,67.92,322.08,-2.865,-179.707,4136,2019-05-30 12:12:18:485
0.05,0.43,-9.74,0.05,0.49,-9.79,0,-0.02,-0.01,0,0,0,-10.44,9.47,67.92,322.08,-2.865,-179.707,4140,2019-05-30 12:12:18:489
0.03,0.44,-9.78,0.05,0.49,-9.79,-0.02,0.03,0.01,0,0,0,-9.95,10.5,68.28,322.08,-2.865,-179.707,4145,2019-05-30 12:12:18:494
0.03,0.44,-9.78,0.05,0.49,-9.79,-0.02,0.03,0.01,0,0,0,-9.95,10.5,68.28,322.08,-2.865,-179.707,4150,2019-05-30 12:12:18:499
0.03,0.44,-9.78,0.05,0.49,-9.79,-0.02,0.03,0.01,0,0,0,-9.95,10.5,68.28,322.08,-2.865,-179.707,4155,2019-05-30 12:12:18:504
0.03,0.44,-9.78,0.05,0.49,-9.79,-0.02,0.03,0.01,0,0,0,-9.95,10.5,68.28,322.08,-2.865,-179.707,4160,2019-05-30 12:12:18:509
0.03,0.44,-9.78,0.05,0.49,-9.79,-0.02,0.03,0.01,0,0,0,-9.95,10.5,68.28,322.08,-2.865,-179.707,4166,2019-05-30 12:12:18:515
0.03,0.44,-9.78,0.05,0.49,-9.79,-0.02,0.03,0.01,0,0,0,-9.95,10.5,68.28,322.08,-2.865,-179.707,4170,2019-05-30 12:12:18:519
0.03,0.44,-9.78,0.05,0.49,-9.79,-0.02,0.03,0.01,0,0,0,-9.95,10.5,68.28,322.08,-2.865,-179.707,4175,2019-05-30 12:12:18:524
0.02,0.47,-9.72,0.05,0.49,-9.79,-0.02,0.03,0.01,0,0,0,-10.13,10.73,67.98,326.143,-2.865,-179.707,4180,2019-05-30 12:12:18:529
0.02,0.47,-9.72,0.05,0.49,-9.79,-0.02,0.01,0,0,0,0,-10.13,10.73,67.98,326.143,-2.865,-179.707,4185,2019-05-30 12:12:18:534
0.02,0.47,-9.72,0.05,0.49,-9.79,-0.02,0.01,0,0,0,0,-10.13,10.73,67.98,326.143,-2.865,-179.707,4190,2019-05-30 12:12:18:539
0.02,0.47,-9.72,0.05,0.49,-9.79,-0.02,0.01,0,0,0,0,-10.13,10.73,67.98,326.143,-2.865,-179.707,4195,2019-05-30 12:12:18:544
0.02,0.47,-9.72,0.05,0.49,-9.79,-0.02,0.01,0,0,0,0,-10.13,10.73,67.98,326.143,-2.865,-179.707,4200,2019-05-30 12:12:18:549
0.02,0.47,-9.72,0.05,0.49,-9.79,-0.02,0.01,0,0,0,0,-10.13,10.73,67.98,326.143,-2.865,-179.707,4205,2019-05-30 12:12:18:554
0.02,0.47,-9.72,0.05,0.49,-9.79,-0.02,0.01,0,0,0,0,-10.13,10.73,67.98,326.143,-2.865,-179.707,4210,2019-05-30 12:12:18:559
0.02,0.47,-9.72,0.05,0.49,-9.79,-0.02,0.01,0,0,0,0,-10.13,10.73,67.98,326.143,-2.865,-179.707,4215,2019-05-30 12:12:18:564
0.01,0.49,-9.75,0.05,0.49,-9.79,-0.02,0.02,-0.03,0,0,0,-10.08,10.68,67.92,326.143,-2.865,-179.707,4220,2019-05-30 12:12:18:569
0.01,0.49,-9.75,0.05,0.49,-9.79,-0.02,0.02,-0.03,0,0,0,-10.08,10.68,67.92,326.143,-2.865,-179.707,4225,2019-05-30 12:12:18:574
0.01,0.49,-9.75,0.05,0.49,-9.79,-0.02,0.02,-0.03,0,0,0,-10.08,10.68,67.92,326.143,-2.865,-179.707,4230,2019-05-30 12:12:18:579
0.01,0.49,-9.75,0.05,0.49,-9.79,-0.02,0.02,-0.03,0,0,0,-10.08,10.68,67.92,326.143,-2.865,-179.707,4234,2019-05-30 12:12:18:583
0.01,0.49,-9.75,0.05,0.49,-9.79,-0.02,0.02,-0.03,0,0,0,-10.08,10.68,67.92,326.143,-2.865,-179.707,4239,2019-05-30 12:12:18:588
0.01,0.49,-9.75,0.05,0.49,-9.79,-0.02,0.02,-0.03,0,0,0,-10.08,10.68,67.92,326.143,-2.865,-179.707,4245,2019-05-30 12:12:18:594
0.01,0.49,-9.75,0.05,0.49,-9.79,-0.02,0.02,-0.03,0,0,0,-10.08,10.68,67.92,326.143,-2.865,-179.707,4250,2019-05-30 12:12:18:599
0.01,0.49,-9.75,0.05,0.49,-9.79,-0.02,0.02,-0.03,0,0,0,-10.08,10.68,67.92,326.143,-2.865,-179.707,4255,2019-05-30 12:12:18:604
0.08,0.47,-9.77,0.05,0.49,-9.79,-0.02,0.02,-0.03,0,0,0,-10.31,10.61,68.46,326.143,-2.865,-179.707,4260,2019-05-30 12:12:18:609
0.08,0.47,-9.77,0.05,0.49,-9.79,0.03,0,-0.04,0,0,0,-10.31,10.61,68.46,326.143,-2.865,-179.707,4265,2019-05-30 12:12:18:614
0.08,0.47,-9.77,0.05,0.49,-9.79,0.03,0,-0.04,0,0,0,-10.31,10.61,68.46,326.143,-2.865,-179.707,4270,2019-05-30 12:12:18:619
0.08,0.47,-9.77,0.05,0.49,-9.79,0.03,0,-0.04,0,0,0,-10.31,10.61,68.46,326.143,-2.865,-179.707,4275,2019-05-30 12:12:18:624
0.08,0.47,-9.77,0.05,0.49,-9.79,0.03,0,-0.04,0,0,0,-10.31,10.61,68.46,326.143,-2.865,-179.707,4280,2019-05-30 12:12:18:629
0.08,0.47,-9.77,0.05,0.49,-9.79,0.03,0,-0.04,0,0,0,-10.31,10.61,68.46,326.143,-2.865,-179.707,4285,2019-05-30 12:12:18:634
0.08,0.47,-9.77,0.05,0.49,-9.79,0.03,0,-0.04,0,0,0,-10.31,10.61,68.46,326.143,-2.865,-179.707,4290,2019-05-30 12:12:18:639
0.08,0.47,-9.77,0.05,0.49,-9.79,0.03,0,-0.04,0,0,0,-10.31,10.61,68.46,326.143,-2.865,-179.707,4294,2019-05-30 12:12:18:643
0.08,0.47,-9.77,0.05,0.49,-9.79,0.03,0,-0.04,0,0,0,-10.31,10.61,68.46,326.143,-2.865,-179.707,4299,2019-05-30 12:12:18:648
0.08,0.47,-9.77,0.05,0.49,-9.79,0.03,0,-0.04,0,0,0,-10.31,10.61,68.46,326.143,-2.865,-179.707,4304,2019-05-30 12:12:18:653
0.06,0.43,-9.76,0.05,0.49,-9.79,0.03,0,-0.04,0,0,0,-10.31,10.61,68.46,326.143,-2.865,-179.707,4310,2019-05-30 12:12:18:659
0.06,0.43,-9.76,0.05,0.49,-9.79,0.01,-0.03,-0.03,0,0,0,-10.61,10.32,68.04,321.494,-2.865,-179.707,4315,2019-05-30 12:12:18:664
0.06,0.43,-9.76,0.05,0.49,-9.79,0.01,-0.03,-0.03,0,0,0,-10.61,10.32,68.04,321.494,-2.865,-179.707,4319,2019-05-30 12:12:18:668
0.06,0.43,-9.76,0.05,0.49,-9.79,0.01,-0.03,-0.03,0,0,0,-10.61,10.32,68.04,321.494,-2.865,-179.707,4324,2019-05-30 12:12:18:673
0.06,0.43,-9.76,0.05,0.49,-9.79,0.01,-0.03,-0.03,0,0,0,-10.61,10.32,68.04,321.494,-2.865,-179.707,4330,2019-05-30 12:12:18:679
0.06,0.43,-9.76,0.05,0.49,-9.79,0.01,-0.03,-0.03,0,0,0,-10.61,10.32,68.04,321.494,-2.865,-179.707,4334,2019-05-30 12:12:18:683
0.05,0.43,-9.74,0.05,0.49,-9.79,0,-0.06,0.03,0,0,0,-10.61,10.32,68.04,321.494,-2.865,-179.707,4339,2019-05-30 12:12:18:688
0.05,0.43,-9.74,0.05,0.49,-9.79,0,-0.06,0.03,0,0,0,-10.31,10.37,68.82,321.494,-2.865,-179.707,4345,2019-05-30 12:12:18:694
0.05,0.43,-9.74,0.05,0.49,-9.79,0,-0.06,0.03,0,0,0,-10.31,10.37,68.82,321.494,-2.865,-179.707,4350,2019-05-30 12:12:18:699
0.05,0.43,-9.74,0.05,0.49,-9.79,0,-0.06,0.03,0,0,0,-10.31,10.37,68.82,321.494,-2.865,-179.707,4355,2019-05-30 12:12:18:704
0.05,0.43,-9.74,0.05,0.49,-9.79,0,-0.06,0.03,0,0,0,-10.31,10.37,68.82,321.494,-2.865,-179.707,4360,2019-05-30 12:12:18:709
0.05,0.43,-9.74,0.05,0.49,-9.79,0,-0.06,0.03,0,0,0,-10.31,10.37,68.82,321.494,-2.865,-179.707,4365,2019-05-30 12:12:18:714
0.1,0.4,-9.71,0.05,0.49,-9.79,0,-0.06,0.03,0,0,0,-10.31,10.37,68.82,321.494,-2.865,-179.707,4370,2019-05-30 12:12:18:719
0.1,0.4,-9.71,0.05,0.49,-9.79,0,-0.06,0.03,0,0,0,-10.31,10.37,68.82,321.494,-2.865,-179.707,4375,2019-05-30 12:12:18:724
0.1,0.4,-9.71,0.05,0.49,-9.79,0,-0.06,0.03,0,0,0,-10.31,10.37,68.82,321.494,-2.865,-179.707,4380,2019-05-30 12:12:18:729
0.1,0.4,-9.71,0.05,0.49,-9.79,-0.01,-0.03,-0.01,0,0,0,-10.08,10.61,68.46,326.143,-2.865,-179.707,4385,2019-05-30 12:12:18:734
0.1,0.4,-9.71,0.05,0.49,-9.79,-0.01,-0.03,-0.01,0,0,0,-10.08,10.61,68.46,326.143,-2.865,-179.707,4390,2019-05-30 12:12:18:739
0.1,0.4,-9.71,0.05,0.49,-9.79,-0.01,-0.03,-0.01,0,0,0,-10.08,10.61,68.46,326.143,-2.865,-179.707,4395,2019-05-30 12:12:18:744
0.1,0.4,-9.71,0.05,0.49,-9.79,-0.01,-0.03,-0.01,0,0,0,-10.08,10.61,68.46,326.143,-2.865,-179.707,4400,2019-05-30 12:12:18:749
0.04,0.42,-9.73,0.05,0.49,-9.79,-0.01,-0.03,-0.01,0,0,0,-10.08,10.61,68.46,326.143,-2.865,-179.707,4404,2019-05-30 12:12:18:753
0.04,0.42,-9.73,0.05,0.49,-9.79,-0.01,-0.03,-0.01,0,0,0,-10.08,10.61,68.46,326.143,-2.865,-179.707,4410,2019-05-30 12:12:18:759
0.04,0.42,-9.73,0.05,0.49,-9.79,-0.01,-0.03,-0.01,0,0,0,-10.08,10.61,68.46,326.143,-2.865,-179.707,4415,2019-05-30 12:12:18:764
0.04,0.42,-9.73,0.05,0.49,-9.79,-0.01,-0.03,-0.01,0,0,0,-10.44,10.97,67.92,326.143,-2.865,-179.707,4420,2019-05-30 12:12:18:769
0.04,0.42,-9.73,0.05,0.49,-9.79,0.04,0,0.04,0,0,0,-10.44,10.97,67.92,326.143,-2.865,-179.707,4425,2019-05-30 12:12:18:774
0.04,0.42,-9.73,0.05,0.49,-9.79,0.04,0,0.04,0,0,0,-10.44,10.97,67.92,326.143,-2.865,-179.707,4430,2019-05-30 12:12:18:779
0.04,0.42,-9.73,0.05,0.49,-9.79,0.04,0,0.04,0,0,0,-10.44,10.97,67.92,326.143,-2.865,-179.707,4436,2019-05-30 12:12:18:785
0.08,0.48,-9.76,0.05,0.49,-9.79,0.04,0,0.04,0,0,0,-10.44,10.97,67.92,326.143,-2.865,-179.707,4440,2019-05-30 12:12:18:789
0.08,0.48,-9.76,0.05,0.49,-9.79,0.04,0,0.04,0,0,0,-10.44,10.97,67.92,326.143,-2.865,-179.707,4445,2019-05-30 12:12:18:794
0.08,0.48,-9.76,0.05,0.49,-9.79,0.04,0,0.04,0,0,0,-10.44,10.97,67.92,326.143,-2.865,-179.707,4449,2019-05-30 12:12:18:798
0.08,0.48,-9.76,0.05,0.49,-9.79,0.04,0,0.04,0,0,0,-10.44,10.97,67.92,326.143,-2.865,-179.707,4454,2019-05-30 12:12:18:803
0.08,0.48,-9.76,0.05,0.49,-9.79,0.01,0.01,0.05,0,0,-0.01,-9.77,10.5,68.16,326.143,-2.865,-179.707,4460,2019-05-30 12:12:18:809
0.08,0.48,-9.76,0.05,0.49,-9.79,0.01,0.01,0.05,0,0,-0.01,-9.77,10.5,68.16,326.143,-2.865,-179.707,4465,2019-05-30 12:12:18:814
0.08,0.48,-9.76,0.05,0.49,-9.79,0.01,0.01,0.05,0,0,-0.01,-9.77,10.5,68.16,326.143,-2.865,-179.707,4472,2019-05-30 12:12:18:821
0.08,0.48,-9.76,0.05,0.49,-9.79,0.01,0.01,0.05,0,0,-0.01,-9.77,10.5,68.16,326.143,-2.865,-179.707,4475,2019-05-30 12:12:18:824
0.08,0.48,-9.76,0.05,0.49,-9.79,0.01,0.01,0.05,0,0,-0.01,-9.77,10.5,68.16,326.143,-2.865,-179.707,4480,2019-05-30 12:12:18:829
0.08,0.48,-9.76,0.05,0.49,-9.79,0.01,0.01,0.05,0,0,-0.01,-9.77,10.5,68.16,326.143,-2.865,-179.707,4484,2019-05-30 12:12:18:833
0.06,0.44,-9.78,0.05,0.49,-9.79,0,0.01,-0.05,0,0,-0.01,-9.77,10.5,68.16,326.143,-2.865,-179.707,4490,2019-05-30 12:12:18:839
0.06,0.44,-9.78,0.05,0.49,-9.79,0,0.01,-0.05,0,0,-0.01,-10.08,10.43,68.4,326.143,-2.865,-179.707,4495,2019-05-30 12:12:18:844
0.06,0.44,-9.78,0.05,0.49,-9.79,0,0.01,-0.05,0,0,-0.01,-10.08,10.43,68.4,326.143,-2.865,-179.707,4499,2019-05-30 12:12:18:848
0.06,0.44,-9.78,0.05,0.49,-9.79,0,0.01,-0.05,0,0,-0.01,-10.08,10.43,68.4,326.143,-2.865,-179.707,4505,2019-05-30 12:12:18:854
0.06,0.44,-9.78,0.05,0.49,-9.79,0,0.01,-0.05,0,0,-0.01,-10.08,10.43,68.4,326.143,-2.865,-179.707,4511,2019-05-30 12:12:18:860
0.06,0.44,-9.78,0.05,0.49,-9.79,0,0.01,-0.05,0,0,-0.01,-10.08,10.43,68.4,326.143,-2.865,-179.707,4515,2019-05-30 12:12:18:864
0.03,0.43,-9.78,0.05,0.49,-9.79,-0.02,0,-0.05,0,0,-0.01,-10.08,10.43,68.4,326.143,-2.865,-179.707,4520,2019-05-30 12:12:18:869
0.03,0.43,-9.78,0.05,0.49,-9.79,-0.02,0,-0.05,0,0,-0.01,-10.13,10.61,67.8,326.143,-2.865,-179.707,4525,2019-05-30 12:12:18:874
0.03,0.43,-9.78,0.05,0.49,-9.79,-0.02,0,-0.05,0,0,-0.01,-10.13,10.61,67.8,326.143,-2.865,-179.707,4530,2019-05-30 12:12:18:879
0.03,0.43,-9.78,0.05,0.49,-9.79,-0.02,0,-0.05,0,0,-0.01,-10.13,10.61,67.8,326.143,-2.865,-179.707,4534,2019-05-30 12:12:18:883
0.03,0.43,-9.78,0.05,0.49,-9.79,-0.02,0,-0.05,0,0,-0.01,-10.13,10.61,67.8,326.143,-2.865,-179.707,4539,2019-05-30 12:12:18:888
0.03,0.43,-9.78,0.05,0.49,-9.79,-0.02,0,-0.05,0,0,-0.01,-10.13,10.61,67.8,326.143,-2.865,-179.707,4545,2019-05-30 12:12:18:894
0.03,0.43,-9.78,0.05,0.49,-9.79,-0.02,0,-0.05,0,0,-0.01,-10.13,10.61,67.8,326.143,-2.865,-179.707,4550,2019-05-30 12:12:18:899
0.1,0.44,-9.69,0.05,0.49,-9.79,0.03,0,0.03,0,0,-0.01,-10.38,10.61,67.92,326.143,-2.865,-179.707,4560,2019-05-30 12:12:18:909
0.1,0.44,-9.69,0.05,0.49,-9.79,0.03,0,0.03,0,0,-0.01,-10.38,10.61,67.92,326.143,-2.865,-179.707,4561,2019-05-30 12:12:18:910
0.1,0.44,-9.69,0.05,0.49,-9.79,0.03,0,0.03,0,0,-0.01,-10.38,10.61,67.92,326.143,-2.865,-179.707,4564,2019-05-30 12:12:18:913
0.1,0.44,-9.69,0.05,0.49,-9.79,0.03,0,0.03,0,0,-0.01,-10.38,10.61,67.92,326.143,-2.865,-179.707,4570,2019-05-30 12:12:18:919
0.1,0.44,-9.69,0.05,0.49,-9.79,0.03,0,0.03,0,0,-0.01,-10.38,10.61,67.92,326.143,-2.865,-179.707,4575,2019-05-30 12:12:18:924
0.06,0.47,-9.67,0.05,0.49,-9.79,0,0.03,0.04,0,0,-0.01,-10.38,10.61,67.92,326.143,-2.865,-179.707,4579,2019-05-30 12:12:18:928
0.06,0.47,-9.67,0.05,0.49,-9.79,0,0.03,0.04,0,0,-0.01,-10.38,10.61,67.92,326.143,-2.865,-179.707,4585,2019-05-30 12:12:18:934
0.06,0.47,-9.67,0.05,0.49,-9.79,0,0.03,0.04,0,0,-0.01,-10.38,10.61,67.92,326.143,-2.865,-179.707,4590,2019-05-30 12:12:18:939
0.06,0.47,-9.67,0.05,0.49,-9.79,0,0.03,0.04,0,0,-0.01,-10.38,10.61,67.92,326.143,-2.865,-179.707,4594,2019-05-30 12:12:18:943
0.06,0.47,-9.67,0.05,0.49,-9.79,0,0.03,0.04,0,0,-0.01,-11.1,10.86,68.28,323.485,-2.865,-179.707,4600,2019-05-30 12:12:18:949
0.06,0.47,-9.67,0.05,0.49,-9.79,0,0.03,0.04,0,0,-0.01,-11.1,10.86,68.28,323.485,-2.865,-179.707,4605,2019-05-30 12:12:18:954
0.06,0.47,-9.67,0.05,0.49,-9.79,0,0.03,0.04,0,0,-0.01,-11.1,10.86,68.28,323.485,-2.865,-179.707,4611,2019-05-30 12:12:18:960
0.06,0.47,-9.67,0.05,0.49,-9.79,0,0.03,0.04,0,0,-0.01,-11.1,10.86,68.28,323.485,-2.865,-179.707,4615,2019-05-30 12:12:18:964
0.06,0.47,-9.67,0.05,0.49,-9.79,0,0.03,0.04,0,0,-0.01,-11.1,10.86,68.28,323.485,-2.865,-179.707,4622,2019-05-30 12:12:18:971
0.04,0.48,-9.7,0.05,0.49,-9.79,-0.02,0.03,0.02,0,0,-0.01,-11.1,10.86,68.28,323.485,-2.865,-179.707,4626,2019-05-30 12:12:18:975
0.04,0.48,-9.7,0.05,0.49,-9.79,-0.02,0.03,0.02,0,0,-0.01,-11.1,10.86,68.28,323.485,-2.865,-179.707,4630,2019-05-30 12:12:18:979
0.04,0.48,-9.7,0.05,0.49,-9.79,-0.02,0.03,0.02,0,0,-0.01,-11.1,10.86,68.28,323.485,-2.865,-179.707,4636,2019-05-30 12:12:18:985
0.04,0.48,-9.7,0.05,0.49,-9.79,-0.02,0.03,0.02,0,0,-0.01,-11.1,10.86,68.28,323.485,-2.865,-179.707,4641,2019-05-30 12:12:18:990
0.04,0.48,-9.7,0.05,0.49,-9.79,-0.02,0.03,0.02,0,0,-0.01,-11.1,10.86,68.28,323.485,-2.865,-179.707,4645,2019-05-30 12:12:18:994
0.03,0.5,-9.71,0.05,0.49,-9.79,0.02,0.01,-0.02,0,0,-0.01,-11.03,10.37,68.64,321.612,-2.865,-179.707,4657,2019-05-30 12:12:19:006
0.03,0.5,-9.71,0.05,0.49,-9.79,0.02,0.01,-0.02,0,0,-0.01,-11.03,10.37,68.64,321.612,-2.865,-179.707,4659,2019-05-30 12:12:19:008
0.03,0.5,-9.71,0.05,0.49,-9.79,0.02,0.01,-0.02,0,0,0,-11.03,10.37,68.64,321.612,-2.865,-179.707,4660,2019-05-30 12:12:19:009
0.03,0.5,-9.71,0.05,0.49,-9.79,0.02,0.01,-0.02,0,0,0,-11.03,10.37,68.64,321.612,-2.865,-179.707,4665,2019-05-30 12:12:19:014
0.03,0.5,-9.71,0.05,0.49,-9.79,0.02,0.01,-0.02,0,0,0,-11.03,10.37,68.64,321.612,-2.865,-179.707,4672,2019-05-30 12:12:19:021
0.03,0.5,-9.71,0.05,0.49,-9.79,0.02,0.01,-0.02,0,0,0,-11.03,10.37,68.64,321.612,-2.865,-179.707,4675,2019-05-30 12:12:19:024
0.03,0.5,-9.71,0.05,0.49,-9.79,0.02,0.01,-0.02,0,0,0,-11.03,10.37,68.64,321.612,-2.865,-179.707,4679,2019-05-30 12:12:19:028
0.07,0.52,-9.74,0.05,0.49,-9.79,0.01,0.05,-0.02,0,0,0,-10.31,10.01,68.22,321.612,-2.865,-179.707,4685,2019-05-30 12:12:19:034
0.07,0.52,-9.74,0.05,0.49,-9.79,0.01,0.05,-0.02,0,0,0,-10.31,10.01,68.22,321.612,-2.865,-179.707,4690,2019-05-30 12:12:19:039
0.07,0.52,-9.74,0.05,0.49,-9.79,0.01,0.05,-0.02,0,0,0,-10.31,10.01,68.22,321.612,-2.865,-179.707,4695,2019-05-30 12:12:19:044
0.07,0.52,-9.74,0.05,0.49,-9.79,0.01,0.05,-0.02,0,0,0,-10.31,10.01,68.22,321.612,-2.865,-179.707,4700,2019-05-30 12:12:19:049
0.07,0.52,-9.74,0.05,0.49,-9.79,0.01,0.05,-0.02,0,0,0,-10.31,10.01,68.22,321.612,-2.865,-179.707,4706,2019-05-30 12:12:19:055
0.07,0.52,-9.74,0.05,0.49,-9.79,0.01,0.05,-0.02,0,0,0,-10.31,10.01,68.22,321.612,-2.865,-179.707,4711,2019-05-30 12:12:19:060
0.07,0.52,-9.74,0.05,0.49,-9.79,0.01,0.05,-0.02,0,0,0,-10.31,10.01,68.22,321.612,-2.865,-179.707,4715,2019-05-30 12:12:19:064
0.07,0.52,-9.74,0.05,0.49,-9.79,0.01,0.05,-0.02,0,0,0,-10.31,10.01,68.22,321.612,-2.865,-179.707,4720,2019-05-30 12:12:19:069
0.07,0.52,-9.74,0.05,0.49,-9.79,0.01,0.05,-0.02,0,0,0,-10.31,10.01,68.22,321.612,-2.865,-179.707,4725,2019-05-30 12:12:19:074
0,0.51,-9.68,0.05,0.49,-9.79,0.01,0.05,-0.02,0,0,0,-11.16,10.25,68.22,321.494,-2.865,-179.707,4729,2019-05-30 12:12:19:078
0,0.51,-9.68,0.05,0.49,-9.79,-0.05,0.02,0.02,0,0,0,-11.16,10.25,68.22,321.494,-2.865,-179.707,4735,2019-05-30 12:12:19:084
0,0.51,-9.68,0.05,0.49,-9.79,-0.05,0.02,0.02,0,0,0,-11.16,10.25,68.22,321.494,-2.865,-179.707,4740,2019-05-30 12:12:19:089
0,0.51,-9.68,0.05,0.49,-9.79,-0.05,0.02,0.02,0,0,0,-11.16,10.25,68.22,321.494,-2.865,-179.707,4745,2019-05-30 12:12:19:094
0,0.51,-9.68,0.05,0.49,-9.79,-0.05,0.02,0.02,0,0,0,-11.16,10.25,68.22,321.494,-2.865,-179.707,4764,2019-05-30 12:12:19:113
0,0.51,-9.68,0.05,0.49,-9.79,-0.05,0.02,0.02,0,0,0,-11.16,10.25,68.22,321.494,-2.865,-179.707,4765,2019-05-30 12:12:19:114
0,0.51,-9.68,0.05,0.49,-9.79,-0.05,0.02,0.02,0,0,0,-11.16,10.25,68.22,321.494,-2.865,-179.707,4765,2019-05-30 12:12:19:114
0.03,0.5,-9.72,0.05,0.49,-9.79,-0.02,0,-0.01,0,0,0,-10.5,10.68,68.22,321.494,-2.865,-179.707,4769,2019-05-30 12:12:19:118
0.03,0.5,-9.72,0.05,0.49,-9.79,-0.02,0,-0.01,0,0,0,-10.5,10.68,68.22,321.494,-2.865,-179.707,4770,2019-05-30 12:12:19:119
0.03,0.5,-9.72,0.05,0.49,-9.79,-0.02,0,-0.01,0,0,0,-10.5,10.68,68.22,321.494,-2.865,-179.707,4774,2019-05-30 12:12:19:123
0.03,0.5,-9.72,0.05,0.49,-9.79,-0.02,0,-0.01,0,0,0,-10.5,10.68,68.22,321.494,-2.865,-179.707,4784,2019-05-30 12:12:19:133
0.03,0.5,-9.72,0.05,0.49,-9.79,-0.02,0,-0.01,0,0,0,-10.5,10.68,68.22,321.494,-2.865,-179.707,4787,2019-05-30 12:12:19:136
0.03,0.5,-9.72,0.05,0.49,-9.79,-0.02,0,-0.01,0,0,0,-10.5,10.68,68.22,321.494,-2.865,-179.707,4791,2019-05-30 12:12:19:140
0.03,0.5,-9.72,0.05,0.49,-9.79,-0.02,0,-0.01,0,0,0,-10.31,10.19,68.46,324.211,-2.865,-179.707,4800,2019-05-30 12:12:19:149
0.03,0.5,-9.72,0.05,0.49,-9.79,0,0,0.01,0,0,0,-10.31,10.19,68.46,324.211,-2.865,-179.707,4801,2019-05-30 12:12:19:150
0.03,0.5,-9.72,0.05,0.49,-9.79,0,0,0.01,0,0,0,-10.31,10.19,68.46,324.211,-2.865,-179.707,4804,2019-05-30 12:12:19:153
