ACCELEROMETER X (m/s²),ACCELEROMETER Y (m/s²),ACCELEROMETER Z (m/s²),GRAVITY X (m/s²),GRAVITY Y (m/s²),GRAVITY Z (m/s²),LINEAR ACCELERATION X (m/s²),LINEAR ACCELERATION Y (m/s²),LINEAR ACCELERATION Z (m/s²),GYROSCOPE X (rad/s),GYROSCOPE Y (rad/s),GYROSCOPE Z (rad/s),MAGNETIC FIELD X (μT),MAGNETIC FIELD Y (μT),MAGNETIC FIELD Z (μT),ORIENTATION Z (azimuth °),ORIENTATION X (pitch °),ORIENTATION Y (roll °),Time since start in ms ,YYYY-MO-DD HH-MI-SS_SSS
9.75,0.05,0.95,9.74,-0.58,0.9,0.01,0.0,0.01,0.0,0.0,0.03,-152.7,-24.8,-150.5,255.3,3.3,-84.7,5,2019-05-30 12:12:14:206
9.7,0.05,1.0,9.74,-0.58,0.9,-0.05,0.03,0.08,0.0,0.0,0.03,-152.6,-24.5,-149.9,255.6,3.4,-84.7,11,2019-05-30 12:12:14:212
9.7,0.05,1.0,9.74,-0.58,0.9,-0.05,0.03,0.08,0.0,0.0,0.03,-152.6,-24.5,-149.9,255.6,3.4,-84.7,15,2019-05-30 12:12:14:216
9.7,0.05,1.0,9.74,-0.58,0.9,-0.05,0.03,0.08,0.0,0.0,0.03,-152.6,-24.5,-149.9,255.6,3.4,-84.7,20,2019-05-30 12:12:14:221
9.7,0.05,1.0,9.74,-0.58,0.9,-0.05,0.03,0.08,0.0,0.0,0.03,-152.6,-24.5,-149.9,255.6,3.4,-84.7,25,2019-05-30 12:12:14:226
9.79,-0.02,0.88,9.74,-0.58,0.9,-0.05,0.03,0.08,0.0,0.0,0.03,-153.6,-25.1,-150.8,255.6,3.4,-84.7,30,2019-05-30 12:12:14:231
9.79,-0.02,0.88,9.74,-0.59,0.9,0.02,-0.03,-0.04,0.0,0.0,0.03,-153.6,-25.1,-150.8,255.6,3.4,-84.7,35,2019-05-30 12:12:14:236
9.79,-0.02,0.88,9.74,-0.59,0.9,0.02,-0.03,-0.04,0.0,0.0,0.03,-153.6,-25.1,-150.8,255.6,3.4,-84.7,40,2019-05-30 12:12:14:241
9.79,-0.02,0.88,9.74,-0.59,0.9,0.02,-0.03,-0.04,0.0,0.0,0.03,-153.6,-25.1,-150.8,255.6,3.4,-84.7,45,2019-05-30 12:12:14:246
9.79,-0.02,0.88,9.74,-0.59,0.9,0.02,-0.03,-0.04,0.0,0.0,0.03,-153.6,-25.1,-150.8,255.6,3.4,-84.7,50,2019-05-30 12:12:14:251
9.79,-0.02,0.88,9.74,-0.59,0.9,0.02,-0.03,-0.04,0.0,0.0,0.03,-153.6,-25.1,-150.8,255.6,3.4,-84.7,55,2019-05-30 12:12:14:256
9.75,0.01,0.88,9.74,-0.6,0.9,0.0,0.02,-0.03,0.0,0.0,0.02,-153.8,-25.1,-150.4,255.5,3.5,-84.7,60,2019-05-30 12:12:14:261
9.75,0.01,0.88,9.74,-0.6,0.9,0.0,0.02,-0.03,0.0,0.0,0.02,-153.8,-25.1,-150.4,255.5,3.5,-84.7,65,2019-05-30 12:12:14:266
9.75,0.01,0.88,9.74,-0.6,0.9,0.0,0.02,-0.03,0.0,0.0,0.02,-153.8,-25.1,-150.4,255.5,3.5,-84.7,70,2019-05-30 12:12:14:271
9.75,0.01,0.88,9.74,-0.6,0.9,0.0,0.02,-0.03,0.0,0.0,0.02,-153.8,-25.1,-150.4,255.5,3.5,-84.7,75,2019-05-30 12:12:14:276
9.75,-0.02,0.92,9.74,-0.59,0.9,-0.01,-0.02,0.0,0.0,0.0,0.02,-153.5,-25.8,-150.2,255.5,3.5,-84.7,80,2019-05-30 12:12:14:281
9.75,-0.02,0.92,9.74,-0.59,0.9,-0.01,-0.02,0.0,0.0,0.0,0.02,-153.5,-25.8,-150.2,255.5,3.5,-84.7,85,2019-05-30 12:12:14:286
9.75,-0.02,0.92,9.74,-0.59,0.9,-0.01,-0.02,0.0,0.0,0.0,0.02,-153.5,-25.8,-150.2,255.5,3.5,-84.7,91,2019-05-30 12:12:14:292
9.75,-0.02,0.92,9.74,-0.59,0.9,-0.02,0.05,-0.03,0.0,0.0,0.02,-153.1,-26.6,-150.9,255.5,3.5,-84.7,95,2019-05-30 12:12:14:296
9.75,-0.02,0.92,9.74,-0.59,0.9,-0.02,0.05,-0.03,0.0,0.0,0.02,-153.1,-26.6,-150.9,255.5,3.5,-84.7,100,2019-05-30 12:12:14:301
9.75,-0.02,0.92,9.74,-0.59,0.9,-0.02,0.05,-0.03,0.0,0.0,0.02,-153.1,-26.6,-150.9,255.5,3.5,-84.7,108,2019-05-30 12:12:14:309
9.75,-0.02,0.92,9.74,-0.59,0.9,-0.02,0.05,-0.03,0.0,0.0,0.02,-153.1,-26.6,-150.9,255.5,3.5,-84.7,110,2019-05-30 12:12:14:311
9.77,0.02,0.86,9.74,-0.59,0.9,0.0,0.0,-0.05,0.0,0.0,0.02,-153.1,-26.4,-150.8,255.2,3.5,-84.7,115,2019-05-30 12:12:14:316
9.77,0.02,0.86,9.74,-0.59,0.9,0.0,0.0,-0.05,0.0,0.0,0.02,-153.1,-26.4,-150.8,255.2,3.5,-84.7,120,2019-05-30 12:12:14:321
9.77,0.02,0.86,9.74,-0.59,0.9,0.0,0.0,-0.05,0.0,0.0,0.02,-153.1,-26.4,-150.8,255.2,3.5,-84.7,125,2019-05-30 12:12:14:326
9.77,0.02,0.86,9.74,-0.59,0.9,0.0,0.0,-0.05,0.0,0.0,0.02,-153.1,-26.4,-150.8,255.2,3.5,-84.7,130,2019-05-30 12:12:14:331
9.77,0.02,0.86,9.74,-0.59,0.9,0.0,0.0,-0.05,0.0,0.0,0.02,-153.1,-26.4,-150.8,255.2,3.5,-84.7,135,2019-05-30 12:12:14:336
9.75,0.02,0.89,9.74,-0.59,0.9,0.0,0.0,-0.05,0.0,0.0,0.02,-153.1,-26.4,-150.8,255.2,3.5,-84.7,140,2019-05-30 12:12:14:341
9.75,0.02,0.89,9.74,-0.59,0.9,0.0,0.0,-0.02,0.0,0.0,0.02,-152.7,-25.8,-150.5,255.2,3.5,-84.7,145,2019-05-30 12:12:14:346
9.75,0.02,0.89,9.74,-0.59,0.9,0.0,0.0,-0.02,0.0,0.0,0.02,-152.7,-25.8,-150.5,255.2,3.5,-84.7,150,2019-05-30 12:12:14:351
9.77,-0.04,0.91,9.74,-0.59,0.9,0.0,0.0,-0.02,0.0,0.0,0.02,-152.7,-25.8,-150.5,255.2,3.5,-84.7,155,2019-05-30 12:12:14:356
9.77,-0.04,0.91,9.74,-0.59,0.9,0.0,0.0,-0.02,0.0,0.0,0.02,-152.7,-25.8,-150.5,255.2,3.5,-84.7,160,2019-05-30 12:12:14:361
9.77,-0.04,0.91,9.74,-0.59,0.9,0.0,0.0,-0.02,0.0,0.0,0.02,-152.7,-25.8,-150.5,255.2,3.5,-84.7,165,2019-05-30 12:12:14:366
9.77,-0.04,0.91,9.74,-0.59,0.9,0.0,0.0,-0.02,0.0,0.0,0.02,-152.7,-25.8,-150.5,255.2,3.5,-84.7,169,2019-05-30 12:12:14:370
9.77,-0.04,0.91,9.74,-0.59,0.9,0.0,0.0,-0.02,0.0,0.0,0.02,-152.7,-25.8,-150.5,255.2,3.5,-84.7,175,2019-05-30 12:12:14:376
9.74,-0.04,1.01,9.74,-0.59,0.9,-0.01,-0.05,0.09,0.0,0.0,0.02,-153.2,-25.0,-149.5,255.5,3.5,-84.7,180,2019-05-30 12:12:14:381
9.74,-0.04,1.01,9.74,-0.59,0.9,-0.01,-0.05,0.09,0.0,0.0,0.02,-153.2,-25.0,-149.5,255.5,3.5,-84.7,185,2019-05-30 12:12:14:386
9.74,-0.04,1.01,9.74,-0.59,0.9,-0.01,-0.05,0.09,0.0,0.0,0.02,-153.2,-25.0,-149.5,255.5,3.5,-84.7,190,2019-05-30 12:12:14:391
9.75,0.0,0.97,9.74,-0.58,0.9,0.04,-0.02,0.05,0.0,0.0,0.01,-153.1,-25.2,-149.6,255.5,3.5,-84.7,195,2019-05-30 12:12:14:396
9.75,0.0,0.97,9.74,-0.58,0.9,0.04,-0.02,0.05,0.0,0.0,0.01,-153.1,-25.2,-149.6,255.5,3.5,-84.7,200,2019-05-30 12:12:14:401
9.75,0.0,0.97,9.74,-0.58,0.9,0.04,-0.02,0.05,0.0,0.0,0.01,-153.1,-25.2,-149.6,255.5,3.5,-84.7,205,2019-05-30 12:12:14:406
9.75,0.0,0.97,9.74,-0.58,0.9,0.04,-0.02,0.05,0.0,0.0,0.01,-153.1,-25.2,-149.6,255.5,3.5,-84.7,210,2019-05-30 12:12:14:411
9.78,0.05,0.94,9.74,-0.58,0.9,0.02,0.05,0.02,0.0,0.0,0.01,-152.7,-25.4,-150.2,255.5,3.5,-84.7,215,2019-05-30 12:12:14:416
9.78,0.05,0.94,9.74,-0.58,0.9,0.02,0.05,0.02,0.0,0.0,0.01,-152.7,-25.4,-150.2,255.5,3.5,-84.7,220,2019-05-30 12:12:14:421
9.78,0.05,0.94,9.74,-0.58,0.9,0.02,0.05,0.02,0.0,0.0,0.01,-152.7,-25.4,-150.2,255.5,3.5,-84.7,225,2019-05-30 12:12:14:426
9.73,-0.02,1.04,9.74,-0.58,0.9,-0.02,-0.03,0.11,0.0,0.0,0.01,-152.8,-25.7,-150.8,255.3,3.4,-84.7,230,2019-05-30 12:12:14:431
9.73,-0.02,1.04,9.74,-0.58,0.9,-0.02,-0.03,0.11,0.0,0.0,0.01,-152.8,-25.7,-150.8,255.3,3.4,-84.7,235,2019-05-30 12:12:14:436
9.73,-0.02,1.04,9.74,-0.58,0.9,-0.02,-0.03,0.11,0.0,0.0,0.01,-152.8,-25.7,-150.8,255.3,3.4,-84.7,240,2019-05-30 12:12:14:441
9.73,-0.02,1.04,9.74,-0.58,0.9,-0.02,-0.03,0.11,0.0,0.0,0.01,-152.8,-25.7,-150.8,255.3,3.4,-84.7,245,2019-05-30 12:12:14:446
9.73,-0.02,1.04,9.74,-0.58,0.9,-0.02,-0.03,0.11,0.0,0.0,0.01,-152.8,-25.7,-150.8,255.3,3.4,-84.7,250,2019-05-30 12:12:14:451
9.73,-0.02,1.04,9.74,-0.58,0.9,-0.02,-0.03,0.11,0.0,0.0,0.01,-152.8,-25.7,-150.8,255.3,3.4,-84.7,255,2019-05-30 12:12:14:456
9.72,0.03,0.88,9.74,-0.58,0.9,-0.02,-0.03,0.11,0.0,0.0,0.01,-152.8,-25.7,-150.8,255.3,3.4,-84.7,261,2019-05-30 12:12:14:462
9.72,0.03,0.88,9.74,-0.58,0.9,-0.02,0.02,-0.03,0.0,0.0,0.01,-153.2,-26.0,-150.5,255.3,3.4,-84.7,266,2019-05-30 12:12:14:467
9.72,0.03,0.88,9.74,-0.58,0.9,-0.02,0.02,-0.03,0.0,0.0,0.01,-153.2,-26.0,-150.5,255.3,3.4,-84.7,270,2019-05-30 12:12:14:471
9.72,0.03,0.88,9.74,-0.58,0.9,-0.02,0.02,-0.03,0.0,0.0,0.01,-153.2,-26.0,-150.5,255.3,3.4,-84.7,275,2019-05-30 12:12:14:476
9.72,0.0,0.91,9.74,-0.58,0.9,-0.02,-0.01,0.0,0.0,0.0,0.01,-153.5,-25.5,-150.4,255.6,3.4,-84.7,281,2019-05-30 12:12:14:482
9.72,0.0,0.91,9.74,-0.58,0.9,-0.02,-0.01,0.0,0.0,0.0,0.01,-153.5,-25.5,-150.4,255.6,3.4,-84.7,286,2019-05-30 12:12:14:487
9.72,0.0,0.91,9.74,-0.58,0.9,-0.02,-0.01,0.0,0.0,0.0,0.01,-153.5,-25.5,-150.4,255.6,3.4,-84.7,290,2019-05-30 12:12:14:491
9.8,0.0,0.99,9.74,-0.58,0.9,-0.02,-0.05,-0.02,0.0,0.0,0.01,-153.5,-25.5,-150.7,255.6,3.4,-84.7,295,2019-05-30 12:12:14:496
9.8,0.0,0.99,9.74,-0.58,0.9,-0.02,-0.05,-0.02,0.0,0.0,0.01,-153.5,-25.5,-150.7,255.6,3.4,-84.7,300,2019-05-30 12:12:14:501
9.8,0.0,0.99,9.74,-0.58,0.9,-0.02,-0.05,-0.02,0.0,0.0,0.01,-153.5,-25.5,-150.7,255.6,3.4,-84.7,305,2019-05-30 12:12:14:506
9.8,0.0,0.99,9.74,-0.58,0.9,-0.02,-0.05,-0.02,0.0,0.0,0.01,-153.5,-25.5,-150.7,255.6,3.4,-84.7,310,2019-05-30 12:12:14:511
9.81,0.0,0.83,9.74,-0.57,0.9,0.05,-0.01,-0.07,0.0,0.0,0.0,-153.9,-25.8,-150.7,255.6,3.4,-84.7,315,2019-05-30 12:12:14:516
9.81,0.0,0.83,9.74,-0.57,0.9,0.05,-0.01,-0.07,0.0,0.0,0.0,-153.9,-25.8,-150.7,255.6,3.4,-84.7,320,2019-05-30 12:12:14:521
9.81,0.0,0.83,9.74,-0.57,0.9,0.05,-0.01,-0.07,0.0,0.0,0.0,-153.9,-25.8,-150.7,255.6,3.4,-84.7,325,2019-05-30 12:12:14:526
9.8,0.03,0.93,9.74,-0.57,0.9,0.04,0.02,0.01,0.0,0.0,0.0,-153.5,-25.1,-150.6,255.7,3.3,-84.7,330,2019-05-30 12:12:14:531
9.8,0.03,0.93,9.74,-0.57,0.9,0.04,0.02,0.01,0.0,0.0,0.0,-153.5,-25.1,-150.6,255.7,3.3,-84.7,335,2019-05-30 12:12:14:536
9.8,0.03,0.93,9.74,-0.57,0.9,0.04,0.02,0.01,0.0,0.0,0.0,-153.5,-25.1,-150.6,255.7,3.3,-84.7,340,2019-05-30 12:12:14:541
9.8,0.03,0.93,9.74,-0.57,0.9,0.04,0.02,0.01,0.0,0.0,0.0,-153.5,-25.1,-150.6,255.7,3.3,-84.7,345,2019-05-30 12:12:14:546
9.8,0.03,0.93,9.74,-0.57,0.9,0.04,0.02,0.01,0.0,0.0,0.0,-153.5,-25.1,-150.6,255.7,3.3,-84.7,350,2019-05-30 12:12:14:551
9.8,0.03,0.93,9.74,-0.57,0.9,0.04,0.02,0.01,0.0,0.0,0.0,-153.5,-25.1,-150.6,255.7,3.3,-84.7,355,2019-05-30 12:12:14:556
9.82,0.08,0.88,9.74,-0.57,0.9,0.05,0.06,-0.02,0.0,0.0,0.0,-153.1,-25.1,-150.9,255.7,3.3,-84.7,361,2019-05-30 12:12:14:562
9.82,0.08,0.88,9.74,-0.57,0.9,0.05,0.06,-0.02,0.0,0.0,0.0,-153.1,-25.1,-150.9,255.7,3.3,-84.7,365,2019-05-30 12:12:14:566
9.82,0.08,0.88,9.74,-0.57,0.9,0.05,0.06,-0.02,0.0,0.0,0.0,-153.1,-25.1,-150.9,255.7,3.3,-84.7,370,2019-05-30 12:12:14:571
9.82,0.08,0.88,9.74,-0.57,0.9,0.05,0.06,-0.02,0.0,0.0,0.0,-153.1,-25.1,-150.9,255.7,3.3,-84.7,375,2019-05-30 12:12:14:576
9.77,0.1,0.87,9.74,-0.57,0.9,0.01,0.06,-0.03,0.0,0.0,0.0,-153.4,-25.6,-150.9,255.3,3.3,-84.7,380,2019-05-30 12:12:14:581
9.77,0.1,0.87,9.74,-0.57,0.9,0.01,0.06,-0.03,0.0,0.0,0.0,-153.4,-25.6,-150.9,255.3,3.3,-84.7,385,2019-05-30 12:12:14:586
9.77,0.1,0.87,9.74,-0.57,0.9,0.01,0.06,-0.03,0.0,0.0,0.0,-153.4,-25.6,-150.9,255.3,3.3,-84.7,390,2019-05-30 12:12:14:591
9.77,0.1,0.87,9.74,-0.57,0.9,0.04,0.08,0.04,0.0,0.0,0.01,-153.2,-25.4,-150.3,255.3,3.3,-84.7,395,2019-05-30 12:12:14:596
9.77,0.1,0.87,9.74,-0.57,0.9,0.04,0.08,0.04,0.0,0.0,0.01,-153.2,-25.4,-150.3,255.3,3.3,-84.7,400,2019-05-30 12:12:14:601
9.77,0.1,0.87,9.74,-0.57,0.9,0.04,0.08,0.04,0.0,0.0,0.01,-153.2,-25.4,-150.3,255.3,3.3,-84.7,405,2019-05-30 12:12:14:606
9.77,0.1,0.87,9.74,-0.57,0.9,0.04,0.08,0.04,0.0,0.0,0.01,-153.2,-25.4,-150.3,255.3,3.3,-84.7,410,2019-05-30 12:12:14:611
9.73,0.06,0.87,9.74,-0.57,0.9,-0.02,0.02,-0.04,0.0,0.0,0.01,-153.1,-25.4,-150.1,255.3,3.3,-84.7,415,2019-05-30 12:12:14:616
9.73,0.06,0.87,9.74,-0.57,0.9,-0.02,0.02,-0.04,0.0,0.0,0.01,-153.1,-25.4,-150.1,255.3,3.3,-84.7,420,2019-05-30 12:12:14:621
9.73,0.06,0.87,9.74,-0.57,0.9,-0.02,0.02,-0.04,0.0,0.0,0.01,-153.1,-25.4,-150.1,255.3,3.3,-84.7,425,2019-05-30 12:12:14:626
9.66,0.0,0.93,9.74,-0.57,0.9,-0.09,-0.03,0.03,0.0,0.0,0.01,-153.0,-25.0,-150.5,255.6,3.3,-84.7,430,2019-05-30 12:12:14:631
9.66,0.0,0.93,9.74,-0.57,0.9,-0.09,-0.03,0.03,0.0,0.0,0.01,-153.0,-25.0,-150.5,255.6,3.3,-84.7,435,2019-05-30 12:12:14:636
9.66,0.0,0.93,9.74,-0.57,0.9,-0.09,-0.03,0.03,0.0,0.0,0.01,-153.0,-25.0,-150.5,255.6,3.3,-84.7,440,2019-05-30 12:12:14:641
9.76,0.06,0.84,9.74,-0.56,0.9,-0.02,0.01,0.02,0.0,0.0,0.0,-152.9,-25.3,-150.9,255.6,3.3,-84.7,445,2019-05-30 12:12:14:646
9.76,0.06,0.84,9.74,-0.56,0.9,-0.02,0.01,0.02,0.0,0.0,0.0,-152.9,-25.3,-150.9,255.6,3.3,-84.7,450,2019-05-30 12:12:14:651
9.76,0.06,0.84,9.74,-0.56,0.9,-0.02,0.01,0.02,0.0,0.0,0.0,-152.9,-25.3,-150.9,255.6,3.3,-84.7,455,2019-05-30 12:12:14:656
9.76,0.06,0.84,9.74,-0.56,0.9,-0.02,0.01,0.02,0.0,0.0,0.0,-152.9,-25.3,-150.9,255.6,3.3,-84.7,460,2019-05-30 12:12:14:661
9.73,0.07,0.8,9.74,-0.56,0.9,-0.02,0.03,-0.09,0.0,0.0,0.0,-153.2,-25.9,-150.8,255.6,3.3,-84.7,465,2019-05-30 12:12:14:666
9.73,0.07,0.8,9.74,-0.56,0.9,-0.02,0.03,-0.09,0.0,0.0,0.0,-153.2,-25.9,-150.8,255.6,3.3,-84.7,470,2019-05-30 12:12:14:671
9.73,0.07,0.8,9.74,-0.56,0.9,-0.02,0.03,-0.09,0.0,0.0,0.0,-153.2,-25.9,-150.8,255.6,3.3,-84.7,475,2019-05-30 12:12:14:676
9.83,0.01,0.92,9.74,-0.56,0.9,0.06,-0.03,0.02,0.0,0.0,0.0,-153.7,-26.0,-150.4,255.3,3.3,-84.7,480,2019-05-30 12:12:14:681
9.83,0.01,0.92,9.74,-0.56,0.9,0.06,-0.03,0.02,0.0,0.0,0.0,-153.7,-26.0,-150.4,255.3,3.3,-84.7,485,2019-05-30 12:12:14:686
9.83,0.01,0.92,9.74,-0.56,0.9,0.06,-0.03,0.02,0.0,0.0,0.0,-153.7,-26.0,-150.4,255.3,3.3,-84.7,490,2019-05-30 12:12:14:691
9.83,0.01,0.92,9.74,-0.56,0.9,0.06,-0.03,0.02,0.0,0.0,0.0,-153.7,-26.0,-150.4,255.3,3.3,-84.7,495,2019-05-30 12:12:14:696
9.83,0.01,0.92,9.74,-0.56,0.9,0.06,-0.03,0.02,0.0,0.0,0.0,-153.7,-26.0,-150.4,255.3,3.3,-84.7,500,2019-05-30 12:12:14:701
9.83,0.01,0.92,9.74,-0.56,0.9,0.06,-0.03,0.02,0.0,0.0,0.0,-153.7,-26.0,-150.4,255.3,3.3,-84.7,504,2019-05-30 12:12:14:705
9.83,0.01,0.92,9.74,-0.56,0.9,0.06,-0.03,0.02,0.0,0.0,0.0,-153.7,-26.0,-150.4,255.3,3.3,-84.7,510,2019-05-30 12:12:14:711
9.81,0.0,0.86,9.74,-0.56,0.9,0.05,-0.04,-0.03,0.0,0.0,0.0,-153.9,-26.2,-150.2,255.3,3.3,-84.7,515,2019-05-30 12:12:14:716
9.81,0.0,0.86,9.74,-0.56,0.9,0.05,-0.04,-0.03,0.0,0.0,0.0,-153.9,-26.2,-150.2,255.3,3.3,-84.7,520,2019-05-30 12:12:14:721
9.81,0.0,0.86,9.74,-0.56,0.9,0.05,-0.04,-0.03,0.0,0.0,0.0,-153.9,-26.2,-150.2,255.3,3.3,-84.7,525,2019-05-30 12:12:14:726
9.68,0.1,0.91,9.74,-0.56,0.9,0.05,-0.04,-0.03,0.0,0.0,0.0,-153.9,-26.2,-150.2,255.3,3.3,-84.7,530,2019-05-30 12:12:14:731
9.68,0.1,0.91,9.74,-0.56,0.9,-0.06,0.04,0.0,0.0,0.0,0.0,-153.5,-25.8,-150.5,255.4,3.3,-84.7,535,2019-05-30 12:12:14:736
9.68,0.1,0.91,9.74,-0.56,0.9,-0.06,0.04,0.0,0.0,0.0,0.0,-153.5,-25.8,-150.5,255.4,3.3,-84.7,540,2019-05-30 12:12:14:741
9.82,0.11,0.88,9.74,-0.56,0.9,-0.06,0.04,0.0,0.0,0.0,0.0,-153.5,-25.8,-150.5,255.4,3.3,-84.7,546,2019-05-30 12:12:14:747
9.82,0.11,0.88,9.74,-0.56,0.9,0.08,0.08,0.06,0.0,0.0,0.0,-153.5,-25.8,-150.5,255.4,3.3,-84.7,549,2019-05-30 12:12:14:750
9.82,0.11,0.88,9.74,-0.56,0.9,0.08,0.08,0.06,0.0,0.0,0.0,-153.5,-25.8,-150.5,255.4,3.3,-84.7,555,2019-05-30 12:12:14:756
9.78,0.16,0.87,9.74,-0.55,0.9,0.02,0.09,-0.03,0.0,0.0,0.0,-153.0,-25.5,-150.8,255.4,3.3,-84.7,560,2019-05-30 12:12:14:761
9.78,0.16,0.87,9.74,-0.55,0.9,0.02,0.09,-0.03,0.0,0.0,0.0,-153.0,-25.5,-150.8,255.4,3.3,-84.7,565,2019-05-30 12:12:14:766
9.78,0.16,0.87,9.74,-0.55,0.9,0.02,0.09,-0.03,0.0,0.0,0.0,-153.0,-25.5,-150.8,255.4,3.3,-84.7,570,2019-05-30 12:12:14:771
9.78,0.16,0.87,9.74,-0.55,0.9,0.02,0.09,-0.03,0.0,0.0,0.0,-153.0,-25.5,-150.8,255.4,3.3,-84.7,575,2019-05-30 12:12:14:776
9.82,0.12,0.85,9.74,-0.55,0.9,0.06,0.04,-0.05,0.0,0.0,0.01,-153.1,-25.4,-149.9,255.8,3.2,-84.7,581,2019-05-30 12:12:14:782
9.82,0.12,0.85,9.74,-0.55,0.9,0.06,0.04,-0.05,0.0,0.0,0.01,-153.1,-25.4,-149.9,255.8,3.2,-84.7,586,2019-05-30 12:12:14:787
9.82,0.12,0.85,9.74,-0.55,0.9,0.06,0.04,-0.05,0.0,0.0,0.01,-153.1,-25.4,-149.9,255.8,3.2,-84.7,590,2019-05-30 12:12:14:791
9.82,0.12,0.85,9.74,-0.55,0.9,0.06,0.04,-0.05,0.0,0.0,0.01,-153.1,-25.4,-149.9,255.8,3.2,-84.7,595,2019-05-30 12:12:14:796
9.76,0.07,0.93,9.74,-0.55,0.9,0.0,0.0,0.01,0.0,0.0,0.01,-153.0,-25.0,-149.9,255.8,3.2,-84.7,600,2019-05-30 12:12:14:801
9.76,0.07,0.93,9.74,-0.55,0.9,0.0,0.0,0.01,0.0,0.0,0.01,-153.0,-25.0,-149.9,255.8,3.2,-84.7,605,2019-05-30 12:12:14:806
9.76,0.07,0.93,9.74,-0.55,0.9,0.0,0.0,0.01,0.0,0.0,0.01,-153.0,-25.0,-149.9,255.8,3.2,-84.7,610,2019-05-30 12:12:14:811
9.76,0.07,0.93,9.74,-0.55,0.9,0.0,0.0,0.01,0.0,0.0,0.01,-153.0,-25.0,-149.9,255.8,3.2,-84.7,615,2019-05-30 12:12:14:816
9.73,0.17,0.96,9.74,-0.55,0.9,-0.03,0.07,0.04,0.0,0.0,0.01,-153.1,-25.3,-150.7,255.9,3.2,-84.7,620,2019-05-30 12:12:14:821
9.73,0.17,0.96,9.74,-0.55,0.9,-0.03,0.07,0.04,0.0,0.0,0.01,-153.1,-25.3,-150.7,255.9,3.2,-84.7,625,2019-05-30 12:12:14:826
9.73,0.17,0.96,9.74,-0.55,0.9,-0.03,0.07,0.04,0.0,0.0,0.01,-153.1,-25.3,-150.7,255.9,3.2,-84.7,630,2019-05-30 12:12:14:831
9.73,0.17,0.96,9.74,-0.55,0.9,-0.03,0.07,0.04,0.0,0.0,0.01,-153.1,-25.3,-150.7,255.9,3.2,-84.7,635,2019-05-30 12:12:14:836
9.83,0.15,1.08,9.74,-0.55,0.9,-0.03,0.07,0.04,0.0,0.0,0.01,-153.1,-25.3,-150.7,255.9,3.2,-84.7,640,2019-05-30 12:12:14:841
9.83,0.15,1.08,9.74,-0.55,0.9,0.05,0.04,0.15,0.0,0.0,0.01,-153.7,-25.6,-150.7,255.9,3.2,-84.7,645,2019-05-30 12:12:14:846
9.83,0.15,1.08,9.74,-0.55,0.9,0.05,0.04,0.15,0.0,0.0,0.01,-153.7,-25.6,-150.7,255.9,3.2,-84.7,650,2019-05-30 12:12:14:851
9.83,0.15,1.08,9.74,-0.55,0.9,0.05,0.04,0.15,0.0,0.0,0.01,-153.7,-25.6,-150.7,255.9,3.2,-84.7,656,2019-05-30 12:12:14:857
9.83,0.15,1.08,9.74,-0.55,0.9,0.05,0.04,0.15,0.0,0.0,0.01,-153.7,-25.6,-150.7,255.9,3.2,-84.7,660,2019-05-30 12:12:14:861
9.77,0.15,0.93,9.74,-0.55,0.9,0.0,0.03,0.0,0.0,0.0,0.01,-153.7,-25.6,-150.7,255.5,3.2,-84.7,665,2019-05-30 12:12:14:866
9.77,0.15,0.93,9.74,-0.55,0.9,0.0,0.03,0.0,0.0,0.0,0.01,-153.7,-25.6,-150.7,255.5,3.2,-84.7,671,2019-05-30 12:12:14:872
9.77,0.15,0.93,9.74,-0.55,0.9,0.0,0.03,0.0,0.0,0.0,0.01,-153.7,-25.6,-150.7,255.5,3.2,-84.7,676,2019-05-30 12:12:14:877
9.76,0.14,0.81,9.74,-0.55,0.9,-0.01,0.01,-0.1,0.0,0.0,0.02,-152.7,-25.9,-151.3,255.5,3.2,-84.7,680,2019-05-30 12:12:14:881
9.76,0.14,0.81,9.74,-0.55,0.9,-0.01,0.01,-0.1,0.0,0.0,0.02,-152.7,-25.9,-151.3,255.5,3.2,-84.7,685,2019-05-30 12:12:14:886
9.76,0.14,0.81,9.74,-0.55,0.9,-0.01,0.01,-0.1,0.0,0.0,0.02,-152.7,-25.9,-151.3,255.5,3.2,-84.7,691,2019-05-30 12:12:14:892
9.76,0.14,0.81,9.74,-0.55,0.9,-0.01,0.01,-0.1,0.0,0.0,0.02,-152.7,-25.9,-151.3,255.5,3.2,-84.7,695,2019-05-30 12:12:14:896
9.73,0.09,0.9,9.74,-0.54,0.9,-0.04,-0.04,-0.02,0.0,0.0,0.02,-152.6,-26.0,-150.7,255.5,3.2,-84.7,700,2019-05-30 12:12:14:901
9.73,0.09,0.9,9.74,-0.54,0.9,-0.04,-0.04,-0.02,0.0,0.0,0.02,-152.6,-26.0,-150.7,255.5,3.2,-84.7,705,2019-05-30 12:12:14:906
9.73,0.09,0.9,9.74,-0.54,0.9,-0.04,-0.04,-0.02,0.0,0.0,0.02,-152.6,-26.0,-150.7,255.5,3.2,-84.7,710,2019-05-30 12:12:14:911
9.73,0.09,0.9,9.74,-0.54,0.9,-0.04,-0.04,-0.02,0.0,0.0,0.02,-152.6,-26.0,-150.7,255.5,3.2,-84.7,715,2019-05-30 12:12:14:916
9.76,0.13,0.88,9.74,-0.54,0.9,-0.01,0.0,-0.03,-0.01,0.0,0.02,-152.9,-25.6,-150.4,255.5,3.2,-84.7,720,2019-05-30 12:12:14:921
9.76,0.13,0.88,9.74,-0.54,0.9,-0.01,0.0,-0.03,-0.01,0.0,0.02,-152.9,-25.6,-150.4,255.5,3.2,-84.7,725,2019-05-30 12:12:14:926
9.76,0.13,0.88,9.74,-0.54,0.9,-0.01,0.0,-0.03,-0.01,0.0,0.02,-152.9,-25.6,-150.4,255.5,3.2,-84.7,731,2019-05-30 12:12:14:932
9.76,0.13,0.88,9.74,-0.54,0.9,-0.01,0.0,-0.03,-0.01,0.0,0.02,-152.9,-25.6,-150.4,255.5,3.2,-84.7,736,2019-05-30 12:12:14:937
9.76,0.13,0.88,9.74,-0.54,0.9,-0.01,0.0,-0.03,-0.01,0.0,0.02,-152.9,-25.6,-150.4,255.5,3.2,-84.7,740,2019-05-30 12:12:14:941
9.77,0.13,0.98,9.74,-0.54,0.9,0.0,-0.01,0.06,-0.01,0.0,0.02,-153.2,-26.0,-150.7,255.5,3.2,-84.7,745,2019-05-30 12:12:14:946
9.77,0.13,0.98,9.74,-0.54,0.9,0.0,-0.01,0.06,-0.01,0.0,0.02,-153.2,-26.0,-150.7,255.5,3.2,-84.7,750,2019-05-30 12:12:14:951
9.77,0.13,0.98,9.74,-0.54,0.9,0.0,-0.01,0.06,-0.01,0.0,0.02,-153.2,-26.0,-150.7,255.5,3.2,-84.7,755,2019-05-30 12:12:14:956
9.77,0.13,0.98,9.74,-0.54,0.9,0.0,-0.01,0.06,-0.01,0.0,0.02,-153.2,-26.0,-150.7,255.5,3.2,-84.7,760,2019-05-30 12:12:14:961
9.76,0.22,0.91,9.74,-0.54,0.9,-0.01,0.08,0.0,-0.01,0.0,0.02,-153.3,-26.5,-150.7,255.5,3.2,-84.7,765,2019-05-30 12:12:14:966
9.76,0.22,0.91,9.74,-0.54,0.9,-0.01,0.08,0.0,-0.01,0.0,0.02,-153.3,-26.5,-150.7,255.5,3.2,-84.7,770,2019-05-30 12:12:14:971
9.76,0.22,0.91,9.74,-0.54,0.9,-0.01,0.08,0.0,-0.01,0.0,0.02,-153.3,-26.5,-150.7,255.5,3.2,-84.7,775,2019-05-30 12:12:14:976
9.76,0.22,0.91,9.74,-0.54,0.9,-0.01,0.08,0.0,-0.01,0.0,0.02,-153.3,-26.5,-150.7,255.5,3.2,-84.7,780,2019-05-30 12:12:14:981
9.76,0.22,0.91,9.74,-0.54,0.9,-0.01,0.08,0.0,-0.01,0.0,0.02,-153.3,-26.5,-150.7,255.5,3.2,-84.7,785,2019-05-30 12:12:14:986
9.83,0.08,0.85,9.74,-0.55,0.9,0.06,-0.04,-0.06,-0.01,0.0,0.03,-152.5,-26.0,-150.4,255.4,3.2,-84.7,791,2019-05-30 12:12:14:992
9.83,0.08,0.85,9.74,-0.55,0.9,0.06,-0.04,-0.06,-0.01,0.0,0.03,-152.5,-26.0,-150.4,255.4,3.2,-84.7,795,2019-05-30 12:12:14:996
9.83,0.08,0.85,9.74,-0.55,0.9,0.06,-0.04,-0.06,-0.01,0.0,0.03,-152.5,-26.0,-150.4,255.4,3.2,-84.7,800,2019-05-30 12:12:15:001
9.78,0.04,1.0,9.74,-0.56,0.9,0.0,-0.07,0.07,-0.01,0.0,0.03,-153.5,-25.6,-149.7,255.4,3.2,-84.7,805,2019-05-30 12:12:15:006
9.78,0.04,1.0,9.74,-0.56,0.9,0.0,-0.07,0.07,-0.01,0.0,0.03,-153.5,-25.6,-149.7,255.4,3.2,-84.7,810,2019-05-30 12:12:15:011
9.78,0.04,1.0,9.74,-0.56,0.9,0.0,-0.07,0.07,-0.01,0.0,0.03,-153.5,-25.6,-149.7,255.4,3.2,-84.7,815,2019-05-30 12:12:15:016
9.77,0.06,0.93,9.74,-0.56,0.9,0.0,-0.04,0.0,0.0,0.0,0.03,-153.4,-25.6,-149.6,255.4,3.2,-84.7,820,2019-05-30 12:12:15:021
9.77,0.06,0.93,9.74,-0.56,0.9,0.0,-0.04,0.0,0.0,0.0,0.03,-153.4,-25.6,-149.6,255.4,3.2,-84.7,825,2019-05-30 12:12:15:026
9.77,0.06,0.93,9.74,-0.56,0.9,0.0,-0.04,0.0,0.0,0.0,0.03,-153.4,-25.6,-149.6,255.4,3.2,-84.7,830,2019-05-30 12:12:15:031
9.77,0.06,0.93,9.74,-0.56,0.9,0.0,-0.04,0.0,0.0,0.0,0.03,-153.4,-25.6,-149.6,255.4,3.2,-84.7,835,2019-05-30 12:12:15:036
9.79,0.0,1.01,9.74,-0.56,0.9,0.0,-0.04,0.0,0.0,0.0,0.03,-153.4,-25.6,-149.6,255.4,3.2,-84.7,840,2019-05-30 12:12:15:041
9.79,0.0,1.01,9.74,-0.56,0.9,0.01,-0.08,0.08,0.0,0.0,0.03,-153.4,-26.2,-149.9,255.3,3.3,-84.7,845,2019-05-30 12:12:15:046
9.79,0.0,1.01,9.74,-0.56,0.9,0.01,-0.08,0.08,0.0,0.0,0.03,-153.4,-26.2,-149.9,255.3,3.3,-84.7,850,2019-05-30 12:12:15:051
9.79,0.0,1.01,9.74,-0.56,0.9,0.01,-0.08,0.08,0.0,0.0,0.03,-153.4,-26.2,-149.9,255.3,3.3,-84.7,855,2019-05-30 12:12:15:056
9.79,0.0,1.01,9.74,-0.56,0.9,0.01,-0.08,0.08,0.0,0.0,0.03,-153.4,-26.2,-149.9,255.3,3.3,-84.7,860,2019-05-30 12:12:15:061
9.79,0.0,1.01,9.74,-0.56,0.9,0.01,-0.08,0.08,0.0,0.0,0.03,-153.4,-26.2,-149.9,255.3,3.3,-84.7,865,2019-05-30 12:12:15:066
9.77,-0.03,0.93,9.74,-0.57,0.9,0.0,-0.11,0.0,0.0,0.0,0.02,-153.1,-25.7,-150.1,255.3,3.3,-84.7,870,2019-05-30 12:12:15:071
9.77,-0.03,0.93,9.74,-0.57,0.9,0.0,-0.11,0.0,0.0,0.0,0.02,-153.1,-25.7,-150.1,255.3,3.3,-84.7,875,2019-05-30 12:12:15:076
9.77,-0.03,0.93,9.74,-0.57,0.9,0.0,-0.11,0.0,0.0,0.0,0.02,-153.1,-25.7,-150.1,255.3,3.3,-84.7,880,2019-05-30 12:12:15:081
9.77,-0.03,0.93,9.74,-0.57,0.9,0.0,-0.11,0.0,0.0,0.0,0.02,-153.1,-25.7,-150.1,255.3,3.3,-84.7,885,2019-05-30 12:12:15:086
9.77,0.0,0.84,9.74,-0.57,0.9,0.0,-0.11,0.0,0.0,0.0,0.02,-153.1,-25.7,-150.1,255.3,3.3,-84.7,890,2019-05-30 12:12:15:091
9.77,0.0,0.84,9.74,-0.57,0.9,0.0,-0.06,-0.09,0.0,0.0,0.02,-153.1,-25.5,-150.7,255.7,3.3,-84.7,896,2019-05-30 12:12:15:097
9.76,0.05,0.92,9.74,-0.57,0.9,0.0,-0.06,-0.09,0.0,0.0,0.02,-153.1,-25.5,-150.7,255.7,3.3,-84.7,901,2019-05-30 12:12:15:102
9.76,0.05,0.92,9.74,-0.57,0.9,0.0,-0.06,-0.09,0.0,0.0,0.02,-153.1,-25.5,-150.7,255.7,3.3,-84.7,906,2019-05-30 12:12:15:107
9.76,0.05,0.92,9.74,-0.57,0.9,0.0,-0.06,-0.09,0.0,0.0,0.02,-153.1,-25.5,-150.7,255.7,3.3,-84.7,910,2019-05-30 12:12:15:111
9.76,0.05,0.92,9.74,-0.57,0.9,0.0,-0.06,-0.09,0.0,0.0,0.02,-153.1,-25.5,-150.7,255.7,3.3,-84.7,915,2019-05-30 12:12:15:116
9.76,0.05,0.87,9.74,-0.56,0.9,0.0,0.0,-0.06,0.0,0.0,0.01,-152.6,-26.0,-150.5,255.7,3.3,-84.7,920,2019-05-30 12:12:15:121
9.76,0.05,0.87,9.74,-0.56,0.9,0.0,0.0,-0.06,0.0,0.0,0.01,-152.6,-26.0,-150.5,255.7,3.3,-84.7,925,2019-05-30 12:12:15:126
9.76,0.05,0.87,9.74,-0.56,0.9,0.0,0.0,-0.06,0.0,0.0,0.01,-152.6,-26.0,-150.5,255.7,3.3,-84.7,930,2019-05-30 12:12:15:131
9.76,0.05,0.87,9.74,-0.56,0.9,0.0,0.0,-0.06,0.0,0.0,0.01,-152.6,-26.0,-150.5,255.7,3.3,-84.7,935,2019-05-30 12:12:15:136
9.74,0.09,0.83,9.74,-0.56,0.9,0.0,0.0,-0.06,0.0,0.0,0.01,-153.1,-26.2,-150.4,255.3,3.3,-84.7,940,2019-05-30 12:12:15:141
9.74,0.09,0.83,9.74,-0.56,0.9,-0.02,0.04,-0.09,0.0,0.0,0.0,-153.1,-26.2,-150.4,255.3,3.3,-84.7,945,2019-05-30 12:12:15:146
9.74,0.09,0.83,9.74,-0.56,0.9,-0.02,0.04,-0.09,0.0,0.0,0.0,-153.1,-26.2,-150.4,255.3,3.3,-84.7,950,2019-05-30 12:12:15:151
9.74,0.09,0.83,9.74,-0.56,0.9,-0.02,0.04,-0.09,0.0,0.0,0.0,-153.1,-26.2,-150.4,255.3,3.3,-84.7,955,2019-05-30 12:12:15:156
9.74,0.09,0.83,9.74,-0.56,0.9,-0.02,0.04,-0.09,0.0,0.0,0.0,-153.1,-26.2,-150.4,255.3,3.3,-84.7,960,2019-05-30 12:12:15:161
9.77,0.1,0.85,9.74,-0.56,0.9,0.0,0.05,-0.06,0.0,0.0,0.0,-153.2,-26.0,-150.5,255.3,3.3,-84.7,966,2019-05-30 12:12:15:167
9.77,0.1,0.85,9.74,-0.56,0.9,0.0,0.05,-0.06,0.0,0.0,0.0,-153.2,-26.0,-150.5,255.3,3.3,-84.7,970,2019-05-30 12:12:15:171
9.77,0.1,0.85,9.74,-0.56,0.9,0.0,0.05,-0.06,0.0,0.0,0.0,-153.2,-26.0,-150.5,255.3,3.3,-84.7,975,2019-05-30 12:12:15:176
9.75,0.07,0.88,9.74,-0.56,0.9,0.0,0.05,-0.06,-0.01,0.0,0.0,-152.9,-26.4,-150.5,255.3,3.3,-84.7,980,2019-05-30 12:12:15:181
9.75,0.07,0.88,9.74,-0.56,0.9,-0.01,0.03,-0.03,-0.01,0.0,0.0,-152.9,-26.4,-150.5,255.3,3.3,-84.7,985,2019-05-30 12:12:15:186
9.75,0.07,0.88,9.74,-0.56,0.9,-0.01,0.03,-0.03,-0.01,0.0,0.0,-152.9,-26.4,-150.5,255.3,3.3,-84.7,990,2019-05-30 12:12:15:191
9.75,0.07,0.88,9.74,-0.56,0.9,-0.01,0.03,-0.03,-0.01,0.0,0.0,-152.9,-26.4,-150.5,255.3,3.3,-84.7,995,2019-05-30 12:12:15:196
9.77,0.03,0.9,9.74,-0.56,0.9,0.01,0.0,0.0,-0.01,0.0,0.0,-152.3,-25.9,-149.8,255.3,3.3,-84.7,1000,2019-05-30 12:12:15:201
9.77,0.03,0.9,9.74,-0.56,0.9,0.01,0.0,0.0,-0.01,0.0,0.0,-152.3,-25.9,-149.8,255.3,3.3,-84.7,1005,2019-05-30 12:12:15:206
9.77,0.03,0.9,9.74,-0.56,0.9,0.01,0.0,0.0,-0.01,0.0,0.0,-152.3,-25.9,-149.8,255.3,3.3,-84.7,1010,2019-05-30 12:12:15:211
9.77,0.03,0.9,9.74,-0.56,0.9,0.01,0.0,0.0,-0.01,0.0,0.0,-152.3,-25.9,-149.8,255.3,3.3,-84.7,1015,2019-05-30 12:12:15:216
9.83,0.01,0.97,9.74,-0.55,0.9,0.06,-0.02,0.07,-0.01,0.0,0.0,-152.3,-25.2,-149.7,255.7,3.3,-84.7,1021,2019-05-30 12:12:15:222
9.83,0.01,0.97,9.74,-0.55,0.9,0.06,-0.02,0.07,-0.01,0.0,0.0,-152.3,-25.2,-149.7,255.7,3.3,-84.7,1026,2019-05-30 12:12:15:227
9.83,0.01,0.97,9.74,-0.55,0.9,0.06,-0.02,0.07,-0.01,0.0,0.0,-152.3,-25.2,-149.7,255.7,3.3,-84.7,1030,2019-05-30 12:12:15:231
9.83,0.01,0.97,9.74,-0.55,0.9,0.06,-0.02,0.07,-0.01,0.0,0.0,-152.3,-25.2,-149.7,255.7,3.3,-84.7,1035,2019-05-30 12:12:15:236
9.74,0.02,0.9,9.74,-0.55,0.9,0.06,-0.02,0.07,-0.01,0.0,0.0,-152.8,-25.4,-149.9,255.7,3.3,-84.7,1040,2019-05-30 12:12:15:241
9.74,0.02,0.9,9.74,-0.55,0.9,-0.02,-0.02,0.0,-0.01,0.0,0.0,-152.8,-25.4,-149.9,255.7,3.3,-84.7,1045,2019-05-30 12:12:15:246
9.74,0.02,0.9,9.74,-0.55,0.9,-0.02,-0.02,0.0,-0.01,0.0,0.0,-152.8,-25.4,-149.9,255.7,3.3,-84.7,1050,2019-05-30 12:12:15:251
9.74,0.02,0.9,9.74,-0.55,0.9,-0.02,-0.02,0.0,-0.01,0.0,0.0,-152.8,-25.4,-149.9,255.7,3.3,-84.7,1055,2019-05-30 12:12:15:256
9.74,0.02,0.9,9.74,-0.55,0.9,-0.02,-0.02,0.0,-0.01,0.0,0.0,-152.8,-25.4,-149.9,255.7,3.3,-84.7,1060,2019-05-30 12:12:15:261
9.74,0.02,0.9,9.74,-0.55,0.9,-0.02,-0.02,0.0,-0.01,0.0,0.0,-152.8,-25.4,-149.9,255.7,3.3,-84.7,1065,2019-05-30 12:12:15:266
9.7,0.04,0.86,9.74,-0.55,0.9,-0.06,-0.01,-0.03,0.0,0.0,0.0,-153.0,-26.0,-149.9,255.4,3.2,-84.7,1070,2019-05-30 12:12:15:271
9.7,0.04,0.86,9.74,-0.55,0.9,-0.06,-0.01,-0.03,0.0,0.0,0.0,-153.0,-26.0,-149.9,255.4,3.2,-84.7,1075,2019-05-30 12:12:15:276
9.7,0.04,0.86,9.74,-0.55,0.9,-0.06,-0.01,-0.03,-0.01,0.0,0.0,-153.0,-26.0,-149.9,255.4,3.2,-84.7,1080,2019-05-30 12:12:15:281
9.7,0.08,0.95,9.74,-0.55,0.9,-0.05,0.01,0.05,-0.01,0.0,0.0,-152.9,-25.7,-150.4,255.4,3.2,-84.7,1085,2019-05-30 12:12:15:286
9.7,0.08,0.95,9.74,-0.55,0.9,-0.05,0.01,0.05,-0.01,0.0,0.0,-152.9,-25.7,-150.4,255.4,3.2,-84.7,1090,2019-05-30 12:12:15:291
9.7,0.08,0.95,9.74,-0.55,0.9,-0.05,0.01,0.05,-0.01,0.0,0.0,-152.9,-25.7,-150.4,255.4,3.2,-84.7,1095,2019-05-30 12:12:15:296
9.7,0.08,0.95,9.74,-0.55,0.9,-0.05,0.01,0.05,-0.01,0.0,0.0,-152.9,-25.7,-150.4,255.4,3.2,-84.7,1100,2019-05-30 12:12:15:301
9.7,0.08,0.95,9.74,-0.55,0.9,-0.05,0.01,0.05,-0.01,0.0,0.0,-152.9,-25.7,-150.4,255.4,3.2,-84.7,1105,2019-05-30 12:12:15:306
9.78,0.04,0.98,9.74,-0.55,0.9,0.01,-0.02,0.06,0.0,0.0,0.0,-152.8,-25.6,-151.0,255.5,3.2,-84.7,1110,2019-05-30 12:12:15:311
9.78,0.04,0.98,9.74,-0.55,0.9,0.01,-0.02,0.06,0.0,0.0,0.0,-152.8,-25.6,-151.0,255.5,3.2,-84.7,1115,2019-05-30 12:12:15:316
9.78,0.04,0.98,9.74,-0.55,0.9,0.01,-0.02,0.06,0.0,0.0,0.0,-152.8,-25.6,-151.0,255.5,3.2,-84.7,1120,2019-05-30 12:12:15:321
9.78,0.04,0.98,9.74,-0.55,0.9,0.01,-0.02,0.06,0.0,0.0,0.0,-152.8,-25.6,-151.0,255.5,3.2,-84.7,1125,2019-05-30 12:12:15:326
9.78,0.04,0.98,9.74,-0.55,0.9,0.05,0.0,0.0,0.0,0.0,0.0,-152.8,-25.6,-151.0,255.5,3.2,-84.7,1130,2019-05-30 12:12:15:331
9.78,0.04,0.98,9.74,-0.55,0.9,0.05,0.0,0.0,0.0,0.0,0.0,-152.8,-25.6,-151.0,255.5,3.2,-84.7,1135,2019-05-30 12:12:15:336
9.77,0.09,0.88,9.74,-0.55,0.9,0.05,0.0,0.0,0.0,0.0,0.0,-152.8,-25.6,-151.0,255.5,3.2,-84.7,1140,2019-05-30 12:12:15:341
9.77,0.09,0.88,9.74,-0.55,0.9,0.0,0.01,-0.03,0.0,0.0,-0.01,-152.9,-26.1,-150.5,255.5,3.2,-84.7,1145,2019-05-30 12:12:15:346
9.77,0.09,0.88,9.74,-0.55,0.9,0.0,0.01,-0.03,0.0,0.0,-0.01,-152.9,-26.1,-150.5,255.5,3.2,-84.7,1150,2019-05-30 12:12:15:351
9.77,0.09,0.88,9.74,-0.55,0.9,0.0,0.01,-0.03,0.0,0.0,-0.01,-152.9,-26.1,-150.5,255.5,3.2,-84.7,1155,2019-05-30 12:12:15:356
9.77,0.09,0.88,9.74,-0.55,0.9,0.0,0.01,-0.03,0.0,0.0,-0.01,-152.9,-26.1,-150.5,255.5,3.2,-84.7,1160,2019-05-30 12:12:15:361
9.77,0.12,0.99,9.74,-0.54,0.9,0.0,0.04,0.07,0.0,0.0,-0.01,-152.9,-25.6,-150.4,255.4,3.2,-84.7,1165,2019-05-30 12:12:15:366
9.77,0.12,0.99,9.74,-0.54,0.9,0.0,0.04,0.07,0.0,0.0,-0.01,-152.9,-25.6,-150.4,255.4,3.2,-84.7,1171,2019-05-30 12:12:15:372
9.77,0.12,0.99,9.74,-0.54,0.9,0.0,0.04,0.07,0.0,0.0,-0.01,-152.9,-25.6,-150.4,255.4,3.2,-84.7,1175,2019-05-30 12:12:15:376
9.78,0.1,0.98,9.74,-0.54,0.9,0.0,0.04,0.07,0.0,0.0,-0.01,-153.2,-25.8,-150.6,255.4,3.2,-84.7,1181,2019-05-30 12:12:15:382
9.78,0.1,0.98,9.74,-0.54,0.9,0.01,0.01,0.04,0.0,0.0,-0.01,-153.2,-25.8,-150.6,255.4,3.2,-84.7,1186,2019-05-30 12:12:15:387
9.78,0.1,0.98,9.74,-0.54,0.9,0.01,0.01,0.04,0.0,0.0,-0.01,-153.2,-25.8,-150.6,255.4,3.2,-84.7,1190,2019-05-30 12:12:15:391
9.78,0.1,0.98,9.74,-0.54,0.9,0.01,0.01,0.04,0.0,0.0,-0.01,-153.2,-25.8,-150.6,255.4,3.2,-84.7,1195,2019-05-30 12:12:15:396
9.75,0.11,0.89,9.74,-0.54,0.9,0.01,0.01,0.04,0.0,0.0,-0.01,-153.2,-25.8,-150.6,255.4,3.2,-84.7,1200,2019-05-30 12:12:15:401
9.75,0.11,0.89,9.74,-0.54,0.9,-0.01,0.02,-0.04,0.0,0.0,-0.01,-153.4,-25.3,-150.9,255.9,3.2,-84.7,1205,2019-05-30 12:12:15:406
9.75,0.11,0.89,9.74,-0.54,0.9,-0.01,0.02,-0.04,0.0,0.0,-0.01,-153.4,-25.3,-150.9,255.9,3.2,-84.7,1211,2019-05-30 12:12:15:412
9.75,0.11,0.89,9.74,-0.54,0.9,-0.01,0.02,-0.04,0.0,0.0,-0.01,-153.4,-25.3,-150.9,255.9,3.2,-84.7,1215,2019-05-30 12:12:15:416
9.78,0.1,0.9,9.74,-0.54,0.9,0.01,0.0,-0.03,0.0,0.0,-0.01,-152.9,-25.6,-150.5,255.9,3.2,-84.7,1220,2019-05-30 12:12:15:421
9.78,0.1,0.9,9.74,-0.54,0.9,0.01,0.0,-0.03,0.0,0.0,-0.01,-152.9,-25.6,-150.5,255.9,3.2,-84.7,1225,2019-05-30 12:12:15:426
9.78,0.1,0.9,9.74,-0.54,0.9,0.01,0.0,-0.03,0.0,0.0,-0.01,-152.9,-25.6,-150.5,255.9,3.2,-84.7,1230,2019-05-30 12:12:15:431
9.78,0.1,0.9,9.74,-0.54,0.9,0.01,0.0,-0.03,0.0,0.0,-0.01,-152.9,-25.6,-150.5,255.9,3.2,-84.7,1235,2019-05-30 12:12:15:436
9.76,0.19,0.8,9.74,-0.54,0.9,0.01,0.0,-0.03,0.0,0.0,-0.01,-152.9,-25.6,-150.5,255.9,3.2,-84.7,1240,2019-05-30 12:12:15:441
9.76,0.19,0.8,9.74,-0.54,0.9,0.0,0.07,-0.13,0.0,0.0,-0.02,-153.0,-26.1,-150.4,255.4,3.2,-84.7,1245,2019-05-30 12:12:15:446
9.76,0.19,0.8,9.74,-0.54,0.9,0.0,0.07,-0.13,0.0,0.0,-0.02,-153.0,-26.1,-150.4,255.4,3.2,-84.7,1250,2019-05-30 12:12:15:451
9.76,0.19,0.8,9.74,-0.54,0.9,0.0,0.07,-0.13,0.0,0.0,-0.02,-153.0,-26.1,-150.4,255.4,3.2,-84.7,1255,2019-05-30 12:12:15:456
9.76,0.19,0.8,9.74,-0.54,0.9,0.0,0.07,-0.13,0.0,0.0,-0.02,-153.0,-26.1,-150.4,255.4,3.2,-84.7,1260,2019-05-30 12:12:15:461
9.68,0.22,0.82,9.74,-0.54,0.9,-0.09,0.09,-0.12,0.0,0.0,-0.02,-153.2,-26.3,-151.1,255.4,3.2,-84.7,1265,2019-05-30 12:12:15:466
9.68,0.22,0.82,9.74,-0.54,0.9,-0.09,0.09,-0.12,0.0,0.0,-0.02,-153.2,-26.3,-151.1,255.4,3.2,-84.7,1270,2019-05-30 12:12:15:471
9.68,0.22,0.82,9.74,-0.54,0.9,-0.09,0.09,-0.12,0.0,0.0,-0.02,-153.2,-26.3,-151.1,255.4,3.2,-84.7,1275,2019-05-30 12:12:15:476
9.68,0.22,0.82,9.74,-0.54,0.9,-0.09,0.09,-0.12,0.0,0.0,-0.02,-153.2,-26.3,-151.1,255.4,3.2,-84.7,1280,2019-05-30 12:12:15:481
9.68,0.22,0.82,9.74,-0.54,0.9,-0.09,0.09,-0.12,0.0,0.0,-0.02,-153.2,-26.3,-151.1,255.4,3.2,-84.7,1285,2019-05-30 12:12:15:486
9.68,0.22,0.82,9.74,-0.54,0.9,-0.09,0.09,-0.12,0.0,0.0,-0.02,-153.2,-26.3,-151.1,255.4,3.2,-84.7,1290,2019-05-30 12:12:15:491
9.68,0.22,0.82,9.74,-0.54,0.9,-0.09,0.09,-0.12,0.0,0.0,-0.02,-153.2,-26.3,-151.1,255.4,3.2,-84.7,1295,2019-05-30 12:12:15:496
9.64,0.2,0.88,9.74,-0.54,0.9,-0.09,0.09,-0.12,0.0,0.0,-0.02,-152.7,-26.0,-150.7,255.5,3.2,-84.7,1301,2019-05-30 12:12:15:502
9.64,0.2,0.88,9.74,-0.53,0.9,-0.12,0.06,-0.05,0.0,0.0,-0.01,-152.7,-26.0,-150.7,255.5,3.2,-84.7,1304,2019-05-30 12:12:15:505
9.64,0.2,0.88,9.74,-0.53,0.9,-0.12,0.06,-0.05,0.0,0.0,-0.01,-152.7,-26.0,-150.7,255.5,3.2,-84.7,1310,2019-05-30 12:12:15:511
9.75,0.21,0.99,9.74,-0.53,0.9,-0.12,0.06,-0.05,0.0,0.0,-0.01,-152.7,-26.7,-150.4,255.5,3.2,-84.7,1315,2019-05-30 12:12:15:516
9.75,0.21,0.99,9.75,-0.53,0.9,-0.06,0.06,-0.05,0.0,0.0,-0.01,-152.7,-26.7,-150.4,255.5,3.2,-84.7,1320,2019-05-30 12:12:15:521
9.75,0.21,0.99,9.75,-0.53,0.9,-0.06,0.06,-0.05,0.0,0.0,-0.01,-152.7,-26.7,-150.4,255.5,3.2,-84.7,1326,2019-05-30 12:12:15:527
9.75,0.21,0.99,9.75,-0.53,0.9,-0.06,0.06,-0.05,0.0,0.0,-0.01,-152.7,-26.7,-150.4,255.5,3.2,-84.7,1330,2019-05-30 12:12:15:531
9.75,0.21,0.99,9.75,-0.53,0.9,-0.06,0.06,-0.05,0.0,0.0,-0.01,-152.7,-26.7,-150.4,255.5,3.2,-84.7,1335,2019-05-30 12:12:15:536
9.75,0.21,0.99,9.75,-0.53,0.9,-0.06,0.06,-0.05,0.0,0.0,-0.01,-152.7,-26.7,-150.4,255.5,3.2,-84.7,1340,2019-05-30 12:12:15:541
9.8,0.25,0.95,9.75,-0.53,0.9,0.04,0.06,0.01,0.0,0.0,-0.01,-152.7,-26.9,-150.8,255.2,3.1,-84.7,1345,2019-05-30 12:12:15:546
9.8,0.25,0.95,9.75,-0.53,0.9,0.04,0.06,0.01,0.0,0.0,-0.01,-152.7,-26.9,-150.8,255.2,3.1,-84.7,1350,2019-05-30 12:12:15:551
9.8,0.25,0.95,9.75,-0.53,0.9,0.04,0.06,0.01,0.0,0.0,-0.01,-152.7,-26.9,-150.8,255.2,3.1,-84.7,1355,2019-05-30 12:12:15:556
9.8,0.25,0.95,9.75,-0.53,0.9,0.04,0.06,0.01,0.0,0.0,-0.01,-152.7,-26.9,-150.8,255.2,3.1,-84.7,1361,2019-05-30 12:12:15:562
9.77,0.31,0.94,9.75,-0.53,0.9,0.0,0.11,0.01,0.0,0.0,0.0,-152.7,-26.7,-150.1,255.2,3.1,-84.7,1365,2019-05-30 12:12:15:566
9.77,0.31,0.94,9.75,-0.53,0.9,0.0,0.11,0.01,0.0,0.0,0.0,-152.7,-26.7,-150.1,255.2,3.1,-84.7,1370,2019-05-30 12:12:15:571
9.77,0.31,0.94,9.75,-0.53,0.9,0.0,0.11,0.01,0.0,0.0,0.0,-152.7,-26.7,-150.1,255.2,3.1,-84.7,1375,2019-05-30 12:12:15:576
9.77,0.31,0.84,9.75,-0.53,0.9,0.02,0.09,-0.07,0.0,0.0,0.0,-152.6,-26.5,-149.8,255.5,3.1,-84.7,1379,2019-05-30 12:12:15:580
9.77,0.31,0.84,9.75,-0.53,0.9,0.02,0.09,-0.07,0.0,0.0,0.0,-152.6,-26.5,-149.8,255.5,3.1,-84.7,1386,2019-05-30 12:12:15:587
9.77,0.31,0.84,9.75,-0.53,0.9,0.02,0.09,-0.07,0.0,0.0,0.0,-152.6,-26.5,-149.8,255.5,3.1,-84.7,1390,2019-05-30 12:12:15:591
9.77,0.31,0.84,9.75,-0.53,0.9,0.02,0.09,-0.07,0.0,0.0,0.0,-152.6,-26.5,-149.8,255.5,3.1,-84.7,1395,2019-05-30 12:12:15:596
9.77,0.31,0.84,9.75,-0.53,0.9,0.02,0.09,-0.07,0.0,0.0,0.0,-152.6,-26.5,-149.8,255.5,3.1,-84.7,1401,2019-05-30 12:12:15:602
9.77,0.31,0.84,9.75,-0.53,0.9,0.02,0.09,-0.07,0.0,0.0,0.0,-152.6,-26.5,-149.8,255.5,3.1,-84.7,1406,2019-05-30 12:12:15:607
9.77,0.31,0.84,9.75,-0.53,0.9,0.02,0.09,-0.07,0.0,0.0,0.0,-152.6,-26.5,-149.8,255.5,3.1,-84.7,1410,2019-05-30 12:12:15:611
9.79,0.29,0.8,9.75,-0.53,0.9,0.03,0.05,-0.1,0.0,0.0,0.0,-153.2,-26.4,-150.0,255.5,3.1,-84.7,1415,2019-05-30 12:12:15:616
9.79,0.29,0.8,9.75,-0.53,0.9,0.03,0.05,-0.1,0.0,0.0,0.0,-153.2,-26.4,-150.0,255.5,3.1,-84.7,1420,2019-05-30 12:12:15:621
9.79,0.29,0.8,9.75,-0.53,0.9,0.03,0.05,-0.1,0.0,0.0,0.0,-153.2,-26.4,-150.0,255.5,3.1,-84.7,1425,2019-05-30 12:12:15:626
9.79,0.29,0.8,9.75,-0.52,0.9,0.01,0.09,-0.01,0.0,0.0,0.01,-153.2,-26.4,-150.0,255.5,3.1,-84.7,1430,2019-05-30 12:12:15:631
9.79,0.29,0.8,9.75,-0.52,0.9,0.01,0.09,-0.01,0.0,0.0,0.01,-153.2,-26.4,-150.0,255.5,3.1,-84.7,1435,2019-05-30 12:12:15:636
9.73,0.37,0.93,9.75,-0.52,0.9,0.01,0.09,-0.01,0.0,0.0,0.01,-153.2,-26.4,-150.0,255.5,3.1,-84.7,1440,2019-05-30 12:12:15:641
9.73,0.37,0.93,9.75,-0.52,0.9,-0.01,0.08,0.03,0.0,0.0,0.02,-152.9,-26.0,-150.5,255.6,3.0,-84.7,1446,2019-05-30 12:12:15:647
9.73,0.37,0.93,9.75,-0.52,0.9,-0.01,0.08,0.03,0.0,0.0,0.02,-152.9,-26.0,-150.5,255.6,3.0,-84.7,1450,2019-05-30 12:12:15:651
9.73,0.37,0.93,9.75,-0.52,0.9,-0.01,0.08,0.03,0.0,0.0,0.02,-152.9,-26.0,-150.5,255.6,3.0,-84.7,1456,2019-05-30 12:12:15:657
9.73,0.37,0.93,9.75,-0.52,0.9,-0.01,0.08,0.03,0.0,0.0,0.02,-152.9,-26.0,-150.5,255.6,3.0,-84.7,1460,2019-05-30 12:12:15:661
9.72,0.39,1.0,9.75,-0.53,0.9,-0.02,0.09,0.1,0.0,0.0,0.03,-153.4,-26.0,-151.0,255.6,3.0,-84.7,1466,2019-05-30 12:12:15:667
9.72,0.39,1.0,9.75,-0.53,0.9,-0.02,0.09,0.1,0.0,0.0,0.03,-153.4,-26.0,-151.0,255.6,3.0,-84.7,1470,2019-05-30 12:12:15:671
9.72,0.39,1.0,9.75,-0.53,0.9,-0.02,0.09,0.1,0.0,0.0,0.03,-153.4,-26.0,-151.0,255.6,3.0,-84.7,1475,2019-05-30 12:12:15:676
9.72,0.39,1.0,9.75,-0.53,0.9,-0.02,0.09,0.1,0.0,0.0,0.03,-153.4,-26.0,-151.0,255.6,3.0,-84.7,1480,2019-05-30 12:12:15:681
9.72,0.39,1.0,9.75,-0.53,0.9,-0.02,0.09,0.1,0.0,0.0,0.03,-153.4,-26.0,-151.0,255.6,3.0,-84.7,1485,2019-05-30 12:12:15:686
9.72,0.35,0.94,9.75,-0.53,0.9,-0.02,0.09,0.1,0.0,0.0,0.03,-153.5,-26.5,-150.9,255.6,3.1,-84.7,1490,2019-05-30 12:12:15:691
9.72,0.35,0.94,9.74,-0.53,0.9,-0.02,0.05,0.05,0.0,0.0,0.04,-153.5,-26.5,-150.9,255.6,3.1,-84.7,1495,2019-05-30 12:12:15:696
9.73,0.29,0.89,9.74,-0.53,0.9,-0.02,0.05,0.05,0.0,0.0,0.04,-153.5,-26.5,-150.9,255.6,3.1,-84.7,1500,2019-05-30 12:12:15:701
9.73,0.29,0.89,9.74,-0.54,0.9,-0.05,0.0,0.03,0.0,0.0,0.05,-153.1,-26.8,-150.8,255.6,3.1,-84.7,1505,2019-05-30 12:12:15:706
9.73,0.29,0.89,9.74,-0.54,0.9,-0.05,0.0,0.03,0.0,0.0,0.05,-153.1,-26.8,-150.8,255.6,3.1,-84.7,1510,2019-05-30 12:12:15:711
9.73,0.29,0.89,9.74,-0.54,0.9,-0.05,0.0,0.03,0.0,0.0,0.05,-153.1,-26.8,-150.8,255.6,3.1,-84.7,1515,2019-05-30 12:12:15:716
9.73,0.26,0.93,9.74,-0.54,0.9,-0.01,-0.03,0.04,-0.01,0.0,0.05,-153.1,-26.5,-150.6,255.6,3.1,-84.7,1520,2019-05-30 12:12:15:721
9.73,0.26,0.93,9.74,-0.55,0.9,-0.01,-0.03,0.04,-0.01,0.0,0.05,-153.1,-26.5,-150.6,255.6,3.1,-84.7,1525,2019-05-30 12:12:15:726
9.73,0.26,0.93,9.74,-0.55,0.9,-0.01,-0.03,0.04,-0.01,0.0,0.05,-153.1,-26.5,-150.6,255.6,3.1,-84.7,1530,2019-05-30 12:12:15:731
9.73,0.26,0.93,9.74,-0.55,0.9,-0.01,-0.03,0.04,-0.01,0.0,0.05,-153.1,-26.5,-150.6,255.6,3.1,-84.7,1536,2019-05-30 12:12:15:737
9.76,0.14,0.86,9.74,-0.55,0.9,-0.01,-0.03,0.04,-0.01,0.0,0.05,-153.4,-26.5,-150.3,255.4,3.2,-84.7,1540,2019-05-30 12:12:15:741
9.76,0.14,0.86,9.74,-0.55,0.9,-0.01,-0.03,0.04,-0.01,0.0,0.05,-153.4,-26.5,-150.3,255.4,3.2,-84.7,1545,2019-05-30 12:12:15:746
9.93,0.21,0.88,9.74,-0.56,0.9,0.01,-0.14,-0.02,-0.01,0.0,0.05,-152.9,-26.3,-150.1,255.4,3.2,-84.7,1551,2019-05-30 12:12:15:752
9.93,0.21,0.88,9.74,-0.56,0.9,0.01,-0.14,-0.02,-0.01,0.0,0.05,-152.9,-26.3,-150.1,255.4,3.2,-84.7,1555,2019-05-30 12:12:15:756
9.93,0.21,0.88,9.74,-0.56,0.9,0.01,-0.14,-0.02,-0.01,0.0,0.05,-152.9,-26.3,-150.1,255.4,3.2,-84.7,1560,2019-05-30 12:12:15:761
9.93,0.21,0.88,9.74,-0.56,0.9,0.01,-0.14,-0.02,-0.01,0.0,0.05,-152.9,-26.3,-150.1,255.4,3.2,-84.7,1565,2019-05-30 12:12:15:766
9.93,0.21,0.88,9.74,-0.56,0.9,0.01,-0.14,-0.02,-0.01,0.0,0.05,-152.9,-26.3,-150.1,255.4,3.2,-84.7,1570,2019-05-30 12:12:15:771
9.53,0.22,0.87,9.74,-0.57,0.9,-0.21,-0.04,-0.01,-0.01,0.0,0.05,-153.2,-26.1,-150.2,255.4,3.2,-84.7,1576,2019-05-30 12:12:15:777
9.53,0.22,0.87,9.74,-0.57,0.9,-0.21,-0.04,-0.01,-0.01,0.0,0.05,-153.2,-26.1,-150.2,255.4,3.2,-84.7,1580,2019-05-30 12:12:15:781
9.53,0.22,0.87,9.74,-0.57,0.9,-0.21,-0.04,-0.01,-0.01,0.0,0.05,-153.2,-26.1,-150.2,255.4,3.2,-84.7,1585,2019-05-30 12:12:15:786
9.53,0.22,0.87,9.74,-0.58,0.9,-0.04,0.0,0.05,-0.01,0.0,0.06,-153.2,-26.1,-150.2,255.4,3.2,-84.7,1590,2019-05-30 12:12:15:791
9.53,0.22,0.87,9.74,-0.58,0.9,-0.04,0.0,0.05,-0.01,0.0,0.06,-153.2,-26.1,-150.2,255.4,3.2,-84.7,1595,2019-05-30 12:12:15:796
9.86,0.28,0.95,9.74,-0.58,0.9,-0.04,0.0,0.05,-0.01,0.0,0.06,-153.3,-26.1,-150.4,255.2,3.4,-84.7,1600,2019-05-30 12:12:15:801
9.86,0.28,0.95,9.74,-0.59,0.9,-0.04,0.0,0.05,-0.01,0.0,0.06,-153.3,-26.1,-150.4,255.2,3.4,-84.7,1605,2019-05-30 12:12:15:806
9.86,0.28,0.95,9.74,-0.59,0.9,-0.04,0.0,0.05,-0.01,0.0,0.06,-153.3,-26.1,-150.4,255.2,3.4,-84.7,1611,2019-05-30 12:12:15:812
9.86,0.28,0.95,9.74,-0.59,0.9,-0.04,0.0,0.05,-0.01,0.0,0.06,-153.3,-26.1,-150.4,255.2,3.4,-84.7,1615,2019-05-30 12:12:15:816
9.77,0.34,0.96,9.74,-0.6,0.9,0.01,0.09,0.06,-0.01,0.0,0.06,-152.9,-25.7,-150.9,255.2,3.4,-84.7,1621,2019-05-30 12:12:15:822
9.77,0.34,0.96,9.74,-0.6,0.9,0.01,0.09,0.06,-0.01,0.0,0.06,-152.9,-25.7,-150.9,255.2,3.4,-84.7,1625,2019-05-30 12:12:15:826
9.77,0.34,0.96,9.74,-0.6,0.9,0.01,0.09,0.06,-0.01,0.0,0.06,-152.9,-25.7,-150.9,255.2,3.4,-84.7,1630,2019-05-30 12:12:15:831
9.77,0.34,0.96,9.74,-0.6,0.9,0.01,0.09,0.06,-0.01,0.0,0.06,-152.9,-25.7,-150.9,255.2,3.4,-84.7,1634,2019-05-30 12:12:15:835
9.76,0.29,1.08,9.74,-0.6,0.9,0.01,0.09,0.06,-0.02,0.0,0.07,-152.4,-25.5,-151.2,255.6,3.5,-84.7,1641,2019-05-30 12:12:15:842
9.76,0.29,1.08,9.74,-0.6,0.9,0.01,0.09,0.06,-0.02,0.0,0.07,-152.4,-25.5,-151.2,255.6,3.5,-84.7,1645,2019-05-30 12:12:15:846
9.76,0.29,1.08,9.74,-0.61,0.9,0.0,0.05,0.17,-0.02,0.0,0.07,-152.4,-25.5,-151.2,255.6,3.5,-84.7,1650,2019-05-30 12:12:15:851
9.76,0.29,1.08,9.74,-0.61,0.9,0.0,0.05,0.17,-0.02,0.0,0.07,-152.4,-25.5,-151.2,255.6,3.5,-84.7,1655,2019-05-30 12:12:15:856
9.76,0.29,1.08,9.74,-0.61,0.9,0.0,0.05,0.17,-0.02,0.0,0.07,-152.4,-25.5,-151.2,255.6,3.5,-84.7,1660,2019-05-30 12:12:15:861
9.74,0.16,0.91,9.74,-0.63,0.9,0.0,-0.05,0.0,-0.02,0.0,0.08,-152.3,-25.8,-150.4,255.6,3.5,-84.7,1666,2019-05-30 12:12:15:867
9.74,0.16,0.91,9.74,-0.63,0.9,0.0,-0.05,0.0,-0.02,0.0,0.08,-152.3,-25.8,-150.4,255.6,3.5,-84.7,1670,2019-05-30 12:12:15:871
9.74,0.16,0.91,9.74,-0.63,0.9,0.0,-0.05,0.0,-0.02,0.0,0.08,-152.3,-25.8,-150.4,255.6,3.5,-84.7,1674,2019-05-30 12:12:15:875
9.81,0.16,0.76,9.74,-0.63,0.9,0.0,-0.05,0.0,-0.02,0.0,0.08,-152.7,-26.1,-149.7,254.9,3.7,-84.7,1680,2019-05-30 12:12:15:881
9.81,0.16,0.76,9.74,-0.64,0.9,0.04,-0.02,-0.13,-0.03,0.0,0.08,-152.7,-26.1,-149.7,254.9,3.7,-84.7,1685,2019-05-30 12:12:15:886
9.81,0.16,0.76,9.74,-0.64,0.9,0.04,-0.02,-0.13,-0.03,0.0,0.08,-152.7,-26.1,-149.7,254.9,3.7,-84.7,1690,2019-05-30 12:12:15:891
9.81,0.16,0.76,9.74,-0.64,0.9,0.04,-0.02,-0.13,-0.03,0.0,0.08,-152.7,-26.1,-149.7,254.9,3.7,-84.7,1694,2019-05-30 12:12:15:895
9.74,0.07,0.86,9.74,-0.66,0.9,-0.01,-0.09,-0.03,-0.03,0.0,0.08,-152.9,-25.9,-150.0,254.9,3.7,-84.7,1700,2019-05-30 12:12:15:901
9.74,0.07,0.86,9.74,-0.66,0.9,-0.01,-0.09,-0.03,-0.03,0.0,0.08,-152.9,-25.9,-150.0,254.9,3.7,-84.7,1705,2019-05-30 12:12:15:906
9.74,0.07,0.86,9.74,-0.66,0.9,-0.01,-0.09,-0.03,-0.03,0.0,0.08,-152.9,-25.9,-150.0,254.9,3.7,-84.7,1710,2019-05-30 12:12:15:911
9.74,0.07,0.86,9.74,-0.66,0.9,-0.01,-0.09,-0.03,-0.03,0.0,0.08,-152.9,-25.9,-150.0,254.9,3.7,-84.7,1715,2019-05-30 12:12:15:916
9.74,0.07,0.86,9.74,-0.66,0.9,-0.01,-0.09,-0.03,-0.03,0.0,0.08,-152.9,-25.9,-150.0,254.9,3.7,-84.7,1720,2019-05-30 12:12:15:921
9.74,0.07,0.86,9.74,-0.66,0.9,-0.01,-0.09,-0.03,-0.03,0.0,0.08,-152.9,-25.9,-150.0,254.9,3.7,-84.7,1725,2019-05-30 12:12:15:926
9.78,0.05,0.84,9.74,-0.67,0.9,0.01,-0.07,-0.05,-0.03,0.0,0.08,-152.7,-25.8,-149.9,254.7,3.9,-84.7,1730,2019-05-30 12:12:15:931
9.78,0.05,0.84,9.74,-0.67,0.9,0.01,-0.07,-0.05,-0.03,0.0,0.08,-152.7,-25.8,-149.9,254.7,3.9,-84.7,1735,2019-05-30 12:12:15:936
9.78,0.05,0.84,9.74,-0.67,0.9,0.01,-0.07,-0.05,-0.03,0.0,0.08,-152.7,-25.8,-149.9,254.7,3.9,-84.7,1741,2019-05-30 12:12:15:942
9.77,-0.02,1.05,9.74,-0.69,0.9,-0.01,-0.15,0.03,-0.03,0.0,0.08,-152.9,-25.8,-150.2,254.7,3.9,-84.7,1746,2019-05-30 12:12:15:947
9.77,-0.02,1.05,9.74,-0.69,0.9,-0.01,-0.15,0.03,-0.03,0.0,0.08,-152.9,-25.8,-150.2,254.7,3.9,-84.7,1751,2019-05-30 12:12:15:952
9.77,-0.02,1.05,9.74,-0.69,0.9,-0.01,-0.15,0.03,-0.03,0.0,0.08,-152.9,-25.8,-150.2,254.7,3.9,-84.7,1755,2019-05-30 12:12:15:956
9.77,-0.02,1.05,9.74,-0.69,0.9,-0.01,-0.15,0.03,-0.03,0.0,0.08,-152.9,-25.8,-150.2,254.7,3.9,-84.7,1761,2019-05-30 12:12:15:962
9.85,0.09,0.82,9.73,-0.7,0.9,0.07,0.0,-0.09,-0.02,0.0,0.07,-153.0,-25.8,-150.7,254.7,3.9,-84.7,1768,2019-05-30 12:12:15:969
9.85,0.09,0.82,9.73,-0.7,0.9,0.07,0.0,-0.09,-0.02,0.0,0.07,-153.0,-25.8,-150.7,254.7,3.9,-84.7,1770,2019-05-30 12:12:15:971
9.85,0.09,0.82,9.73,-0.7,0.9,0.07,0.0,-0.09,-0.02,0.0,0.07,-153.0,-25.8,-150.7,254.7,3.9,-84.7,1774,2019-05-30 12:12:15:975
9.85,0.09,0.82,9.73,-0.7,0.9,0.07,0.0,-0.09,-0.02,0.0,0.07,-153.0,-25.8,-150.7,254.7,3.9,-84.7,1782,2019-05-30 12:12:15:983
9.85,0.09,0.82,9.73,-0.7,0.9,0.07,0.0,-0.09,-0.02,0.0,0.07,-153.0,-25.8,-150.7,254.7,3.9,-84.7,1785,2019-05-30 12:12:15:986
9.72,0.16,0.74,9.73,-0.7,0.9,0.07,0.0,-0.09,-0.02,0.0,0.07,-153.0,-25.8,-150.7,254.7,3.9,-84.7,1790,2019-05-30 12:12:15:991
9.72,0.16,0.74,9.73,-0.71,0.9,-0.03,0.07,-0.15,-0.01,0.0,0.07,-152.4,-26.0,-150.5,254.5,4.1,-84.7,1795,2019-05-30 12:12:15:996
9.72,0.16,0.74,9.73,-0.71,0.9,-0.03,0.07,-0.15,-0.01,0.0,0.07,-152.4,-26.0,-150.5,254.5,4.1,-84.7,1800,2019-05-30 12:12:16:001
9.72,0.16,0.74,9.73,-0.71,0.9,-0.03,0.07,-0.15,-0.01,0.0,0.07,-152.4,-26.0,-150.5,254.5,4.1,-84.7,1805,2019-05-30 12:12:16:006
9.8,0.08,0.85,9.73,-0.71,0.9,-0.03,0.07,-0.15,-0.01,0.0,0.07,-152.4,-26.0,-150.5,254.5,4.1,-84.7,1810,2019-05-30 12:12:16:011
9.8,0.08,0.85,9.73,-0.72,0.9,0.04,0.01,-0.02,-0.01,0.0,0.07,-152.3,-25.6,-150.4,254.5,4.1,-84.7,1815,2019-05-30 12:12:16:016
9.8,0.08,0.85,9.73,-0.72,0.9,0.04,0.01,-0.02,-0.01,0.0,0.07,-152.3,-25.6,-150.4,254.5,4.1,-84.7,1820,2019-05-30 12:12:16:021
9.8,0.08,0.85,9.73,-0.72,0.9,0.04,0.01,-0.02,-0.01,0.0,0.07,-152.3,-25.6,-150.4,254.5,4.1,-84.7,1826,2019-05-30 12:12:16:027
9.8,0.08,0.85,9.73,-0.72,0.9,0.04,0.01,-0.02,-0.01,0.0,0.07,-152.3,-25.6,-150.4,254.5,4.1,-84.7,1830,2019-05-30 12:12:16:031
9.8,0.08,0.85,9.73,-0.72,0.9,0.04,0.01,-0.02,-0.01,0.0,0.07,-152.3,-25.6,-150.4,254.5,4.1,-84.7,1835,2019-05-30 12:12:16:036
9.76,0.0,0.91,9.73,-0.74,0.9,0.0,-0.03,0.02,-0.02,0.0,0.08,-153.2,-25.1,-150.4,254.6,4.2,-84.7,1840,2019-05-30 12:12:16:041
9.76,0.0,0.91,9.73,-0.74,0.9,0.0,-0.03,0.02,-0.02,0.0,0.08,-153.2,-25.1,-150.4,254.6,4.2,-84.7,1846,2019-05-30 12:12:16:047
9.76,0.0,0.91,9.73,-0.74,0.9,0.0,-0.03,0.02,-0.02,0.0,0.08,-153.2,-25.1,-150.4,254.6,4.2,-84.7,1850,2019-05-30 12:12:16:051
9.76,0.0,0.91,9.73,-0.74,0.9,0.0,-0.03,0.02,-0.02,0.0,0.08,-153.2,-25.1,-150.4,254.6,4.2,-84.7,1856,2019-05-30 12:12:16:057
9.76,0.0,0.91,9.73,-0.74,0.9,0.0,-0.03,0.02,-0.02,0.0,0.08,-153.2,-25.1,-150.4,254.6,4.2,-84.7,1860,2019-05-30 12:12:16:061
9.75,-0.03,0.9,9.73,-0.77,0.9,-0.01,-0.02,0.0,-0.01,0.0,0.07,-153.0,-25.4,-149.8,254.6,4.2,-84.7,1865,2019-05-30 12:12:16:066
9.75,-0.03,0.9,9.73,-0.77,0.9,-0.01,-0.02,0.0,-0.01,0.0,0.07,-153.0,-25.4,-149.8,254.6,4.2,-84.7,1870,2019-05-30 12:12:16:071
9.75,-0.03,0.9,9.73,-0.77,0.9,-0.01,-0.02,0.0,-0.01,0.0,0.07,-153.0,-25.4,-149.8,254.6,4.2,-84.7,1875,2019-05-30 12:12:16:076
9.78,-0.03,0.83,9.73,-0.77,0.9,-0.01,-0.02,0.0,-0.01,0.0,0.07,-153.0,-25.4,-149.8,254.6,4.2,-84.7,1880,2019-05-30 12:12:16:081
9.78,-0.03,0.83,9.73,-0.78,0.9,0.01,-0.01,-0.05,-0.01,0.0,0.07,-152.9,-24.6,-150.3,254.3,4.5,-84.7,1885,2019-05-30 12:12:16:086
9.78,-0.03,0.83,9.73,-0.78,0.9,0.01,-0.01,-0.05,-0.01,0.0,0.07,-152.9,-24.6,-150.3,254.3,4.5,-84.7,1890,2019-05-30 12:12:16:091
9.78,-0.03,0.83,9.73,-0.78,0.9,0.01,-0.01,-0.05,-0.01,0.0,0.07,-152.9,-24.6,-150.3,254.3,4.5,-84.7,1895,2019-05-30 12:12:16:096
9.78,-0.03,0.83,9.73,-0.78,0.9,0.01,-0.01,-0.05,-0.01,0.0,0.07,-152.9,-24.6,-150.3,254.3,4.5,-84.7,1900,2019-05-30 12:12:16:101
9.78,-0.03,0.83,9.73,-0.78,0.9,0.01,-0.01,-0.05,-0.01,0.0,0.07,-152.9,-24.6,-150.3,254.3,4.5,-84.7,1905,2019-05-30 12:12:16:106
9.79,0.01,0.83,9.73,-0.79,0.9,0.02,0.04,-0.05,-0.01,0.0,0.06,-153.3,-25.4,-150.7,254.3,4.5,-84.7,1909,2019-05-30 12:12:16:110
9.79,0.01,0.83,9.73,-0.79,0.9,0.02,0.04,-0.05,-0.01,0.0,0.06,-153.3,-25.4,-150.7,254.3,4.5,-84.7,1917,2019-05-30 12:12:16:118
9.79,0.01,0.83,9.73,-0.79,0.9,0.02,0.04,-0.05,-0.01,0.0,0.06,-153.3,-25.4,-150.7,254.3,4.5,-84.7,1920,2019-05-30 12:12:16:121
9.79,0.01,0.83,9.73,-0.79,0.9,0.02,0.04,-0.05,-0.01,0.0,0.06,-153.3,-25.4,-150.7,254.3,4.5,-84.7,1925,2019-05-30 12:12:16:126
9.79,0.01,0.83,9.73,-0.79,0.9,0.02,0.04,-0.05,-0.01,0.0,0.06,-153.3,-25.4,-150.7,254.3,4.5,-84.7,1930,2019-05-30 12:12:16:131
9.79,0.01,0.83,9.73,-0.8,0.9,0.01,0.02,-0.03,-0.01,0.0,0.06,-153.3,-25.4,-150.7,254.3,4.5,-84.7,1935,2019-05-30 12:12:16:136
9.79,0.01,0.83,9.73,-0.8,0.9,0.01,0.02,-0.03,-0.01,0.0,0.06,-153.3,-25.4,-150.7,254.3,4.5,-84.7,1940,2019-05-30 12:12:16:141
9.79,0.01,0.83,9.73,-0.8,0.9,0.01,0.02,-0.03,-0.01,0.0,0.06,-153.3,-25.4,-150.7,254.3,4.5,-84.7,1945,2019-05-30 12:12:16:146
9.76,-0.01,0.91,9.73,-0.8,0.9,0.01,0.02,-0.03,-0.01,0.0,0.06,-153.3,-25.4,-150.7,254.3,4.5,-84.7,1950,2019-05-30 12:12:16:151
9.76,-0.01,0.91,9.73,-0.81,0.9,0.0,0.01,0.03,-0.01,0.0,0.06,-152.9,-25.9,-149.9,253.7,4.7,-84.7,1955,2019-05-30 12:12:16:156
9.76,-0.01,0.91,9.73,-0.81,0.9,0.0,0.01,0.03,-0.01,0.0,0.06,-152.9,-25.9,-149.9,253.7,4.7,-84.7,1960,2019-05-30 12:12:16:161
9.76,-0.01,0.91,9.73,-0.81,0.9,0.0,0.01,0.03,-0.01,0.0,0.06,-152.9,-25.9,-149.9,253.7,4.7,-84.7,1966,2019-05-30 12:12:16:167
9.76,-0.01,0.91,9.73,-0.81,0.9,0.0,0.01,0.03,-0.01,0.0,0.06,-152.9,-25.9,-149.9,253.7,4.7,-84.7,1970,2019-05-30 12:12:16:171
9.76,-0.01,0.91,9.73,-0.81,0.9,0.0,0.01,0.03,-0.01,0.0,0.06,-152.9,-25.9,-149.9,253.7,4.7,-84.7,1975,2019-05-30 12:12:16:176
9.76,-0.01,0.91,9.73,-0.81,0.9,0.0,0.01,0.03,-0.01,0.0,0.06,-152.9,-25.9,-149.9,253.7,4.7,-84.7,1980,2019-05-30 12:12:16:181
9.75,-0.08,0.95,9.72,-0.83,0.9,0.0,-0.02,0.07,-0.02,0.0,0.06,-152.5,-25.1,-150.1,253.7,4.7,-84.7,1985,2019-05-30 12:12:16:186
9.75,-0.08,0.95,9.72,-0.83,0.9,0.0,-0.02,0.07,-0.02,0.0,0.06,-152.5,-25.1,-150.1,253.7,4.7,-84.7,1990,2019-05-30 12:12:16:191
9.75,-0.08,0.95,9.72,-0.83,0.9,0.0,-0.02,0.07,-0.02,0.0,0.06,-152.5,-25.1,-150.1,253.7,4.7,-84.7,1995,2019-05-30 12:12:16:196
9.75,-0.14,0.94,9.72,-0.83,0.9,0.0,-0.06,0.04,-0.02,0.0,0.05,-153.2,-25.3,-150.6,254.0,4.9,-84.7,2000,2019-05-30 12:12:16:201
9.75,-0.14,0.94,9.72,-0.84,0.9,0.0,-0.06,0.04,-0.02,0.0,0.05,-153.2,-25.3,-150.6,254.0,4.9,-84.7,2005,2019-05-30 12:12:16:206
9.75,-0.14,0.94,9.72,-0.84,0.9,0.0,-0.06,0.04,-0.02,0.0,0.05,-153.2,-25.3,-150.6,254.0,4.9,-84.7,2010,2019-05-30 12:12:16:211
9.75,-0.14,0.94,9.72,-0.84,0.9,0.0,-0.06,0.04,-0.02,0.0,0.05,-153.2,-25.3,-150.6,254.0,4.9,-84.7,2015,2019-05-30 12:12:16:216
9.79,-0.15,0.95,9.72,-0.85,0.9,0.03,-0.06,0.06,-0.02,0.0,0.05,-153.7,-25.3,-150.8,254.0,4.9,-84.7,2020,2019-05-30 12:12:16:221
9.79,-0.15,0.95,9.72,-0.85,0.9,0.03,-0.06,0.06,-0.02,0.0,0.05,-153.7,-25.3,-150.8,254.0,4.9,-84.7,2025,2019-05-30 12:12:16:226
9.79,-0.15,0.95,9.72,-0.85,0.9,0.03,-0.06,0.06,-0.02,0.0,0.05,-153.7,-25.3,-150.8,254.0,4.9,-84.7,2030,2019-05-30 12:12:16:231
9.79,-0.15,0.95,9.72,-0.85,0.9,0.03,-0.06,0.06,-0.02,0.0,0.05,-153.7,-25.3,-150.8,254.0,4.9,-84.7,2036,2019-05-30 12:12:16:237
9.84,-0.16,0.94,9.72,-0.85,0.9,0.03,-0.06,0.06,-0.02,0.0,0.05,-153.7,-25.3,-150.8,254.0,4.9,-84.7,2040,2019-05-30 12:12:16:241
9.84,-0.16,0.94,9.72,-0.85,0.9,0.07,-0.05,0.05,-0.01,0.0,0.04,-153.1,-25.3,-150.6,253.9,5.0,-84.7,2046,2019-05-30 12:12:16:247
9.84,-0.16,0.94,9.72,-0.85,0.9,0.07,-0.05,0.05,-0.01,0.0,0.04,-153.1,-25.3,-150.6,253.9,5.0,-84.7,2050,2019-05-30 12:12:16:251
9.84,-0.16,0.94,9.72,-0.85,0.9,0.07,-0.05,0.05,-0.01,0.0,0.04,-153.1,-25.3,-150.6,253.9,5.0,-84.7,2055,2019-05-30 12:12:16:256
9.84,-0.16,0.94,9.72,-0.85,0.9,0.07,-0.05,0.05,-0.01,0.0,0.04,-153.1,-25.3,-150.6,253.9,5.0,-84.7,2060,2019-05-30 12:12:16:261
9.78,-0.13,0.94,9.72,-0.86,0.9,0.01,-0.02,0.05,-0.01,0.0,0.03,-153.7,-25.4,-150.4,253.9,5.0,-84.7,2065,2019-05-30 12:12:16:266
9.78,-0.13,0.94,9.72,-0.86,0.9,0.01,-0.02,0.05,-0.01,0.0,0.03,-153.7,-25.4,-150.4,253.9,5.0,-84.7,2070,2019-05-30 12:12:16:271
9.78,-0.13,0.94,9.72,-0.86,0.9,0.01,-0.02,0.05,-0.01,0.0,0.03,-153.7,-25.4,-150.4,253.9,5.0,-84.7,2075,2019-05-30 12:12:16:276
9.78,-0.13,0.94,9.72,-0.86,0.9,0.01,-0.02,0.05,-0.01,0.0,0.03,-153.7,-25.4,-150.4,253.9,5.0,-84.7,2080,2019-05-30 12:12:16:281
9.78,-0.13,0.94,9.72,-0.86,0.9,0.01,-0.02,0.05,-0.01,0.0,0.03,-153.7,-25.4,-150.4,253.9,5.0,-84.7,2085,2019-05-30 12:12:16:286
9.75,-0.14,0.87,9.72,-0.86,0.9,0.01,-0.02,0.05,-0.01,0.0,0.03,-153.7,-25.4,-150.4,253.9,5.0,-84.7,2090,2019-05-30 12:12:16:291
9.75,-0.14,0.87,9.72,-0.87,0.9,-0.01,-0.01,-0.02,-0.01,0.0,0.03,-153.1,-25.3,-149.8,253.7,5.0,-84.7,2095,2019-05-30 12:12:16:296
9.75,-0.14,0.87,9.72,-0.87,0.9,-0.01,-0.01,-0.02,-0.01,0.0,0.03,-153.1,-25.3,-149.8,253.7,5.0,-84.7,2100,2019-05-30 12:12:16:301
9.75,-0.14,0.87,9.72,-0.87,0.9,-0.01,-0.01,-0.02,-0.01,0.0,0.03,-153.1,-25.3,-149.8,253.7,5.0,-84.7,2105,2019-05-30 12:12:16:306
9.75,-0.14,0.87,9.72,-0.87,0.9,-0.01,-0.01,-0.02,-0.01,0.0,0.03,-153.1,-25.3,-149.8,253.7,5.0,-84.7,2110,2019-05-30 12:12:16:311
9.73,-0.07,0.89,9.72,-0.86,0.9,-0.03,0.04,-0.01,0.0,0.0,0.02,-153.2,-25.1,-149.5,253.7,5.0,-84.7,2116,2019-05-30 12:12:16:317
9.73,-0.07,0.89,9.72,-0.86,0.9,-0.03,0.04,-0.01,0.0,0.0,0.02,-153.2,-25.1,-149.5,253.7,5.0,-84.7,2120,2019-05-30 12:12:16:321
9.73,-0.07,0.89,9.72,-0.86,0.9,-0.03,0.04,-0.01,0.0,0.0,0.02,-153.2,-25.1,-149.5,253.7,5.0,-84.7,2125,2019-05-30 12:12:16:326
9.73,-0.07,0.89,9.72,-0.86,0.9,-0.03,0.04,-0.01,0.0,0.0,0.02,-153.2,-25.1,-149.5,253.7,5.0,-84.7,2130,2019-05-30 12:12:16:331
9.73,-0.07,0.89,9.72,-0.86,0.9,-0.03,0.04,-0.01,0.0,0.0,0.02,-153.2,-25.1,-149.5,253.7,5.0,-84.7,2135,2019-05-30 12:12:16:336
9.74,-0.11,0.89,9.72,-0.86,0.9,-0.01,0.0,0.0,-0.01,0.0,0.02,-153.9,-25.3,-149.8,253.7,5.0,-84.7,2140,2019-05-30 12:12:16:341
9.74,-0.11,0.89,9.72,-0.86,0.9,-0.01,0.0,0.0,-0.01,0.0,0.02,-153.9,-25.3,-149.8,253.7,5.0,-84.7,2145,2019-05-30 12:12:16:346
9.74,-0.11,0.89,9.72,-0.86,0.9,-0.01,0.0,0.0,-0.01,0.0,0.02,-153.9,-25.3,-149.8,253.7,5.0,-84.7,2150,2019-05-30 12:12:16:351
9.74,-0.11,0.89,9.72,-0.86,0.9,-0.01,0.0,0.0,-0.01,0.0,0.02,-153.9,-25.3,-149.8,253.7,5.0,-84.7,2156,2019-05-30 12:12:16:357
9.75,-0.1,0.84,9.72,-0.86,0.9,-0.01,0.0,0.0,0.0,0.0,0.01,-153.7,-25.3,-150.8,253.7,5.0,-84.7,2159,2019-05-30 12:12:16:360
9.75,-0.1,0.84,9.72,-0.86,0.9,-0.01,0.01,-0.05,0.0,0.0,0.01,-153.7,-25.3,-150.8,253.7,5.0,-84.7,2164,2019-05-30 12:12:16:365
9.75,-0.1,0.84,9.72,-0.86,0.9,-0.01,0.01,-0.05,0.0,0.0,0.01,-153.7,-25.3,-150.8,253.7,5.0,-84.7,2170,2019-05-30 12:12:16:371
9.75,-0.1,0.84,9.72,-0.86,0.9,-0.01,0.01,-0.05,0.0,0.0,0.01,-153.4,-25.3,-150.7,253.7,5.0,-84.7,2175,2019-05-30 12:12:16:376
9.75,-0.1,0.84,9.72,-0.85,0.9,0.02,0.04,0.0,0.0,0.0,0.01,-153.4,-25.3,-150.7,253.7,5.0,-84.7,2180,2019-05-30 12:12:16:381
9.75,-0.1,0.84,9.72,-0.85,0.9,0.02,0.04,0.0,0.0,0.0,0.01,-153.4,-25.3,-150.7,253.7,5.0,-84.7,2185,2019-05-30 12:12:16:386
9.82,-0.06,0.87,9.72,-0.85,0.9,0.04,0.04,-0.02,0.0,0.0,0.01,-153.4,-25.4,-150.1,253.8,5.0,-84.7,2190,2019-05-30 12:12:16:391
9.82,-0.06,0.87,9.72,-0.85,0.9,0.04,0.04,-0.02,0.0,0.0,0.01,-153.4,-25.4,-150.1,253.8,5.0,-84.7,2195,2019-05-30 12:12:16:396
9.82,-0.06,0.87,9.72,-0.85,0.9,0.04,0.04,-0.02,0.0,0.0,0.01,-153.4,-25.4,-150.1,253.8,5.0,-84.7,2200,2019-05-30 12:12:16:401
9.82,-0.06,0.87,9.72,-0.85,0.9,0.04,0.04,-0.02,0.0,0.0,0.01,-153.4,-25.4,-150.1,253.8,5.0,-84.7,2205,2019-05-30 12:12:16:406
9.79,0.0,0.87,9.72,-0.85,0.9,0.01,0.07,-0.02,0.0,0.0,0.01,-153.1,-25.5,-150.7,253.8,5.0,-84.7,2211,2019-05-30 12:12:16:412
9.79,0.0,0.87,9.72,-0.85,0.9,0.01,0.07,-0.02,0.0,0.0,0.01,-153.1,-25.5,-150.7,253.8,5.0,-84.7,2215,2019-05-30 12:12:16:416
9.79,0.0,0.87,9.72,-0.85,0.9,0.01,0.07,-0.02,0.0,0.0,0.01,-153.1,-25.5,-150.7,253.8,5.0,-84.7,2220,2019-05-30 12:12:16:421
9.79,0.0,0.87,9.72,-0.85,0.9,0.01,0.07,-0.02,0.0,0.0,0.01,-153.1,-25.5,-150.7,253.8,5.0,-84.7,2225,2019-05-30 12:12:16:426
9.79,-0.02,0.85,9.72,-0.85,0.9,0.02,0.04,-0.03,0.0,0.0,0.01,-153.1,-25.2,-150.8,253.9,5.0,-84.7,2230,2019-05-30 12:12:16:431
9.79,-0.02,0.85,9.72,-0.85,0.9,0.02,0.04,-0.03,0.0,0.0,0.01,-153.1,-25.2,-150.8,253.9,5.0,-84.7,2236,2019-05-30 12:12:16:437
9.79,-0.02,0.85,9.72,-0.85,0.9,0.02,0.04,-0.03,0.0,0.0,0.01,-153.1,-25.2,-150.8,253.9,5.0,-84.7,2244,2019-05-30 12:12:16:445
9.76,-0.03,0.89,9.72,-0.85,0.9,0.0,0.01,0.0,0.0,0.0,0.01,-153.2,-24.8,-150.5,253.9,5.0,-84.7,2251,2019-05-30 12:12:16:452
9.76,-0.03,0.89,9.72,-0.85,0.9,0.0,0.01,0.0,0.0,0.0,0.01,-153.2,-24.8,-150.5,253.9,5.0,-84.7,2252,2019-05-30 12:12:16:453
9.76,-0.03,0.89,9.72,-0.85,0.9,0.0,0.01,0.0,0.0,0.0,0.01,-153.2,-24.8,-150.5,253.9,5.0,-84.7,2256,2019-05-30 12:12:16:457
9.76,-0.03,0.89,9.72,-0.85,0.9,0.0,0.01,0.0,0.0,0.0,0.01,-153.2,-24.8,-150.5,253.9,5.0,-84.7,2263,2019-05-30 12:12:16:464
9.76,-0.03,0.89,9.72,-0.85,0.9,0.0,0.01,0.0,0.0,0.0,0.01,-153.2,-24.8,-150.5,253.9,5.0,-84.7,2266,2019-05-30 12:12:16:467
9.77,-0.07,0.94,9.72,-0.84,0.9,0.0,-0.02,0.05,0.0,0.0,0.01,-152.7,-24.8,-150.7,253.9,5.0,-84.7,2270,2019-05-30 12:12:16:471
9.77,-0.07,0.94,9.72,-0.84,0.9,0.0,-0.02,0.05,0.0,0.0,0.01,-152.7,-24.8,-150.7,253.9,5.0,-84.7,2276,2019-05-30 12:12:16:477
9.77,-0.07,0.94,9.72,-0.84,0.9,0.0,-0.02,0.05,0.0,0.0,0.01,-152.7,-24.8,-150.7,253.9,5.0,-84.7,2280,2019-05-30 12:12:16:481
9.77,-0.07,0.94,9.72,-0.84,0.9,0.0,-0.02,0.05,0.0,0.0,0.01,-152.7,-24.8,-150.7,253.9,5.0,-84.7,2285,2019-05-30 12:12:16:486
9.77,-0.11,0.82,9.72,-0.84,0.9,0.0,-0.02,0.05,0.0,0.0,0.01,-152.7,-24.8,-150.7,253.9,5.0,-84.7,2292,2019-05-30 12:12:16:493
9.77,-0.11,0.82,9.72,-0.84,0.9,0.0,-0.06,-0.05,0.0,0.0,0.01,-152.7,-25.4,-150.5,253.9,5.0,-84.7,2295,2019-05-30 12:12:16:496
9.77,-0.11,0.82,9.72,-0.84,0.9,0.0,-0.06,-0.05,0.0,0.0,0.01,-152.7,-25.4,-150.5,253.9,5.0,-84.7,2300,2019-05-30 12:12:16:501
9.77,-0.11,0.82,9.72,-0.84,0.9,0.0,-0.06,-0.05,0.0,0.0,0.01,-152.7,-25.4,-150.5,253.9,5.0,-84.7,2306,2019-05-30 12:12:16:507
9.77,-0.11,0.82,9.72,-0.84,0.9,0.0,-0.06,-0.05,0.0,0.0,0.01,-152.7,-25.4,-150.5,253.9,5.0,-84.7,2311,2019-05-30 12:12:16:512
9.77,-0.11,0.82,9.72,-0.84,0.9,0.0,-0.06,-0.05,0.0,0.0,0.01,-152.7,-25.4,-150.5,253.9,5.0,-84.7,2317,2019-05-30 12:12:16:518
9.76,-0.03,0.91,9.72,-0.84,0.9,-0.01,0.0,0.03,0.0,0.0,0.01,-152.9,-25.6,-150.2,253.5,4.9,-84.7,2321,2019-05-30 12:12:16:522
9.76,-0.03,0.91,9.72,-0.84,0.9,-0.01,0.0,0.03,0.0,0.0,0.01,-152.9,-25.6,-150.2,253.5,4.9,-84.7,2325,2019-05-30 12:12:16:526
9.76,-0.03,0.91,9.72,-0.84,0.9,-0.01,0.0,0.03,0.0,0.0,0.01,-152.9,-25.6,-150.2,253.5,4.9,-84.7,2330,2019-05-30 12:12:16:531
9.76,-0.03,0.91,9.72,-0.83,0.9,-0.04,0.02,0.03,0.0,0.0,0.01,-153.2,-25.1,-150.5,253.5,4.9,-84.7,2335,2019-05-30 12:12:16:536
9.76,-0.03,0.91,9.72,-0.83,0.9,-0.04,0.02,0.03,0.0,0.0,0.01,-153.2,-25.1,-150.5,253.5,4.9,-84.7,2340,2019-05-30 12:12:16:541
9.76,-0.03,0.91,9.72,-0.83,0.9,-0.04,0.02,0.03,0.0,0.0,0.01,-153.2,-25.1,-150.5,253.5,4.9,-84.7,2346,2019-05-30 12:12:16:547
9.76,-0.03,0.91,9.72,-0.83,0.9,-0.04,0.02,0.03,0.0,0.0,0.01,-153.2,-25.1,-150.5,253.5,4.9,-84.7,2350,2019-05-30 12:12:16:551
9.74,-0.02,0.87,9.72,-0.83,0.9,-0.03,0.0,0.0,0.0,0.0,0.01,-153.4,-25.1,-150.5,253.5,4.9,-84.7,2355,2019-05-30 12:12:16:556
9.74,-0.02,0.87,9.72,-0.83,0.9,-0.03,0.0,0.0,0.0,0.0,0.01,-153.4,-25.1,-150.5,253.5,4.9,-84.7,2360,2019-05-30 12:12:16:561
9.74,-0.02,0.87,9.72,-0.83,0.9,-0.03,0.0,0.0,0.0,0.0,0.01,-153.4,-25.1,-150.5,253.5,4.9,-84.7,2365,2019-05-30 12:12:16:566
9.74,-0.02,0.87,9.72,-0.83,0.9,-0.03,0.0,0.0,0.0,0.0,0.01,-153.4,-25.1,-150.5,253.5,4.9,-84.7,2370,2019-05-30 12:12:16:571
9.74,-0.02,0.87,9.72,-0.83,0.9,-0.03,0.0,0.0,0.0,0.0,0.01,-153.4,-25.1,-150.5,253.5,4.9,-84.7,2375,2019-05-30 12:12:16:576
9.76,-0.02,0.9,9.72,-0.83,0.9,-0.03,0.0,0.0,0.0,0.0,0.01,-153.4,-25.1,-150.5,253.5,4.9,-84.7,2380,2019-05-30 12:12:16:581
9.76,-0.02,0.9,9.72,-0.83,0.9,0.0,0.01,0.01,0.0,0.0,0.01,-153.1,-24.9,-150.7,254.0,4.9,-84.7,2385,2019-05-30 12:12:16:586
9.78,0.0,0.85,9.72,-0.83,0.9,0.0,0.01,0.01,0.0,0.0,0.01,-153.1,-24.9,-150.7,254.0,4.9,-84.7,2397,2019-05-30 12:12:16:598
9.78,0.0,0.85,9.72,-0.83,0.9,0.0,0.01,0.01,0.0,0.0,0.01,-153.1,-24.9,-150.7,254.0,4.9,-84.7,2398,2019-05-30 12:12:16:599
9.78,0.0,0.85,9.72,-0.83,0.9,0.0,0.01,0.01,0.0,0.0,0.01,-153.1,-24.9,-150.7,254.0,4.9,-84.7,2400,2019-05-30 12:12:16:601
9.78,0.0,0.85,9.72,-0.83,0.9,0.0,0.01,0.01,0.0,0.0,0.01,-153.1,-24.9,-150.7,254.0,4.9,-84.7,2407,2019-05-30 12:12:16:608
9.8,-0.03,0.86,9.72,-0.83,0.9,0.03,0.0,-0.01,0.0,0.0,0.01,-152.7,-25.3,-150.6,254.0,4.9,-84.7,2416,2019-05-30 12:12:16:617
9.8,-0.03,0.86,9.72,-0.83,0.9,0.03,0.0,-0.01,0.0,0.0,0.01,-152.7,-25.3,-150.6,254.0,4.9,-84.7,2416,2019-05-30 12:12:16:617
9.8,-0.03,0.86,9.72,-0.83,0.9,0.03,0.0,-0.01,0.0,0.0,0.01,-152.7,-25.3,-150.6,254.0,4.9,-84.7,2420,2019-05-30 12:12:16:621
9.8,-0.03,0.86,9.72,-0.83,0.9,0.03,0.0,-0.01,0.0,0.0,0.01,-152.7,-25.3,-150.6,254.0,4.9,-84.7,2425,2019-05-30 12:12:16:626
9.71,-0.01,0.95,9.72,-0.82,0.9,-0.04,0.01,0.06,0.0,0.0,0.01,-153.7,-24.8,-150.2,253.9,4.9,-84.7,2431,2019-05-30 12:12:16:632
9.71,-0.01,0.95,9.72,-0.82,0.9,-0.04,0.01,0.06,0.0,0.0,0.01,-153.7,-24.8,-150.2,253.9,4.9,-84.7,2435,2019-05-30 12:12:16:636
9.71,-0.01,0.95,9.72,-0.82,0.9,-0.04,0.01,0.06,0.0,0.0,0.01,-153.7,-24.8,-150.2,253.9,4.9,-84.7,2440,2019-05-30 12:12:16:641
9.71,-0.01,0.95,9.72,-0.82,0.9,-0.04,0.01,0.06,0.0,0.0,0.01,-153.7,-24.8,-150.2,253.9,4.9,-84.7,2446,2019-05-30 12:12:16:647
9.75,-0.02,0.89,9.72,-0.82,0.9,-0.04,0.01,0.06,0.0,0.0,0.01,-153.7,-24.8,-150.2,253.9,4.9,-84.7,2450,2019-05-30 12:12:16:651
9.75,-0.02,0.89,9.73,-0.82,0.9,-0.01,0.0,0.0,0.0,0.0,0.01,-153.4,-25.0,-150.4,253.9,4.9,-84.7,2457,2019-05-30 12:12:16:658
9.75,-0.02,0.89,9.73,-0.82,0.9,-0.01,0.0,0.0,0.0,0.0,0.01,-153.4,-25.0,-150.4,253.9,4.9,-84.7,2460,2019-05-30 12:12:16:661
9.75,-0.02,0.89,9.73,-0.82,0.9,-0.01,0.0,0.0,0.0,0.0,0.01,-153.4,-25.0,-150.4,253.9,4.9,-84.7,2465,2019-05-30 12:12:16:666
9.78,-0.02,0.86,9.73,-0.82,0.9,0.01,0.0,-0.03,0.0,0.0,0.01,-152.6,-25.0,-150.6,254.1,4.8,-84.7,2470,2019-05-30 12:12:16:671
9.78,-0.02,0.86,9.73,-0.82,0.9,0.01,0.0,-0.03,0.0,0.0,0.01,-152.6,-25.0,-150.6,254.1,4.8,-84.7,2475,2019-05-30 12:12:16:676
9.78,-0.02,0.86,9.73,-0.82,0.9,0.01,0.0,-0.03,0.0,0.0,0.01,-152.6,-25.0,-150.6,254.1,4.8,-84.7,2480,2019-05-30 12:12:16:681
9.78,-0.02,0.86,9.73,-0.82,0.9,0.01,0.0,-0.03,0.0,0.0,0.01,-152.6,-25.0,-150.6,254.1,4.8,-84.7,2485,2019-05-30 12:12:16:686
9.75,0.0,0.88,9.73,-0.82,0.9,0.01,0.0,-0.03,0.0,0.0,0.01,-152.6,-25.0,-150.6,254.1,4.8,-84.7,2489,2019-05-30 12:12:16:690
9.75,0.0,0.88,9.73,-0.82,0.9,0.01,0.0,-0.03,0.0,0.0,0.01,-152.6,-25.0,-150.6,254.1,4.8,-84.7,2496,2019-05-30 12:12:16:697
9.75,0.0,0.88,9.73,-0.82,0.9,-0.01,0.0,-0.01,0.0,0.0,0.01,-152.9,-25.4,-150.1,254.1,4.8,-84.7,2500,2019-05-30 12:12:16:701
9.75,0.0,0.88,9.73,-0.82,0.9,-0.01,0.0,-0.01,0.0,0.0,0.01,-152.9,-25.4,-150.1,254.1,4.8,-84.7,2505,2019-05-30 12:12:16:706
9.75,0.0,0.88,9.73,-0.82,0.9,-0.01,0.0,-0.01,0.0,0.0,0.01,-152.9,-25.4,-150.1,254.1,4.8,-84.7,2510,2019-05-30 12:12:16:711
9.75,0.0,0.87,9.73,-0.81,0.9,0.0,0.0,-0.02,0.0,0.0,0.0,-153.2,-25.7,-150.5,253.7,4.8,-84.7,2516,2019-05-30 12:12:16:717
9.75,0.0,0.87,9.73,-0.81,0.9,0.0,0.0,-0.02,0.0,0.0,0.0,-153.2,-25.7,-150.5,253.7,4.8,-84.7,2520,2019-05-30 12:12:16:721
9.75,0.0,0.87,9.73,-0.81,0.9,0.0,0.0,-0.02,0.0,0.0,0.0,-153.2,-25.7,-150.5,253.7,4.8,-84.7,2525,2019-05-30 12:12:16:726
9.73,0.03,0.95,9.73,-0.81,0.9,0.0,0.0,-0.02,0.0,0.0,0.0,-153.5,-25.6,-150.9,253.7,4.8,-84.7,2531,2019-05-30 12:12:16:732
9.73,0.03,0.95,9.73,-0.81,0.9,-0.03,0.04,0.05,0.0,0.0,0.0,-153.5,-25.6,-150.9,253.7,4.8,-84.7,2536,2019-05-30 12:12:16:737
9.73,0.03,0.95,9.73,-0.81,0.9,-0.03,0.04,0.05,0.0,0.0,0.0,-153.5,-25.6,-150.9,253.7,4.8,-84.7,2541,2019-05-30 12:12:16:742
9.73,0.03,0.95,9.73,-0.81,0.9,-0.03,0.04,0.05,0.0,0.0,0.0,-153.5,-25.6,-150.9,253.7,4.8,-84.7,2545,2019-05-30 12:12:16:746
9.76,-0.05,0.9,9.73,-0.81,0.9,0.0,-0.04,0.0,0.0,0.0,0.0,-152.9,-25.5,-150.7,254.2,4.7,-84.7,2550,2019-05-30 12:12:16:751
9.76,-0.05,0.9,9.73,-0.81,0.9,0.0,-0.04,0.0,0.0,0.0,0.0,-152.9,-25.5,-150.7,254.2,4.7,-84.7,2556,2019-05-30 12:12:16:757
9.76,-0.05,0.9,9.73,-0.81,0.9,0.0,-0.04,0.0,0.0,0.0,0.0,-152.9,-25.5,-150.7,254.2,4.7,-84.7,2560,2019-05-30 12:12:16:761
9.76,-0.05,0.9,9.73,-0.81,0.9,0.0,-0.04,0.0,0.0,0.0,0.0,-152.9,-25.5,-150.7,254.2,4.7,-84.7,2565,2019-05-30 12:12:16:766
9.76,-0.03,0.87,9.73,-0.81,0.9,0.0,-0.02,-0.02,0.0,0.0,0.0,-153.0,-25.0,-150.8,254.2,4.7,-84.7,2570,2019-05-30 12:12:16:771
9.76,-0.03,0.87,9.73,-0.81,0.9,0.0,-0.02,-0.02,0.0,0.0,0.0,-153.0,-25.0,-150.8,254.2,4.7,-84.7,2575,2019-05-30 12:12:16:776
9.76,-0.03,0.87,9.73,-0.81,0.9,0.0,-0.02,-0.02,0.0,0.0,0.0,-153.0,-25.0,-150.8,254.2,4.7,-84.7,2581,2019-05-30 12:12:16:782
9.76,-0.03,0.87,9.73,-0.81,0.9,0.0,-0.02,-0.02,0.0,0.0,0.0,-153.0,-25.0,-150.8,254.2,4.7,-84.7,2586,2019-05-30 12:12:16:787
9.77,-0.02,0.91,9.73,-0.81,0.9,0.0,-0.02,-0.02,0.0,0.0,0.0,-153.0,-25.0,-150.8,254.2,4.7,-84.7,2590,2019-05-30 12:12:16:791
9.77,-0.02,0.91,9.73,-0.81,0.9,0.0,-0.02,-0.02,0.0,0.0,0.0,-153.0,-25.0,-150.8,254.2,4.7,-84.7,2594,2019-05-30 12:12:16:795
9.74,-0.05,0.91,9.73,-0.8,0.9,0.0,-0.02,-0.04,0.0,0.0,0.0,-153.2,-24.8,-150.2,254.1,4.7,-84.7,2602,2019-05-30 12:12:16:803
9.74,-0.05,0.91,9.73,-0.8,0.9,0.0,-0.02,-0.04,0.0,0.0,0.0,-153.2,-24.8,-150.2,254.1,4.7,-84.7,2605,2019-05-30 12:12:16:806
9.74,-0.05,0.91,9.73,-0.8,0.9,0.0,-0.02,-0.04,0.0,0.0,0.0,-153.2,-24.8,-150.2,254.1,4.7,-84.7,2610,2019-05-30 12:12:16:811
9.74,-0.05,0.91,9.73,-0.8,0.9,0.0,-0.02,-0.04,0.0,0.0,0.0,-153.2,-24.8,-150.2,254.1,4.7,-84.7,2615,2019-05-30 12:12:16:816
9.74,-0.05,0.91,9.73,-0.8,0.9,0.0,-0.02,-0.04,0.0,0.0,0.0,-153.2,-24.8,-150.2,254.1,4.7,-84.7,2620,2019-05-30 12:12:16:821
9.74,-0.05,0.91,9.73,-0.8,0.9,0.0,-0.02,-0.04,0.0,0.0,0.0,-153.2,-24.8,-150.2,254.1,4.7,-84.7,2625,2019-05-30 12:12:16:826
9.76,-0.04,0.86,9.73,-0.8,0.9,0.0,-0.02,-0.03,0.0,0.0,0.0,-153.1,-25.2,-150.2,254.1,4.7,-84.7,2630,2019-05-30 12:12:16:831
9.76,-0.04,0.86,9.73,-0.8,0.9,0.0,-0.02,-0.03,0.0,0.0,0.0,-153.1,-25.2,-150.2,254.1,4.7,-84.7,2636,2019-05-30 12:12:16:837
9.76,-0.04,0.86,9.73,-0.8,0.9,0.0,-0.02,-0.03,0.0,0.0,0.0,-153.1,-25.2,-150.2,254.1,4.7,-84.7,2641,2019-05-30 12:12:16:842
9.75,0.08,0.87,9.73,-0.8,0.9,0.0,0.09,-0.01,0.0,0.0,0.0,-153.5,-25.7,-150.5,253.8,4.7,-84.7,2645,2019-05-30 12:12:16:846
9.75,0.08,0.87,9.73,-0.8,0.9,0.0,0.09,-0.01,0.0,0.0,0.0,-153.5,-25.7,-150.5,253.8,4.7,-84.7,2650,2019-05-30 12:12:16:851
9.75,0.08,0.87,9.73,-0.8,0.9,0.0,0.09,-0.01,0.0,0.0,0.0,-153.5,-25.7,-150.5,253.8,4.7,-84.7,2656,2019-05-30 12:12:16:857
9.75,0.08,0.87,9.73,-0.8,0.9,0.0,0.09,-0.01,0.0,0.0,0.0,-153.5,-25.7,-150.5,253.8,4.7,-84.7,2660,2019-05-30 12:12:16:861
9.75,0.04,0.85,9.73,-0.8,0.9,0.0,0.04,-0.03,0.0,0.0,0.0,-153.5,-25.7,-150.7,253.8,4.7,-84.7,2665,2019-05-30 12:12:16:866
9.75,0.04,0.85,9.73,-0.8,0.9,0.0,0.04,-0.03,0.0,0.0,0.0,-153.5,-25.7,-150.7,253.8,4.7,-84.7,2670,2019-05-30 12:12:16:871
9.75,0.04,0.85,9.73,-0.8,0.9,0.0,0.04,-0.03,0.0,0.0,0.0,-153.5,-25.7,-150.7,253.8,4.7,-84.7,2675,2019-05-30 12:12:16:876
9.75,0.04,0.85,9.73,-0.8,0.9,0.0,0.04,-0.03,0.0,0.0,0.0,-153.5,-25.7,-150.7,253.8,4.7,-84.7,2680,2019-05-30 12:12:16:881
9.75,0.04,0.85,9.73,-0.8,0.9,0.0,0.04,-0.03,0.0,0.0,0.0,-153.5,-25.7,-150.7,253.8,4.7,-84.7,2685,2019-05-30 12:12:16:886
9.74,0.08,0.9,9.73,-0.8,0.9,0.0,0.04,-0.03,0.0,0.0,0.0,-153.6,-25.7,-150.9,253.8,4.7,-84.7,2690,2019-05-30 12:12:16:891
9.74,0.08,0.9,9.73,-0.79,0.9,-0.01,0.07,0.01,0.0,0.0,0.0,-153.6,-25.7,-150.9,253.8,4.7,-84.7,2695,2019-05-30 12:12:16:896
9.74,0.08,0.9,9.73,-0.79,0.9,-0.01,0.07,0.01,0.0,0.0,0.0,-153.6,-25.7,-150.9,253.8,4.7,-84.7,2700,2019-05-30 12:12:16:901
9.74,0.08,0.9,9.73,-0.79,0.9,-0.01,0.07,0.01,0.0,0.0,0.0,-153.6,-25.7,-150.9,253.8,4.7,-84.7,2706,2019-05-30 12:12:16:907
9.74,0.08,0.9,9.73,-0.79,0.9,-0.01,0.07,0.01,0.0,0.0,0.0,-153.6,-25.7,-150.9,253.8,4.7,-84.7,2710,2019-05-30 12:12:16:911
9.79,0.13,0.87,9.73,-0.79,0.9,0.03,0.11,-0.01,0.0,0.0,0.0,-153.6,-25.4,-150.9,253.8,4.7,-84.7,2717,2019-05-30 12:12:16:918
9.79,0.13,0.87,9.73,-0.79,0.9,0.03,0.11,-0.01,0.0,0.0,0.0,-153.6,-25.4,-150.9,253.8,4.7,-84.7,2720,2019-05-30 12:12:16:921
9.79,0.13,0.87,9.73,-0.79,0.9,0.03,0.11,-0.01,0.0,0.0,0.0,-153.6,-25.4,-150.9,253.8,4.7,-84.7,2725,2019-05-30 12:12:16:926
9.79,0.13,0.87,9.73,-0.79,0.9,0.0,0.1,0.0,0.0,0.0,0.01,-153.7,-25.7,-149.8,253.8,4.6,-84.7,2731,2019-05-30 12:12:16:932
9.79,0.13,0.87,9.73,-0.79,0.9,0.0,0.1,0.0,0.0,0.0,0.01,-153.7,-25.7,-149.8,253.8,4.6,-84.7,2735,2019-05-30 12:12:16:936
9.79,0.13,0.87,9.73,-0.79,0.9,0.0,0.1,0.0,0.0,0.0,0.01,-153.7,-25.7,-149.8,253.8,4.6,-84.7,2745,2019-05-30 12:12:16:946
9.79,0.13,0.87,9.73,-0.79,0.9,0.0,0.1,0.0,0.0,0.0,0.01,-153.7,-25.7,-149.8,253.8,4.6,-84.7,2746,2019-05-30 12:12:16:947
9.74,0.09,0.87,9.73,-0.79,0.9,-0.02,0.04,-0.01,0.0,0.0,0.01,-153.8,-25.4,-150.0,253.8,4.6,-84.7,2750,2019-05-30 12:12:16:951
9.74,0.09,0.87,9.73,-0.79,0.9,-0.02,0.04,-0.01,0.0,0.0,0.01,-153.8,-25.4,-150.0,253.8,4.6,-84.7,2756,2019-05-30 12:12:16:957
9.74,0.09,0.87,9.73,-0.79,0.9,-0.02,0.04,-0.01,0.0,0.0,0.01,-153.8,-25.4,-150.0,253.8,4.6,-84.7,2761,2019-05-30 12:12:16:962
9.78,0.02,0.89,9.73,-0.78,0.9,0.01,-0.03,0.0,0.0,0.0,0.01,-153.5,-25.3,-150.7,254.3,4.6,-84.7,2766,2019-05-30 12:12:16:967
9.78,0.02,0.89,9.73,-0.78,0.9,0.01,-0.03,0.0,0.0,0.0,0.01,-153.5,-25.3,-150.7,254.3,4.6,-84.7,2770,2019-05-30 12:12:16:971
9.78,0.02,0.89,9.73,-0.78,0.9,0.01,-0.03,0.0,0.0,0.0,0.01,-153.5,-25.3,-150.7,254.3,4.6,-84.7,2775,2019-05-30 12:12:16:976
9.78,0.02,0.89,9.73,-0.78,0.9,0.01,-0.03,0.0,0.0,0.0,0.01,-153.5,-25.3,-150.7,254.3,4.6,-84.7,2780,2019-05-30 12:12:16:981
9.77,0.0,0.92,9.73,-0.78,0.9,0.01,-0.03,0.0,-0.01,0.0,0.02,-153.1,-26.2,-151.4,254.3,4.6,-84.7,2786,2019-05-30 12:12:16:987
9.77,0.0,0.92,9.73,-0.78,0.9,0.0,-0.06,0.03,-0.01,0.0,0.02,-153.1,-26.2,-151.4,254.3,4.6,-84.7,2790,2019-05-30 12:12:16:991
9.77,0.0,0.92,9.73,-0.78,0.9,0.0,-0.06,0.03,-0.01,0.0,0.02,-153.1,-26.2,-151.4,254.3,4.6,-84.7,2795,2019-05-30 12:12:16:996
9.76,-0.02,0.87,9.73,-0.78,0.9,0.0,-0.06,0.03,0.0,0.0,0.02,-153.1,-26.2,-151.4,254.3,4.6,-84.7,2800,2019-05-30 12:12:17:001
9.76,-0.02,0.87,9.73,-0.78,0.9,0.0,-0.08,-0.01,0.0,0.0,0.02,-153.3,-26.2,-151.0,254.0,4.6,-84.7,2805,2019-05-30 12:12:17:006
9.76,-0.02,0.87,9.73,-0.78,0.9,0.0,-0.08,-0.01,0.0,0.0,0.02,-153.3,-26.2,-151.0,254.0,4.6,-84.7,2810,2019-05-30 12:12:17:011
9.76,-0.02,0.87,9.73,-0.78,0.9,0.0,-0.08,-0.01,0.0,0.0,0.02,-153.3,-26.2,-151.0,254.0,4.6,-84.7,2815,2019-05-30 12:12:17:016
9.78,-0.03,0.87,9.73,-0.78,0.9,0.0,-0.08,-0.01,0.0,0.0,0.02,-153.2,-26.1,-150.7,254.0,4.6,-84.7,2820,2019-05-30 12:12:17:021
9.78,-0.03,0.87,9.73,-0.78,0.9,0.01,-0.09,-0.01,0.0,0.0,0.02,-153.2,-26.1,-150.7,254.0,4.6,-84.7,2825,2019-05-30 12:12:17:026
9.78,-0.03,0.87,9.73,-0.78,0.9,0.01,-0.09,-0.01,0.0,0.0,0.02,-153.2,-26.1,-150.7,254.0,4.6,-84.7,2830,2019-05-30 12:12:17:031
9.78,-0.03,0.87,9.73,-0.78,0.9,0.01,-0.09,-0.01,0.0,0.0,0.02,-153.2,-26.1,-150.7,254.0,4.6,-84.7,2835,2019-05-30 12:12:17:036
9.78,-0.03,0.87,9.73,-0.78,0.9,0.01,-0.09,-0.01,0.0,0.0,0.02,-153.2,-26.1,-150.7,254.0,4.6,-84.7,2840,2019-05-30 12:12:17:041
9.78,-0.03,0.87,9.73,-0.78,0.9,0.01,-0.09,-0.01,0.0,0.0,0.02,-153.2,-26.1,-150.7,254.0,4.6,-84.7,2847,2019-05-30 12:12:17:048
9.74,-0.08,0.9,9.73,-0.77,0.9,-0.02,-0.14,0.0,0.0,0.0,0.01,-153.2,-26.0,-150.1,253.9,4.6,-84.7,2851,2019-05-30 12:12:17:052
9.74,-0.08,0.9,9.73,-0.77,0.9,-0.02,-0.14,0.0,0.0,0.0,0.01,-153.2,-26.0,-150.1,253.9,4.6,-84.7,2855,2019-05-30 12:12:17:056
9.74,-0.08,0.9,9.73,-0.77,0.9,-0.02,-0.14,0.0,0.0,0.0,0.01,-153.2,-26.0,-150.1,253.9,4.6,-84.7,2860,2019-05-30 12:12:17:061
9.74,-0.08,0.9,9.73,-0.77,0.9,-0.02,-0.14,0.0,0.0,0.0,0.01,-153.2,-26.0,-150.1,253.9,4.6,-84.7,2865,2019-05-30 12:12:17:066
9.74,-0.08,0.9,9.73,-0.77,0.9,-0.02,-0.14,0.0,0.0,0.0,0.01,-153.2,-26.0,-150.1,253.9,4.6,-84.7,2870,2019-05-30 12:12:17:071
9.78,-0.05,0.93,9.73,-0.77,0.9,0.0,-0.09,0.04,0.0,0.0,0.0,-153.1,-25.7,-149.8,253.9,4.6,-84.7,2876,2019-05-30 12:12:17:077
9.78,-0.05,0.93,9.73,-0.77,0.9,0.0,-0.09,0.04,0.0,0.0,0.0,-153.1,-25.7,-149.8,253.9,4.6,-84.7,2880,2019-05-30 12:12:17:081
9.78,-0.05,0.93,9.73,-0.77,0.9,0.0,-0.09,0.04,0.0,0.0,0.0,-153.1,-25.7,-149.8,253.9,4.6,-84.7,2885,2019-05-30 12:12:17:086
9.76,-0.07,0.91,9.73,-0.77,0.9,-0.01,-0.08,0.02,0.0,0.0,0.0,-153.2,-26.0,-149.9,253.9,4.5,-84.7,2890,2019-05-30 12:12:17:091
9.76,-0.07,0.91,9.73,-0.77,0.9,-0.01,-0.08,0.02,0.0,0.0,0.0,-153.2,-26.0,-149.9,253.9,4.5,-84.7,2895,2019-05-30 12:12:17:096
9.76,-0.07,0.91,9.73,-0.77,0.9,-0.01,-0.08,0.02,0.0,0.0,0.0,-153.2,-26.0,-149.9,253.9,4.5,-84.7,2900,2019-05-30 12:12:17:101
9.79,-0.03,0.88,9.73,-0.77,0.9,0.0,-0.07,-0.05,0.0,0.0,0.0,-153.4,-25.4,-149.8,253.9,4.5,-84.7,2905,2019-05-30 12:12:17:106
9.79,-0.03,0.88,9.73,-0.77,0.9,0.0,-0.07,-0.05,0.0,0.0,0.0,-153.4,-25.4,-149.8,253.9,4.5,-84.7,2911,2019-05-30 12:12:17:112
9.79,-0.03,0.88,9.73,-0.77,0.9,0.0,-0.07,-0.05,0.0,0.0,0.0,-153.4,-25.4,-149.8,253.9,4.5,-84.7,2916,2019-05-30 12:12:17:117
9.75,-0.08,0.92,9.73,-0.77,0.9,-0.01,-0.08,0.03,0.0,0.0,-0.01,-153.5,-26.0,-150.4,253.9,4.5,-84.7,2920,2019-05-30 12:12:17:121
9.75,-0.08,0.92,9.73,-0.76,0.9,-0.01,-0.08,0.03,0.0,0.0,-0.01,-153.5,-26.0,-150.4,253.9,4.5,-84.7,2925,2019-05-30 12:12:17:126
9.75,-0.08,0.92,9.73,-0.76,0.9,-0.01,-0.08,0.03,0.0,0.0,-0.01,-153.5,-26.0,-150.4,253.9,4.5,-84.7,2930,2019-05-30 12:12:17:131
9.75,-0.08,0.92,9.73,-0.76,0.9,-0.01,-0.08,0.03,0.0,0.0,-0.01,-153.5,-26.0,-150.4,253.9,4.5,-84.7,2935,2019-05-30 12:12:17:136
9.75,-0.08,0.92,9.73,-0.76,0.9,-0.01,-0.08,0.03,0.0,0.0,-0.01,-153.5,-26.0,-150.4,253.9,4.5,-84.7,2940,2019-05-30 12:12:17:141
9.75,-0.08,0.92,9.73,-0.76,0.9,-0.01,-0.08,0.03,0.0,0.0,-0.01,-153.5,-26.0,-150.4,253.9,4.5,-84.7,2946,2019-05-30 12:12:17:147
9.79,-0.02,0.91,9.73,-0.76,0.9,-0.01,-0.08,0.03,0.0,0.0,-0.01,-153.5,-26.0,-150.4,253.9,4.5,-84.7,2950,2019-05-30 12:12:17:151
9.79,-0.02,0.91,9.73,-0.76,0.9,0.02,0.0,0.02,0.01,0.0,-0.01,-153.0,-26.5,-150.5,254.0,4.4,-84.7,2955,2019-05-30 12:12:17:156
9.79,-0.02,0.91,9.73,-0.76,0.9,0.02,0.0,0.02,0.01,0.0,-0.01,-153.0,-26.5,-150.5,254.0,4.4,-84.7,2960,2019-05-30 12:12:17:161
9.8,0.02,0.86,9.73,-0.76,0.9,0.02,0.0,0.02,0.01,0.0,-0.02,-153.0,-26.5,-150.5,254.0,4.4,-84.7,2964,2019-05-30 12:12:17:165
9.8,0.02,0.86,9.73,-0.76,0.9,0.02,0.0,0.02,0.01,0.0,-0.02,-153.0,-26.5,-150.5,254.0,4.4,-84.7,2970,2019-05-30 12:12:17:171
9.8,0.02,0.86,9.73,-0.76,0.9,0.02,0.0,0.02,0.01,0.0,-0.02,-153.0,-26.5,-150.5,254.0,4.4,-84.7,2975,2019-05-30 12:12:17:176
9.8,0.02,0.86,9.73,-0.76,0.9,0.02,0.0,0.02,0.01,0.0,-0.02,-153.0,-26.5,-150.5,254.0,4.4,-84.7,2980,2019-05-30 12:12:17:181
9.8,0.02,0.86,9.73,-0.76,0.9,0.02,0.0,0.02,0.01,0.0,-0.02,-153.0,-26.5,-150.5,254.0,4.4,-84.7,2988,2019-05-30 12:12:17:189
9.8,0.02,0.86,9.73,-0.76,0.9,0.02,0.0,0.02,0.01,0.0,-0.02,-153.0,-26.5,-150.5,254.0,4.4,-84.7,2991,2019-05-30 12:12:17:192
9.78,0.04,0.85,9.73,-0.76,0.9,0.0,0.06,-0.03,0.01,0.0,-0.02,-153.5,-25.5,-150.5,254.4,4.4,-84.7,2995,2019-05-30 12:12:17:196
9.78,0.04,0.85,9.73,-0.76,0.9,0.0,0.06,-0.03,0.01,0.0,-0.02,-153.5,-25.5,-150.5,254.4,4.4,-84.7,2999,2019-05-30 12:12:17:200
9.78,0.04,0.85,9.73,-0.76,0.9,0.0,0.06,-0.03,0.01,0.0,-0.02,-153.5,-25.5,-150.5,254.4,4.4,-84.7,3006,2019-05-30 12:12:17:207
9.78,0.04,0.85,9.73,-0.76,0.9,0.0,0.06,-0.03,0.01,0.0,-0.02,-153.5,-25.5,-150.5,254.4,4.4,-84.7,3010,2019-05-30 12:12:17:211
9.76,0.15,0.88,9.73,-0.75,0.9,-0.01,0.15,0.0,0.01,0.0,-0.02,-153.2,-25.4,-150.8,254.4,4.4,-84.7,3015,2019-05-30 12:12:17:216
9.76,0.15,0.88,9.73,-0.75,0.9,-0.01,0.15,0.0,0.01,0.0,-0.02,-153.2,-25.4,-150.8,254.4,4.4,-84.7,3024,2019-05-30 12:12:17:225
9.76,0.15,0.88,9.73,-0.75,0.9,-0.01,0.15,0.0,0.01,0.0,-0.02,-153.2,-25.4,-150.8,254.4,4.4,-84.7,3025,2019-05-30 12:12:17:226
9.8,0.11,0.9,9.73,-0.75,0.9,0.02,0.09,0.01,0.01,0.0,-0.03,-153.2,-26.0,-150.9,254.2,4.4,-84.7,3030,2019-05-30 12:12:17:231
9.8,0.11,0.9,9.73,-0.74,0.9,0.02,0.09,0.01,0.01,0.0,-0.03,-153.2,-26.0,-150.9,254.2,4.4,-84.7,3035,2019-05-30 12:12:17:236
9.8,0.11,0.9,9.73,-0.74,0.9,0.02,0.09,0.01,0.01,0.0,-0.03,-153.2,-26.0,-150.9,254.2,4.4,-84.7,3041,2019-05-30 12:12:17:242
9.8,0.2,0.93,9.73,-0.73,0.9,0.02,0.14,0.03,0.01,0.0,-0.02,-153.1,-27.3,-150.7,254.2,4.4,-84.7,3050,2019-05-30 12:12:17:251
9.8,0.2,0.93,9.73,-0.73,0.9,0.02,0.14,0.03,0.01,0.0,-0.02,-153.1,-27.3,-150.7,254.2,4.4,-84.7,3052,2019-05-30 12:12:17:253
9.8,0.2,0.93,9.73,-0.73,0.9,0.02,0.14,0.03,0.01,0.0,-0.02,-153.1,-27.3,-150.7,254.2,4.4,-84.7,3055,2019-05-30 12:12:17:256
9.8,0.2,0.93,9.73,-0.73,0.9,0.02,0.14,0.03,0.01,0.0,-0.02,-153.1,-27.3,-150.7,254.2,4.4,-84.7,3061,2019-05-30 12:12:17:262
9.8,0.2,0.93,9.73,-0.73,0.9,0.02,0.14,0.03,0.01,0.0,-0.02,-153.1,-27.3,-150.7,254.2,4.4,-84.7,3065,2019-05-30 12:12:17:266
9.8,0.2,0.93,9.73,-0.73,0.9,0.02,0.14,0.03,0.01,0.0,-0.02,-153.1,-27.3,-150.7,254.2,4.4,-84.7,3070,2019-05-30 12:12:17:271
9.74,0.21,0.83,9.73,-0.73,0.9,-0.03,0.14,-0.06,0.0,0.0,-0.02,-153.0,-27.2,-150.7,253.9,4.3,-84.7,3076,2019-05-30 12:12:17:277
9.74,0.21,0.83,9.73,-0.73,0.9,-0.03,0.14,-0.06,0.0,0.0,-0.02,-153.0,-27.2,-150.7,253.9,4.3,-84.7,3081,2019-05-30 12:12:17:282
9.74,0.21,0.83,9.73,-0.73,0.9,-0.03,0.14,-0.06,0.0,0.0,-0.02,-153.0,-27.2,-150.7,253.9,4.3,-84.7,3085,2019-05-30 12:12:17:286
9.74,0.21,0.83,9.73,-0.73,0.9,-0.03,0.14,-0.06,0.0,0.0,-0.02,-153.0,-27.2,-150.7,253.9,4.3,-84.7,3091,2019-05-30 12:12:17:292
9.74,0.21,0.83,9.73,-0.72,0.9,-0.05,0.15,0.02,0.0,0.0,-0.01,-153.1,-25.8,-150.5,253.9,4.3,-84.7,3096,2019-05-30 12:12:17:297
9.73,0.24,0.84,9.73,-0.72,0.9,-0.05,0.15,0.02,0.0,0.0,-0.01,-153.1,-25.8,-150.5,253.9,4.3,-84.7,3100,2019-05-30 12:12:17:301
9.73,0.24,0.84,9.73,-0.72,0.9,-0.05,0.15,0.02,0.0,0.0,-0.01,-153.1,-25.8,-150.5,253.9,4.3,-84.7,3105,2019-05-30 12:12:17:306
9.73,0.24,0.84,9.73,-0.72,0.9,-0.05,0.15,0.02,0.0,0.0,-0.01,-153.1,-25.8,-150.5,253.9,4.3,-84.7,3111,2019-05-30 12:12:17:312
9.73,0.24,0.84,9.73,-0.72,0.9,-0.05,0.15,0.02,0.0,0.0,-0.01,-153.1,-25.8,-150.5,253.9,4.3,-84.7,3116,2019-05-30 12:12:17:317
9.72,0.31,0.95,9.73,-0.72,0.9,-0.04,0.14,0.05,0.0,0.0,0.0,-153.2,-26.5,-150.9,254.0,4.2,-84.7,3120,2019-05-30 12:12:17:321
9.72,0.31,0.95,9.73,-0.72,0.9,-0.04,0.14,0.05,0.0,0.0,0.0,-153.2,-26.5,-150.9,254.0,4.2,-84.7,3125,2019-05-30 12:12:17:326
9.72,0.31,0.95,9.73,-0.72,0.9,-0.04,0.14,0.05,0.0,0.0,0.0,-153.2,-26.5,-150.9,254.0,4.2,-84.7,3130,2019-05-30 12:12:17:331
9.72,0.31,0.95,9.73,-0.72,0.9,-0.04,0.14,0.05,0.0,0.0,0.0,-153.2,-26.5,-150.9,254.0,4.2,-84.7,3135,2019-05-30 12:12:17:336
9.71,0.26,0.95,9.73,-0.72,0.9,-0.04,0.06,0.05,0.0,0.0,0.0,-153.2,-26.2,-151.2,254.0,4.2,-84.7,3140,2019-05-30 12:12:17:341
9.71,0.26,0.95,9.73,-0.72,0.9,-0.04,0.06,0.05,0.0,0.0,0.0,-153.2,-26.2,-151.2,254.0,4.2,-84.7,3146,2019-05-30 12:12:17:347
9.71,0.26,0.95,9.73,-0.72,0.9,-0.04,0.06,0.05,0.0,0.0,0.0,-153.2,-26.2,-151.2,254.0,4.2,-84.7,3151,2019-05-30 12:12:17:352
9.71,0.26,0.95,9.73,-0.72,0.9,-0.04,0.06,0.05,0.0,0.0,0.0,-153.2,-26.2,-151.2,254.0,4.2,-84.7,3155,2019-05-30 12:12:17:356
9.71,0.26,0.95,9.73,-0.72,0.9,-0.04,0.06,0.05,0.0,0.0,0.0,-153.2,-26.2,-151.2,254.0,4.2,-84.7,3160,2019-05-30 12:12:17:361
9.75,0.26,0.88,9.73,-0.72,0.9,0.0,0.04,-0.02,0.0,0.0,0.01,-153.2,-26.0,-150.7,254.4,4.2,-84.7,3176,2019-05-30 12:12:17:377
9.75,0.26,0.88,9.73,-0.72,0.9,0.0,0.04,-0.02,0.0,0.0,0.01,-153.2,-26.0,-150.7,254.4,4.2,-84.7,3177,2019-05-30 12:12:17:378
9.75,0.26,0.88,9.73,-0.72,0.9,0.0,0.04,-0.02,0.0,0.0,0.01,-153.2,-26.0,-150.7,254.4,4.2,-84.7,3177,2019-05-30 12:12:17:378
9.75,0.26,0.88,9.73,-0.72,0.9,0.0,0.04,-0.02,0.0,0.0,0.01,-153.2,-26.0,-150.7,254.4,4.2,-84.7,3180,2019-05-30 12:12:17:381
9.75,0.26,0.88,9.73,-0.72,0.9,0.0,0.04,-0.02,0.0,0.0,0.01,-153.2,-26.0,-150.7,254.4,4.2,-84.7,3185,2019-05-30 12:12:17:386
9.75,0.26,0.88,9.73,-0.72,0.9,0.0,0.04,-0.02,0.0,0.0,0.01,-153.2,-26.0,-150.7,254.4,4.2,-84.7,3190,2019-05-30 12:12:17:391
9.72,0.27,0.9,9.73,-0.71,0.9,-0.03,0.03,0.0,0.0,0.0,0.02,-153.2,-26.2,-149.9,254.4,4.2,-84.7,3194,2019-05-30 12:12:17:395
9.72,0.27,0.9,9.73,-0.71,0.9,-0.03,0.03,0.0,0.0,0.0,0.02,-153.2,-26.2,-149.9,254.4,4.2,-84.7,3200,2019-05-30 12:12:17:401
9.72,0.27,0.9,9.73,-0.71,0.9,-0.03,0.03,0.0,-0.01,0.0,0.03,-153.2,-26.2,-149.9,254.4,4.2,-84.7,3206,2019-05-30 12:12:17:407
9.72,0.27,0.9,9.73,-0.71,0.9,-0.03,0.03,0.0,-0.01,0.0,0.03,-153.2,-26.2,-149.9,254.4,4.2,-84.7,3216,2019-05-30 12:12:17:417
9.72,0.27,0.9,9.73,-0.71,0.9,-0.03,0.03,0.0,-0.01,0.0,0.03,-153.2,-26.2,-149.9,254.4,4.2,-84.7,3217,2019-05-30 12:12:17:418
9.72,0.27,0.9,9.73,-0.71,0.9,-0.03,0.03,0.0,-0.01,0.0,0.03,-153.2,-26.2,-149.9,254.4,4.2,-84.7,3220,2019-05-30 12:12:17:421
9.72,0.27,0.9,9.73,-0.71,0.9,-0.03,0.03,0.0,-0.01,0.0,0.03,-153.2,-26.2,-149.9,254.4,4.2,-84.7,3226,2019-05-30 12:12:17:427
9.71,0.23,0.87,9.73,-0.72,0.9,-0.04,-0.01,-0.02,-0.01,0.0,0.03,-153.0,-25.5,-150.3,254.7,4.2,-84.7,3232,2019-05-30 12:12:17:433
9.71,0.23,0.87,9.73,-0.72,0.9,-0.04,-0.01,-0.02,-0.01,0.0,0.03,-153.0,-25.5,-150.3,254.7,4.2,-84.7,3234,2019-05-30 12:12:17:435
9.77,0.23,0.87,9.73,-0.72,0.9,-0.04,-0.01,-0.02,-0.01,0.0,0.04,-153.0,-25.5,-150.3,254.7,4.2,-84.7,3240,2019-05-30 12:12:17:441
9.77,0.23,0.87,9.73,-0.73,0.9,0.02,0.0,-0.02,-0.01,0.0,0.04,-153.1,-25.2,-150.9,254.7,4.2,-84.7,3248,2019-05-30 12:12:17:449
9.77,0.23,0.87,9.73,-0.73,0.9,0.02,0.0,-0.02,-0.01,0.0,0.04,-153.1,-25.2,-150.9,254.7,4.2,-84.7,3250,2019-05-30 12:12:17:451
9.77,0.23,0.87,9.73,-0.73,0.9,0.02,0.0,-0.02,-0.01,0.0,0.04,-153.1,-25.2,-150.9,254.7,4.2,-84.7,3255,2019-05-30 12:12:17:456
9.77,0.23,0.87,9.73,-0.73,0.9,0.02,0.0,-0.02,-0.01,0.0,0.04,-153.1,-25.2,-150.9,254.7,4.2,-84.7,3260,2019-05-30 12:12:17:461
9.77,0.23,0.87,9.73,-0.73,0.9,0.02,0.0,-0.02,-0.01,0.0,0.04,-153.1,-25.2,-150.9,254.7,4.2,-84.7,3265,2019-05-30 12:12:17:466
9.77,0.23,0.87,9.73,-0.73,0.9,0.02,0.0,-0.02,-0.01,0.0,0.04,-153.1,-25.2,-150.9,254.7,4.2,-84.7,3272,2019-05-30 12:12:17:473
9.77,0.23,0.87,9.73,-0.73,0.9,0.02,0.0,-0.02,-0.01,0.0,0.04,-153.1,-25.2,-150.9,254.7,4.2,-84.7,3275,2019-05-30 12:12:17:476
9.71,0.19,0.87,9.73,-0.74,0.9,-0.03,-0.04,-0.02,-0.01,0.0,0.04,-153.1,-25.1,-151.1,254.7,4.3,-84.7,3281,2019-05-30 12:12:17:482
9.71,0.19,0.87,9.73,-0.74,0.9,-0.03,-0.04,-0.02,-0.01,0.0,0.04,-153.1,-25.1,-151.1,254.7,4.3,-84.7,3285,2019-05-30 12:12:17:486
9.71,0.19,0.87,9.73,-0.74,0.9,-0.03,-0.04,-0.02,-0.01,0.0,0.04,-153.1,-25.1,-151.1,254.7,4.3,-84.7,3290,2019-05-30 12:12:17:491
9.76,0.18,0.88,9.73,-0.74,0.9,0.02,-0.04,-0.01,-0.01,0.0,0.05,-152.7,-25.5,-150.6,254.7,4.3,-84.7,3299,2019-05-30 12:12:17:500
9.76,0.18,0.88,9.73,-0.74,0.9,0.02,-0.04,-0.01,-0.01,0.0,0.05,-152.7,-25.5,-150.6,254.7,4.3,-84.7,3300,2019-05-30 12:12:17:501
9.76,0.18,0.88,9.73,-0.74,0.9,0.02,-0.04,-0.01,-0.01,0.0,0.05,-152.7,-25.5,-150.6,254.7,4.3,-84.7,3305,2019-05-30 12:12:17:506
9.76,0.18,0.88,9.73,-0.74,0.9,0.02,-0.04,-0.01,-0.01,0.0,0.05,-152.7,-25.5,-150.6,254.7,4.3,-84.7,3310,2019-05-30 12:12:17:511
9.78,0.17,0.93,9.73,-0.75,0.9,0.03,-0.03,0.03,-0.01,0.0,0.05,-153.1,-25.9,-150.0,254.1,4.3,-84.7,3315,2019-05-30 12:12:17:516
9.78,0.17,0.93,9.73,-0.75,0.9,0.03,-0.03,0.03,-0.01,0.0,0.05,-153.1,-25.9,-150.0,254.1,4.3,-84.7,3320,2019-05-30 12:12:17:521
9.78,0.17,0.93,9.73,-0.75,0.9,0.03,-0.03,0.03,-0.01,0.0,0.05,-153.1,-25.9,-150.0,254.1,4.3,-84.7,3325,2019-05-30 12:12:17:526
9.78,0.17,0.93,9.73,-0.75,0.9,0.03,-0.03,0.03,-0.01,0.0,0.05,-153.1,-25.9,-150.0,254.1,4.3,-84.7,3330,2019-05-30 12:12:17:531
9.76,0.17,0.87,9.73,-0.76,0.9,0.01,-0.02,-0.02,-0.01,0.0,0.06,-153.9,-26.0,-150.5,254.1,4.3,-84.7,3336,2019-05-30 12:12:17:537
9.76,0.17,0.87,9.73,-0.76,0.9,0.01,-0.02,-0.02,-0.01,0.0,0.06,-153.9,-26.0,-150.5,254.1,4.3,-84.7,3340,2019-05-30 12:12:17:541
9.76,0.17,0.87,9.73,-0.76,0.9,0.01,-0.02,-0.02,-0.01,0.0,0.06,-153.9,-26.0,-150.5,254.1,4.3,-84.7,3345,2019-05-30 12:12:17:546
9.76,0.17,0.87,9.73,-0.76,0.9,0.01,-0.02,-0.02,-0.01,0.0,0.06,-153.9,-26.0,-150.5,254.1,4.3,-84.7,3350,2019-05-30 12:12:17:551
9.77,0.1,0.87,9.73,-0.77,0.9,0.02,-0.07,-0.01,-0.01,0.0,0.06,-153.9,-25.7,-150.6,254.1,4.4,-84.7,3355,2019-05-30 12:12:17:556
9.77,0.1,0.87,9.73,-0.77,0.9,0.02,-0.07,-0.01,-0.01,0.0,0.06,-153.9,-25.7,-150.6,254.1,4.4,-84.7,3360,2019-05-30 12:12:17:561
9.77,0.1,0.87,9.73,-0.77,0.9,0.02,-0.07,-0.01,-0.01,0.0,0.06,-153.9,-25.7,-150.6,254.1,4.4,-84.7,3364,2019-05-30 12:12:17:565
9.77,0.1,0.87,9.73,-0.77,0.9,0.02,-0.07,-0.01,-0.01,0.0,0.06,-153.9,-25.7,-150.6,254.1,4.4,-84.7,3371,2019-05-30 12:12:17:572
9.77,0.1,0.87,9.73,-0.77,0.9,0.02,-0.07,-0.01,-0.01,0.0,0.06,-153.9,-25.7,-150.6,254.1,4.4,-84.7,3378,2019-05-30 12:12:17:579
9.77,0.1,0.87,9.73,-0.77,0.9,0.02,-0.07,-0.01,-0.01,0.0,0.06,-153.9,-25.7,-150.6,254.1,4.4,-84.7,3380,2019-05-30 12:12:17:581
9.77,0.1,0.87,9.73,-0.77,0.9,0.02,-0.07,-0.01,-0.01,0.0,0.06,-153.9,-25.7,-150.6,254.1,4.4,-84.7,3385,2019-05-30 12:12:17:586
9.78,0.02,0.86,9.73,-0.77,0.9,0.02,-0.07,-0.01,-0.01,0.0,0.06,-152.9,-25.1,-149.8,254.3,4.5,-84.7,3390,2019-05-30 12:12:17:591
9.78,0.02,0.86,9.73,-0.79,0.9,0.03,-0.1,-0.02,-0.01,0.0,0.06,-152.9,-25.1,-149.8,254.3,4.5,-84.7,3395,2019-05-30 12:12:17:596
9.78,0.02,0.86,9.73,-0.79,0.9,0.03,-0.1,-0.02,-0.01,0.0,0.06,-152.9,-25.1,-149.8,254.3,4.5,-84.7,3400,2019-05-30 12:12:17:601
9.78,0.02,0.86,9.73,-0.79,0.9,0.03,-0.1,-0.02,-0.01,0.0,0.06,-152.9,-25.1,-149.8,254.3,4.5,-84.7,3405,2019-05-30 12:12:17:606
9.78,0.02,0.86,9.73,-0.79,0.9,0.03,-0.1,-0.02,-0.01,0.0,0.06,-152.9,-25.1,-149.8,254.3,4.5,-84.7,3411,2019-05-30 12:12:17:612
9.78,0.02,0.86,9.73,-0.79,0.9,0.03,-0.1,-0.02,-0.01,0.0,0.06,-152.9,-25.1,-149.8,254.3,4.5,-84.7,3415,2019-05-30 12:12:17:616
9.79,0.05,0.93,9.73,-0.8,0.9,0.03,-0.04,0.04,-0.01,0.0,0.05,-153.5,-25.7,-149.7,254.3,4.5,-84.7,3420,2019-05-30 12:12:17:621
9.79,0.05,0.93,9.73,-0.8,0.9,0.03,-0.04,0.04,-0.01,0.0,0.05,-153.5,-25.7,-149.7,254.3,4.5,-84.7,3425,2019-05-30 12:12:17:626
9.79,0.05,0.93,9.73,-0.8,0.9,0.03,-0.04,0.04,-0.01,0.0,0.05,-153.5,-25.7,-149.7,254.3,4.5,-84.7,3431,2019-05-30 12:12:17:632
9.79,0.05,0.93,9.73,-0.8,0.9,0.03,-0.04,0.04,-0.01,0.0,0.05,-153.5,-25.7,-149.7,254.3,4.5,-84.7,3435,2019-05-30 12:12:17:636
9.75,0.04,0.91,9.73,-0.82,0.9,0.0,-0.02,0.02,0.0,0.0,0.05,-153.4,-26.3,-150.7,253.8,4.7,-84.7,3440,2019-05-30 12:12:17:641
9.75,0.04,0.91,9.73,-0.82,0.9,0.0,-0.02,0.02,0.0,0.0,0.05,-153.4,-26.3,-150.7,253.8,4.7,-84.7,3445,2019-05-30 12:12:17:646
9.75,0.04,0.91,9.73,-0.82,0.9,0.0,-0.02,0.02,0.0,0.0,0.05,-153.4,-26.3,-150.7,253.8,4.7,-84.7,3450,2019-05-30 12:12:17:651
9.75,0.04,0.91,9.73,-0.82,0.9,0.0,-0.02,0.02,0.0,0.0,0.05,-153.4,-26.3,-150.7,253.8,4.7,-84.7,3455,2019-05-30 12:12:17:656
9.8,0.03,0.86,9.72,-0.83,0.9,0.04,-0.01,-0.01,-0.01,0.0,0.05,-153.5,-25.1,-151.1,253.8,4.7,-84.7,3460,2019-05-30 12:12:17:661
9.8,0.03,0.86,9.72,-0.83,0.9,0.04,-0.01,-0.01,-0.01,0.0,0.05,-153.5,-25.1,-151.1,253.8,4.7,-84.7,3465,2019-05-30 12:12:17:666
9.8,0.03,0.86,9.72,-0.83,0.9,0.04,-0.01,-0.01,-0.01,0.0,0.05,-153.5,-25.1,-151.1,253.8,4.7,-84.7,3470,2019-05-30 12:12:17:671
9.8,0.03,0.86,9.72,-0.83,0.9,0.04,-0.01,-0.01,-0.01,0.0,0.05,-153.5,-25.1,-151.1,253.8,4.7,-84.7,3476,2019-05-30 12:12:17:677
9.8,0.03,0.86,9.72,-0.83,0.9,0.04,-0.01,-0.01,-0.01,0.0,0.05,-153.5,-25.1,-151.1,253.8,4.7,-84.7,3480,2019-05-30 12:12:17:681
9.8,0.03,0.86,9.72,-0.83,0.9,0.04,-0.01,-0.01,-0.01,0.0,0.05,-153.5,-25.1,-151.1,253.8,4.7,-84.7,3485,2019-05-30 12:12:17:686
9.79,0.0,0.94,9.72,-0.83,0.9,0.04,-0.01,-0.01,-0.01,0.0,0.05,-153.4,-25.0,-151.1,254.0,4.9,-84.7,3490,2019-05-30 12:12:17:691
9.79,0.0,0.94,9.72,-0.83,0.9,0.04,-0.01,-0.01,-0.01,0.0,0.05,-153.4,-25.0,-151.1,254.0,4.9,-84.7,3495,2019-05-30 12:12:17:696
9.79,0.0,0.94,9.72,-0.83,0.9,0.04,-0.01,-0.01,-0.01,0.0,0.05,-153.4,-25.0,-151.1,254.0,4.9,-84.7,3500,2019-05-30 12:12:17:701
9.79,0.0,0.86,9.72,-0.83,0.9,0.02,-0.02,0.05,-0.01,0.0,0.04,-153.5,-25.1,-151.5,254.0,4.9,-84.7,3506,2019-05-30 12:12:17:707
9.79,0.0,0.86,9.72,-0.83,0.9,0.02,-0.02,0.05,-0.01,0.0,0.04,-153.5,-25.1,-151.5,254.0,4.9,-84.7,3511,2019-05-30 12:12:17:712
9.79,0.0,0.86,9.72,-0.83,0.9,0.02,-0.02,0.05,-0.01,0.0,0.04,-153.5,-25.1,-151.5,254.0,4.9,-84.7,3515,2019-05-30 12:12:17:716
9.75,0.0,0.95,9.72,-0.85,0.9,-0.02,0.0,0.05,-0.01,0.0,0.04,-153.1,-25.7,-151.1,254.0,4.9,-84.7,3521,2019-05-30 12:12:17:722
9.75,0.0,0.95,9.72,-0.85,0.9,-0.02,0.0,0.05,-0.01,0.0,0.04,-153.1,-25.7,-151.1,254.0,4.9,-84.7,3525,2019-05-30 12:12:17:726
9.75,0.0,0.95,9.72,-0.85,0.9,-0.02,0.0,0.05,-0.01,0.0,0.04,-153.1,-25.7,-151.1,254.0,4.9,-84.7,3530,2019-05-30 12:12:17:731
9.75,0.0,0.95,9.72,-0.85,0.9,-0.02,0.0,0.05,-0.01,0.0,0.04,-153.1,-25.7,-151.1,254.0,4.9,-84.7,3535,2019-05-30 12:12:17:736
9.75,0.0,0.95,9.72,-0.85,0.9,-0.02,0.0,0.05,-0.01,0.0,0.04,-153.1,-25.7,-151.1,254.0,4.9,-84.7,3540,2019-05-30 12:12:17:741
9.77,-0.02,0.96,9.72,-0.85,0.9,0.0,-0.02,0.06,0.0,0.0,0.03,-152.9,-25.9,-150.8,253.5,5.0,-84.7,3546,2019-05-30 12:12:17:747
9.77,-0.02,0.96,9.72,-0.85,0.9,0.0,-0.02,0.06,0.0,0.0,0.03,-152.9,-25.9,-150.8,253.5,5.0,-84.7,3552,2019-05-30 12:12:17:753
9.77,-0.02,0.96,9.72,-0.85,0.9,0.0,-0.02,0.06,0.0,0.0,0.03,-152.9,-25.9,-150.8,253.5,5.0,-84.7,3555,2019-05-30 12:12:17:756
9.77,-0.02,0.96,9.72,-0.85,0.9,0.0,-0.02,0.06,0.0,0.0,0.03,-152.9,-25.9,-150.8,253.5,5.0,-84.7,3560,2019-05-30 12:12:17:761
9.77,-0.02,0.96,9.72,-0.85,0.9,0.0,-0.02,0.06,0.0,0.0,0.03,-152.9,-25.9,-150.8,253.5,5.0,-84.7,3566,2019-05-30 12:12:17:767
9.78,-0.02,0.92,9.72,-0.85,0.9,0.0,-0.02,0.06,0.0,0.0,0.03,-152.9,-25.4,-150.6,253.5,5.0,-84.7,3570,2019-05-30 12:12:17:771
9.78,-0.02,0.92,9.72,-0.85,0.9,0.0,-0.01,0.01,0.0,0.0,0.03,-152.9,-25.4,-150.6,253.5,5.0,-84.7,3576,2019-05-30 12:12:17:777
9.78,-0.02,0.92,9.72,-0.85,0.9,0.0,-0.01,0.01,0.0,0.0,0.03,-152.9,-25.4,-150.6,253.5,5.0,-84.7,3580,2019-05-30 12:12:17:781
9.78,-0.02,0.92,9.72,-0.85,0.9,0.0,-0.01,0.01,0.0,0.0,0.03,-152.9,-25.4,-150.6,253.5,5.0,-84.7,3585,2019-05-30 12:12:17:786
9.75,-0.02,0.94,9.72,-0.86,0.9,-0.02,-0.01,0.03,0.0,0.0,0.02,-152.8,-25.4,-150.8,253.9,5.0,-84.7,3591,2019-05-30 12:12:17:792
9.75,-0.02,0.94,9.72,-0.86,0.9,-0.02,-0.01,0.03,0.0,0.0,0.02,-152.8,-25.4,-150.8,253.9,5.0,-84.7,3595,2019-05-30 12:12:17:796
9.75,-0.02,0.94,9.72,-0.86,0.9,-0.02,-0.01,0.03,0.0,0.0,0.02,-152.8,-25.4,-150.8,253.9,5.0,-84.7,3600,2019-05-30 12:12:17:801
9.75,-0.02,0.94,9.72,-0.85,0.9,-0.02,-0.04,0.02,0.0,0.0,0.02,-153.0,-25.7,-150.7,253.9,5.0,-84.7,3606,2019-05-30 12:12:17:807
9.75,-0.02,0.94,9.72,-0.85,0.9,-0.02,-0.04,0.02,0.0,0.0,0.02,-153.0,-25.7,-150.7,253.9,5.0,-84.7,3610,2019-05-30 12:12:17:811
9.75,-0.02,0.94,9.72,-0.85,0.9,-0.02,-0.04,0.02,0.0,0.0,0.02,-153.0,-25.7,-150.7,253.9,5.0,-84.7,3615,2019-05-30 12:12:17:816
9.75,-0.02,0.94,9.72,-0.85,0.9,-0.02,-0.04,0.02,0.0,0.0,0.02,-153.0,-25.7,-150.7,253.9,5.0,-84.7,3622,2019-05-30 12:12:17:823
9.75,-0.02,0.94,9.72,-0.85,0.9,-0.02,-0.04,0.02,0.0,0.0,0.02,-153.0,-25.7,-150.7,253.9,5.0,-84.7,3625,2019-05-30 12:12:17:826
9.78,0.0,0.98,9.72,-0.85,0.9,0.01,0.01,0.06,0.0,0.0,0.02,-153.5,-25.8,-150.7,253.5,5.0,-84.7,3631,2019-05-30 12:12:17:832
9.78,0.0,0.98,9.72,-0.85,0.9,0.01,0.01,0.06,0.0,0.0,0.02,-153.5,-25.8,-150.7,253.5,5.0,-84.7,3635,2019-05-30 12:12:17:836
9.79,0.04,0.91,9.72,-0.85,0.9,0.01,0.01,0.06,0.0,0.0,0.01,-153.5,-25.8,-150.7,253.5,5.0,-84.7,3640,2019-05-30 12:12:17:841
9.79,0.04,0.91,9.72,-0.85,0.9,0.01,0.05,0.0,0.0,0.0,0.01,-154.0,-25.9,-150.3,253.5,5.0,-84.7,3646,2019-05-30 12:12:17:847
9.79,0.04,0.91,9.72,-0.85,0.9,0.01,0.05,0.0,0.0,0.0,0.01,-154.0,-25.9,-150.3,253.5,5.0,-84.7,3652,2019-05-30 12:12:17:853
9.79,0.04,0.91,9.72,-0.85,0.9,0.01,0.05,0.0,0.0,0.0,0.01,-154.0,-25.9,-150.3,253.5,5.0,-84.7,3656,2019-05-30 12:12:17:857
9.75,0.04,0.82,9.72,-0.85,0.9,-0.01,0.04,-0.09,0.0,0.0,0.01,-153.5,-25.8,-149.9,253.5,5.0,-84.7,3660,2019-05-30 12:12:17:861
9.75,0.04,0.82,9.72,-0.85,0.9,-0.01,0.04,-0.09,0.0,0.0,0.01,-153.5,-25.8,-149.9,253.5,5.0,-84.7,3666,2019-05-30 12:12:17:867
9.75,0.04,0.82,9.72,-0.85,0.9,-0.01,0.04,-0.09,0.0,0.0,0.01,-153.5,-25.8,-149.9,253.5,5.0,-84.7,3670,2019-05-30 12:12:17:871
9.75,0.04,0.82,9.72,-0.85,0.9,-0.01,0.04,-0.09,0.0,0.0,0.01,-153.5,-25.8,-149.9,253.5,5.0,-84.7,3675,2019-05-30 12:12:17:876
9.75,0.04,0.82,9.72,-0.85,0.9,-0.01,0.04,-0.09,0.0,0.0,0.01,-153.5,-25.8,-149.9,253.5,5.0,-84.7,3680,2019-05-30 12:12:17:881
9.75,0.04,0.82,9.72,-0.85,0.9,-0.01,0.04,-0.09,0.0,0.0,0.01,-153.5,-25.8,-149.9,253.5,5.0,-84.7,3686,2019-05-30 12:12:17:887
9.76,0.05,0.9,9.72,-0.85,0.9,-0.01,0.05,0.0,0.0,0.0,0.01,-152.9,-26.0,-150.2,253.4,5.0,-84.7,3690,2019-05-30 12:12:17:891
9.76,0.05,0.9,9.72,-0.85,0.9,-0.01,0.05,0.0,0.0,0.0,0.01,-152.9,-26.0,-150.2,253.4,5.0,-84.7,3694,2019-05-30 12:12:17:895
9.76,0.05,0.9,9.72,-0.85,0.9,-0.01,0.05,0.0,0.0,0.0,0.01,-152.9,-26.0,-150.2,253.4,5.0,-84.7,3701,2019-05-30 12:12:17:902
9.77,0.06,0.88,9.72,-0.85,0.9,-0.03,0.03,0.02,0.0,0.0,0.01,-152.7,-26.2,-150.8,253.4,5.0,-84.7,3705,2019-05-30 12:12:17:906
9.77,0.06,0.88,9.72,-0.85,0.9,-0.03,0.03,0.02,0.0,0.0,0.01,-152.7,-26.2,-150.8,253.4,5.0,-84.7,3710,2019-05-30 12:12:17:911
9.77,0.06,0.88,9.72,-0.85,0.9,-0.03,0.03,0.02,0.0,0.0,0.01,-152.7,-26.2,-150.8,253.4,5.0,-84.7,3715,2019-05-30 12:12:17:916
9.77,0.06,0.88,9.72,-0.85,0.9,-0.03,0.03,0.02,0.0,0.0,0.01,-152.7,-26.2,-150.8,253.4,5.0,-84.7,3720,2019-05-30 12:12:17:921
9.77,0.06,0.88,9.72,-0.85,0.9,-0.03,0.03,0.02,0.0,0.0,0.01,-152.7,-26.2,-150.8,253.4,5.0,-84.7,3725,2019-05-30 12:12:17:926
9.77,0.04,0.93,9.72,-0.84,0.9,0.01,0.02,0.02,0.0,0.0,0.01,-153.2,-25.6,-150.8,253.5,5.0,-84.7,3733,2019-05-30 12:12:17:934
9.77,0.04,0.93,9.72,-0.84,0.9,0.01,0.02,0.02,0.0,0.0,0.01,-153.2,-25.6,-150.8,253.5,5.0,-84.7,3735,2019-05-30 12:12:17:936
9.77,0.04,0.93,9.72,-0.84,0.9,0.01,0.02,0.02,0.0,0.0,0.01,-153.2,-25.6,-150.8,253.5,5.0,-84.7,3740,2019-05-30 12:12:17:941
9.74,0.09,0.92,9.72,-0.84,0.9,-0.01,0.06,0.01,0.0,0.0,0.01,-153.5,-25.3,-150.9,253.5,5.0,-84.7,3745,2019-05-30 12:12:17:946
9.74,0.09,0.92,9.72,-0.84,0.9,-0.01,0.06,0.01,0.0,0.0,0.01,-153.5,-25.3,-150.9,253.5,5.0,-84.7,3751,2019-05-30 12:12:17:952
9.74,0.09,0.92,9.72,-0.84,0.9,-0.01,0.06,0.01,0.0,0.0,0.01,-153.5,-25.3,-150.9,253.5,5.0,-84.7,3755,2019-05-30 12:12:17:956
9.78,0.11,0.9,9.72,-0.84,0.9,0.01,0.07,0.0,0.0,0.0,0.01,-153.2,-25.8,-150.7,253.5,5.0,-84.7,3760,2019-05-30 12:12:17:961
9.78,0.11,0.9,9.72,-0.84,0.9,0.01,0.07,0.0,0.0,0.0,0.01,-153.2,-25.8,-150.7,253.5,5.0,-84.7,3766,2019-05-30 12:12:17:967
9.78,0.11,0.9,9.72,-0.84,0.9,0.01,0.07,0.0,0.0,0.0,0.01,-153.2,-25.8,-150.7,253.5,5.0,-84.7,3770,2019-05-30 12:12:17:971
9.78,0.11,0.9,9.72,-0.84,0.9,0.01,0.07,0.0,0.0,0.0,0.01,-153.2,-25.8,-150.7,253.5,5.0,-84.7,3775,2019-05-30 12:12:17:976
9.78,0.11,0.9,9.72,-0.84,0.9,0.01,0.07,0.0,0.0,0.0,0.01,-153.2,-25.8,-150.7,253.5,5.0,-84.7,3780,2019-05-30 12:12:17:981
9.79,0.13,0.89,9.72,-0.83,0.9,0.02,0.07,0.0,0.0,0.0,0.01,-152.8,-26.1,-150.1,253.5,4.9,-84.7,3785,2019-05-30 12:12:17:986
9.79,0.13,0.89,9.72,-0.83,0.9,0.02,0.07,0.0,0.0,0.0,0.01,-152.8,-26.1,-150.1,253.5,4.9,-84.7,3790,2019-05-30 12:12:17:991
9.79,0.13,0.89,9.72,-0.83,0.9,0.02,0.07,0.0,0.0,0.0,0.01,-152.8,-26.1,-150.1,253.5,4.9,-84.7,3795,2019-05-30 12:12:17:996
9.79,0.13,0.89,9.72,-0.83,0.9,0.02,0.07,0.0,0.0,0.0,0.01,-152.8,-26.1,-150.1,253.5,4.9,-84.7,3800,2019-05-30 12:12:18:001
9.78,0.14,0.84,9.72,-0.83,0.9,0.0,0.07,-0.05,0.0,0.0,0.02,-153.1,-25.8,-150.1,253.5,4.9,-84.7,3805,2019-05-30 12:12:18:006
9.78,0.14,0.84,9.72,-0.83,0.9,0.0,0.07,-0.05,0.0,0.0,0.02,-153.1,-25.8,-150.1,253.5,4.9,-84.7,3810,2019-05-30 12:12:18:011
9.78,0.14,0.84,9.72,-0.83,0.9,0.0,0.07,-0.05,0.0,0.0,0.02,-153.1,-25.8,-150.1,253.5,4.9,-84.7,3815,2019-05-30 12:12:18:016
9.78,0.14,0.84,9.72,-0.83,0.9,0.0,0.07,-0.05,0.0,0.0,0.02,-153.1,-25.8,-150.1,253.5,4.9,-84.7,3820,2019-05-30 12:12:18:021
9.78,0.14,0.84,9.72,-0.83,0.9,0.0,0.07,-0.05,0.0,0.0,0.02,-153.1,-25.8,-150.1,253.5,4.9,-84.7,3825,2019-05-30 12:12:18:026
9.76,0.12,0.91,9.72,-0.83,0.9,0.0,0.07,-0.05,-0.01,0.0,0.02,-153.1,-25.6,-150.5,253.5,4.9,-84.7,3830,2019-05-30 12:12:18:031
9.76,0.12,0.91,9.72,-0.83,0.9,0.0,0.03,0.02,-0.01,0.0,0.02,-153.1,-25.6,-150.5,253.5,4.9,-84.7,3835,2019-05-30 12:12:18:036
9.76,0.12,0.91,9.72,-0.83,0.9,0.0,0.03,0.02,-0.01,0.0,0.02,-153.1,-25.6,-150.5,253.5,4.9,-84.7,3840,2019-05-30 12:12:18:041
9.78,0.17,0.9,9.72,-0.83,0.9,0.0,0.03,0.02,-0.01,0.0,0.03,-152.9,-25.6,-150.7,253.5,4.9,-84.7,3845,2019-05-30 12:12:18:046
9.78,0.17,0.9,9.72,-0.83,0.9,0.0,0.03,0.02,-0.01,0.0,0.03,-152.9,-25.6,-150.7,253.5,4.9,-84.7,3850,2019-05-30 12:12:18:051
9.78,0.17,0.9,9.72,-0.83,0.9,0.0,0.03,0.02,-0.01,0.0,0.03,-152.9,-25.6,-150.7,253.5,4.9,-84.7,3855,2019-05-30 12:12:18:056
9.78,0.17,0.9,9.72,-0.83,0.9,0.0,0.03,0.02,-0.01,0.0,0.03,-152.9,-25.6,-150.7,253.5,4.9,-84.7,3860,2019-05-30 12:12:18:061
9.74,0.1,0.86,9.72,-0.84,0.9,0.0,0.0,0.02,-0.01,0.0,0.03,-153.8,-25.7,-150.4,253.5,4.9,-84.7,3865,2019-05-30 12:12:18:066
9.74,0.1,0.86,9.72,-0.84,0.9,0.0,0.0,0.02,-0.01,0.0,0.03,-153.8,-25.7,-150.4,253.5,4.9,-84.7,3870,2019-05-30 12:12:18:071
9.74,0.1,0.86,9.72,-0.84,0.9,0.0,0.0,0.02,-0.01,0.0,0.03,-153.8,-25.7,-150.4,253.5,4.9,-84.7,3875,2019-05-30 12:12:18:076
9.74,0.1,0.86,9.72,-0.84,0.9,0.0,0.0,0.02,-0.01,0.0,0.03,-153.8,-25.7,-150.4,253.5,4.9,-84.7,3880,2019-05-30 12:12:18:081
9.78,0.09,0.89,9.72,-0.84,0.9,-0.02,-0.02,-0.04,-0.01,0.0,0.03,-153.5,-26.2,-150.6,253.5,4.9,-84.7,3886,2019-05-30 12:12:18:087
9.78,0.09,0.89,9.72,-0.84,0.9,-0.02,-0.02,-0.04,-0.01,0.0,0.03,-153.5,-26.2,-150.6,253.5,4.9,-84.7,3890,2019-05-30 12:12:18:091
9.78,0.09,0.89,9.72,-0.84,0.9,-0.02,-0.02,-0.04,-0.01,0.0,0.03,-153.5,-26.2,-150.6,253.5,4.9,-84.7,3895,2019-05-30 12:12:18:096
9.78,0.09,0.89,9.72,-0.84,0.9,-0.02,-0.02,-0.04,-0.01,0.0,0.03,-153.5,-26.2,-150.6,253.5,4.9,-84.7,3900,2019-05-30 12:12:18:101
9.84,0.1,0.89,9.72,-0.85,0.9,0.07,0.0,0.01,-0.01,0.0,0.04,-153.5,-26.3,-150.7,253.5,4.9,-84.7,3905,2019-05-30 12:12:18:106
9.84,0.1,0.89,9.72,-0.85,0.9,0.07,0.0,0.01,-0.01,0.0,0.04,-153.5,-26.3,-150.7,253.5,4.9,-84.7,3910,2019-05-30 12:12:18:111
9.84,0.1,0.89,9.72,-0.85,0.9,0.07,0.0,0.01,-0.01,0.0,0.04,-153.5,-26.3,-150.7,253.5,4.9,-84.7,3915,2019-05-30 12:12:18:116
9.84,0.1,0.89,9.72,-0.85,0.9,0.07,0.0,0.01,-0.01,0.0,0.04,-153.5,-26.3,-150.7,253.5,4.9,-84.7,3920,2019-05-30 12:12:18:121
9.84,0.1,0.89,9.72,-0.85,0.9,0.07,0.0,0.01,-0.01,0.0,0.04,-153.5,-26.3,-150.7,253.5,4.9,-84.7,3925,2019-05-30 12:12:18:126
9.84,0.1,0.89,9.72,-0.85,0.9,0.07,0.0,0.01,-0.01,0.0,0.04,-153.5,-26.3,-150.7,253.5,4.9,-84.7,3929,2019-05-30 12:12:18:130
9.84,0.1,0.89,9.72,-0.85,0.9,0.07,0.0,0.01,-0.01,0.0,0.04,-153.5,-26.3,-150.7,253.5,4.9,-84.7,3935,2019-05-30 12:12:18:136
9.67,0.1,0.99,9.72,-0.85,0.9,0.07,0.0,0.01,-0.01,0.0,0.04,-153.1,-25.8,-150.8,253.5,5.0,-84.7,3939,2019-05-30 12:12:18:140
9.67,0.1,0.99,9.72,-0.86,0.9,-0.09,0.01,0.1,-0.01,0.0,0.04,-153.1,-25.8,-150.8,253.5,5.0,-84.7,3945,2019-05-30 12:12:18:146
9.78,0.05,0.88,9.72,-0.86,0.9,-0.09,0.01,0.1,-0.01,0.0,0.05,-153.1,-25.8,-150.8,253.5,5.0,-84.7,3950,2019-05-30 12:12:18:151
9.78,0.05,0.88,9.72,-0.87,0.9,0.01,-0.02,0.0,-0.01,0.0,0.05,-152.7,-25.7,-150.4,253.5,5.0,-84.7,3956,2019-05-30 12:12:18:157
9.78,0.05,0.88,9.72,-0.87,0.9,0.01,-0.02,0.0,-0.01,0.0,0.05,-152.7,-25.7,-150.4,253.5,5.0,-84.7,3960,2019-05-30 12:12:18:161
9.78,0.05,0.88,9.72,-0.87,0.9,0.01,-0.02,0.0,-0.01,0.0,0.05,-152.7,-25.7,-150.4,253.5,5.0,-84.7,3965,2019-05-30 12:12:18:166
9.75,0.01,0.9,9.72,-0.87,0.9,0.0,-0.05,0.01,-0.01,0.0,0.05,-152.7,-25.6,-150.5,253.5,5.0,-84.7,3970,2019-05-30 12:12:18:171
9.75,0.01,0.9,9.72,-0.87,0.9,0.0,-0.05,0.01,-0.01,0.0,0.05,-152.7,-25.6,-150.5,253.5,5.0,-84.7,3975,2019-05-30 12:12:18:176
9.75,0.01,0.9,9.72,-0.87,0.9,0.0,-0.05,0.01,-0.01,0.0,0.05,-152.7,-25.6,-150.5,253.5,5.0,-84.7,3980,2019-05-30 12:12:18:181
9.75,0.01,0.9,9.72,-0.87,0.9,0.0,-0.05,0.01,-0.01,0.0,0.05,-152.7,-25.6,-150.5,253.5,5.0,-84.7,3985,2019-05-30 12:12:18:186
9.82,-0.02,0.87,9.72,-0.88,0.9,0.05,-0.07,-0.02,-0.01,0.0,0.05,-153.2,-25.9,-150.9,253.4,5.1,-84.7,3991,2019-05-30 12:12:18:192
9.82,-0.02,0.87,9.72,-0.88,0.9,0.05,-0.07,-0.02,-0.01,0.0,0.05,-153.2,-25.9,-150.9,253.4,5.1,-84.7,3995,2019-05-30 12:12:18:196
9.82,-0.02,0.87,9.72,-0.88,0.9,0.05,-0.07,-0.02,-0.01,0.0,0.05,-153.2,-25.9,-150.9,253.4,5.1,-84.7,4000,2019-05-30 12:12:18:201
9.82,-0.02,0.87,9.72,-0.88,0.9,0.05,-0.07,-0.02,-0.01,0.0,0.05,-153.2,-25.9,-150.9,253.4,5.1,-84.7,4006,2019-05-30 12:12:18:207
9.82,-0.02,0.87,9.72,-0.88,0.9,0.05,-0.07,-0.02,-0.01,0.0,0.05,-153.2,-25.9,-150.9,253.4,5.1,-84.7,4010,2019-05-30 12:12:18:211
9.78,0.0,0.93,9.72,-0.89,0.9,0.02,-0.02,0.03,-0.01,0.0,0.05,-153.4,-26.0,-150.9,253.4,5.1,-84.7,4015,2019-05-30 12:12:18:216
9.78,0.0,0.93,9.72,-0.89,0.9,0.02,-0.02,0.03,-0.01,0.0,0.05,-153.4,-26.0,-150.9,253.4,5.1,-84.7,4020,2019-05-30 12:12:18:221
9.78,0.0,0.93,9.72,-0.89,0.9,0.02,-0.02,0.03,-0.01,0.0,0.05,-153.4,-26.0,-150.9,253.4,5.1,-84.7,4025,2019-05-30 12:12:18:226
9.74,0.0,0.89,9.72,-0.9,0.9,-0.01,-0.03,0.0,-0.01,0.0,0.05,-153.5,-26.0,-150.9,253.3,5.2,-84.7,4030,2019-05-30 12:12:18:231
9.74,0.0,0.89,9.72,-0.9,0.9,-0.01,-0.03,0.0,-0.01,0.0,0.05,-153.5,-26.0,-150.9,253.3,5.2,-84.7,4035,2019-05-30 12:12:18:236
9.74,0.0,0.89,9.72,-0.9,0.9,-0.01,-0.03,0.0,-0.01,0.0,0.05,-153.5,-26.0,-150.9,253.3,5.2,-84.7,4040,2019-05-30 12:12:18:241
9.74,0.0,0.89,9.72,-0.9,0.9,-0.01,-0.03,0.0,-0.01,0.0,0.05,-153.5,-26.0,-150.9,253.3,5.2,-84.7,4045,2019-05-30 12:12:18:246
9.76,0.03,0.86,9.72,-0.9,0.9,0.0,0.02,-0.03,-0.01,0.0,0.05,-153.2,-25.6,-150.4,253.3,5.2,-84.7,4050,2019-05-30 12:12:18:251
9.76,0.03,0.86,9.72,-0.9,0.9,0.0,0.02,-0.03,-0.01,0.0,0.05,-153.2,-25.6,-150.4,253.3,5.2,-84.7,4055,2019-05-30 12:12:18:256
9.76,0.03,0.86,9.72,-0.9,0.9,0.0,0.02,-0.03,-0.01,0.0,0.05,-153.2,-25.6,-150.4,253.3,5.2,-84.7,4061,2019-05-30 12:12:18:262
9.76,0.03,0.86,9.72,-0.9,0.9,0.0,0.02,-0.03,-0.01,0.0,0.05,-153.2,-25.6,-150.4,253.3,5.2,-84.7,4067,2019-05-30 12:12:18:268
9.76,0.03,0.86,9.72,-0.9,0.9,0.0,0.02,-0.03,-0.01,0.0,0.05,-153.2,-25.6,-150.4,253.3,5.2,-84.7,4070,2019-05-30 12:12:18:271
9.75,-0.07,0.88,9.72,-0.91,0.9,-0.01,-0.06,-0.01,-0.01,0.0,0.05,-153.0,-24.9,-150.2,253.5,5.3,-84.7,4075,2019-05-30 12:12:18:276
9.75,-0.07,0.88,9.72,-0.91,0.9,-0.01,-0.06,-0.01,-0.01,0.0,0.05,-153.0,-24.9,-150.2,253.5,5.3,-84.7,4081,2019-05-30 12:12:18:282
9.75,-0.07,0.88,9.72,-0.91,0.9,-0.01,-0.06,-0.01,-0.01,0.0,0.05,-153.0,-24.9,-150.2,253.5,5.3,-84.7,4086,2019-05-30 12:12:18:287
9.75,-0.07,0.88,9.72,-0.91,0.9,-0.01,-0.06,-0.01,-0.01,0.0,0.05,-153.0,-24.9,-150.2,253.5,5.3,-84.7,4094,2019-05-30 12:12:18:295
9.75,-0.07,0.88,9.72,-0.91,0.9,-0.01,-0.06,-0.01,-0.01,0.0,0.05,-153.0,-24.9,-150.2,253.5,5.3,-84.7,4094,2019-05-30 12:12:18:295
9.8,-0.09,0.87,9.72,-0.92,0.9,0.04,-0.07,-0.02,-0.01,0.0,0.05,-153.1,-25.1,-150.8,253.5,5.3,-84.7,4100,2019-05-30 12:12:18:301
9.8,-0.09,0.87,9.72,-0.92,0.9,0.04,-0.07,-0.02,-0.01,0.0,0.05,-153.1,-25.1,-150.8,253.5,5.3,-84.7,4105,2019-05-30 12:12:18:306
9.8,-0.09,0.87,9.72,-0.92,0.9,0.04,-0.07,-0.02,-0.01,0.0,0.05,-153.1,-25.1,-150.8,253.5,5.3,-84.7,4110,2019-05-30 12:12:18:311
9.8,-0.09,0.87,9.72,-0.92,0.9,0.04,-0.07,-0.02,-0.01,0.0,0.05,-153.1,-25.1,-150.8,253.5,5.3,-84.7,4115,2019-05-30 12:12:18:316
9.72,-0.06,0.9,9.72,-0.92,0.9,-0.03,-0.03,0.0,-0.01,0.0,0.04,-153.6,-24.8,-150.8,253.4,5.4,-84.7,4120,2019-05-30 12:12:18:321
9.72,-0.06,0.9,9.72,-0.93,0.9,-0.03,-0.03,0.0,-0.01,0.0,0.04,-153.6,-24.8,-150.8,253.4,5.4,-84.7,4125,2019-05-30 12:12:18:326
9.72,-0.06,0.9,9.72,-0.93,0.9,-0.03,-0.03,0.0,-0.01,0.0,0.04,-153.6,-24.8,-150.8,253.4,5.4,-84.7,4132,2019-05-30 12:12:18:333
9.72,-0.06,0.9,9.72,-0.93,0.9,-0.03,-0.03,0.0,-0.01,0.0,0.04,-153.6,-24.8,-150.8,253.4,5.4,-84.7,4135,2019-05-30 12:12:18:336
9.78,-0.04,0.95,9.72,-0.93,0.9,0.01,0.0,0.05,-0.01,0.0,0.04,-153.7,-25.2,-150.7,253.4,5.4,-84.7,4140,2019-05-30 12:12:18:341
9.78,-0.04,0.95,9.72,-0.93,0.9,0.01,0.0,0.05,-0.01,0.0,0.04,-153.7,-25.2,-150.7,253.4,5.4,-84.7,4146,2019-05-30 12:12:18:347
9.78,-0.04,0.95,9.72,-0.93,0.9,0.01,0.0,0.05,-0.01,0.0,0.04,-153.7,-25.2,-150.7,253.4,5.4,-84.7,4153,2019-05-30 12:12:18:354
9.78,-0.04,0.95,9.72,-0.93,0.9,0.01,0.0,0.05,-0.01,0.0,0.04,-153.7,-25.2,-150.7,253.4,5.4,-84.7,4155,2019-05-30 12:12:18:356
9.74,-0.01,0.9,9.71,-0.94,0.9,-0.02,0.04,0.0,-0.01,0.0,0.03,-153.2,-25.6,-150.7,253.0,5.4,-84.7,4160,2019-05-30 12:12:18:361
9.74,-0.01,0.9,9.71,-0.94,0.9,-0.02,0.04,0.0,-0.01,0.0,0.03,-153.2,-25.6,-150.7,253.0,5.4,-84.7,4166,2019-05-30 12:12:18:367
9.8,-0.04,0.88,9.71,-0.94,0.9,-0.02,0.04,0.0,0.0,0.0,0.04,-153.2,-25.6,-150.7,253.0,5.4,-84.7,4171,2019-05-30 12:12:18:372
9.8,-0.04,0.88,9.71,-0.94,0.9,0.0,0.04,0.02,0.0,0.0,0.04,-153.5,-25.0,-150.1,253.0,5.4,-84.7,4175,2019-05-30 12:12:18:376
9.8,-0.04,0.88,9.71,-0.94,0.9,0.0,0.04,0.02,0.0,0.0,0.04,-153.5,-25.0,-150.1,253.0,5.4,-84.7,4179,2019-05-30 12:12:18:380
9.8,-0.04,0.88,9.71,-0.94,0.9,0.0,0.04,0.02,0.0,0.0,0.04,-153.5,-25.0,-150.1,253.0,5.4,-84.7,4185,2019-05-30 12:12:18:386
9.81,-0.04,0.93,9.71,-0.94,0.9,0.04,0.01,0.03,0.0,0.0,0.03,-153.6,-24.9,-149.9,253.0,5.4,-84.7,4191,2019-05-30 12:12:18:392
9.81,-0.04,0.93,9.71,-0.95,0.9,0.04,0.01,0.03,0.0,0.0,0.03,-153.6,-24.9,-149.9,253.0,5.4,-84.7,4196,2019-05-30 12:12:18:397
9.81,-0.04,0.93,9.71,-0.95,0.9,0.04,0.01,0.03,0.0,0.0,0.03,-153.6,-24.9,-149.9,253.0,5.4,-84.7,4200,2019-05-30 12:12:18:401
9.81,-0.04,0.93,9.71,-0.95,0.9,0.04,0.01,0.03,0.0,0.0,0.03,-153.6,-24.9,-149.9,253.0,5.4,-84.7,4205,2019-05-30 12:12:18:406
9.81,-0.04,0.93,9.71,-0.95,0.9,0.04,0.01,0.03,0.0,0.0,0.03,-153.6,-24.9,-149.9,253.0,5.4,-84.7,4210,2019-05-30 12:12:18:411
9.81,-0.08,0.93,9.71,-0.95,0.9,0.03,-0.01,0.03,0.0,0.0,0.03,-153.5,-24.5,-150.1,253.1,5.6,-84.7,4215,2019-05-30 12:12:18:416
9.81,-0.08,0.93,9.71,-0.95,0.9,0.03,-0.01,0.03,0.0,0.0,0.03,-153.5,-24.5,-150.1,253.1,5.6,-84.7,4220,2019-05-30 12:12:18:421
9.81,-0.08,0.93,9.71,-0.95,0.9,0.03,-0.01,0.03,0.0,0.0,0.03,-153.5,-24.5,-150.1,253.1,5.6,-84.7,4225,2019-05-30 12:12:18:426
9.81,-0.08,0.93,9.71,-0.95,0.9,0.03,-0.01,0.03,0.0,0.0,0.03,-153.5,-24.5,-150.1,253.1,5.6,-84.7,4230,2019-05-30 12:12:18:431
9.78,0.0,0.92,9.71,-0.95,0.9,0.01,0.06,0.0,0.0,0.0,0.03,-153.5,-25.0,-150.9,253.1,5.6,-84.7,4236,2019-05-30 12:12:18:437
9.78,0.0,0.92,9.71,-0.95,0.9,0.01,0.06,0.0,0.0,0.0,0.03,-153.5,-25.0,-150.9,253.1,5.6,-84.7,4240,2019-05-30 12:12:18:441
9.78,0.0,0.92,9.71,-0.95,0.9,0.01,0.06,0.0,0.0,0.0,0.03,-153.5,-25.0,-150.9,253.1,5.6,-84.7,4245,2019-05-30 12:12:18:446
9.78,0.0,0.92,9.71,-0.95,0.9,0.01,0.06,0.0,0.0,0.0,0.03,-153.5,-25.0,-150.9,253.1,5.6,-84.7,4252,2019-05-30 12:12:18:453
9.78,0.0,0.92,9.71,-0.95,0.9,0.01,0.06,0.0,0.0,0.0,0.03,-153.5,-25.0,-150.9,253.1,5.6,-84.7,4255,2019-05-30 12:12:18:456
9.83,-0.03,0.93,9.71,-0.95,0.9,0.01,0.06,0.0,0.0,0.0,0.03,-153.7,-25.2,-150.9,253.2,5.6,-84.7,4260,2019-05-30 12:12:18:461
9.83,-0.03,0.93,9.71,-0.96,0.9,0.05,0.03,0.01,0.0,0.0,0.03,-153.7,-25.2,-150.9,253.2,5.6,-84.7,4265,2019-05-30 12:12:18:466
9.83,-0.03,0.93,9.71,-0.96,0.9,0.05,0.03,0.01,0.0,0.0,0.03,-153.1,-24.9,-150.3,253.2,5.6,-84.7,4270,2019-05-30 12:12:18:471
9.8,-0.04,0.86,9.71,-0.96,0.9,0.01,0.02,-0.05,0.0,0.0,0.03,-153.1,-24.9,-150.3,253.2,5.6,-84.7,4275,2019-05-30 12:12:18:476
9.8,-0.04,0.86,9.71,-0.96,0.9,0.01,0.02,-0.05,0.0,0.0,0.03,-153.1,-24.9,-150.3,253.2,5.6,-84.7,4280,2019-05-30 12:12:18:481
9.8,-0.04,0.86,9.71,-0.96,0.9,0.01,0.02,-0.05,0.0,0.0,0.03,-153.1,-24.9,-150.3,253.2,5.6,-84.7,4285,2019-05-30 12:12:18:486
9.8,-0.04,0.86,9.71,-0.96,0.9,0.01,0.02,-0.05,0.0,0.0,0.03,-153.1,-24.9,-150.3,253.2,5.6,-84.7,4291,2019-05-30 12:12:18:492
9.78,-0.04,0.86,9.71,-0.96,0.9,0.0,0.01,-0.04,0.0,0.0,0.03,-153.1,-25.3,-149.9,253.1,5.6,-84.7,4296,2019-05-30 12:12:18:497
9.78,-0.04,0.86,9.71,-0.96,0.9,0.0,0.01,-0.04,0.0,0.0,0.03,-153.1,-25.3,-149.9,253.1,5.6,-84.7,4301,2019-05-30 12:12:18:502
9.78,-0.04,0.86,9.71,-0.96,0.9,0.0,0.01,-0.04,0.0,0.0,0.03,-153.1,-25.3,-149.9,253.1,5.6,-84.7,4305,2019-05-30 12:12:18:506
9.78,-0.04,0.86,9.71,-0.96,0.9,0.0,0.01,-0.04,0.0,0.0,0.03,-153.1,-25.3,-149.9,253.1,5.6,-84.7,4310,2019-05-30 12:12:18:511
9.76,-0.03,0.89,9.71,-0.97,0.9,-0.01,0.02,-0.01,0.0,0.0,0.03,-153.4,-25.7,-149.7,253.1,5.6,-84.7,4315,2019-05-30 12:12:18:516
9.76,-0.03,0.89,9.71,-0.97,0.9,-0.01,0.02,-0.01,0.0,0.0,0.03,-153.4,-25.7,-149.7,253.1,5.6,-84.7,4320,2019-05-30 12:12:18:521
9.76,-0.03,0.89,9.71,-0.97,0.9,-0.01,0.02,-0.01,0.0,0.0,0.03,-153.4,-25.7,-149.7,253.1,5.6,-84.7,4325,2019-05-30 12:12:18:526
9.76,-0.03,0.89,9.71,-0.97,0.9,-0.01,0.02,-0.01,0.0,0.0,0.03,-153.4,-25.7,-149.7,253.1,5.6,-84.7,4332,2019-05-30 12:12:18:533
9.76,-0.03,0.89,9.71,-0.97,0.9,-0.01,0.02,-0.01,0.0,0.0,0.03,-153.4,-25.7,-149.7,253.1,5.6,-84.7,4335,2019-05-30 12:12:18:536
9.79,-0.04,0.88,9.71,-0.97,0.9,0.0,0.0,-0.01,0.0,0.0,0.03,-153.1,-26.0,-149.6,252.6,5.7,-84.7,4340,2019-05-30 12:12:18:541
9.79,-0.04,0.88,9.71,-0.97,0.9,0.0,0.0,-0.01,0.0,0.0,0.03,-153.1,-26.0,-149.6,252.6,5.7,-84.7,4345,2019-05-30 12:12:18:546
9.79,-0.04,0.88,9.71,-0.97,0.9,0.0,0.0,-0.01,0.0,0.0,0.03,-153.1,-26.0,-149.6,252.6,5.7,-84.7,4350,2019-05-30 12:12:18:551
9.76,-0.02,0.91,9.71,-0.97,0.9,-0.02,0.02,0.01,0.0,0.0,0.03,-153.3,-25.4,-150.1,252.6,5.7,-84.7,4355,2019-05-30 12:12:18:556
9.76,-0.02,0.91,9.71,-0.97,0.9,-0.02,0.02,0.01,0.0,0.0,0.03,-153.3,-25.4,-150.1,252.6,5.7,-84.7,4360,2019-05-30 12:12:18:561
9.76,-0.02,0.91,9.71,-0.97,0.9,-0.02,0.02,0.01,0.0,0.0,0.03,-153.3,-25.4,-150.1,252.6,5.7,-84.7,4366,2019-05-30 12:12:18:567
9.76,-0.02,0.91,9.71,-0.97,0.9,-0.02,0.02,0.01,0.0,0.0,0.03,-153.3,-25.4,-150.1,252.6,5.7,-84.7,4370,2019-05-30 12:12:18:571
9.77,-0.02,0.95,9.71,-0.97,0.9,-0.01,0.02,0.05,0.0,0.0,0.03,-153.5,-25.0,-150.1,252.6,5.7,-84.7,4376,2019-05-30 12:12:18:577
9.77,-0.02,0.95,9.71,-0.97,0.9,-0.01,0.02,0.05,0.0,0.0,0.03,-153.5,-25.0,-150.1,252.6,5.7,-84.7,4381,2019-05-30 12:12:18:582
9.77,-0.02,0.95,9.71,-0.97,0.9,-0.01,0.02,0.05,0.0,0.0,0.03,-153.5,-25.0,-150.1,252.6,5.7,-84.7,4385,2019-05-30 12:12:18:586
9.77,-0.02,0.95,9.71,-0.97,0.9,-0.01,0.02,0.05,0.0,0.0,0.03,-153.5,-25.0,-150.1,252.6,5.7,-84.7,4390,2019-05-30 12:12:18:591
9.77,-0.02,0.95,9.71,-0.97,0.9,-0.01,0.02,0.05,0.0,0.0,0.03,-153.5,-25.0,-150.1,252.6,5.7,-84.7,4396,2019-05-30 12:12:18:597
9.79,0.03,0.92,9.71,-0.98,0.9,0.01,0.07,0.02,0.0,0.0,0.03,-153.5,-25.3,-149.8,253.0,5.7,-84.7,4400,2019-05-30 12:12:18:601
9.79,0.03,0.92,9.71,-0.98,0.9,0.01,0.07,0.02,0.0,0.0,0.03,-153.5,-25.3,-149.8,253.0,5.7,-84.7,4405,2019-05-30 12:12:18:606
9.79,0.03,0.92,9.71,-0.98,0.9,0.01,0.07,0.02,0.0,0.0,0.03,-153.5,-25.3,-149.8,253.0,5.7,-84.7,4412,2019-05-30 12:12:18:613
9.78,0.0,0.88,9.71,-0.98,0.9,0.0,0.04,-0.01,-0.01,0.0,0.03,-153.4,-25.1,-150.0,253.0,5.7,-84.7,4415,2019-05-30 12:12:18:616
9.78,0.0,0.88,9.71,-0.98,0.9,0.0,0.04,-0.01,-0.01,0.0,0.03,-153.4,-25.1,-150.0,253.0,5.7,-84.7,4420,2019-05-30 12:12:18:621
9.78,0.0,0.88,9.71,-0.98,0.9,0.0,0.04,-0.01,-0.01,0.0,0.03,-153.4,-25.1,-150.0,253.0,5.7,-84.7,4425,2019-05-30 12:12:18:626
9.75,-0.06,0.91,9.71,-0.99,0.9,-0.02,-0.02,0.01,-0.01,0.0,0.03,-153.3,-24.8,-150.1,252.9,5.7,-84.7,4432,2019-05-30 12:12:18:633
9.75,-0.06,0.91,9.71,-0.99,0.9,-0.02,-0.02,0.01,-0.01,0.0,0.03,-153.3,-24.8,-150.1,252.9,5.7,-84.7,4435,2019-05-30 12:12:18:636
9.75,-0.06,0.91,9.71,-0.99,0.9,-0.02,-0.02,0.01,-0.01,0.0,0.03,-153.3,-24.8,-150.1,252.9,5.7,-84.7,4440,2019-05-30 12:12:18:641
9.75,-0.06,0.91,9.71,-0.99,0.9,-0.02,-0.02,0.01,-0.01,0.0,0.03,-153.3,-24.8,-150.1,252.9,5.7,-84.7,4445,2019-05-30 12:12:18:646
9.75,-0.06,0.91,9.71,-0.99,0.9,-0.02,-0.02,0.01,-0.01,0.0,0.03,-153.3,-24.8,-150.1,252.9,5.7,-84.7,4452,2019-05-30 12:12:18:653
9.75,-0.06,0.91,9.71,-0.99,0.9,-0.02,-0.02,0.01,-0.01,0.0,0.03,-153.3,-24.8,-150.1,252.9,5.7,-84.7,4455,2019-05-30 12:12:18:656
9.77,-0.05,0.89,9.71,-0.99,0.9,0.0,-0.01,0.0,-0.01,0.0,0.03,-153.2,-25.0,-150.4,252.9,5.7,-84.7,4460,2019-05-30 12:12:18:661
9.77,-0.05,0.89,9.71,-0.99,0.9,0.0,-0.01,0.0,-0.01,0.0,0.03,-153.2,-25.0,-150.4,252.9,5.7,-84.7,4465,2019-05-30 12:12:18:666
9.73,-0.07,0.93,9.71,-0.99,0.9,0.0,-0.01,0.0,-0.01,0.0,0.03,-153.8,-25.5,-150.6,252.9,5.8,-84.7,4470,2019-05-30 12:12:18:671
9.73,-0.07,0.93,9.71,-0.99,0.9,0.0,-0.01,0.0,-0.01,0.0,0.03,-153.8,-25.5,-150.6,252.9,5.8,-84.7,4475,2019-05-30 12:12:18:676
9.73,-0.07,0.93,9.71,-0.99,0.9,-0.04,-0.02,0.04,-0.01,0.0,0.03,-153.8,-25.5,-150.6,252.9,5.8,-84.7,4481,2019-05-30 12:12:18:682
9.73,-0.07,0.93,9.71,-0.99,0.9,-0.04,-0.02,0.04,-0.01,0.0,0.03,-153.8,-25.5,-150.6,252.9,5.8,-84.7,4485,2019-05-30 12:12:18:686
9.73,-0.07,0.93,9.71,-0.99,0.9,-0.04,-0.02,0.04,-0.01,0.0,0.03,-153.8,-25.5,-150.6,252.9,5.8,-84.7,4490,2019-05-30 12:12:18:691
9.73,-0.07,0.93,9.71,-0.99,0.9,-0.04,-0.02,0.04,-0.01,0.0,0.03,-153.8,-25.5,-150.6,252.9,5.8,-84.7,4495,2019-05-30 12:12:18:696
9.75,-0.13,0.89,9.71,-1.0,0.9,-0.01,-0.07,0.0,-0.01,0.0,0.03,-153.8,-25.6,-150.6,252.9,5.8,-84.7,4500,2019-05-30 12:12:18:701
9.75,-0.13,0.89,9.71,-1.0,0.9,-0.01,-0.07,0.0,-0.01,0.0,0.03,-153.8,-25.6,-150.6,252.9,5.8,-84.7,4505,2019-05-30 12:12:18:706
9.75,-0.13,0.89,9.71,-1.0,0.9,-0.01,-0.07,0.0,-0.01,0.0,0.03,-153.8,-25.6,-150.6,252.9,5.8,-84.7,4511,2019-05-30 12:12:18:712
9.79,-0.11,0.92,9.71,-1.0,0.9,0.01,-0.05,0.01,-0.01,0.0,0.02,-153.5,-25.2,-150.7,252.9,5.9,-84.7,4515,2019-05-30 12:12:18:716
9.79,-0.11,0.92,9.71,-1.0,0.9,0.01,-0.05,0.01,-0.01,0.0,0.02,-153.5,-25.2,-150.7,252.9,5.9,-84.7,4520,2019-05-30 12:12:18:721
9.79,-0.11,0.92,9.71,-1.0,0.9,0.01,-0.05,0.01,-0.01,0.0,0.02,-153.5,-25.2,-150.7,252.9,5.9,-84.7,4525,2019-05-30 12:12:18:726
9.79,-0.11,0.92,9.71,-1.0,0.9,0.01,-0.05,0.01,-0.01,0.0,0.02,-153.5,-25.2,-150.7,252.9,5.9,-84.7,4531,2019-05-30 12:12:18:732
9.79,-0.11,0.92,9.71,-1.0,0.9,0.01,-0.05,0.01,-0.01,0.0,0.02,-153.5,-25.2,-150.7,252.9,5.9,-84.7,4536,2019-05-30 12:12:18:737
9.76,-0.13,0.88,9.71,-1.0,0.9,0.0,-0.06,-0.02,0.0,0.0,0.02,-153.6,-24.8,-151.0,252.9,5.9,-84.7,4540,2019-05-30 12:12:18:741
9.76,-0.13,0.88,9.71,-1.0,0.9,0.0,-0.06,-0.02,0.0,0.0,0.02,-153.6,-24.8,-151.0,252.9,5.9,-84.7,4545,2019-05-30 12:12:18:746
9.76,-0.18,0.92,9.71,-0.99,0.9,0.0,-0.07,0.0,0.0,0.0,0.01,-153.4,-24.5,-150.4,253.3,5.8,-84.7,4552,2019-05-30 12:12:18:753
9.78,-0.18,0.92,9.71,-0.99,0.9,0.0,-0.07,0.0,0.0,0.0,0.01,-153.4,-24.5,-150.4,253.3,5.8,-84.7,4555,2019-05-30 12:12:18:756
9.78,-0.18,0.92,9.71,-0.99,0.9,0.0,-0.07,0.0,0.0,0.0,0.01,-153.4,-24.5,-150.4,253.3,5.8,-84.7,4560,2019-05-30 12:12:18:761
9.78,-0.18,0.92,9.71,-0.99,0.9,0.0,-0.07,0.0,0.0,0.0,0.01,-153.4,-24.5,-150.4,253.3,5.8,-84.7,4565,2019-05-30 12:12:18:766
9.81,-0.17,0.92,9.71,-0.99,0.9,0.0,-0.07,0.0,0.0,0.0,0.01,-153.4,-24.5,-150.4,253.3,5.8,-84.7,4570,2019-05-30 12:12:18:771
9.81,-0.17,0.92,9.71,-0.99,0.9,0.03,-0.08,0.01,0.0,0.0,0.01,-153.5,-24.8,-149.9,253.3,5.8,-84.7,4577,2019-05-30 12:12:18:778
9.81,-0.17,0.92,9.71,-0.99,0.9,0.03,-0.08,0.01,0.0,0.0,0.01,-153.5,-24.8,-149.9,253.3,5.8,-84.7,4588,2019-05-30 12:12:18:789
9.81,-0.17,0.92,9.71,-0.99,0.9,0.03,-0.08,0.01,0.0,0.0,0.01,-153.5,-24.8,-149.9,253.3,5.8,-84.7,4590,2019-05-30 12:12:18:791
9.76,-0.14,0.86,9.71,-0.99,0.9,0.03,-0.08,0.01,0.0,0.0,0.0,-153.9,-25.4,-150.1,252.8,5.8,-84.7,4591,2019-05-30 12:12:18:792
9.76,-0.14,0.86,9.71,-0.99,0.9,0.03,-0.08,0.01,0.0,0.0,0.0,-153.9,-25.4,-150.1,252.8,5.8,-84.7,4599,2019-05-30 12:12:18:800
9.76,-0.14,0.86,9.71,-0.99,0.9,0.03,-0.08,0.01,0.0,0.0,0.0,-153.9,-25.4,-150.1,252.8,5.8,-84.7,4600,2019-05-30 12:12:18:801
9.76,-0.14,0.86,9.71,-0.99,0.9,-0.01,-0.04,-0.03,0.0,0.0,0.0,-153.9,-25.4,-150.1,252.8,5.8,-84.7,4610,2019-05-30 12:12:18:811
9.76,-0.14,0.86,9.71,-0.99,0.9,-0.01,-0.04,-0.03,0.0,0.0,0.0,-153.9,-25.4,-150.1,252.8,5.8,-84.7,4611,2019-05-30 12:12:18:812
9.76,-0.14,0.86,9.71,-0.99,0.9,-0.01,-0.04,-0.03,0.0,0.0,0.0,-153.9,-25.4,-150.1,252.8,5.8,-84.7,4615,2019-05-30 12:12:18:816
9.76,-0.1,0.86,9.71,-0.99,0.9,-0.01,0.0,-0.03,0.0,0.0,0.0,-153.3,-25.2,-150.9,252.8,5.8,-84.7,4620,2019-05-30 12:12:18:821
9.76,-0.1,0.86,9.71,-0.99,0.9,-0.01,0.0,-0.03,0.0,0.0,0.0,-153.3,-25.2,-150.9,252.8,5.8,-84.7,4625,2019-05-30 12:12:18:826
9.76,-0.1,0.86,9.71,-0.99,0.9,-0.01,0.0,-0.03,0.0,0.0,0.0,-153.3,-25.2,-150.9,252.8,5.8,-84.7,4631,2019-05-30 12:12:18:832
9.76,-0.1,0.86,9.71,-0.99,0.9,-0.01,0.0,-0.03,0.0,0.0,0.0,-153.3,-25.2,-150.9,252.8,5.8,-84.7,4637,2019-05-30 12:12:18:838
9.81,-0.08,0.87,9.71,-0.98,0.9,0.03,0.02,-0.03,0.0,0.0,0.0,-153.1,-25.4,-150.9,253.0,5.8,-84.7,4642,2019-05-30 12:12:18:843
9.81,-0.08,0.87,9.71,-0.98,0.9,0.03,0.02,-0.03,0.0,0.0,0.0,-153.1,-25.4,-150.9,253.0,5.8,-84.7,4645,2019-05-30 12:12:18:846
9.81,-0.08,0.87,9.71,-0.98,0.9,0.03,0.02,-0.03,0.0,0.0,0.0,-153.1,-25.4,-150.9,253.0,5.8,-84.7,4651,2019-05-30 12:12:18:852
9.81,-0.08,0.87,9.71,-0.98,0.9,0.03,0.02,-0.03,0.0,0.0,0.0,-153.1,-25.4,-150.9,253.0,5.8,-84.7,4655,2019-05-30 12:12:18:856
9.75,-0.03,0.9,9.71,-0.98,0.9,-0.02,0.07,0.0,0.0,0.0,-0.01,-152.7,-25.1,-150.3,253.0,5.8,-84.7,4661,2019-05-30 12:12:18:862
9.77,-0.05,0.86,9.71,-0.98,0.9,0.0,0.04,-0.02,0.0,0.0,-0.01,-152.6,-25.1,-150.5,253.0,5.8,-84.7,4674,2019-05-30 12:12:18:875
9.77,-0.05,0.86,9.71,-0.98,0.9,0.0,0.04,-0.02,0.0,0.0,-0.01,-152.6,-25.1,-150.5,253.0,5.8,-84.7,4675,2019-05-30 12:12:18:876
9.77,-0.05,0.86,9.71,-0.98,0.9,0.0,0.04,-0.02,0.0,0.0,-0.01,-152.6,-25.1,-150.5,253.0,5.8,-84.7,4675,2019-05-30 12:12:18:876
9.77,-0.05,0.86,9.71,-0.98,0.9,0.0,0.04,-0.02,0.0,0.0,-0.01,-152.6,-25.1,-150.5,253.0,5.8,-84.7,4680,2019-05-30 12:12:18:881
9.77,-0.05,0.86,9.71,-0.98,0.9,0.0,0.04,-0.02,0.0,0.0,-0.01,-152.6,-25.1,-150.5,253.0,5.8,-84.7,4686,2019-05-30 12:12:18:887
9.77,-0.05,0.86,9.71,-0.98,0.9,0.0,0.04,-0.02,0.0,0.0,-0.01,-152.6,-25.1,-150.5,253.0,5.8,-84.7,4690,2019-05-30 12:12:18:891
9.77,-0.05,0.86,9.71,-0.98,0.9,0.0,0.04,-0.02,0.0,0.0,-0.01,-152.6,-25.1,-150.5,253.0,5.8,-84.7,4695,2019-05-30 12:12:18:896
9.79,-0.02,0.86,9.71,-0.98,0.9,0.01,0.06,-0.02,0.0,0.0,-0.01,-152.7,-25.3,-150.4,252.9,5.7,-84.7,4700,2019-05-30 12:12:18:901
9.79,-0.02,0.86,9.71,-0.97,0.9,0.01,0.06,-0.02,0.0,0.0,-0.01,-152.7,-25.3,-150.4,252.9,5.7,-84.7,4705,2019-05-30 12:12:18:906
9.79,-0.02,0.86,9.71,-0.97,0.9,0.01,0.06,-0.02,0.0,0.0,-0.01,-152.7,-25.3,-150.4,252.9,5.7,-84.7,4710,2019-05-30 12:12:18:911
9.78,-0.02,0.9,9.71,-0.97,0.9,0.0,0.06,0.01,0.0,0.0,-0.01,-153.2,-26.2,-150.5,252.9,5.7,-84.7,4720,2019-05-30 12:12:18:921
9.78,-0.02,0.9,9.71,-0.97,0.9,0.0,0.06,0.01,0.0,0.0,-0.01,-153.2,-26.2,-150.5,252.9,5.7,-84.7,4721,2019-05-30 12:12:18:922
9.78,-0.02,0.9,9.71,-0.97,0.9,0.0,0.06,0.01,0.0,0.0,-0.01,-153.2,-26.2,-150.5,252.9,5.7,-84.7,4725,2019-05-30 12:12:18:926
9.78,-0.02,0.9,9.71,-0.97,0.9,0.0,0.06,0.01,0.0,0.0,-0.01,-153.2,-26.2,-150.5,252.9,5.7,-84.7,4730,2019-05-30 12:12:18:931
9.76,-0.03,0.87,9.71,-0.97,0.9,-0.03,0.03,0.02,0.0,0.0,-0.01,-152.9,-26.2,-150.9,252.9,5.7,-84.7,4736,2019-05-30 12:12:18:937
9.76,-0.03,0.87,9.71,-0.97,0.9,-0.03,0.03,0.02,0.0,0.0,-0.01,-152.9,-26.2,-150.9,252.9,5.7,-84.7,4741,2019-05-30 12:12:18:942
9.76,-0.03,0.87,9.71,-0.97,0.9,-0.03,0.03,0.02,0.0,0.0,-0.01,-152.9,-26.2,-150.9,252.9,5.7,-84.7,4745,2019-05-30 12:12:18:946
9.76,-0.03,0.87,9.71,-0.97,0.9,-0.03,0.03,0.02,0.0,0.0,-0.01,-152.9,-26.2,-150.9,252.9,5.7,-84.7,4750,2019-05-30 12:12:18:951
9.76,-0.04,0.91,9.71,-0.97,0.9,-0.03,0.03,0.02,0.0,0.0,-0.01,-152.9,-26.2,-150.9,252.9,5.7,-84.7,4756,2019-05-30 12:12:18:957
9.74,-0.04,0.91,9.71,-0.97,0.9,-0.03,0.03,0.02,0.0,0.0,-0.01,-152.4,-25.8,-150.4,252.7,5.7,-84.7,4760,2019-05-30 12:12:18:961
9.74,-0.04,0.91,9.71,-0.97,0.9,-0.03,0.03,0.02,0.0,0.0,-0.01,-152.4,-25.8,-150.4,252.7,5.7,-84.7,4765,2019-05-30 12:12:18:966
9.74,-0.04,0.91,9.71,-0.97,0.9,-0.03,0.03,0.02,0.0,0.0,-0.01,-152.4,-25.8,-150.4,252.7,5.7,-84.7,4770,2019-05-30 12:12:18:971
9.74,-0.04,0.91,9.71,-0.97,0.9,-0.03,0.03,0.02,0.0,0.0,-0.01,-152.4,-25.8,-150.4,252.7,5.7,-84.7,4776,2019-05-30 12:12:18:977
9.77,0.0,0.87,9.71,-0.96,0.9,0.0,0.04,-0.02,0.0,0.0,-0.01,-152.9,-26.0,-149.9,252.7,5.7,-84.7,4780,2019-05-30 12:12:18:981
9.77,0.0,0.87,9.71,-0.96,0.9,0.0,0.04,-0.02,0.0,0.0,-0.01,-152.9,-26.0,-149.9,252.7,5.7,-84.7,4785,2019-05-30 12:12:18:986
9.77,0.0,0.87,9.71,-0.96,0.9,0.0,0.04,-0.02,0.0,0.0,-0.01,-152.9,-26.0,-149.9,252.7,5.7,-84.7,4790,2019-05-30 12:12:18:991
9.77,0.0,0.87,9.71,-0.96,0.9,0.0,0.04,-0.02,0.0,0.0,-0.01,-152.9,-26.0,-149.9,252.7,5.7,-84.7,4795,2019-05-30 12:12:18:996
9.77,0.0,0.87,9.71,-0.96,0.9,0.0,0.04,-0.02,0.0,0.0,-0.01,-152.9,-26.0,-149.9,252.7,5.7,-84.7,4800,2019-05-30 12:12:19:001
9.78,0.02,0.93,9.71,-0.96,0.9,0.01,0.05,0.03,0.0,0.0,-0.02,-153.4,-26.2,-150.3,252.7,5.6,-84.7,4806,2019-05-30 12:12:19:007
9.78,0.02,0.93,9.71,-0.96,0.9,0.01,0.05,0.03,0.0,0.0,-0.02,-153.4,-26.2,-150.3,252.7,5.6,-84.7,4810,2019-05-30 12:12:19:011
9.78,0.02,0.93,9.71,-0.96,0.9,0.01,0.05,0.03,0.0,0.0,-0.02,-153.4,-26.2,-150.3,252.7,5.6,-84.7,4815,2019-05-30 12:12:19:016
