ACCELEROMETER X (m/s²),ACCELEROMETER Y (m/s²),ACCELEROMETER Z (m/s²),GYROSCOPE X (rad/s),GYROSCOPE Y (rad/s),GYROSCOPE Z (rad/s),Time since start in ms ,YYYY-MO-DD HH-MI-SS_SSS
-3.38,-9.33,0.13,0.0,0.0,-0.01,4,1559243532.523
-3.38,-9.33,0.13,0.0,0.0,-0.01,9,1559243532.528
-3.38,-9.33,0.13,0.0,0.0,-0.01,15,1559243532.534
-3.38,-9.33,0.13,0.0,0.0,-0.01,20,1559243532.539
-3.35,-9.35,0.14,0.0,0.0,-0.01,24,1559243532.543
-3.35,-9.35,0.14,0.0,0.0,-0.01,29,1559243532.548
-3.35,-9.35,0.14,0.0,0.0,-0.01,34,1559243532.553
-3.35,-9.35,0.14,0.0,0.0,-0.01,39,1559243532.558
-3.4,-9.32,0.05,0.0,0.0,-0.01,44,1559243532.563
-3.4,-9.32,0.05,0.0,0.0,-0.01,49,1559243532.568
-3.4,-9.32,0.05,0.0,0.0,-0.01,54,1559243532.573
-3.4,-9.32,0.05,0.0,0.0,-0.01,59,1559243532.578
-3.4,-9.32,0.05,0.0,0.0,-0.01,64,1559243532.583
-3.43,-9.31,0.16,0.0,0.0,-0.01,69,1559243532.588
-3.43,-9.31,0.16,0.0,0.0,-0.01,74,1559243532.593
-3.43,-9.31,0.16,0.0,0.0,-0.01,79,1559243532.598
-3.43,-9.31,0.16,0.0,0.0,-0.01,84,1559243532.603
-3.35,-9.35,0.04,0.0,0.0,-0.01,89,1559243532.608
-3.35,-9.35,0.04,0.0,0.0,-0.01,94,1559243532.613
-3.35,-9.35,0.04,0.0,0.0,-0.01,99,1559243532.618
-3.35,-9.35,0.04,0.0,0.0,-0.01,104,1559243532.623
-3.35,-9.35,0.04,0.0,0.0,-0.01,109,1559243532.628
-3.4,-9.38,0.0,0.0,0.0,-0.01,114,1559243532.633
-3.4,-9.38,0.0,0.0,0.0,-0.01,119,1559243532.638
-3.4,-9.38,0.0,0.0,0.0,-0.01,124,1559243532.643
-3.41,-9.31,0.0,0.0,0.0,-0.01,129,1559243532.648
-3.41,-9.31,0.0,0.0,0.0,-0.01,134,1559243532.653
-3.41,-9.31,0.0,0.0,0.0,-0.01,139,1559243532.658
-3.41,-9.31,0.0,0.0,0.0,-0.01,144,1559243532.663
-3.44,-9.28,0.06,0.0,0.0,-0.01,149,1559243532.668
-3.44,-9.28,0.06,0.0,-0.01,-0.01,154,1559243532.673
-3.44,-9.28,0.06,0.0,-0.01,-0.01,160,1559243532.679
-3.44,-9.28,0.06,0.0,-0.01,-0.01,165,1559243532.684
-3.44,-9.28,0.06,0.0,-0.01,-0.01,169,1559243532.688
-3.45,-9.29,0.11,0.0,-0.01,-0.02,174,1559243532.693
-3.45,-9.29,0.11,0.0,-0.01,-0.02,179,1559243532.698
-3.37,-9.34,0.07,0.0,-0.01,-0.02,185,1559243532.704
-3.37,-9.34,0.07,0.0,-0.01,-0.02,189,1559243532.708
-3.37,-9.34,0.07,0.0,-0.01,-0.02,194,1559243532.713
-3.37,-9.34,0.07,0.0,-0.01,-0.02,199,1559243532.718
-3.37,-9.34,0.07,0.0,-0.01,-0.02,204,1559243532.723
-3.37,-9.34,0.07,0.0,-0.01,-0.02,209,1559243532.728
-3.37,-9.34,0.07,0.0,-0.01,-0.02,214,1559243532.733
-3.29,-9.3,-0.06,0.0,-0.01,-0.02,219,1559243532.738
-3.29,-9.3,-0.06,0.0,-0.01,-0.02,224,1559243532.743
-3.29,-9.3,-0.06,0.0,-0.01,-0.02,229,1559243532.748
-3.29,-9.3,-0.06,0.0,-0.01,-0.02,234,1559243532.753
-3.29,-9.3,-0.06,0.0,-0.01,-0.02,239,1559243532.758
-3.38,-9.36,0.14,0.0,-0.01,-0.02,244,1559243532.763
-3.38,-9.36,0.14,0.0,-0.01,-0.02,249,1559243532.768
-3.38,-9.36,0.14,0.0,-0.01,-0.02,254,1559243532.773
-3.38,-9.36,0.14,0.0,-0.01,-0.02,259,1559243532.778
-3.38,-9.36,0.14,0.0,-0.01,-0.02,264,1559243532.783
-3.3,-9.39,0.12,0.0,0.0,-0.02,270,1559243532.789
-3.3,-9.39,0.12,0.0,0.0,-0.02,274,1559243532.793
-3.3,-9.39,0.12,0.0,0.0,-0.02,279,1559243532.798
-3.3,-9.39,0.12,0.0,0.0,-0.02,284,1559243532.803
-3.28,-9.37,0.05,0.0,0.0,-0.02,289,1559243532.808
-3.28,-9.37,0.05,0.0,0.0,-0.02,295,1559243532.814
-3.28,-9.37,0.05,0.0,0.0,-0.02,300,1559243532.819
-3.28,-9.37,0.05,0.0,0.0,-0.02,304,1559243532.823
-3.28,-9.37,0.05,0.0,0.0,-0.02,310,1559243532.829
-3.28,-9.37,0.05,0.0,0.0,-0.02,313,1559243532.832
-3.34,-9.35,-0.07,0.0,0.0,-0.01,319,1559243532.838
-3.34,-9.35,-0.07,0.0,0.0,-0.01,324,1559243532.843
-3.34,-9.35,-0.07,0.0,0.0,-0.01,330,1559243532.849
-3.34,-9.35,-0.07,0.0,0.0,-0.01,334,1559243532.853
-3.34,-9.35,-0.07,0.0,0.0,-0.01,339,1559243532.858
-3.34,-9.35,-0.07,0.0,0.0,-0.01,343,1559243532.862
-3.34,-9.35,-0.07,0.0,0.0,-0.01,349,1559243532.868
-3.32,-9.4,0.06,0.0,0.0,-0.01,354,1559243532.873
-3.32,-9.4,0.06,0.0,0.0,-0.01,359,1559243532.878
-3.32,-9.4,0.06,0.0,0.0,-0.01,364,1559243532.883
-3.3,-9.39,0.06,0.0,0.0,-0.01,369,1559243532.888
-3.3,-9.39,0.06,0.0,0.0,-0.01,374,1559243532.893
-3.3,-9.39,0.06,0.0,0.0,-0.01,380,1559243532.899
-3.3,-9.39,0.06,0.0,0.0,-0.01,384,1559243532.903
-3.31,-9.31,0.1,0.0,0.0,-0.01,389,1559243532.908
-3.31,-9.31,0.1,0.0,0.0,-0.01,394,1559243532.913
-3.31,-9.31,0.1,0.0,0.0,-0.01,399,1559243532.918
-3.31,-9.31,0.1,0.0,0.0,-0.01,404,1559243532.923
-3.26,-9.38,0.05,0.0,0.0,0.0,409,1559243532.928
-3.26,-9.38,0.05,0.0,0.0,0.0,414,1559243532.933
-3.26,-9.38,0.05,0.0,0.0,0.0,419,1559243532.938
-3.4,-9.3,0.07,0.0,0.0,0.0,424,1559243532.943
-3.4,-9.3,0.07,0.0,0.0,0.0,430,1559243532.949
-3.4,-9.3,0.07,0.0,0.0,0.0,434,1559243532.953
-3.4,-9.3,0.07,0.0,0.0,0.0,439,1559243532.958
-3.4,-9.3,0.07,0.0,0.0,0.0,444,1559243532.963
-3.4,-9.2,-0.02,0.0,0.0,0.0,449,1559243532.968
-3.4,-9.2,-0.02,0.0,0.01,-0.01,455,1559243532.974
-3.4,-9.2,-0.02,0.0,0.01,-0.01,460,1559243532.979
-3.4,-9.2,-0.02,0.0,0.01,-0.01,465,1559243532.984
-3.46,-9.29,0.01,0.0,0.0,-0.01,470,1559243532.989
-3.46,-9.29,0.01,0.0,0.0,-0.01,475,1559243532.994
-3.46,-9.29,0.01,0.0,0.0,-0.01,479,1559243532.998
-3.46,-9.29,-0.1,0.0,0.0,-0.01,484,1559243533.003
-3.42,-9.36,-0.1,0.0,0.01,-0.01,489,1559243533.008
-3.42,-9.36,-0.1,0.0,0.01,-0.01,494,1559243533.013
-3.42,-9.36,-0.1,0.0,0.01,-0.01,499,1559243533.018
-3.42,-9.36,-0.1,0.0,0.01,-0.01,503,1559243533.022
-3.42,-9.36,-0.1,0.0,0.01,-0.01,509,1559243533.028
-3.54,-9.25,-0.03,0.0,0.01,-0.01,514,1559243533.033
-3.54,-9.25,-0.03,0.0,0.0,-0.02,520,1559243533.039
-3.54,-9.25,-0.03,0.0,0.0,-0.02,525,1559243533.044
-3.54,-9.25,-0.03,0.0,0.0,-0.02,529,1559243533.048
-3.54,-9.35,0.04,0.0,0.0,-0.02,534,1559243533.053
-3.38,-9.35,0.04,0.0,0.0,-0.02,539,1559243533.058
-3.38,-9.35,0.04,0.0,0.0,-0.02,544,1559243533.063
-3.38,-9.35,0.04,0.0,0.0,-0.02,550,1559243533.069
-3.41,-9.35,0.03,0.0,0.0,-0.02,554,1559243533.073
-3.41,-9.35,0.03,0.0,0.0,-0.02,559,1559243533.078
-3.41,-9.35,0.03,0.0,0.0,-0.02,564,1559243533.083
-3.31,-9.34,0.02,0.0,0.0,-0.02,569,1559243533.088
-3.31,-9.34,0.02,0.0,0.0,-0.02,574,1559243533.093
-3.31,-9.34,0.02,0.0,0.0,-0.02,579,1559243533.098
-3.31,-9.34,0.07,0.0,0.0,-0.02,584,1559243533.103
-3.32,-9.38,0.07,0.0,0.0,-0.02,589,1559243533.108
-3.32,-9.38,0.07,0.0,0.0,-0.02,594,1559243533.113
-3.32,-9.38,0.07,0.0,0.0,-0.02,599,1559243533.118
-3.32,-9.38,0.07,0.0,0.0,-0.02,604,1559243533.123
-3.32,-9.38,0.07,0.0,0.0,-0.02,609,1559243533.128
-3.32,-9.38,0.07,0.0,0.0,-0.02,614,1559243533.133
-3.26,-9.37,0.12,0.0,0.0,-0.01,619,1559243533.138
-3.26,-9.37,0.12,0.0,0.0,-0.01,624,1559243533.143
-3.26,-9.37,0.12,0.0,0.0,0.0,630,1559243533.149
-3.26,-9.37,0.12,0.0,0.0,0.0,635,1559243533.154
-3.26,-9.37,0.12,0.0,0.0,0.0,639,1559243533.158
-3.26,-9.37,0.12,0.0,0.0,0.0,644,1559243533.163
-3.26,-9.37,0.12,0.0,0.0,0.0,649,1559243533.168
-3.34,-9.37,0.14,0.0,0.0,0.0,654,1559243533.173
-3.34,-9.37,0.14,0.0,0.0,0.0,659,1559243533.178
-3.34,-9.37,0.14,0.0,0.0,0.0,664,1559243533.183
-3.31,-9.31,0.08,0.0,0.0,0.0,669,1559243533.188
-3.31,-9.31,0.08,0.0,0.0,0.0,674,1559243533.193
-3.31,-9.31,0.08,0.0,0.0,0.0,679,1559243533.198
-3.31,-9.31,0.08,0.0,0.0,0.0,684,1559243533.203
-3.28,-9.38,0.05,0.0,0.0,0.0,689,1559243533.208
-3.28,-9.38,0.05,0.0,0.0,0.0,694,1559243533.213
-3.28,-9.38,0.05,0.0,0.0,0.0,699,1559243533.218
-3.38,-9.31,0.04,0.0,0.0,0.0,704,1559243533.223
-3.38,-9.31,0.04,0.0,0.0,0.0,709,1559243533.228
-3.38,-9.31,0.04,0.0,0.0,0.0,714,1559243533.233
-3.38,-9.31,0.04,0.0,0.0,0.0,719,1559243533.238
-3.4,-9.37,0.03,0.0,0.0,0.0,724,1559243533.243
-3.4,-9.37,0.03,0.0,0.0,0.01,729,1559243533.248
-3.4,-9.37,0.03,0.0,0.0,0.01,734,1559243533.253
-3.4,-9.37,0.03,0.0,0.0,0.01,739,1559243533.258
-3.4,-9.37,0.08,0.0,0.0,0.01,744,1559243533.263
-3.33,-9.3,0.08,0.0,0.0,0.01,749,1559243533.268
-3.33,-9.3,0.08,0.0,0.0,0.01,754,1559243533.273
-3.33,-9.3,0.08,0.0,0.0,0.01,759,1559243533.278
-3.33,-9.3,0.08,0.0,0.0,0.01,765,1559243533.284
-3.43,-9.31,0.06,0.0,0.0,0.01,770,1559243533.289
-3.43,-9.31,0.06,0.0,0.0,0.01,774,1559243533.293
-3.43,-9.31,0.06,0.0,0.0,0.01,780,1559243533.299
-3.5,-9.41,0.0,0.0,0.0,0.01,784,1559243533.303
-3.5,-9.41,0.0,0.0,0.0,0.01,789,1559243533.308
-3.5,-9.41,0.0,0.0,0.0,0.01,794,1559243533.313
-3.5,-9.41,0.0,0.0,0.0,0.01,799,1559243533.318
-3.5,-9.41,0.0,0.0,0.0,0.01,804,1559243533.323
-3.5,-9.41,0.0,0.0,0.0,0.01,809,1559243533.328
-3.48,-9.37,0.02,0.0,0.0,0.01,814,1559243533.333
-3.48,-9.37,0.02,0.0,0.0,0.01,819,1559243533.338
-3.48,-9.37,0.02,0.0,0.0,0.01,824,1559243533.343
-3.34,-9.35,-0.08,0.0,0.0,0.01,829,1559243533.348
-3.34,-9.35,-0.08,0.0,0.0,0.01,834,1559243533.353
-3.34,-9.35,-0.08,0.0,0.0,0.01,839,1559243533.358
-3.34,-9.35,-0.08,0.0,0.0,0.01,844,1559243533.363
-3.34,-9.35,-0.08,0.0,0.0,0.01,849,1559243533.368
-3.41,-9.23,0.06,0.0,0.0,0.01,854,1559243533.373
-3.41,-9.23,0.06,0.0,0.0,0.01,859,1559243533.378
-3.41,-9.23,0.06,0.0,0.0,0.01,864,1559243533.383
-3.44,-9.29,0.07,0.0,0.0,0.01,869,1559243533.388
-3.44,-9.29,0.07,0.0,0.0,0.01,874,1559243533.393
-3.44,-9.29,0.07,0.0,0.0,0.01,879,1559243533.398
-3.44,-9.29,0.07,0.0,0.0,0.01,884,1559243533.403
-3.52,-9.35,-0.02,0.0,0.0,0.01,889,1559243533.408
-3.52,-9.35,-0.02,0.0,0.0,0.01,894,1559243533.413
-3.52,-9.35,-0.02,0.0,0.0,0.01,899,1559243533.418
-3.52,-9.35,-0.02,0.0,0.0,0.01,904,1559243533.423
-3.53,-9.31,0.01,0.0,0.0,0.01,909,1559243533.428
-3.53,-9.31,0.01,0.0,0.0,0.01,915,1559243533.434
-3.53,-9.31,0.01,0.0,0.0,0.01,919,1559243533.438
-3.53,-9.31,0.01,0.0,0.0,0.01,924,1559243533.443
-3.57,-9.39,0.0,0.0,0.0,0.0,929,1559243533.448
-3.57,-9.39,0.0,0.0,0.0,0.0,935,1559243533.454
-3.57,-9.39,0.0,0.0,0.0,0.0,939,1559243533.458
-3.57,-9.39,0.0,0.0,0.0,0.0,944,1559243533.463
-3.54,-9.37,0.09,0.0,-0.01,0.0,949,1559243533.468
-3.54,-9.37,0.09,0.0,-0.01,0.0,955,1559243533.474
-3.54,-9.37,0.09,0.0,-0.01,0.0,959,1559243533.478
-3.54,-9.37,0.09,0.0,-0.01,0.0,965,1559243533.484
-3.55,-9.3,0.05,0.0,0.0,0.0,969,1559243533.488
-3.55,-9.3,0.05,0.0,0.0,0.0,974,1559243533.493
-3.55,-9.3,0.05,0.0,0.0,0.0,979,1559243533.498
-3.54,-9.22,-0.04,0.0,0.0,0.0,985,1559243533.504
-3.54,-9.22,-0.04,0.0,0.0,0.0,988,1559243533.507
-3.54,-9.22,-0.04,0.0,0.0,0.0,994,1559243533.513
-3.54,-9.22,-0.04,0.0,0.0,0.0,999,1559243533.518
-3.51,-9.23,0.04,0.0,0.0,0.0,1004,1559243533.523
-3.51,-9.23,0.04,0.0,0.0,0.0,1009,1559243533.528
-3.51,-9.23,0.04,0.0,0.0,0.0,1014,1559243533.533
-3.51,-9.23,0.04,0.0,0.0,0.0,1019,1559243533.538
-3.51,-9.23,0.04,0.0,0.0,0.0,1024,1559243533.543
-3.6,-9.22,0.07,0.0,-0.01,0.0,1029,1559243533.548
-3.6,-9.22,0.07,0.0,-0.01,0.0,1034,1559243533.553
-3.57,-9.24,0.13,0.0,-0.01,-0.01,1039,1559243533.558
-3.57,-9.24,0.13,0.0,-0.01,-0.01,1044,1559243533.563
-3.57,-9.24,0.13,0.0,-0.01,-0.01,1050,1559243533.569
-3.57,-9.24,0.13,0.0,-0.01,-0.01,1054,1559243533.573
-3.57,-9.24,0.13,0.0,-0.01,-0.01,1059,1559243533.578
-3.57,-9.24,0.13,0.0,-0.01,-0.01,1064,1559243533.583
-3.57,-9.21,0.08,0.0,-0.01,-0.02,1069,1559243533.588
-3.57,-9.21,0.08,0.0,-0.01,-0.02,1073,1559243533.592
-3.57,-9.21,0.08,0.0,-0.01,-0.02,1079,1559243533.598
-3.57,-9.21,0.08,0.0,-0.01,-0.02,1084,1559243533.603
-3.57,-9.21,0.08,0.0,-0.01,-0.02,1089,1559243533.608
-3.49,-9.27,0.14,0.0,-0.01,-0.02,1094,1559243533.613
-3.49,-9.27,0.14,0.0,-0.01,-0.02,1099,1559243533.618
-3.49,-9.27,0.14,0.0,-0.01,-0.02,1104,1559243533.623
-3.49,-9.27,0.14,0.0,-0.01,-0.02,1109,1559243533.628
-3.49,-9.27,0.14,0.0,-0.01,-0.02,1114,1559243533.633
-3.51,-9.34,0.15,0.0,0.0,-0.03,1119,1559243533.638
-3.51,-9.34,0.15,0.0,0.0,-0.03,1124,1559243533.643
-3.51,-9.34,0.15,0.0,0.0,-0.03,1129,1559243533.648
-3.45,-9.28,0.08,0.0,0.0,-0.03,1134,1559243533.653
-3.45,-9.28,0.08,0.0,0.0,-0.03,1138,1559243533.657
-3.45,-9.28,0.08,0.0,0.0,-0.03,1145,1559243533.664
-3.45,-9.28,0.08,0.0,0.0,-0.03,1150,1559243533.669
-3.54,-9.33,0.11,0.0,0.0,-0.03,1154,1559243533.673
-3.54,-9.33,0.11,0.0,0.0,-0.03,1159,1559243533.678
-3.54,-9.33,0.11,0.0,0.0,-0.03,1164,1559243533.683
-3.54,-9.33,0.11,0.0,0.0,-0.03,1169,1559243533.688
-3.54,-9.33,0.11,0.0,0.0,-0.03,1175,1559243533.694
-3.52,-9.28,0.06,0.0,0.0,-0.04,1179,1559243533.698
-3.52,-9.28,0.06,0.0,0.0,-0.04,1184,1559243533.703
-3.52,-9.28,0.06,0.0,0.0,-0.04,1190,1559243533.709
-3.49,-9.21,0.06,0.0,0.0,-0.04,1194,1559243533.713
-3.49,-9.21,0.06,0.0,0.0,-0.04,1199,1559243533.718
-3.49,-9.21,0.06,0.0,0.0,-0.04,1204,1559243533.723
-3.49,-9.21,0.06,0.0,0.0,-0.04,1210,1559243533.729
-3.49,-9.21,0.06,0.0,0.0,-0.04,1214,1559243533.733
-3.46,-9.3,0.02,0.0,0.0,-0.04,1220,1559243533.739
-3.46,-9.3,0.02,0.0,0.0,-0.04,1224,1559243533.743
-3.46,-9.3,0.02,0.0,0.0,-0.04,1229,1559243533.748
-3.36,-9.29,0.04,0.0,0.0,-0.04,1234,1559243533.753
-3.36,-9.29,0.04,0.0,0.0,-0.04,1239,1559243533.758
-3.36,-9.29,0.04,0.0,0.0,-0.04,1244,1559243533.763
-3.36,-9.29,0.04,0.0,0.0,-0.04,1249,1559243533.768
-3.36,-9.29,0.04,0.0,0.0,-0.04,1254,1559243533.773
-3.36,-9.29,0.04,0.0,0.0,-0.04,1259,1559243533.778
-3.56,-9.21,-0.02,0.0,0.0,-0.04,1264,1559243533.783
-3.56,-9.21,-0.02,0.0,0.0,-0.04,1269,1559243533.788
-3.56,-9.21,-0.02,0.0,0.0,-0.04,1274,1559243533.793
-3.48,-9.35,0.21,0.0,0.0,-0.04,1279,1559243533.798
-3.48,-9.35,0.21,0.0,0.0,-0.04,1284,1559243533.803
-3.48,-9.35,0.21,0.0,0.0,-0.04,1289,1559243533.808
-3.48,-9.35,0.21,0.0,0.0,-0.04,1294,1559243533.813
-3.43,-9.25,0.0,0.0,0.0,-0.04,1299,1559243533.818
-3.43,-9.25,0.0,0.01,0.0,-0.04,1304,1559243533.823
-3.43,-9.25,0.0,0.01,0.0,-0.04,1309,1559243533.828
-3.43,-9.25,0.0,0.01,0.0,-0.04,1314,1559243533.833
-3.37,-9.34,0.07,0.0,0.01,-0.04,1319,1559243533.838
-3.37,-9.34,0.07,0.0,0.01,-0.04,1324,1559243533.843
-3.37,-9.34,0.07,0.0,0.01,-0.04,1329,1559243533.848
-3.38,-9.28,0.07,0.0,0.01,-0.04,1335,1559243533.854
-3.38,-9.28,0.07,0.0,0.01,-0.04,1339,1559243533.858
-3.38,-9.28,0.07,0.0,0.01,-0.04,1343,1559243533.862
-3.38,-9.28,0.07,0.0,0.01,-0.04,1350,1559243533.869
-3.38,-9.28,0.07,0.0,0.01,-0.04,1354,1559243533.873
-3.38,-9.28,0.07,0.0,0.01,-0.04,1359,1559243533.878
-3.38,-9.28,0.07,0.0,0.01,-0.04,1365,1559243533.884
-3.34,-9.29,0.1,0.0,0.01,-0.04,1369,1559243533.888
-3.34,-9.29,0.1,0.0,0.01,-0.04,1374,1559243533.893
-3.34,-9.29,0.1,0.0,0.01,-0.04,1379,1559243533.898
-3.34,-9.29,0.1,0.0,0.01,-0.04,1384,1559243533.903
-3.32,-9.37,0.06,0.01,0.02,-0.04,1389,1559243533.908
-3.32,-9.37,0.06,0.01,0.02,-0.04,1394,1559243533.913
-3.32,-9.37,0.06,0.01,0.02,-0.04,1399,1559243533.918
-3.42,-9.28,0.03,0.01,0.02,-0.03,1404,1559243533.923
-3.42,-9.28,0.03,0.01,0.02,-0.03,1409,1559243533.928
-3.42,-9.28,0.03,0.01,0.02,-0.03,1414,1559243533.933
-3.57,-9.32,0.13,0.01,0.02,-0.03,1420,1559243533.939
-3.57,-9.32,0.13,0.01,0.02,-0.03,1424,1559243533.943
-3.57,-9.32,0.13,0.01,0.02,-0.03,1429,1559243533.948
-3.57,-9.32,0.13,0.01,0.02,-0.03,1434,1559243533.953
-3.64,-9.23,-0.01,0.01,0.02,-0.03,1440,1559243533.959
-3.64,-9.23,-0.01,0.01,0.02,-0.03,1443,1559243533.962
-3.64,-9.23,-0.01,0.01,0.02,-0.03,1449,1559243533.968
-3.64,-9.23,-0.01,0.01,0.02,-0.03,1455,1559243533.974
-3.6,-9.26,-0.01,0.01,0.0,-0.04,1459,1559243533.978
-3.6,-9.26,-0.01,0.01,0.0,-0.04,1464,1559243533.983
-3.6,-9.26,-0.01,0.0,0.0,-0.05,1469,1559243533.988
-3.6,-9.26,-0.01,0.0,0.0,-0.05,1474,1559243533.993
-3.6,-9.26,-0.01,0.0,0.0,-0.05,1479,1559243533.998
-3.38,-9.36,0.2,0.0,0.0,-0.05,1489,1559243534.008
-3.38,-9.36,0.2,0.0,0.0,-0.05,1490,1559243534.009
-3.38,-9.36,0.2,0.0,0.0,-0.05,1495,1559243534.014
-3.38,-9.36,0.2,0.0,0.0,-0.05,1500,1559243534.019
-3.42,-9.35,0.03,0.0,0.0,-0.05,1505,1559243534.024
-3.42,-9.35,0.03,0.0,0.0,-0.05,1509,1559243534.028
-3.42,-9.35,0.03,0.0,0.0,-0.05,1514,1559243534.033
-3.42,-9.35,0.03,0.0,0.0,-0.05,1519,1559243534.038
-3.42,-9.35,0.03,0.0,0.0,-0.05,1524,1559243534.043
-3.42,-9.35,0.03,0.0,0.0,-0.05,1529,1559243534.048
-3.39,-9.35,0.01,0.0,0.01,-0.05,1541,1559243534.06
-3.39,-9.35,0.01,0.0,0.01,-0.05,1542,1559243534.061
-3.39,-9.35,0.01,0.0,0.01,-0.05,1544,1559243534.063
-3.39,-9.35,0.01,0.0,0.01,-0.05,1549,1559243534.068
-3.39,-9.35,0.01,0.0,0.01,-0.05,1554,1559243534.073
-3.37,-9.34,0.08,0.0,0.0,-0.05,1560,1559243534.079
-3.37,-9.34,0.08,0.0,0.0,-0.05,1564,1559243534.083
-3.37,-9.34,0.08,0.0,0.0,-0.05,1569,1559243534.088
-3.35,-9.34,0.06,0.0,0.0,-0.05,1574,1559243534.093
-3.35,-9.34,0.06,0.0,0.0,-0.05,1579,1559243534.098
-3.35,-9.34,0.06,0.0,0.0,-0.05,1586,1559243534.105
-3.35,-9.34,0.06,0.0,0.0,-0.05,1589,1559243534.108
-3.35,-9.34,0.17,0.0,0.0,-0.05,1594,1559243534.113
-3.35,-9.34,0.17,0.0,0.0,-0.05,1599,1559243534.118
-3.35,-9.34,0.17,0.0,0.0,-0.04,1604,1559243534.123
-3.29,-9.34,0.14,0.0,0.0,-0.04,1609,1559243534.128
-3.29,-9.34,0.14,0.0,0.0,-0.04,1615,1559243534.134
-3.29,-9.34,0.14,0.0,0.0,-0.04,1619,1559243534.138
-3.32,-9.37,0.1,0.0,0.0,-0.04,1624,1559243534.143
-3.32,-9.37,0.1,0.0,0.01,-0.04,1629,1559243534.148
-3.32,-9.37,0.1,0.0,0.01,-0.04,1634,1559243534.153
-3.32,-9.37,0.1,0.0,0.01,-0.04,1639,1559243534.158
-3.25,-9.36,0.09,0.0,0.01,-0.04,1644,1559243534.163
-3.25,-9.36,0.09,0.0,0.01,-0.04,1650,1559243534.169
-3.25,-9.36,0.09,0.0,0.01,-0.04,1654,1559243534.173
-3.25,-9.36,0.09,0.0,0.01,-0.04,1659,1559243534.178
-3.31,-9.37,0.06,0.0,0.01,-0.03,1667,1559243534.186
-3.31,-9.37,0.06,0.0,0.01,-0.03,1670,1559243534.189
-3.31,-9.37,0.06,0.0,0.01,-0.03,1674,1559243534.193
-3.31,-9.37,0.06,0.0,0.01,-0.03,1679,1559243534.198
-3.31,-9.37,0.06,0.0,0.01,-0.03,1684,1559243534.203
-3.37,-9.37,0.09,0.0,0.01,-0.02,1692,1559243534.211
-3.37,-9.37,0.09,0.0,0.01,-0.02,1695,1559243534.214
-3.37,-9.37,0.09,0.0,0.01,-0.02,1701,1559243534.22
-3.37,-9.37,0.09,0.0,0.01,-0.02,1705,1559243534.224
-3.37,-9.37,0.09,0.0,0.01,-0.02,1709,1559243534.228
-3.35,-9.34,0.04,0.0,0.01,-0.02,1715,1559243534.234
-3.35,-9.34,0.04,0.0,0.01,-0.02,1720,1559243534.239
-3.35,-9.34,0.04,0.0,0.01,-0.02,1725,1559243534.244
-3.35,-9.34,0.04,0.0,0.01,-0.02,1730,1559243534.249
-3.35,-9.34,0.04,0.0,0.01,-0.02,1734,1559243534.253
-3.33,-9.38,0.03,0.0,0.0,-0.02,1740,1559243534.259
-3.33,-9.38,0.03,0.0,0.0,-0.02,1744,1559243534.263
-3.33,-9.38,0.03,0.0,0.0,-0.02,1749,1559243534.268
-3.28,-9.32,0.03,0.0,0.0,-0.02,1755,1559243534.274
-3.28,-9.32,0.03,0.0,0.0,-0.02,1759,1559243534.278
-3.28,-9.32,0.03,0.0,0.0,-0.02,1765,1559243534.284
-3.33,-9.35,0.11,0.0,0.0,-0.01,1772,1559243534.291
-3.33,-9.35,0.11,0.0,0.0,-0.01,1774,1559243534.293
-3.33,-9.35,0.11,0.0,0.0,-0.01,1779,1559243534.298
-3.33,-9.35,0.11,0.0,0.0,-0.01,1785,1559243534.304
-3.35,-9.34,0.04,0.0,0.0,-0.01,1790,1559243534.309
-3.35,-9.34,0.04,0.0,0.0,-0.01,1794,1559243534.313
-3.35,-9.34,0.04,0.0,0.0,-0.01,1799,1559243534.318
-3.4,-9.34,0.1,0.0,0.0,-0.01,1805,1559243534.324
-3.4,-9.34,0.1,0.0,0.0,-0.01,1810,1559243534.329
-3.4,-9.34,0.1,0.0,0.0,-0.01,1815,1559243534.334
-3.4,-9.34,0.1,0.0,0.0,-0.01,1819,1559243534.338
-3.4,-9.34,0.1,0.0,0.0,-0.01,1824,1559243534.343
-3.4,-9.34,0.1,0.0,0.0,-0.01,1830,1559243534.349
-3.43,-9.33,0.07,0.0,0.0,-0.01,1836,1559243534.355
-3.43,-9.33,0.07,0.0,0.0,-0.01,1840,1559243534.359
-3.43,-9.33,0.07,0.0,0.0,-0.01,1846,1559243534.365
-3.43,-9.33,0.07,0.0,0.0,-0.01,1848,1559243534.367
-3.4,-9.34,0.1,0.0,0.0,-0.01,1854,1559243534.373
-3.4,-9.34,0.1,0.0,0.0,-0.01,1859,1559243534.378
-3.37,-9.31,0.12,0.0,0.0,-0.01,1866,1559243534.385
-3.37,-9.31,0.12,0.0,0.0,-0.01,1872,1559243534.391
-3.37,-9.31,0.12,0.0,0.0,-0.01,1874,1559243534.393
-3.37,-9.31,0.12,0.0,0.0,-0.01,1879,1559243534.398
-3.35,-9.33,0.14,0.0,0.0,-0.01,1892,1559243534.411
-3.35,-9.33,0.14,0.0,0.0,-0.01,1893,1559243534.412
-3.35,-9.33,0.14,0.0,0.0,-0.01,1895,1559243534.414
-3.35,-9.33,0.14,0.0,0.0,-0.01,1900,1559243534.419
-3.35,-9.33,0.14,0.0,0.0,-0.01,1905,1559243534.424
-3.35,-9.33,0.14,0.0,0.0,-0.01,1910,1559243534.429
-3.34,-9.33,0.09,0.0,0.0,-0.01,1915,1559243534.434
-3.34,-9.33,0.09,0.0,0.0,-0.01,1919,1559243534.438
-3.34,-9.33,0.09,0.0,0.0,-0.01,1924,1559243534.443
-3.34,-9.33,0.09,0.0,0.0,-0.01,1929,1559243534.448
-3.39,-9.35,0.1,0.0,0.0,-0.01,1934,1559243534.453
-3.39,-9.35,0.1,0.0,0.0,-0.01,1939,1559243534.458
-3.39,-9.35,0.1,0.0,0.0,-0.01,1945,1559243534.464
-3.39,-9.35,0.1,0.0,0.0,-0.01,1951,1559243534.47
-3.35,-9.33,0.1,0.0,0.0,-0.01,1956,1559243534.475
-3.35,-9.33,0.1,0.0,0.0,-0.01,1959,1559243534.478
-3.35,-9.33,0.1,0.0,0.0,-0.01,1965,1559243534.484
-3.35,-9.33,0.1,0.0,0.0,-0.01,1969,1559243534.488
-3.38,-9.35,0.09,0.0,0.0,-0.01,1974,1559243534.493
-3.38,-9.35,0.09,0.0,0.0,-0.01,1980,1559243534.499
-3.38,-9.35,0.09,0.0,0.0,-0.01,1984,1559243534.503
-3.32,-9.33,0.04,0.0,0.0,-0.01,1989,1559243534.508
-3.32,-9.33,0.04,0.0,0.0,-0.01,1995,1559243534.514
-3.32,-9.33,0.04,0.0,0.0,-0.01,2001,1559243534.52
-3.34,-9.32,0.09,0.0,0.0,-0.01,2004,1559243534.523
-3.34,-9.32,0.09,0.0,0.0,-0.01,2009,1559243534.528
-3.34,-9.32,0.09,0.0,0.0,-0.01,2016,1559243534.535
-3.34,-9.32,0.09,0.0,0.0,-0.01,2020,1559243534.539
-3.36,-9.34,0.06,0.0,0.0,-0.01,2024,1559243534.543
-3.36,-9.34,0.06,0.0,0.0,-0.01,2029,1559243534.548
-3.36,-9.34,0.06,0.0,0.0,-0.01,2035,1559243534.554
-3.36,-9.34,0.06,0.0,0.0,-0.01,2040,1559243534.559
-3.36,-9.34,0.06,0.0,0.0,-0.01,2044,1559243534.563
-3.36,-9.34,0.06,0.0,0.0,-0.01,2049,1559243534.568
-3.36,-9.3,0.08,0.0,0.0,-0.01,2059,1559243534.578
-3.36,-9.3,0.08,0.0,0.0,-0.01,2059,1559243534.578
-3.36,-9.3,0.08,0.0,0.0,-0.01,2064,1559243534.583
-3.36,-9.3,0.08,0.0,0.0,-0.01,2072,1559243534.591
-3.37,-9.32,0.09,0.0,0.0,-0.01,2074,1559243534.593
-3.37,-9.32,0.09,0.0,0.0,-0.01,2080,1559243534.599
-3.37,-9.32,0.09,0.0,0.0,-0.01,2084,1559243534.603
-3.37,-9.32,0.09,0.0,0.0,-0.01,2089,1559243534.608
-3.37,-9.33,0.06,0.0,0.0,-0.01,2094,1559243534.613
-3.37,-9.33,0.06,0.0,0.0,-0.01,2099,1559243534.618
-3.37,-9.33,0.06,0.0,0.0,-0.01,2106,1559243534.625
-3.37,-9.33,0.06,0.0,0.0,-0.01,2109,1559243534.628
-3.37,-9.33,0.06,0.0,0.0,-0.01,2114,1559243534.633
-3.37,-9.33,0.06,0.0,0.0,-0.01,2120,1559243534.639
-3.31,-9.32,0.1,0.0,0.0,-0.01,2124,1559243534.643
-3.31,-9.32,0.1,0.0,0.0,-0.01,2129,1559243534.648
-3.31,-9.32,0.1,0.0,0.0,-0.01,2135,1559243534.654
-3.31,-9.32,0.1,0.0,0.0,-0.01,2139,1559243534.658
-3.31,-9.32,0.1,0.0,0.0,-0.01,2144,1559243534.663
-3.31,-9.32,0.1,0.0,0.0,-0.01,2150,1559243534.669
-3.31,-9.32,0.1,0.0,0.0,-0.01,2154,1559243534.673
-3.31,-9.32,0.1,0.0,0.0,-0.01,2161,1559243534.68
-3.31,-9.32,0.1,0.0,0.0,-0.01,2164,1559243534.683
-3.31,-9.32,0.1,0.0,0.0,-0.01,2170,1559243534.689
-3.31,-9.32,0.1,0.0,0.0,-0.01,2175,1559243534.694
-3.31,-9.32,0.1,0.0,0.0,-0.01,2180,1559243534.699
-3.35,-9.39,0.05,0.0,0.0,-0.01,2186,1559243534.705
-3.35,-9.39,0.05,0.0,0.0,-0.01,2190,1559243534.709
-3.35,-9.39,0.05,0.0,0.0,-0.01,2194,1559243534.713
-3.35,-9.39,0.05,0.0,0.0,-0.01,2200,1559243534.719
-3.35,-9.34,0.09,0.0,0.0,-0.01,2204,1559243534.723
-3.35,-9.34,0.09,0.0,0.0,0.0,2212,1559243534.731
-3.35,-9.34,0.09,0.0,0.0,0.0,2215,1559243534.734
-3.35,-9.34,0.09,0.0,0.0,0.0,2220,1559243534.739
-3.33,-9.32,0.07,0.0,0.0,0.0,2224,1559243534.743
-3.33,-9.32,0.07,0.0,0.0,0.0,2229,1559243534.748
-3.33,-9.32,0.07,0.0,0.0,0.0,2234,1559243534.753
-3.33,-9.32,0.07,0.0,0.0,0.0,2239,1559243534.758
-3.38,-9.37,0.07,0.0,0.0,0.0,2244,1559243534.763
-3.38,-9.37,0.07,0.0,0.0,0.0,2249,1559243534.768
-3.38,-9.37,0.07,0.0,0.0,0.0,2256,1559243534.775
-3.38,-9.37,0.07,0.0,0.0,0.0,2260,1559243534.779
-3.38,-9.37,0.07,0.0,0.0,0.0,2265,1559243534.784
-3.38,-9.37,0.07,0.0,0.0,0.0,2270,1559243534.789
-3.38,-9.37,0.07,0.0,0.0,0.0,2274,1559243534.793
-3.35,-9.34,0.01,0.0,0.0,0.0,2279,1559243534.798
-3.35,-9.34,0.01,0.0,0.0,0.0,2285,1559243534.804
-3.38,-9.39,0.08,0.0,0.0,0.0,2290,1559243534.809
-3.38,-9.39,0.08,0.0,0.0,0.0,2294,1559243534.813
-3.38,-9.39,0.08,0.0,0.0,0.0,2299,1559243534.818
-3.38,-9.39,0.08,0.0,0.0,0.0,2304,1559243534.823
-3.37,-9.33,0.07,0.0,0.0,0.0,2310,1559243534.829
-3.37,-9.33,0.07,0.0,0.0,0.0,2316,1559243534.835
-3.37,-9.33,0.07,0.0,0.0,0.0,2322,1559243534.841
-3.37,-9.33,0.07,0.0,0.0,0.0,2324,1559243534.843
-3.37,-9.33,0.07,0.0,0.0,0.0,2330,1559243534.849
-3.37,-9.33,0.07,0.0,0.0,0.0,2334,1559243534.853
-3.4,-9.32,0.05,0.0,0.0,0.0,2339,1559243534.858
-3.4,-9.32,0.05,0.0,0.0,0.0,2345,1559243534.864
-3.4,-9.32,0.05,0.0,0.0,0.0,2348,1559243534.867
-3.41,-9.34,0.07,0.0,0.0,0.0,2355,1559243534.874
-3.41,-9.34,0.07,0.0,0.0,0.0,2359,1559243534.878
-3.41,-9.34,0.07,0.0,0.0,0.0,2364,1559243534.883
-3.4,-9.3,0.1,0.0,0.0,0.0,2369,1559243534.888
-3.4,-9.3,0.1,0.0,0.0,0.0,2374,1559243534.893
-3.4,-9.3,0.1,0.0,0.0,0.0,2379,1559243534.898
-3.4,-9.34,0.08,0.0,0.0,0.0,2384,1559243534.903
-3.4,-9.34,0.08,0.0,0.0,0.0,2389,1559243534.908
-3.4,-9.34,0.08,0.0,0.0,0.0,2394,1559243534.913
-3.4,-9.34,0.08,0.0,0.0,0.0,2399,1559243534.918
-3.42,-9.31,0.09,0.0,0.0,0.0,2404,1559243534.923
-3.42,-9.31,0.09,0.0,0.0,0.0,2409,1559243534.928
-3.42,-9.31,0.09,0.0,0.0,0.0,2414,1559243534.933
-3.42,-9.31,0.09,0.0,0.0,0.0,2419,1559243534.938
-3.42,-9.31,0.09,0.0,0.0,0.0,2424,1559243534.943
-3.39,-9.31,0.05,0.0,0.0,-0.01,2429,1559243534.948
-3.39,-9.31,0.05,0.0,0.0,-0.01,2435,1559243534.954
-3.39,-9.31,0.05,0.0,0.0,-0.01,2439,1559243534.958
-3.42,-9.35,0.11,0.0,0.0,-0.01,2454,1559243534.973
-3.42,-9.35,0.11,0.0,0.0,-0.01,2454,1559243534.973
-3.42,-9.35,0.11,0.0,0.0,-0.01,2455,1559243534.974
-3.4,-9.33,0.07,0.0,0.0,-0.01,2459,1559243534.978
-3.4,-9.33,0.07,0.0,0.0,-0.01,2464,1559243534.983
-3.4,-9.33,0.07,0.0,0.0,-0.01,2469,1559243534.988
-3.43,-9.29,0.05,0.0,0.0,-0.01,2474,1559243534.993
-3.43,-9.29,0.05,0.0,0.0,-0.01,2479,1559243534.998
-3.43,-9.29,0.05,0.0,0.0,-0.01,2484,1559243535.003
-3.44,-9.32,0.03,0.0,0.0,-0.01,2490,1559243535.009
-3.44,-9.32,0.03,0.0,0.0,-0.01,2496,1559243535.015
-3.44,-9.32,0.03,0.0,0.0,-0.01,2499,1559243535.018
-3.44,-9.32,0.03,0.0,0.0,-0.01,2505,1559243535.024
-3.44,-9.32,0.03,0.0,0.0,-0.01,2509,1559243535.028
-3.45,-9.31,0.07,0.0,0.0,-0.01,2515,1559243535.034
-3.45,-9.31,0.07,0.0,0.0,-0.01,2519,1559243535.038
-3.45,-9.31,0.07,0.0,0.0,-0.01,2524,1559243535.043
-3.45,-9.31,0.07,0.0,0.0,-0.01,2529,1559243535.048
-3.45,-9.31,0.07,0.0,0.0,-0.01,2534,1559243535.053
-3.41,-9.36,0.1,0.0,0.0,-0.01,2539,1559243535.058
-3.41,-9.36,0.1,0.0,0.0,-0.01,2547,1559243535.066
-3.41,-9.36,0.1,0.0,0.0,-0.01,2549,1559243535.068
-3.41,-9.36,0.1,0.0,0.0,-0.01,2554,1559243535.073
-3.39,-9.31,0.06,0.0,0.0,-0.01,2559,1559243535.078
-3.39,-9.31,0.06,0.0,0.0,-0.01,2564,1559243535.083
-3.39,-9.31,0.06,0.0,0.0,-0.01,2570,1559243535.089
-3.39,-9.32,0.05,0.0,0.0,-0.01,2574,1559243535.093
-3.39,-9.32,0.05,0.0,0.0,-0.01,2579,1559243535.098
-3.39,-9.32,0.05,0.0,0.0,-0.01,2585,1559243535.104
-3.39,-9.32,0.05,0.0,0.0,-0.01,2589,1559243535.108
-3.39,-9.32,0.05,0.0,0.0,-0.01,2596,1559243535.115
-3.39,-9.32,0.05,0.0,0.0,-0.01,2601,1559243535.12
-3.39,-9.32,0.05,0.0,0.0,-0.01,2604,1559243535.123
-3.4,-9.29,0.07,0.0,-0.01,0.0,2610,1559243535.129
-3.4,-9.29,0.07,0.0,-0.01,0.0,2614,1559243535.133
-3.4,-9.29,0.07,0.0,-0.01,0.0,2620,1559243535.139
-3.4,-9.29,0.07,0.0,-0.01,0.0,2625,1559243535.144
-3.4,-9.29,0.07,0.0,-0.01,0.0,2634,1559243535.153
-3.4,-9.29,0.07,0.0,-0.01,0.0,2641,1559243535.16
-3.4,-9.29,0.07,0.0,-0.01,0.0,2642,1559243535.161
-3.4,-9.29,0.07,0.0,-0.01,0.0,2644,1559243535.163
-3.45,-9.31,0.1,0.0,-0.01,0.0,2660,1559243535.179
-3.45,-9.31,0.1,0.0,-0.01,0.0,2661,1559243535.18
-3.45,-9.31,0.1,0.0,-0.01,0.0,2661,1559243535.18
-3.45,-9.31,0.1,0.0,-0.01,0.0,2664,1559243535.183
-3.45,-9.31,0.1,0.0,-0.01,0.0,2669,1559243535.188
-3.45,-9.31,0.1,0.0,-0.01,0.0,2675,1559243535.194
-3.45,-9.31,0.1,0.0,-0.01,0.0,2679,1559243535.198
-3.45,-9.31,0.1,0.0,-0.01,0.0,2684,1559243535.203
-3.4,-9.32,0.08,0.0,-0.02,0.0,2689,1559243535.208
-3.4,-9.32,0.08,0.0,-0.02,0.0,2694,1559243535.213
-3.38,-9.31,0.06,0.0,-0.02,0.0,2699,1559243535.218
-3.38,-9.31,0.06,0.0,-0.02,0.0,2704,1559243535.223
-3.38,-9.31,0.06,0.0,-0.02,0.0,2709,1559243535.228
-3.38,-9.31,0.06,0.0,-0.02,0.0,2714,1559243535.233
-3.37,-9.31,0.12,0.0,-0.02,0.0,2720,1559243535.239
-3.37,-9.31,0.12,0.0,-0.02,0.0,2724,1559243535.243
-3.37,-9.31,0.12,0.0,-0.02,0.0,2730,1559243535.249
-3.37,-9.31,0.12,0.0,-0.02,0.0,2734,1559243535.253
-3.37,-9.31,0.12,0.0,-0.02,0.0,2739,1559243535.258
-3.37,-9.31,0.12,0.0,-0.02,0.0,2744,1559243535.263
-3.37,-9.31,0.12,0.0,-0.02,0.0,2750,1559243535.269
-3.37,-9.31,0.12,0.0,-0.02,0.0,2754,1559243535.273
-3.37,-9.31,0.12,0.0,-0.02,0.0,2761,1559243535.28
-3.45,-9.38,0.1,0.0,-0.01,0.0,2775,1559243535.294
-3.45,-9.38,0.1,0.0,-0.01,0.0,2777,1559243535.296
-3.45,-9.38,0.1,0.0,-0.01,0.0,2782,1559243535.301
-3.45,-9.38,0.1,0.0,-0.01,0.0,2783,1559243535.302
-3.45,-9.38,0.1,0.0,-0.01,0.0,2784,1559243535.303
-3.45,-9.38,0.1,0.0,-0.01,0.0,2790,1559243535.309
-3.45,-9.38,0.1,0.0,-0.01,0.0,2794,1559243535.313
-3.45,-9.38,0.1,0.0,-0.01,0.0,2801,1559243535.32
-3.44,-9.31,0.05,0.0,0.0,0.0,2805,1559243535.324
-3.44,-9.31,0.05,0.0,0.0,0.0,2810,1559243535.329
-3.44,-9.31,0.05,0.0,0.0,0.0,2814,1559243535.333
-3.49,-9.31,0.1,0.0,0.0,0.0,2819,1559243535.338
-3.49,-9.31,0.1,0.0,0.0,0.0,2824,1559243535.343
-3.49,-9.31,0.1,0.0,0.0,0.0,2829,1559243535.348
-3.49,-9.31,0.1,0.0,0.0,0.0,2834,1559243535.353
-3.49,-9.31,0.1,0.0,0.0,0.0,2840,1559243535.359
-3.45,-9.36,0.09,0.0,0.0,0.0,2845,1559243535.364
-3.45,-9.36,0.09,0.0,0.0,0.0,2849,1559243535.368
-3.45,-9.36,0.09,0.0,0.0,0.0,2855,1559243535.374
-3.45,-9.36,0.09,0.0,0.0,0.0,2859,1559243535.378
-3.45,-9.36,0.09,0.0,0.0,0.0,2864,1559243535.383
-3.47,-9.3,0.1,0.0,0.0,-0.01,2869,1559243535.388
-3.47,-9.3,0.1,0.0,0.0,-0.01,2874,1559243535.393
-3.47,-9.3,0.1,0.0,0.0,-0.01,2880,1559243535.399
-3.47,-9.3,0.1,0.0,0.0,-0.01,2883,1559243535.402
-3.47,-9.3,0.1,0.0,0.0,-0.01,2888,1559243535.407
-3.48,-9.3,0.08,0.0,0.0,-0.01,2896,1559243535.415
-3.48,-9.3,0.08,0.0,0.0,-0.01,2901,1559243535.42
-3.48,-9.3,0.08,0.0,0.0,-0.01,2904,1559243535.423
-3.48,-9.3,0.08,0.0,0.0,-0.01,2909,1559243535.428
-3.48,-9.28,0.08,0.0,0.0,-0.01,2914,1559243535.433
-3.48,-9.28,0.08,0.0,0.0,-0.01,2920,1559243535.439
-3.48,-9.28,0.08,0.0,0.0,-0.01,2924,1559243535.443
-3.48,-9.28,0.08,0.0,0.0,-0.01,2929,1559243535.448
-3.48,-9.28,0.08,0.0,0.0,-0.01,2934,1559243535.453
-3.45,-9.29,0.1,0.0,0.0,-0.02,2939,1559243535.458
-3.45,-9.29,0.1,0.0,0.0,-0.02,2944,1559243535.463
-3.45,-9.29,0.1,0.0,0.0,-0.02,2949,1559243535.468
-3.45,-9.29,0.1,0.0,0.0,-0.02,2954,1559243535.473
-3.45,-9.29,0.1,0.0,0.0,-0.02,2959,1559243535.478
-3.45,-9.29,0.1,0.0,0.0,-0.02,2965,1559243535.484
-3.47,-9.29,0.1,0.0,0.01,-0.02,2971,1559243535.49
-3.47,-9.29,0.1,0.0,0.01,-0.02,2974,1559243535.493
-3.47,-9.29,0.1,0.0,0.01,-0.02,2980,1559243535.499
-3.47,-9.29,0.1,0.0,0.01,-0.02,2984,1559243535.503
-3.47,-9.29,0.1,0.0,0.01,-0.02,2989,1559243535.508
-3.47,-9.29,0.1,0.0,0.01,-0.02,2994,1559243535.513
-3.47,-9.29,0.1,0.0,0.01,-0.02,3000,1559243535.519
-3.47,-9.29,0.1,0.0,0.01,-0.02,3004,1559243535.523
-3.53,-9.27,0.05,0.0,0.01,-0.03,3009,1559243535.528
-3.53,-9.27,0.05,0.0,0.0,-0.04,3017,1559243535.536
-3.53,-9.27,0.05,0.0,0.0,-0.04,3019,1559243535.538
-3.53,-9.27,0.05,0.0,0.0,-0.04,3024,1559243535.543
-3.53,-9.27,0.05,0.0,0.0,-0.04,3032,1559243535.551
-3.53,-9.27,0.05,0.0,0.0,-0.04,3034,1559243535.553
-3.53,-9.27,0.05,0.0,0.0,-0.04,3039,1559243535.558
-3.53,-9.27,0.05,0.0,0.0,-0.04,3044,1559243535.563
-3.45,-9.31,0.09,0.0,0.0,-0.04,3049,1559243535.568
-3.45,-9.31,0.09,0.0,0.0,-0.04,3054,1559243535.573
-3.45,-9.31,0.09,0.0,0.0,-0.04,3059,1559243535.578
-3.45,-9.31,0.09,0.0,0.0,-0.04,3064,1559243535.583
-3.45,-9.31,0.09,0.0,0.0,-0.04,3069,1559243535.588
-3.43,-9.32,0.11,0.0,0.0,-0.04,3076,1559243535.595
-3.43,-9.32,0.11,0.0,0.0,-0.04,3079,1559243535.598
-3.43,-9.32,0.11,0.0,0.0,-0.04,3085,1559243535.604
-3.43,-9.32,0.11,0.0,0.0,-0.04,3089,1559243535.608
-3.35,-9.32,0.12,0.0,0.0,-0.04,3094,1559243535.613
-3.35,-9.32,0.12,0.0,0.0,-0.04,3100,1559243535.619
-3.35,-9.32,0.12,0.0,0.0,-0.04,3104,1559243535.623
-3.35,-9.32,0.12,0.0,0.0,-0.04,3109,1559243535.628
-3.35,-9.32,0.12,0.0,0.0,-0.04,3114,1559243535.633
-3.39,-9.34,0.09,0.0,0.0,-0.04,3119,1559243535.638
-3.39,-9.34,0.09,0.0,0.0,-0.04,3124,1559243535.643
-3.39,-9.34,0.09,0.0,0.0,-0.04,3130,1559243535.649
-3.39,-9.34,0.09,0.0,0.0,-0.04,3134,1559243535.653
-3.42,-9.35,0.07,0.0,0.0,-0.04,3142,1559243535.661
-3.42,-9.35,0.07,0.0,0.0,-0.04,3144,1559243535.663
-3.42,-9.35,0.07,0.0,0.0,-0.04,3152,1559243535.671
-3.36,-9.31,0.13,0.0,0.0,-0.04,3154,1559243535.673
-3.36,-9.31,0.13,0.0,0.0,-0.04,3160,1559243535.679
-3.36,-9.31,0.13,0.0,0.0,-0.04,3164,1559243535.683
-3.36,-9.31,0.13,0.0,0.0,-0.04,3172,1559243535.691
-3.36,-9.31,0.13,0.0,0.0,-0.04,3178,1559243535.697
-3.36,-9.31,0.13,0.0,0.0,-0.04,3179,1559243535.698
-3.36,-9.31,0.13,0.0,0.0,-0.04,3184,1559243535.703
-3.37,-9.3,0.06,0.0,0.0,-0.03,3191,1559243535.71
-3.37,-9.3,0.06,0.0,0.0,-0.03,3194,1559243535.713
-3.35,-9.35,0.18,0.0,0.0,-0.03,3199,1559243535.718
-3.35,-9.35,0.18,0.0,0.0,-0.03,3204,1559243535.723
-3.35,-9.35,0.18,0.0,0.0,-0.03,3209,1559243535.728
-3.35,-9.35,0.18,0.0,0.0,-0.03,3214,1559243535.733
-3.35,-9.35,0.18,0.0,0.0,-0.03,3219,1559243535.738
-3.35,-9.35,0.18,0.0,0.0,-0.03,3224,1559243535.743
-3.35,-9.35,0.18,0.0,0.0,-0.03,3229,1559243535.748
-3.35,-9.35,0.18,0.0,0.0,-0.03,3234,1559243535.753
-3.37,-9.34,0.03,0.0,0.0,-0.02,3239,1559243535.758
-3.37,-9.34,0.03,0.0,0.0,-0.02,3246,1559243535.765
-3.37,-9.34,0.03,0.0,0.0,-0.02,3249,1559243535.768
-3.37,-9.34,0.03,0.0,0.0,-0.02,3254,1559243535.773
-3.37,-9.38,0.1,0.0,0.0,-0.02,3259,1559243535.778
-3.37,-9.38,0.1,0.0,0.0,-0.02,3266,1559243535.785
-3.37,-9.38,0.1,0.0,0.0,-0.02,3270,1559243535.789
-3.37,-9.37,0.04,0.0,0.0,-0.02,3280,1559243535.799
-3.37,-9.37,0.04,0.0,0.0,-0.02,3281,1559243535.8
-3.37,-9.37,0.04,0.0,0.0,-0.02,3287,1559243535.806
-3.37,-9.37,0.04,0.0,0.0,-0.02,3290,1559243535.809
-3.37,-9.37,0.04,0.0,0.0,-0.02,3295,1559243535.814
-3.36,-9.37,0.05,0.0,0.0,-0.01,3300,1559243535.819
-3.36,-9.37,0.05,0.0,0.0,-0.01,3304,1559243535.823
-3.36,-9.37,0.05,0.0,0.0,-0.01,3309,1559243535.828
-3.36,-9.37,0.05,0.0,0.0,-0.01,3319,1559243535.838
-3.36,-9.37,0.05,0.0,0.0,-0.01,3320,1559243535.839
-3.41,-9.34,0.08,0.0,0.0,-0.01,3324,1559243535.843
-3.41,-9.34,0.08,0.0,0.0,-0.01,3330,1559243535.849
-3.41,-9.34,0.08,0.0,0.0,-0.01,3334,1559243535.853
-3.35,-9.35,0.06,0.0,0.0,-0.01,3340,1559243535.859
-3.35,-9.35,0.06,0.0,0.0,-0.01,3345,1559243535.864
-3.35,-9.35,0.06,0.0,0.0,-0.01,3349,1559243535.868
-3.42,-9.34,0.08,0.0,0.0,-0.01,3354,1559243535.873
-3.42,-9.34,0.08,0.0,0.0,-0.01,3359,1559243535.878
-3.42,-9.34,0.08,0.0,0.0,-0.01,3364,1559243535.883
-3.42,-9.34,0.08,0.0,0.0,-0.01,3369,1559243535.888
-3.42,-9.34,0.08,0.0,0.0,-0.01,3378,1559243535.897
-3.35,-9.3,0.05,0.0,0.0,0.0,3380,1559243535.899
-3.35,-9.3,0.05,0.0,0.0,0.0,3383,1559243535.902
-3.35,-9.3,0.05,0.0,0.0,0.0,3389,1559243535.908
-3.35,-9.3,0.05,0.0,0.0,0.0,3394,1559243535.913
-3.35,-9.3,0.05,0.0,0.0,0.0,3400,1559243535.919
-3.35,-9.3,0.05,0.0,0.0,0.0,3405,1559243535.924
-3.35,-9.3,0.05,0.0,0.0,0.0,3409,1559243535.928
-3.41,-9.31,0.09,0.0,0.0,-0.01,3414,1559243535.933
-3.41,-9.31,0.09,0.0,0.0,-0.01,3419,1559243535.938
-3.41,-9.31,0.09,0.0,0.0,-0.01,3426,1559243535.945
-3.41,-9.31,0.09,0.0,0.0,-0.01,3429,1559243535.948
-3.41,-9.31,0.09,0.0,0.0,-0.01,3437,1559243535.956
-3.41,-9.31,0.09,0.0,0.0,-0.01,3439,1559243535.958
-3.42,-9.33,0.14,0.0,0.0,-0.01,3447,1559243535.966
-3.42,-9.33,0.14,0.0,0.0,-0.01,3449,1559243535.968
-3.42,-9.33,0.14,0.0,0.0,-0.01,3454,1559243535.973
-3.37,-9.35,0.13,0.0,0.0,0.0,3471,1559243535.99
-3.37,-9.35,0.13,0.0,0.0,0.0,3471,1559243535.99
-3.37,-9.35,0.13,0.0,0.0,0.0,3473,1559243535.992
-3.37,-9.35,0.13,0.0,0.0,0.0,3474,1559243535.993
-3.37,-9.35,0.13,0.0,0.0,0.0,3479,1559243535.998
-3.37,-9.35,0.13,0.0,0.0,0.0,3484,1559243536.003
-3.37,-9.35,0.13,0.0,0.0,0.0,3489,1559243536.008
-3.45,-9.33,0.06,0.0,0.0,0.0,3495,1559243536.014
-3.45,-9.33,0.06,0.0,0.0,0.0,3499,1559243536.018
-3.45,-9.33,0.06,0.0,0.0,0.0,3504,1559243536.023
-3.45,-9.33,0.06,0.0,0.0,0.0,3509,1559243536.028
-3.45,-9.33,0.06,0.0,0.0,0.0,3516,1559243536.035
-3.45,-9.33,0.06,0.0,0.0,0.0,3519,1559243536.038
-3.41,-9.34,0.08,0.0,0.0,0.0,3525,1559243536.044
-3.41,-9.34,0.08,0.0,0.0,0.0,3529,1559243536.048
-3.41,-9.34,0.08,0.0,0.0,0.0,3534,1559243536.053
-3.41,-9.34,0.08,0.0,0.0,0.0,3539,1559243536.058
-3.42,-9.3,0.09,0.0,0.0,0.0,3544,1559243536.063
-3.42,-9.3,0.09,0.0,0.0,0.0,3550,1559243536.069
-3.42,-9.3,0.09,0.0,0.0,0.0,3554,1559243536.073
-3.4,-9.31,0.09,0.0,0.0,0.0,3563,1559243536.082
-3.4,-9.31,0.09,0.0,0.0,0.0,3564,1559243536.083
-3.4,-9.31,0.09,0.0,0.0,0.0,3570,1559243536.089
-3.4,-9.31,0.09,0.0,0.0,0.0,3574,1559243536.093
-3.4,-9.31,0.09,0.0,0.0,0.0,3579,1559243536.098
-3.4,-9.31,0.09,0.0,0.0,0.0,3585,1559243536.104
-3.4,-9.31,0.09,0.0,0.0,0.0,3589,1559243536.108
-3.44,-9.29,0.1,0.0,0.0,0.0,3594,1559243536.113
-3.44,-9.29,0.1,0.0,0.0,0.0,3600,1559243536.119
-3.44,-9.29,0.1,0.0,0.0,0.0,3605,1559243536.124
-3.44,-9.29,0.1,0.0,0.0,0.0,3610,1559243536.129
-3.44,-9.29,0.1,0.0,0.0,0.0,3614,1559243536.133
-3.47,-9.34,0.02,0.0,0.0,-0.01,3619,1559243536.138
-3.47,-9.34,0.02,0.0,0.0,-0.01,3624,1559243536.143
-3.47,-9.34,0.02,0.0,0.0,-0.01,3629,1559243536.148
-3.47,-9.34,0.02,0.0,0.0,-0.01,3634,1559243536.153
-3.47,-9.34,0.02,0.0,0.0,-0.01,3639,1559243536.158
-3.45,-9.32,0.12,0.0,0.0,-0.01,3644,1559243536.163
-3.45,-9.32,0.12,0.0,0.0,-0.01,3649,1559243536.168
-3.45,-9.32,0.12,0.0,0.0,-0.01,3654,1559243536.173
-3.45,-9.32,0.12,0.0,0.0,-0.01,3659,1559243536.178
-3.45,-9.32,0.12,0.0,0.0,-0.01,3664,1559243536.183
-3.45,-9.32,0.12,0.0,0.0,-0.01,3669,1559243536.188
-3.44,-9.32,0.12,0.0,0.0,-0.01,3674,1559243536.193
-3.44,-9.32,0.12,0.0,0.0,-0.01,3679,1559243536.198
-3.44,-9.32,0.12,0.0,0.0,-0.01,3683,1559243536.202
-3.44,-9.32,0.12,0.0,0.0,-0.01,3689,1559243536.208
-3.44,-9.32,0.12,0.0,0.0,-0.01,3694,1559243536.213
-3.43,-9.35,0.07,0.0,0.0,-0.01,3699,1559243536.218
-3.43,-9.35,0.07,0.0,0.0,-0.01,3704,1559243536.223
-3.43,-9.35,0.07,0.0,0.0,-0.01,3709,1559243536.228
-3.4,-9.33,0.16,0.0,0.0,-0.01,3716,1559243536.235
-3.4,-9.33,0.16,0.0,0.0,-0.01,3719,1559243536.238
-3.4,-9.33,0.16,0.0,0.0,-0.01,3724,1559243536.243
-3.38,-9.33,0.05,0.0,0.0,-0.02,3729,1559243536.248
-3.38,-9.33,0.05,0.0,0.0,-0.02,3735,1559243536.254
-3.38,-9.33,0.05,0.0,0.0,-0.02,3739,1559243536.258
-3.38,-9.33,0.05,0.0,0.0,-0.02,3744,1559243536.263
-3.37,-9.31,0.1,0.0,0.0,-0.02,3750,1559243536.269
-3.37,-9.31,0.1,0.0,0.0,-0.02,3754,1559243536.273
-3.37,-9.31,0.1,0.0,0.0,-0.02,3759,1559243536.278
-3.38,-9.33,0.12,0.0,0.0,-0.02,3764,1559243536.283
-3.38,-9.33,0.12,0.0,0.0,-0.02,3769,1559243536.288
-3.38,-9.33,0.12,0.0,0.0,-0.02,3778,1559243536.297
-3.38,-9.33,0.12,0.0,0.0,-0.02,3778,1559243536.297
-3.38,-9.33,0.12,0.0,0.0,-0.02,3784,1559243536.303
-3.32,-9.36,0.06,0.0,0.0,-0.01,3789,1559243536.308
-3.32,-9.36,0.06,0.0,0.0,-0.01,3797,1559243536.316
-3.32,-9.36,0.06,0.0,0.0,-0.01,3799,1559243536.318
-3.42,-9.31,0.03,0.0,0.0,-0.01,3804,1559243536.323
-3.42,-9.31,0.03,0.0,0.0,-0.01,3809,1559243536.328
-3.42,-9.31,0.03,0.0,0.0,-0.01,3814,1559243536.333
-3.42,-9.31,0.03,0.0,0.0,-0.01,3820,1559243536.339
-3.42,-9.32,0.06,0.0,0.0,-0.01,3825,1559243536.344
-3.42,-9.32,0.06,0.0,0.0,-0.01,3832,1559243536.351
-3.42,-9.32,0.06,0.0,0.0,-0.01,3834,1559243536.353
-3.42,-9.32,0.06,0.0,0.0,-0.01,3839,1559243536.358
-3.42,-9.32,0.06,0.0,0.0,-0.01,3843,1559243536.362
-3.43,-9.31,0.08,0.0,0.0,-0.01,3855,1559243536.374
-3.43,-9.31,0.08,0.0,0.0,-0.01,3856,1559243536.375
-3.43,-9.31,0.08,0.0,0.0,-0.01,3860,1559243536.379
-3.43,-9.31,0.08,0.0,0.0,-0.01,3864,1559243536.383
-3.45,-9.32,0.06,0.0,0.0,-0.01,3869,1559243536.388
-3.45,-9.32,0.06,0.0,0.0,-0.01,3874,1559243536.393
-3.45,-9.32,0.06,0.0,0.0,-0.01,3879,1559243536.398
-3.42,-9.34,0.05,0.0,0.0,-0.01,3891,1559243536.41
-3.42,-9.34,0.05,0.0,0.0,-0.01,3891,1559243536.41
-3.42,-9.34,0.05,0.0,0.0,-0.01,3895,1559243536.414
-3.42,-9.34,0.05,0.0,0.0,-0.01,3900,1559243536.419
-3.42,-9.34,0.05,0.0,0.0,-0.01,3905,1559243536.424
-3.42,-9.34,0.05,0.0,0.0,-0.01,3910,1559243536.429
-3.39,-9.34,0.06,0.0,0.0,-0.01,3914,1559243536.433
-3.39,-9.34,0.06,0.0,0.0,-0.01,3919,1559243536.438
-3.39,-9.34,0.06,0.0,0.0,-0.01,3924,1559243536.443
-3.35,-9.32,0.07,0.0,0.0,-0.01,3929,1559243536.448
-3.35,-9.32,0.07,0.0,0.0,-0.01,3934,1559243536.453
-3.35,-9.32,0.07,0.0,0.0,-0.01,3939,1559243536.458
-3.35,-9.32,0.07,0.0,0.0,-0.01,3944,1559243536.463
-3.31,-9.34,0.12,0.0,0.0,-0.01,3957,1559243536.476
-3.31,-9.34,0.12,0.0,0.0,-0.01,3958,1559243536.477
-3.31,-9.34,0.12,0.0,0.0,-0.01,3961,1559243536.48
-3.31,-9.34,0.12,0.0,0.0,-0.01,3964,1559243536.483
-3.3,-9.34,0.12,0.0,0.0,-0.01,3972,1559243536.491
-3.3,-9.34,0.12,0.0,0.0,-0.01,3974,1559243536.493
-3.3,-9.34,0.12,0.0,0.0,-0.01,3980,1559243536.499
-3.36,-9.34,0.12,0.0,0.0,-0.01,3984,1559243536.503
-3.36,-9.34,0.12,0.0,0.0,-0.01,3991,1559243536.51
-3.36,-9.34,0.12,0.0,0.0,-0.01,3995,1559243536.514
-3.36,-9.34,0.12,0.0,0.0,-0.01,4000,1559243536.519
-3.31,-9.33,0.1,0.0,0.0,-0.01,4006,1559243536.525
-3.31,-9.33,0.1,0.0,0.0,-0.01,4009,1559243536.528
-3.31,-9.33,0.1,0.0,0.0,-0.01,4014,1559243536.533
-3.31,-9.33,0.1,0.0,0.0,-0.01,4021,1559243536.54
-3.31,-9.33,0.1,0.0,0.0,-0.01,4025,1559243536.544
-3.31,-9.33,0.1,0.0,0.0,-0.01,4029,1559243536.548
-3.36,-9.35,0.09,0.0,0.0,-0.01,4034,1559243536.553
-3.36,-9.35,0.09,0.0,0.0,-0.01,4041,1559243536.56
-3.36,-9.35,0.09,0.0,0.0,-0.01,4046,1559243536.565
-3.36,-9.35,0.09,0.0,0.0,-0.01,4050,1559243536.569
-3.35,-9.36,0.11,0.0,0.0,-0.01,4055,1559243536.574
-3.35,-9.36,0.11,0.0,0.0,-0.01,4059,1559243536.578
-3.35,-9.36,0.11,0.0,0.0,-0.01,4065,1559243536.584
-3.34,-9.33,0.08,0.0,0.0,0.0,4070,1559243536.589
-3.34,-9.33,0.08,0.0,0.0,0.0,4075,1559243536.594
-3.34,-9.33,0.08,0.0,0.0,0.0,4078,1559243536.597
-3.34,-9.33,0.08,0.0,0.0,0.0,4084,1559243536.603
-3.35,-9.36,0.09,0.0,0.0,-0.01,4091,1559243536.61
-3.35,-9.36,0.09,0.0,0.0,-0.01,4094,1559243536.613
-3.33,-9.36,0.07,0.0,0.0,0.0,4106,1559243536.625
-3.33,-9.36,0.07,0.0,0.0,0.0,4108,1559243536.627
-3.33,-9.36,0.07,0.0,0.0,0.0,4108,1559243536.627
-3.33,-9.36,0.07,0.0,0.0,0.0,4114,1559243536.633
-3.33,-9.36,0.07,0.0,0.0,0.0,4119,1559243536.638
-3.33,-9.36,0.07,0.0,0.0,0.0,4124,1559243536.643
-3.33,-9.36,0.07,0.0,0.0,0.0,4129,1559243536.648
-3.33,-9.36,0.13,0.0,0.0,0.0,4134,1559243536.653
-3.35,-9.36,0.13,0.0,0.0,0.0,4140,1559243536.659
-3.35,-9.36,0.13,0.0,0.0,0.0,4146,1559243536.665
-3.35,-9.36,0.13,0.0,0.0,0.0,4149,1559243536.668
-3.35,-9.36,0.13,0.0,0.0,0.0,4155,1559243536.674
-3.35,-9.36,0.08,0.0,0.0,0.0,4159,1559243536.678
-3.35,-9.36,0.08,0.0,0.0,0.0,4165,1559243536.684
-3.35,-9.36,0.08,0.0,0.0,0.0,4170,1559243536.689
-3.35,-9.36,0.08,0.0,0.0,0.0,4174,1559243536.693
-3.35,-9.35,0.05,0.0,0.0,0.0,4179,1559243536.698
-3.35,-9.35,0.05,0.0,0.0,0.0,4184,1559243536.703
-3.35,-9.35,0.05,0.0,0.0,0.0,4190,1559243536.709
-3.36,-9.37,0.08,0.0,0.0,0.0,4194,1559243536.713
-3.36,-9.37,0.08,0.0,0.0,0.0,4200,1559243536.719
-3.36,-9.37,0.08,0.0,0.0,0.0,4205,1559243536.724
-3.36,-9.37,0.08,0.0,0.0,0.0,4210,1559243536.729
-3.36,-9.37,0.08,0.0,0.0,0.0,4215,1559243536.734
-3.36,-9.37,0.08,0.0,0.0,0.0,4219,1559243536.738
-3.32,-9.3,0.1,0.0,0.0,0.0,4225,1559243536.744
-3.32,-9.3,0.1,0.0,0.0,0.0,4230,1559243536.749
-3.32,-9.3,0.1,0.0,0.0,0.0,4234,1559243536.753
-3.32,-9.3,0.1,0.0,0.0,0.0,4239,1559243536.758
-3.38,-9.36,0.11,0.0,0.0,0.0,4246,1559243536.765
-3.38,-9.36,0.11,0.0,0.0,0.0,4249,1559243536.768
-3.38,-9.36,0.11,0.0,0.0,0.0,4254,1559243536.773
-3.38,-9.36,0.11,0.0,0.0,0.0,4259,1559243536.778
-3.38,-9.36,0.11,0.0,0.0,0.0,4265,1559243536.784
-3.35,-9.31,0.12,0.0,0.0,0.0,4269,1559243536.788
-3.35,-9.31,0.12,0.0,0.0,0.0,4274,1559243536.793
-3.35,-9.31,0.12,0.0,0.0,0.0,4279,1559243536.798
-3.35,-9.32,0.11,0.0,0.0,0.0,4284,1559243536.803
-3.38,-9.32,0.11,0.0,0.0,0.0,4291,1559243536.81
-3.38,-9.32,0.11,0.0,0.0,0.0,4297,1559243536.816
-3.38,-9.32,0.11,0.0,0.0,0.0,4300,1559243536.819
-3.38,-9.32,0.11,0.0,0.0,0.0,4305,1559243536.824
-3.38,-9.32,0.11,0.0,0.0,0.0,4309,1559243536.828
-3.38,-9.32,0.11,0.0,0.0,0.0,4314,1559243536.833
-3.38,-9.32,0.11,0.0,0.0,0.0,4319,1559243536.838
-3.42,-9.3,0.12,0.0,0.0,0.0,4326,1559243536.845
-3.42,-9.3,0.12,0.0,0.0,0.0,4330,1559243536.849
-3.42,-9.3,0.12,0.0,0.0,0.0,4335,1559243536.854
-3.42,-9.3,0.12,0.0,0.0,0.0,4339,1559243536.858
-3.39,-9.31,0.09,0.0,-0.01,0.0,4345,1559243536.864
-3.39,-9.31,0.09,0.0,-0.01,0.0,4349,1559243536.868
-3.35,-9.31,0.08,0.0,-0.01,0.0,4354,1559243536.873
-3.35,-9.31,0.08,0.0,-0.01,0.0,4359,1559243536.878
-3.35,-9.31,0.08,0.0,-0.01,0.0,4365,1559243536.884
-3.38,-9.32,0.09,0.0,-0.01,0.0,4373,1559243536.892
-3.38,-9.32,0.09,0.0,-0.01,0.0,4373,1559243536.892
-3.38,-9.32,0.09,0.0,-0.01,0.0,4382,1559243536.901
-3.38,-9.32,0.09,0.0,-0.01,0.0,4385,1559243536.904
-3.37,-9.34,0.09,0.0,-0.01,0.0,4392,1559243536.911
-3.37,-9.34,0.09,0.0,-0.01,0.0,4396,1559243536.915
-3.37,-9.34,0.09,0.0,-0.01,0.0,4399,1559243536.918
-3.36,-9.35,0.07,0.0,-0.01,0.0,4404,1559243536.923
-3.36,-9.35,0.07,0.0,-0.01,0.0,4409,1559243536.928
-3.36,-9.35,0.07,0.0,-0.01,0.0,4415,1559243536.934
-3.36,-9.35,0.07,0.0,-0.01,0.0,4421,1559243536.94
-3.38,-9.34,0.07,0.0,-0.01,0.0,4424,1559243536.943
-3.38,-9.34,0.07,0.0,-0.01,0.0,4430,1559243536.949
-3.38,-9.34,0.07,0.0,-0.01,0.0,4434,1559243536.953
-3.38,-9.34,0.07,0.0,-0.01,0.0,4439,1559243536.958
-3.36,-9.35,0.07,0.0,-0.01,0.01,4444,1559243536.963
-3.36,-9.35,0.07,0.0,-0.01,0.01,4450,1559243536.969
-3.36,-9.35,0.07,0.0,-0.01,0.01,4454,1559243536.973
-3.36,-9.35,0.07,0.0,-0.01,0.01,4459,1559243536.978
-3.36,-9.35,0.07,0.0,-0.01,0.01,4465,1559243536.984
-3.37,-9.38,0.05,0.0,-0.01,0.01,4469,1559243536.988
-3.37,-9.38,0.05,0.0,-0.01,0.01,4474,1559243536.993
-3.37,-9.38,0.05,0.0,-0.01,0.01,4479,1559243536.998
-3.4,-9.33,0.09,0.0,-0.01,0.01,4485,1559243537.004
-3.4,-9.33,0.09,0.0,-0.01,0.01,4489,1559243537.008
-3.4,-9.33,0.09,0.0,-0.01,0.01,4495,1559243537.014
-3.4,-9.33,0.09,0.0,-0.01,0.01,4500,1559243537.019
-3.39,-9.31,0.09,0.0,-0.01,0.01,4505,1559243537.024
-3.39,-9.31,0.09,0.0,-0.01,0.01,4509,1559243537.028
-3.39,-9.31,0.09,0.0,-0.01,0.01,4514,1559243537.033
-3.39,-9.31,0.09,0.0,-0.01,0.01,4520,1559243537.039
-3.43,-9.35,0.08,0.0,0.0,0.01,4527,1559243537.046
-3.43,-9.35,0.08,0.0,0.0,0.01,4530,1559243537.049
-3.43,-9.35,0.08,0.0,0.0,0.01,4534,1559243537.053
-3.43,-9.35,0.08,0.0,0.0,0.01,4539,1559243537.058
-3.47,-9.33,0.07,0.0,0.0,0.01,4544,1559243537.063
-3.47,-9.33,0.07,0.0,0.0,0.01,4549,1559243537.068
-3.47,-9.33,0.07,0.0,0.0,0.01,4554,1559243537.073
-3.47,-9.33,0.07,0.0,0.0,0.01,4559,1559243537.078
-3.47,-9.33,0.07,0.0,0.0,0.01,4564,1559243537.083
-3.42,-9.31,0.06,0.0,0.0,0.01,4569,1559243537.088
-3.42,-9.31,0.06,0.0,0.0,0.01,4574,1559243537.093
-3.42,-9.31,0.06,0.0,0.0,0.01,4579,1559243537.098
-3.42,-9.31,0.06,0.0,0.0,0.01,4584,1559243537.103
-3.43,-9.31,0.06,0.0,0.0,0.01,4592,1559243537.111
-3.43,-9.31,0.06,0.0,0.0,0.01,4595,1559243537.114
-3.43,-9.31,0.06,0.0,0.0,0.01,4600,1559243537.119
-3.39,-9.32,0.08,0.0,0.0,0.01,4607,1559243537.126
-3.39,-9.32,0.08,0.0,0.0,0.01,4609,1559243537.128
-3.39,-9.32,0.08,0.0,0.0,0.01,4615,1559243537.134
-3.39,-9.32,0.08,0.0,0.0,0.01,4620,1559243537.139
-3.39,-9.32,0.08,0.0,0.0,0.01,4627,1559243537.146
-3.39,-9.32,0.08,0.0,0.0,0.01,4629,1559243537.148
-3.42,-9.3,0.09,0.0,0.0,0.01,4634,1559243537.153
-3.42,-9.3,0.09,0.0,0.0,0.01,4639,1559243537.158
-3.42,-9.3,0.09,0.0,0.0,0.01,4645,1559243537.164
-3.45,-9.29,0.11,0.0,0.0,0.01,4650,1559243537.169
-3.45,-9.29,0.11,0.0,0.0,0.01,4654,1559243537.173
-3.45,-9.29,0.11,0.0,0.0,0.01,4659,1559243537.178
-3.45,-9.29,0.11,0.0,0.0,0.01,4664,1559243537.183
-3.45,-9.29,0.11,0.0,0.0,0.01,4670,1559243537.189
-3.45,-9.28,0.11,0.0,0.0,0.0,4677,1559243537.196
-3.45,-9.28,0.11,0.0,0.0,0.0,4681,1559243537.2
-3.45,-9.28,0.11,0.0,0.0,0.0,4686,1559243537.205
-3.45,-9.28,0.11,0.0,0.0,0.0,4689,1559243537.208
-3.46,-9.3,0.1,0.0,0.0,0.0,4696,1559243537.215
-3.46,-9.3,0.1,0.0,0.0,0.0,4700,1559243537.219
-3.46,-9.3,0.1,0.0,0.0,0.0,4705,1559243537.224
-3.46,-9.3,0.1,0.0,0.0,0.0,4710,1559243537.229
-3.46,-9.3,0.1,0.0,0.0,0.0,4714,1559243537.233
-3.45,-9.35,0.04,0.0,0.0,0.0,4719,1559243537.238
-3.45,-9.35,0.04,0.0,0.0,0.0,4727,1559243537.246
-3.45,-9.35,0.04,0.0,0.0,0.0,4729,1559243537.248
-3.45,-9.35,0.04,0.0,0.0,0.0,4738,1559243537.257
-3.45,-9.35,0.04,0.0,0.0,0.0,4739,1559243537.258
-3.41,-9.31,0.1,0.0,0.0,0.0,4745,1559243537.264
-3.41,-9.31,0.1,0.0,0.0,0.0,4751,1559243537.27
-3.41,-9.31,0.1,0.0,0.0,0.0,4755,1559243537.274
-3.41,-9.31,0.1,0.0,0.0,0.0,4760,1559243537.279
-3.49,-9.35,0.04,0.0,0.0,0.0,4764,1559243537.283
-3.49,-9.35,0.04,0.0,0.0,0.0,4769,1559243537.288
-3.49,-9.35,0.04,0.0,0.0,0.0,4777,1559243537.296
-3.49,-9.35,0.04,0.0,0.0,0.0,4779,1559243537.298
-3.49,-9.35,0.04,0.0,0.0,0.0,4784,1559243537.303
-3.47,-9.31,0.08,0.0,0.0,0.0,4796,1559243537.315
-3.47,-9.31,0.08,0.0,0.0,0.0,4797,1559243537.316
-3.47,-9.31,0.08,0.0,0.0,0.0,4799,1559243537.318
-3.47,-9.31,0.08,0.0,0.0,0.0,4807,1559243537.326
-3.47,-9.31,0.08,0.0,0.0,0.0,4810,1559243537.329
-3.48,-9.28,0.01,0.0,0.0,0.0,4815,1559243537.334
-3.48,-9.28,0.01,0.0,0.0,0.0,4820,1559243537.339
-3.48,-9.28,0.01,0.0,0.0,0.0,4824,1559243537.343
-3.43,-9.29,0.06,0.0,0.0,0.0,4829,1559243537.348
-3.43,-9.29,0.06,0.0,0.0,0.0,4836,1559243537.355
-3.43,-9.29,0.06,0.0,0.0,0.0,4839,1559243537.358
-3.43,-9.29,0.06,0.0,0.0,0.0,4845,1559243537.364
-3.43,-9.29,0.06,0.0,0.0,0.0,4849,1559243537.368
-3.46,-9.31,0.06,0.0,0.0,0.0,4854,1559243537.373
-3.46,-9.31,0.06,0.0,0.0,0.0,4859,1559243537.378
-3.46,-9.31,0.06,0.0,0.0,0.0,4865,1559243537.384
-3.46,-9.31,0.06,0.0,0.0,0.0,4871,1559243537.39
-3.45,-9.32,0.0,0.0,0.0,0.0,4874,1559243537.393
-3.45,-9.32,0.0,0.0,0.0,0.0,4880,1559243537.399
-3.45,-9.32,0.0,0.0,0.0,0.0,4884,1559243537.403
-3.48,-9.34,0.11,0.0,0.0,0.0,4891,1559243537.41
-3.48,-9.34,0.11,0.0,0.0,0.0,4895,1559243537.414
-3.48,-9.34,0.11,0.0,0.0,0.0,4899,1559243537.418
-3.48,-9.34,0.11,0.0,0.0,0.0,4904,1559243537.423
-3.48,-9.34,0.11,0.0,0.0,0.0,4909,1559243537.428
-3.46,-9.32,0.08,0.0,0.0,0.0,4915,1559243537.434
-3.46,-9.32,0.08,0.0,0.0,0.0,4919,1559243537.438
-3.46,-9.32,0.08,0.0,0.0,0.0,4923,1559243537.442
-3.46,-9.31,0.09,0.0,0.0,0.0,4930,1559243537.449
-3.46,-9.31,0.09,0.0,0.0,0.0,4935,1559243537.454
-3.46,-9.31,0.09,0.0,0.0,0.0,4939,1559243537.458
-3.43,-9.31,0.1,0.0,0.0,0.0,4944,1559243537.463
-3.43,-9.31,0.1,0.0,0.0,0.0,4949,1559243537.468
-3.43,-9.31,0.1,0.0,0.0,0.0,4955,1559243537.474
-3.43,-9.31,0.1,0.0,0.0,0.0,4959,1559243537.478
-3.43,-9.31,0.09,0.0,0.0,0.0,4964,1559243537.483
-3.43,-9.31,0.09,0.0,0.0,0.0,4969,1559243537.488
-3.43,-9.31,0.09,0.0,0.0,0.0,4974,1559243537.493
-3.43,-9.31,0.09,0.0,0.0,0.0,4980,1559243537.499
-3.43,-9.31,0.09,0.0,0.0,0.0,4987,1559243537.506
-3.43,-9.31,0.09,0.0,0.0,0.0,4989,1559243537.508
-3.46,-9.3,0.1,0.0,0.0,0.0,4994,1559243537.513
-3.46,-9.3,0.1,0.0,0.0,0.0,5000,1559243537.519
-3.46,-9.3,0.1,0.0,0.0,0.0,5008,1559243537.527
-3.46,-9.3,0.1,0.0,0.0,0.0,5010,1559243537.529
-3.45,-9.31,0.04,0.0,0.0,0.0,5014,1559243537.533
-3.45,-9.31,0.04,0.0,0.0,0.0,5020,1559243537.539
-3.45,-9.31,0.04,0.0,0.0,0.0,5028,1559243537.547
-3.45,-9.31,0.04,0.0,0.0,0.0,5029,1559243537.548
-3.45,-9.3,0.06,0.0,0.0,0.0,5034,1559243537.553
-3.45,-9.3,0.06,0.0,0.0,0.0,5039,1559243537.558
-3.45,-9.3,0.06,0.0,0.0,0.0,5044,1559243537.563
-3.45,-9.31,0.11,0.0,0.0,-0.01,5049,1559243537.568
-3.45,-9.31,0.11,0.0,0.0,-0.01,5054,1559243537.573
-3.45,-9.31,0.11,0.0,0.0,-0.01,5060,1559243537.579
-3.45,-9.31,0.11,0.0,0.0,-0.01,5064,1559243537.583
-3.46,-9.31,0.11,0.0,0.0,-0.01,5069,1559243537.588
-3.46,-9.31,0.11,0.0,0.0,-0.01,5077,1559243537.596
-3.46,-9.31,0.11,0.0,0.0,-0.01,5079,1559243537.598
-3.46,-9.31,0.11,0.0,0.0,-0.01,5085,1559243537.604
-3.46,-9.31,0.11,0.0,0.0,-0.01,5092,1559243537.611
-3.47,-9.33,0.13,0.0,0.0,-0.01,5094,1559243537.613
-3.47,-9.33,0.13,0.0,0.0,-0.01,5100,1559243537.619
-3.47,-9.33,0.13,0.0,0.0,-0.01,5104,1559243537.623
-3.47,-9.33,0.13,0.0,0.0,-0.01,5111,1559243537.63
-3.43,-9.31,0.1,0.0,0.0,-0.01,5114,1559243537.633
-3.43,-9.31,0.1,0.0,0.0,-0.01,5120,1559243537.639
-3.43,-9.31,0.1,0.0,0.0,-0.01,5124,1559243537.643
-3.4,-9.34,0.07,0.0,0.0,-0.01,5129,1559243537.648
-3.4,-9.34,0.07,0.0,0.0,-0.01,5136,1559243537.655
-3.4,-9.34,0.07,0.0,0.0,-0.01,5139,1559243537.658
-3.4,-9.34,0.07,0.0,0.0,-0.01,5144,1559243537.663
-3.4,-9.34,0.07,0.0,0.0,-0.01,5149,1559243537.668
-3.4,-9.34,0.09,0.0,0.0,-0.01,5154,1559243537.673
-3.4,-9.34,0.09,0.0,0.0,-0.01,5159,1559243537.678
-3.4,-9.34,0.09,0.0,0.0,-0.01,5164,1559243537.683
-3.4,-9.34,0.09,0.0,0.0,-0.01,5172,1559243537.691
-3.42,-9.3,0.08,0.0,0.0,-0.01,5178,1559243537.697
-3.42,-9.3,0.08,0.0,0.0,-0.01,5179,1559243537.698
-3.42,-9.3,0.08,0.0,0.0,-0.01,5185,1559243537.704
-3.42,-9.3,0.08,0.0,0.0,-0.01,5189,1559243537.708
-3.43,-9.3,0.08,0.0,0.0,-0.01,5194,1559243537.713
-3.43,-9.3,0.08,0.0,0.0,-0.01,5199,1559243537.718
-3.42,-9.29,0.12,0.0,0.0,-0.01,5209,1559243537.728
-3.42,-9.29,0.12,0.0,0.0,-0.01,5209,1559243537.728
-3.42,-9.29,0.12,0.0,0.0,-0.01,5214,1559243537.733
-3.42,-9.29,0.12,0.0,0.0,-0.01,5219,1559243537.738
-3.42,-9.29,0.12,0.0,0.0,-0.01,5224,1559243537.743
-3.42,-9.29,0.12,0.0,0.0,-0.01,5229,1559243537.748
-3.42,-9.34,0.1,0.0,0.0,-0.01,5234,1559243537.753
-3.42,-9.34,0.1,0.0,0.0,-0.01,5239,1559243537.758
-3.42,-9.34,0.1,0.0,0.0,-0.01,5244,1559243537.763
-3.42,-9.34,0.1,0.0,0.0,-0.01,5249,1559243537.768
-3.4,-9.29,0.08,0.0,0.0,-0.01,5255,1559243537.774
-3.4,-9.29,0.08,0.0,0.0,-0.01,5260,1559243537.779
-3.4,-9.29,0.08,0.0,0.0,-0.01,5264,1559243537.783
-3.4,-9.29,0.08,0.0,0.0,-0.01,5270,1559243537.789
-3.41,-9.31,0.11,0.0,0.0,-0.01,5275,1559243537.794
-3.41,-9.31,0.11,0.0,0.0,-0.01,5280,1559243537.799
-3.41,-9.31,0.11,0.0,0.0,-0.01,5284,1559243537.803
-3.41,-9.31,0.11,0.0,0.0,-0.01,5289,1559243537.808
-3.41,-9.35,0.1,0.0,0.0,-0.01,5295,1559243537.814
-3.41,-9.35,0.1,0.0,0.0,-0.01,5299,1559243537.818
-3.41,-9.35,0.1,0.0,0.0,-0.01,5306,1559243537.825
-3.41,-9.35,0.1,0.0,0.0,-0.01,5312,1559243537.831
-3.39,-9.32,0.11,0.0,0.0,-0.01,5314,1559243537.833
-3.39,-9.32,0.11,0.0,0.0,-0.01,5319,1559243537.838
-3.39,-9.32,0.11,0.0,0.0,-0.01,5325,1559243537.844
-3.4,-9.34,0.12,0.0,0.0,-0.01,5329,1559243537.848
-3.4,-9.34,0.12,0.0,0.0,-0.01,5334,1559243537.853
-3.4,-9.34,0.12,0.0,0.0,-0.01,5339,1559243537.858
-3.4,-9.34,0.12,0.0,0.0,-0.01,5345,1559243537.864
-3.43,-9.33,0.09,0.0,0.0,0.0,5349,1559243537.868
-3.43,-9.33,0.09,0.0,0.0,0.0,5357,1559243537.876
-3.43,-9.33,0.09,0.0,0.0,0.0,5360,1559243537.879
-3.43,-9.33,0.09,0.0,0.0,0.0,5364,1559243537.883
-3.42,-9.35,0.08,0.0,0.0,-0.01,5369,1559243537.888
-3.42,-9.35,0.08,0.0,0.0,-0.01,5374,1559243537.893
-3.42,-9.35,0.08,0.0,0.0,-0.01,5380,1559243537.899
-3.41,-9.32,0.04,0.0,0.0,-0.01,5384,1559243537.903
-3.41,-9.32,0.04,0.0,0.0,-0.01,5389,1559243537.908
-3.41,-9.32,0.04,0.0,0.0,0.0,5395,1559243537.914
-3.43,-9.28,0.09,0.0,0.0,0.0,5400,1559243537.919
-3.43,-9.28,0.09,0.0,0.0,0.0,5403,1559243537.922
-3.43,-9.28,0.09,0.0,0.0,0.0,5410,1559243537.929
-3.43,-9.28,0.09,0.0,0.0,0.0,5414,1559243537.933
-3.43,-9.28,0.09,0.0,0.0,0.0,5419,1559243537.938
-3.43,-9.28,0.09,0.0,0.0,0.0,5424,1559243537.943
-3.39,-9.33,0.04,0.0,0.0,0.0,5429,1559243537.948
-3.39,-9.33,0.04,0.0,0.0,0.0,5435,1559243537.954
-3.39,-9.33,0.04,0.0,0.0,0.0,5439,1559243537.958
-3.36,-9.29,0.06,0.0,0.0,0.0,5444,1559243537.963
-3.36,-9.29,0.06,0.0,0.0,0.0,5448,1559243537.967
-3.36,-9.29,0.06,0.0,0.0,0.0,5455,1559243537.974
-3.39,-9.32,0.1,0.0,0.0,0.0,5460,1559243537.979
-3.39,-9.32,0.1,0.0,0.0,0.0,5464,1559243537.983
-3.39,-9.32,0.1,0.0,0.0,0.0,5471,1559243537.99
-3.39,-9.33,0.09,0.0,0.0,0.0,5475,1559243537.994
-3.39,-9.33,0.09,0.0,0.0,0.0,5483,1559243538.002
-3.39,-9.33,0.09,0.0,0.0,0.0,5484,1559243538.003
-3.39,-9.33,0.09,0.0,0.0,0.0,5491,1559243538.01
-3.41,-9.3,0.07,0.0,0.0,0.0,5494,1559243538.013
-3.41,-9.3,0.07,0.0,0.0,0.0,5499,1559243538.018
-3.41,-9.3,0.07,0.0,0.0,0.0,5504,1559243538.023
-3.41,-9.3,0.07,0.0,0.0,0.0,5509,1559243538.028
-3.38,-9.33,0.12,0.0,0.0,0.0,5514,1559243538.033
-3.38,-9.33,0.12,0.0,0.0,0.0,5519,1559243538.038
-3.38,-9.33,0.12,0.0,0.0,0.0,5524,1559243538.043
-3.38,-9.33,0.12,0.0,0.0,0.0,5529,1559243538.048
-3.41,-9.33,0.1,0.0,0.0,0.0,5534,1559243538.053
-3.41,-9.33,0.1,0.0,0.0,0.0,5543,1559243538.062
-3.41,-9.33,0.1,0.0,0.0,0.0,5545,1559243538.064
-3.41,-9.33,0.1,0.0,0.0,0.0,5550,1559243538.069
-3.41,-9.33,0.1,0.0,0.0,0.0,5555,1559243538.074
-3.39,-9.38,0.12,0.0,0.0,0.0,5560,1559243538.079
-3.39,-9.38,0.12,0.0,0.0,0.0,5564,1559243538.083
-3.39,-9.38,0.12,0.0,0.0,0.0,5569,1559243538.088
-3.39,-9.38,0.12,0.0,0.0,0.0,5574,1559243538.093
-3.38,-9.35,0.05,0.0,0.0,0.0,5582,1559243538.101
-3.38,-9.35,0.05,0.0,0.0,0.0,5584,1559243538.103
-3.38,-9.35,0.05,0.0,0.0,0.0,5589,1559243538.108
-3.38,-9.35,0.05,0.0,0.0,0.0,5594,1559243538.113
-3.38,-9.35,0.05,0.0,0.0,0.0,5600,1559243538.119
-3.38,-9.29,0.09,0.0,0.0,0.0,5604,1559243538.123
-3.38,-9.29,0.09,0.0,0.0,0.0,5610,1559243538.129
-3.38,-9.29,0.09,0.0,0.0,0.0,5617,1559243538.136
-3.38,-9.29,0.09,0.0,0.0,0.0,5619,1559243538.138
-3.38,-9.29,0.09,0.0,0.0,0.0,5623,1559243538.142
-3.36,-9.36,0.14,0.0,0.0,0.0,5630,1559243538.149
-3.36,-9.36,0.14,0.0,0.0,0.0,5634,1559243538.153
-3.36,-9.36,0.14,0.0,0.0,0.0,5639,1559243538.158
-3.41,-9.33,0.07,0.0,0.0,0.0,5644,1559243538.163
-3.41,-9.33,0.07,0.0,0.0,0.0,5650,1559243538.169
-3.41,-9.33,0.07,0.0,0.0,0.0,5655,1559243538.174
-3.41,-9.33,0.07,0.0,0.0,0.0,5659,1559243538.178
-3.39,-9.31,0.11,0.0,0.0,0.0,5664,1559243538.183
-3.39,-9.31,0.11,0.0,0.0,0.0,5670,1559243538.189
-3.39,-9.31,0.11,0.0,0.0,0.0,5674,1559243538.193
-3.38,-9.31,0.11,0.0,0.0,0.0,5682,1559243538.201
-3.38,-9.31,0.11,0.0,0.0,0.0,5684,1559243538.203
-3.38,-9.31,0.11,0.0,0.0,0.0,5691,1559243538.21
-3.33,-9.33,0.07,0.0,0.0,0.0,5696,1559243538.215
-3.33,-9.33,0.07,0.0,0.0,0.0,5699,1559243538.218
-3.33,-9.33,0.07,0.0,0.0,0.0,5704,1559243538.223
-3.33,-9.33,0.07,0.0,0.0,0.0,5711,1559243538.23
-3.33,-9.33,0.07,0.0,0.0,0.0,5715,1559243538.234
-3.33,-9.33,0.07,0.0,0.0,0.0,5718,1559243538.237
-3.37,-9.28,0.07,0.0,0.0,0.01,5728,1559243538.247
-3.37,-9.28,0.07,0.0,0.0,0.01,5729,1559243538.248
-3.37,-9.28,0.07,0.0,0.0,0.01,5734,1559243538.253
-3.37,-9.28,0.07,0.0,0.0,0.01,5739,1559243538.258
-3.38,-9.31,0.08,0.0,0.0,0.01,5744,1559243538.263
-3.38,-9.31,0.08,0.0,0.0,0.01,5752,1559243538.271
-3.38,-9.31,0.08,0.0,0.0,0.01,5756,1559243538.275
-3.41,-9.32,0.08,0.0,0.0,0.01,5761,1559243538.28
-3.41,-9.32,0.08,0.0,0.0,0.01,5764,1559243538.283
-3.41,-9.32,0.08,0.0,0.0,0.01,5771,1559243538.29
-3.41,-9.32,0.08,0.0,0.0,0.01,5775,1559243538.294
-3.4,-9.32,0.08,0.0,0.0,0.01,5779,1559243538.298
-3.4,-9.32,0.08,0.0,0.0,0.01,5784,1559243538.303
-3.4,-9.32,0.08,0.0,0.0,0.01,5790,1559243538.309
-3.4,-9.32,0.08,0.0,0.0,0.01,5794,1559243538.313
-3.4,-9.33,0.11,0.0,0.0,0.01,5806,1559243538.325
-3.4,-9.33,0.11,0.0,0.0,0.01,5807,1559243538.326
-3.4,-9.33,0.11,0.0,0.0,0.01,5809,1559243538.328
-3.42,-9.35,0.07,0.0,0.0,0.01,5819,1559243538.338
-3.42,-9.35,0.07,0.0,0.0,0.01,5820,1559243538.339
-3.42,-9.35,0.07,0.0,0.0,0.01,5825,1559243538.344
-3.42,-9.35,0.07,0.0,0.0,0.01,5829,1559243538.348
-3.43,-9.3,0.05,0.0,0.0,0.01,5834,1559243538.353
-3.43,-9.3,0.05,0.0,0.0,0.01,5839,1559243538.358
-3.43,-9.3,0.05,0.0,0.0,0.01,5844,1559243538.363
-3.43,-9.3,0.05,0.0,0.0,0.01,5852,1559243538.371
-3.43,-9.3,0.05,0.0,0.0,0.01,5854,1559243538.373
-3.42,-9.33,0.09,0.0,0.0,0.01,5863,1559243538.382
-3.42,-9.33,0.09,0.0,0.0,0.01,5865,1559243538.384
-3.42,-9.33,0.09,0.0,0.0,0.01,5869,1559243538.388
-3.42,-9.33,0.09,0.0,0.0,0.01,5877,1559243538.396
-3.48,-9.3,0.01,0.0,0.0,0.01,5880,1559243538.399
-3.48,-9.3,0.01,0.0,0.0,0.01,5884,1559243538.403
-3.48,-9.3,0.01,0.0,0.0,0.01,5889,1559243538.408
-3.48,-9.3,0.01,0.0,0.0,0.01,5894,1559243538.413
-3.45,-9.31,0.07,0.0,0.0,0.0,5900,1559243538.419
-3.45,-9.31,0.07,0.0,0.0,0.0,5904,1559243538.423
-3.45,-9.31,0.07,0.0,0.0,0.0,5909,1559243538.428
-3.45,-9.31,0.07,0.0,0.0,0.0,5914,1559243538.433
-3.45,-9.31,0.07,0.0,0.0,0.0,5919,1559243538.438
-3.46,-9.33,0.08,0.0,-0.01,0.0,5925,1559243538.444
-3.46,-9.33,0.08,0.0,-0.01,0.0,5929,1559243538.448
-3.46,-9.33,0.08,0.0,-0.01,0.0,5934,1559243538.453
-3.46,-9.3,0.08,0.0,0.0,0.0,5942,1559243538.461
-3.46,-9.3,0.08,0.0,0.0,0.0,5945,1559243538.464
-3.46,-9.3,0.08,0.0,0.0,0.0,5949,1559243538.468
-3.46,-9.3,0.08,0.0,0.0,0.0,5955,1559243538.474
-3.46,-9.3,0.08,0.0,0.0,0.0,5959,1559243538.478
-3.47,-9.3,0.1,0.0,0.0,0.0,5964,1559243538.483
-3.47,-9.3,0.1,0.0,0.0,0.0,5972,1559243538.491
-3.42,-9.3,0.08,0.0,0.0,0.0,5977,1559243538.496
-3.42,-9.3,0.08,0.0,0.0,0.0,5983,1559243538.502
-3.42,-9.3,0.08,0.0,0.0,0.0,5984,1559243538.503
-3.42,-9.3,0.08,0.0,0.0,0.0,5989,1559243538.508
-3.42,-9.3,0.08,0.0,0.0,0.0,5994,1559243538.513
-3.42,-9.3,0.08,0.0,0.0,0.0,6000,1559243538.519
-3.42,-9.3,0.08,0.0,0.0,0.0,6005,1559243538.524
-3.4,-9.33,0.09,0.0,0.0,0.0,6009,1559243538.528
-3.4,-9.33,0.09,0.0,0.0,0.0,6014,1559243538.533
-3.4,-9.33,0.09,0.0,0.0,0.0,6019,1559243538.538
-3.4,-9.33,0.09,0.0,0.0,0.0,6024,1559243538.543
-3.4,-9.33,0.09,0.0,0.0,0.0,6029,1559243538.548
-3.38,-9.32,0.1,0.0,0.0,0.0,6034,1559243538.553
-3.38,-9.32,0.1,0.0,0.0,0.0,6047,1559243538.566
-3.38,-9.32,0.1,0.0,0.0,0.0,6048,1559243538.567
-3.38,-9.32,0.1,0.0,0.0,0.0,6049,1559243538.568
-3.4,-9.33,0.1,0.0,0.0,0.0,6055,1559243538.574
-3.4,-9.33,0.1,0.0,0.0,0.0,6060,1559243538.579
-3.4,-9.33,0.1,0.0,0.0,0.0,6067,1559243538.586
-3.4,-9.33,0.1,0.0,0.0,0.0,6070,1559243538.589
-3.34,-9.31,0.07,0.0,0.0,0.0,6074,1559243538.593
-3.34,-9.31,0.07,0.0,0.0,0.0,6079,1559243538.598
-3.34,-9.31,0.07,0.0,0.0,0.0,6084,1559243538.603
-3.34,-9.31,0.07,0.0,0.0,0.0,6090,1559243538.609
-3.34,-9.31,0.07,0.0,0.0,0.0,6096,1559243538.615
-3.34,-9.31,0.07,0.0,0.0,0.0,6100,1559243538.619
-3.34,-9.31,0.07,0.0,0.0,0.0,6104,1559243538.623
-3.45,-9.3,0.09,0.0,0.0,0.0,6111,1559243538.63
-3.45,-9.3,0.09,0.0,0.0,0.0,6114,1559243538.633
-3.44,-9.34,0.09,0.0,0.0,0.0,6119,1559243538.638
-3.44,-9.34,0.09,0.0,0.0,0.0,6130,1559243538.649
-3.44,-9.34,0.09,0.0,0.0,0.0,6131,1559243538.65
-3.44,-9.34,0.09,0.0,0.0,0.0,6134,1559243538.653
-3.45,-9.34,0.06,0.0,0.0,0.0,6140,1559243538.659
-3.45,-9.34,0.06,0.0,0.0,0.0,6146,1559243538.665
-3.45,-9.34,0.06,0.0,0.0,0.0,6149,1559243538.668
-3.39,-9.33,0.09,0.0,0.0,0.0,6154,1559243538.673
-3.39,-9.33,0.09,0.0,0.0,0.0,6159,1559243538.678
-3.39,-9.33,0.09,0.0,0.0,0.0,6167,1559243538.686
-3.39,-9.33,0.09,0.0,0.0,0.0,6170,1559243538.689
-3.44,-9.31,0.14,0.0,0.0,0.0,6174,1559243538.693
-3.44,-9.31,0.14,0.0,0.0,0.0,6179,1559243538.698
-3.44,-9.31,0.14,0.0,0.0,0.0,6185,1559243538.704
-3.44,-9.31,0.14,0.0,0.0,0.0,6190,1559243538.709
-3.44,-9.31,0.14,0.0,0.0,0.0,6194,1559243538.713
-3.44,-9.31,0.14,0.0,0.0,0.0,6199,1559243538.718
-3.44,-9.31,0.14,0.0,0.0,0.0,6204,1559243538.723
-3.39,-9.33,0.11,0.0,0.0,0.0,6209,1559243538.728
-3.39,-9.33,0.11,0.0,0.0,0.0,6215,1559243538.734
-3.39,-9.33,0.11,0.0,0.0,0.0,6220,1559243538.739
-3.39,-9.33,0.11,0.0,0.0,0.0,6225,1559243538.744
-3.39,-9.33,0.11,0.0,0.0,0.0,6230,1559243538.749
-3.44,-9.3,0.08,0.0,0.0,0.0,6234,1559243538.753
-3.44,-9.3,0.08,0.0,0.0,0.0,6239,1559243538.758
-3.44,-9.3,0.08,0.0,0.0,0.0,6244,1559243538.763
-3.44,-9.3,0.08,0.0,0.0,0.0,6249,1559243538.768
-3.44,-9.3,0.08,0.0,0.0,0.0,6254,1559243538.773
-3.44,-9.3,0.08,0.0,0.0,0.0,6259,1559243538.778
-3.41,-9.32,0.06,0.0,0.0,0.0,6267,1559243538.786
-3.41,-9.32,0.06,0.0,0.0,0.0,6269,1559243538.788
-3.41,-9.32,0.06,0.0,0.0,0.0,6274,1559243538.793
-3.46,-9.35,0.12,0.0,0.0,0.0,6279,1559243538.798
-3.46,-9.35,0.12,0.0,0.0,0.0,6284,1559243538.803
-3.46,-9.35,0.12,0.0,0.0,0.0,6290,1559243538.809
-3.4,-9.32,0.09,0.0,0.0,0.0,6294,1559243538.813
-3.4,-9.32,0.09,0.0,0.0,0.0,6300,1559243538.819
-3.4,-9.32,0.09,0.0,0.0,0.0,6304,1559243538.823
-3.4,-9.32,0.09,0.0,0.0,0.0,6310,1559243538.829
-3.4,-9.32,0.09,0.0,0.0,0.0,6314,1559243538.833
-3.43,-9.34,0.06,0.0,0.0,0.0,6319,1559243538.838
-3.43,-9.34,0.06,0.0,0.0,0.0,6325,1559243538.844
-3.43,-9.34,0.06,0.0,0.0,0.0,6330,1559243538.849
-3.38,-9.32,0.08,0.0,0.0,0.0,6334,1559243538.853
-3.38,-9.32,0.08,0.0,0.0,0.0,6340,1559243538.859
-3.38,-9.32,0.08,0.0,0.0,0.0,6352,1559243538.871
-3.38,-9.32,0.08,0.0,0.0,0.0,6353,1559243538.872
-3.38,-9.32,0.08,0.0,0.0,0.0,6354,1559243538.873
-3.38,-9.32,0.08,0.0,0.0,0.0,6359,1559243538.878
-3.38,-9.32,0.08,0.0,0.0,0.0,6364,1559243538.883
-3.38,-9.36,0.05,0.0,0.0,0.0,6369,1559243538.888
-3.38,-9.36,0.05,0.0,0.0,0.0,6375,1559243538.894
-3.38,-9.36,0.05,0.0,0.0,0.0,6380,1559243538.899
-3.38,-9.36,0.05,0.0,0.0,0.0,6384,1559243538.903
-3.38,-9.36,0.05,0.0,0.0,0.0,6390,1559243538.909
-3.38,-9.36,0.05,0.0,0.0,0.0,6395,1559243538.914
-3.4,-9.27,0.09,0.0,0.0,0.0,6399,1559243538.918
-3.4,-9.27,0.09,0.0,0.0,0.0,6407,1559243538.926
-3.4,-9.27,0.09,0.0,0.0,0.0,6409,1559243538.928
-3.38,-9.32,0.06,0.0,0.0,0.0,6414,1559243538.933
-3.38,-9.32,0.06,0.0,0.0,0.0,6418,1559243538.937
-3.38,-9.32,0.06,0.0,0.0,0.0,6424,1559243538.943
-3.38,-9.32,0.06,0.0,0.0,0.0,6434,1559243538.953
-3.38,-9.32,0.06,0.0,0.0,0.0,6435,1559243538.954
-3.38,-9.32,0.06,0.0,0.0,0.0,6442,1559243538.961
-3.38,-9.32,0.06,0.0,0.0,0.0,6444,1559243538.963
-3.4,-9.35,0.07,0.0,0.0,0.0,6452,1559243538.971
-3.4,-9.35,0.07,0.0,0.0,0.0,6455,1559243538.974
-3.4,-9.35,0.07,0.0,0.0,0.0,6459,1559243538.978
-3.4,-9.35,0.07,0.0,0.0,0.0,6464,1559243538.983
-3.4,-9.35,0.07,0.0,0.0,0.0,6470,1559243538.989
-3.4,-9.32,0.12,0.0,0.0,0.0,6475,1559243538.994
-3.4,-9.32,0.12,0.0,0.0,0.0,6480,1559243538.999
-3.4,-9.32,0.12,0.0,0.0,0.0,6484,1559243539.003
-3.4,-9.32,0.07,0.0,0.0,0.0,6489,1559243539.008
-3.44,-9.31,0.08,0.0,0.0,0.0,6500,1559243539.019
-3.44,-9.31,0.08,0.0,0.0,0.0,6500,1559243539.019
-3.44,-9.31,0.08,0.0,0.0,0.0,6504,1559243539.023
-3.44,-9.31,0.08,0.0,0.0,0.0,6512,1559243539.031
-3.39,-9.33,0.08,0.0,0.0,0.0,6514,1559243539.033
-3.39,-9.33,0.08,0.0,0.0,0.0,6519,1559243539.038
-3.39,-9.33,0.08,0.0,0.0,0.0,6524,1559243539.043
-3.39,-9.33,0.08,0.0,0.0,0.0,6530,1559243539.049
-3.39,-9.33,0.08,0.0,0.0,0.0,6535,1559243539.054
-3.39,-9.33,0.08,0.0,0.0,0.0,6540,1559243539.059
-3.39,-9.38,0.1,0.0,0.0,0.0,6544,1559243539.063
-3.39,-9.38,0.1,0.0,0.0,0.0,6549,1559243539.068
-3.37,-9.34,0.07,0.0,0.0,0.0,6560,1559243539.079
-3.37,-9.34,0.07,0.0,0.0,0.0,6561,1559243539.08
-3.37,-9.34,0.07,0.0,0.0,0.0,6565,1559243539.084
-3.37,-9.34,0.07,0.0,0.0,0.0,6568,1559243539.087
-3.34,-9.31,0.08,0.0,0.0,0.0,6575,1559243539.094
-3.34,-9.31,0.08,0.0,0.0,0.01,6579,1559243539.098
-3.34,-9.31,0.08,0.0,0.0,0.01,6584,1559243539.103
-3.34,-9.31,0.08,0.0,0.0,0.01,6589,1559243539.108
-3.34,-9.31,0.08,0.0,0.0,0.01,6598,1559243539.117
-3.34,-9.31,0.08,0.0,0.0,0.01,6600,1559243539.119
-3.38,-9.37,0.08,0.0,0.0,0.01,6604,1559243539.123
-3.38,-9.37,0.08,0.0,0.0,0.01,6610,1559243539.129
-3.38,-9.37,0.08,0.0,0.0,0.01,6614,1559243539.133
-3.38,-9.36,0.07,0.0,0.0,0.01,6619,1559243539.138
-3.38,-9.36,0.07,0.0,0.0,0.01,6624,1559243539.143
-3.38,-9.36,0.07,0.0,0.0,0.01,6629,1559243539.148
-3.38,-9.36,0.07,0.0,0.0,0.01,6635,1559243539.154
-3.4,-9.32,0.03,0.0,0.0,0.01,6639,1559243539.158
-3.4,-9.32,0.03,0.0,0.0,0.01,6644,1559243539.163
-3.4,-9.32,0.03,0.0,0.0,0.01,6649,1559243539.168
-3.4,-9.32,0.03,0.0,0.0,0.01,6654,1559243539.173
-3.4,-9.32,0.03,0.0,0.0,0.01,6660,1559243539.179
-3.45,-9.33,0.08,0.0,0.0,0.01,6665,1559243539.184
-3.45,-9.33,0.08,0.0,0.0,0.01,6669,1559243539.188
-3.45,-9.33,0.08,0.0,0.0,0.01,6675,1559243539.194
-3.44,-9.31,0.09,0.0,0.0,0.01,6681,1559243539.2
-3.44,-9.31,0.09,0.0,0.0,0.01,6684,1559243539.203
-3.44,-9.31,0.09,0.0,0.0,0.01,6689,1559243539.208
-3.44,-9.31,0.09,0.0,0.0,0.01,6696,1559243539.215
-3.44,-9.31,0.09,0.0,0.0,0.01,6700,1559243539.219
-3.45,-9.34,0.07,0.0,0.0,0.01,6704,1559243539.223
-3.45,-9.34,0.07,0.0,0.0,0.01,6709,1559243539.228
-3.45,-9.34,0.07,0.0,0.0,0.01,6714,1559243539.233
-3.45,-9.34,0.07,0.0,0.0,0.01,6719,1559243539.238
-3.43,-9.34,0.08,0.0,0.0,0.01,6724,1559243539.243
-3.43,-9.34,0.08,0.0,0.0,0.01,6730,1559243539.249
-3.43,-9.34,0.08,0.0,0.0,0.01,6734,1559243539.253
-3.43,-9.34,0.08,0.0,0.0,0.01,6739,1559243539.258
-3.44,-9.32,0.09,0.0,0.0,0.01,6745,1559243539.264
-3.44,-9.32,0.09,0.0,0.0,0.01,6749,1559243539.268
-3.44,-9.32,0.09,0.0,0.0,0.01,6754,1559243539.273
-3.44,-9.32,0.09,0.0,0.0,0.01,6760,1559243539.279
-3.44,-9.32,0.09,0.0,0.0,0.01,6765,1559243539.284
-3.44,-9.32,0.09,0.0,0.0,0.01,6769,1559243539.288
-3.44,-9.32,0.09,0.0,0.0,0.01,6774,1559243539.293
-3.45,-9.33,0.09,0.0,0.0,0.01,6781,1559243539.3
-3.45,-9.33,0.09,0.0,0.0,0.01,6785,1559243539.304
-3.45,-9.33,0.09,0.0,0.0,0.01,6791,1559243539.31
-3.45,-9.33,0.09,0.0,0.0,0.01,6795,1559243539.314
-3.45,-9.3,0.07,0.0,0.0,0.0,6803,1559243539.322
-3.45,-9.3,0.07,0.0,0.0,0.0,6804,1559243539.323
-3.45,-9.3,0.07,0.0,0.0,0.0,6809,1559243539.328
-3.45,-9.3,0.07,0.0,0.0,0.0,6814,1559243539.333
-3.42,-9.28,0.08,0.0,0.0,0.0,6819,1559243539.338
-3.42,-9.28,0.08,0.0,0.0,0.0,6824,1559243539.343
-3.42,-9.28,0.08,0.0,0.0,0.0,6829,1559243539.348
-3.42,-9.28,0.08,0.0,0.0,0.0,6834,1559243539.353
-3.44,-9.28,0.09,0.0,0.0,0.0,6841,1559243539.36
-3.44,-9.28,0.09,0.0,0.0,0.0,6844,1559243539.363
-3.44,-9.28,0.09,0.0,0.0,0.0,6850,1559243539.369
-3.44,-9.28,0.09,0.0,0.0,0.0,6854,1559243539.373
-3.44,-9.28,0.09,0.0,0.0,0.0,6861,1559243539.38
-3.49,-9.28,0.11,0.0,0.0,0.0,6864,1559243539.383
-3.49,-9.28,0.11,0.0,0.0,0.0,6869,1559243539.388
-3.49,-9.28,0.11,0.0,0.0,0.0,6875,1559243539.394
-3.49,-9.28,0.11,0.0,0.0,0.0,6879,1559243539.398
-3.48,-9.3,0.1,0.0,0.0,0.0,6886,1559243539.405
-3.48,-9.3,0.1,0.0,0.0,0.0,6889,1559243539.408
-3.48,-9.3,0.1,0.0,0.0,0.0,6894,1559243539.413
-3.48,-9.3,0.1,0.0,0.0,0.0,6899,1559243539.418
-3.42,-9.31,0.15,0.0,0.0,0.0,6905,1559243539.424
-3.42,-9.31,0.15,0.0,0.0,0.0,6909,1559243539.428
-3.42,-9.31,0.15,0.0,0.0,0.0,6914,1559243539.433
-3.42,-9.31,0.15,0.0,0.0,0.0,6920,1559243539.439
-3.42,-9.32,0.14,0.0,0.0,0.0,6924,1559243539.443
-3.42,-9.32,0.14,0.0,0.0,0.0,6929,1559243539.448
-3.38,-9.37,0.06,0.0,0.0,0.0,6934,1559243539.453
-3.38,-9.37,0.06,0.0,0.0,0.0,6940,1559243539.459
-3.38,-9.37,0.06,0.0,0.0,0.0,6944,1559243539.463
-3.4,-9.32,0.11,0.0,0.0,0.0,6950,1559243539.469
-3.4,-9.32,0.11,0.0,0.0,0.0,6954,1559243539.473
-3.4,-9.32,0.11,0.0,0.0,0.0,6961,1559243539.48
-3.4,-9.32,0.11,0.0,0.0,0.0,6964,1559243539.483
-3.4,-9.32,0.11,0.0,0.0,0.0,6971,1559243539.49
-3.43,-9.3,0.07,0.0,0.0,0.0,6975,1559243539.494
-3.43,-9.3,0.07,0.0,0.0,0.0,6980,1559243539.499
-3.43,-9.3,0.07,0.0,0.0,0.0,6984,1559243539.503
-3.43,-9.3,0.07,0.0,0.0,0.0,6990,1559243539.509
-3.46,-9.3,0.1,0.0,0.0,0.0,6995,1559243539.514
-3.46,-9.3,0.1,0.0,0.0,0.0,6999,1559243539.518
-3.46,-9.3,0.1,0.0,0.0,0.0,7005,1559243539.524
-3.46,-9.3,0.1,0.0,0.0,0.0,7009,1559243539.528
-3.46,-9.3,0.1,0.0,0.0,0.0,7014,1559243539.533
-3.46,-9.3,0.1,0.0,0.0,0.0,7021,1559243539.54
-3.49,-9.33,0.05,0.0,0.0,0.0,7024,1559243539.543
-3.49,-9.33,0.05,0.0,0.0,0.0,7029,1559243539.548
-3.49,-9.33,0.05,0.0,0.0,0.0,7034,1559243539.553
-3.49,-9.33,0.05,0.0,0.0,0.0,7039,1559243539.558
-3.4,-9.31,0.09,0.0,0.0,-0.01,7043,1559243539.562
-3.4,-9.31,0.09,0.0,0.0,-0.01,7049,1559243539.568
-3.37,-9.36,0.09,0.0,0.0,-0.01,7054,1559243539.573
-3.37,-9.36,0.09,0.0,0.0,-0.01,7059,1559243539.578
-3.37,-9.36,0.09,0.0,0.0,-0.01,7066,1559243539.585
-3.37,-9.36,0.09,0.0,0.0,-0.01,7071,1559243539.59
-3.36,-9.34,0.12,0.0,0.0,-0.01,7074,1559243539.593
-3.36,-9.34,0.12,0.0,0.0,-0.01,7081,1559243539.6
-3.36,-9.34,0.12,0.0,0.0,-0.01,7085,1559243539.604
-3.39,-9.34,0.11,0.0,0.0,-0.01,7089,1559243539.608
-3.39,-9.34,0.11,0.0,0.0,-0.01,7094,1559243539.613
-3.39,-9.34,0.11,0.0,0.0,-0.01,7102,1559243539.621
-3.39,-9.34,0.11,0.0,0.0,-0.01,7104,1559243539.623
-3.39,-9.34,0.11,0.0,0.0,-0.01,7109,1559243539.628
-3.39,-9.34,0.11,0.0,0.0,-0.01,7114,1559243539.633
-3.35,-9.3,0.08,0.0,0.0,0.0,7119,1559243539.638
-3.35,-9.3,0.08,0.0,0.0,0.0,7125,1559243539.644
-3.35,-9.3,0.08,0.0,0.0,0.0,7130,1559243539.649
-3.4,-9.33,0.12,0.0,0.0,0.0,7134,1559243539.653
-3.4,-9.33,0.12,0.0,0.0,0.0,7139,1559243539.658
-3.4,-9.33,0.12,0.0,0.0,0.0,7144,1559243539.663
-3.4,-9.33,0.12,0.0,0.0,0.0,7150,1559243539.669
-3.4,-9.33,0.12,0.0,0.0,0.0,7154,1559243539.673
-3.4,-9.33,0.12,0.0,0.0,0.0,7159,1559243539.678
-3.4,-9.33,0.12,0.0,0.0,0.0,7164,1559243539.683
-3.36,-9.41,0.11,0.0,0.0,0.0,7169,1559243539.688
-3.36,-9.41,0.11,0.0,0.0,0.0,7174,1559243539.693
-3.36,-9.41,0.11,0.0,0.0,0.0,7178,1559243539.697
-3.36,-9.41,0.11,0.0,0.0,0.0,7184,1559243539.703
-3.36,-9.41,0.11,0.0,0.0,0.0,7189,1559243539.708
-3.37,-9.36,0.09,0.0,0.0,0.0,7194,1559243539.713
-3.37,-9.36,0.09,0.0,0.0,0.0,7199,1559243539.718
-3.37,-9.36,0.09,0.0,0.0,0.0,7206,1559243539.725
-3.37,-9.36,0.09,0.0,0.0,0.0,7209,1559243539.728
-3.36,-9.32,0.09,0.0,0.0,0.0,7217,1559243539.736
-3.36,-9.32,0.09,0.0,0.0,0.0,7220,1559243539.739
-3.36,-9.32,0.09,0.0,0.0,0.0,7224,1559243539.743
-3.36,-9.32,0.09,0.0,0.0,0.0,7229,1559243539.748
-3.43,-9.35,0.15,0.0,0.0,0.0,7234,1559243539.753
-3.43,-9.35,0.15,0.0,0.0,0.0,7239,1559243539.758
-3.43,-9.35,0.15,0.0,0.0,0.0,7246,1559243539.765
-3.43,-9.36,0.11,0.0,0.0,0.0,7254,1559243539.773
-3.43,-9.36,0.11,0.0,0.0,0.0,7255,1559243539.774
-3.43,-9.36,0.11,0.0,0.0,0.0,7259,1559243539.778
-3.43,-9.36,0.11,0.0,0.0,0.0,7264,1559243539.783
-3.45,-9.33,0.07,0.0,0.0,0.0,7270,1559243539.789
-3.45,-9.33,0.07,0.0,0.0,0.0,7274,1559243539.793
-3.45,-9.33,0.07,0.0,0.0,0.0,7279,1559243539.798
-3.45,-9.33,0.07,0.0,0.0,0.0,7284,1559243539.803
-3.45,-9.33,0.07,0.0,0.0,0.0,7291,1559243539.81
-3.39,-9.33,0.1,0.0,0.0,0.0,7294,1559243539.813
-3.39,-9.33,0.1,0.0,0.0,0.0,7299,1559243539.818
-3.39,-9.33,0.1,0.0,0.0,0.0,7305,1559243539.824
-3.39,-9.33,0.1,0.0,0.0,0.0,7309,1559243539.828
-3.35,-9.33,0.1,0.0,0.0,0.0,7315,1559243539.834
-3.35,-9.33,0.1,0.0,0.0,0.0,7321,1559243539.84
-3.35,-9.33,0.1,0.0,0.0,0.0,7325,1559243539.844
-3.35,-9.33,0.1,0.0,0.0,0.0,7330,1559243539.849
-3.34,-9.33,0.13,0.0,0.0,0.0,7334,1559243539.853
-3.34,-9.33,0.13,0.0,-0.01,0.0,7340,1559243539.859
-3.34,-9.33,0.13,0.0,-0.01,0.0,7345,1559243539.864
-3.34,-9.33,0.13,0.0,-0.01,0.0,7351,1559243539.87
-3.3,-9.31,0.14,0.0,-0.01,0.0,7354,1559243539.873
-3.3,-9.31,0.14,0.0,-0.01,0.0,7360,1559243539.879
-3.3,-9.31,0.14,0.0,-0.01,0.0,7364,1559243539.883
-3.32,-9.3,0.14,0.0,-0.01,0.0,7369,1559243539.888
-3.32,-9.3,0.14,0.0,-0.01,0.0,7375,1559243539.894
-3.32,-9.3,0.14,0.0,-0.01,0.0,7382,1559243539.901
-3.32,-9.3,0.14,0.0,-0.01,0.0,7384,1559243539.903
-3.33,-9.34,0.16,0.0,-0.01,0.0,7389,1559243539.908
-3.33,-9.34,0.16,0.0,-0.01,0.0,7395,1559243539.914
-3.33,-9.34,0.16,0.0,-0.01,0.0,7399,1559243539.918
-3.33,-9.34,0.16,0.0,-0.01,0.0,7404,1559243539.923
-3.33,-9.34,0.16,0.0,-0.01,0.0,7411,1559243539.93
-3.33,-9.35,0.16,0.0,-0.01,0.0,7414,1559243539.933
-3.33,-9.35,0.16,0.0,0.0,0.01,7419,1559243539.938
-3.33,-9.35,0.16,0.0,0.0,0.01,7424,1559243539.943
-3.33,-9.35,0.16,0.0,0.0,0.01,7429,1559243539.948
-3.37,-9.35,0.1,0.0,0.0,0.01,7434,1559243539.953
-3.37,-9.35,0.1,0.0,0.0,0.01,7439,1559243539.958
-3.37,-9.35,0.1,0.0,0.0,0.01,7444,1559243539.963
-3.37,-9.35,0.1,0.0,0.0,0.01,7451,1559243539.97
-3.39,-9.3,0.09,0.0,0.0,0.01,7454,1559243539.973
-3.39,-9.3,0.09,0.0,0.0,0.01,7459,1559243539.978
-3.39,-9.3,0.09,0.0,0.0,0.01,7464,1559243539.983
-3.39,-9.3,0.09,0.0,0.0,0.01,7469,1559243539.988
-3.37,-9.3,0.08,0.0,0.0,0.01,7475,1559243539.994
-3.37,-9.3,0.08,0.0,0.0,0.01,7484,1559243540.003
-3.37,-9.3,0.08,0.0,0.0,0.01,7485,1559243540.004
-3.37,-9.3,0.08,0.0,0.0,0.01,7489,1559243540.008
-3.32,-9.35,0.09,0.0,0.0,0.01,7497,1559243540.016
-3.32,-9.35,0.09,0.0,0.0,0.01,7500,1559243540.019
-3.32,-9.35,0.09,0.0,0.0,0.01,7504,1559243540.023
-3.32,-9.35,0.09,0.0,0.0,0.01,7509,1559243540.028
-3.35,-9.35,0.06,0.0,0.0,0.01,7518,1559243540.037
-3.35,-9.35,0.06,0.0,0.0,0.01,7519,1559243540.038
-3.35,-9.35,0.06,0.0,0.0,0.01,7525,1559243540.044
-3.42,-9.33,0.07,0.0,0.0,0.02,7529,1559243540.048
-3.42,-9.33,0.07,0.0,0.0,0.02,7535,1559243540.054
-3.42,-9.33,0.07,0.0,0.0,0.02,7540,1559243540.059
-3.49,-9.29,0.01,0.0,0.0,0.02,7544,1559243540.063
-3.49,-9.29,0.01,0.0,0.0,0.02,7550,1559243540.069
-3.49,-9.29,0.01,0.0,0.0,0.02,7555,1559243540.074
-3.49,-9.29,0.01,0.0,0.0,0.02,7560,1559243540.079
-3.43,-9.32,0.08,0.0,0.0,0.02,7565,1559243540.084
-3.43,-9.32,0.08,0.0,0.0,0.02,7570,1559243540.089
-3.43,-9.32,0.08,0.0,-0.01,0.01,7580,1559243540.099
-3.43,-9.32,0.08,0.0,-0.01,0.01,7580,1559243540.099
-3.34,-9.34,0.12,0.0,0.0,0.01,7584,1559243540.103
-3.34,-9.34,0.12,0.0,0.0,0.01,7590,1559243540.109
-3.34,-9.34,0.12,0.0,0.0,0.01,7594,1559243540.113
-3.3,-9.39,0.1,0.0,-0.01,0.01,7599,1559243540.118
-3.3,-9.39,0.1,0.0,-0.01,0.01,7605,1559243540.124
-3.3,-9.39,0.1,0.0,0.0,0.01,7609,1559243540.128
-3.3,-9.39,0.1,0.0,0.0,0.01,7615,1559243540.134
-3.3,-9.39,0.07,0.0,0.0,0.02,7619,1559243540.138
-3.3,-9.39,0.07,0.0,0.0,0.02,7626,1559243540.145
-3.3,-9.39,0.07,0.0,0.0,0.03,7629,1559243540.148
-3.3,-9.39,0.07,0.0,0.0,0.03,7634,1559243540.153
-3.3,-9.39,0.07,0.0,0.0,0.03,7640,1559243540.159
-3.3,-9.39,0.07,0.0,0.0,0.03,7645,1559243540.164
-3.3,-9.39,0.07,0.0,0.0,0.03,7650,1559243540.169
-3.4,-9.32,0.06,0.0,0.0,0.03,7654,1559243540.173
-3.4,-9.32,0.06,0.0,0.0,0.03,7659,1559243540.178
-3.4,-9.32,0.06,0.0,0.0,0.03,7664,1559243540.183
-3.48,-9.3,0.08,0.0,0.0,0.03,7669,1559243540.188
-3.48,-9.3,0.08,0.0,0.0,0.03,7674,1559243540.193
-3.48,-9.3,0.08,0.0,0.0,0.03,7679,1559243540.198
-3.47,-9.31,0.1,0.0,0.0,0.03,7685,1559243540.204
-3.47,-9.31,0.1,0.0,0.0,0.02,7689,1559243540.208
-3.47,-9.31,0.1,0.0,0.0,0.02,7694,1559243540.213
-3.47,-9.31,0.1,0.0,0.0,0.02,7700,1559243540.219
-3.47,-9.31,0.1,0.0,0.0,0.02,7705,1559243540.224
-3.47,-9.31,0.1,0.0,0.0,0.02,7710,1559243540.229
-3.44,-9.31,0.11,0.0,0.0,0.02,7716,1559243540.235
-3.44,-9.31,0.11,0.0,0.0,0.02,7719,1559243540.238
-3.44,-9.31,0.11,0.0,0.0,0.02,7724,1559243540.243
-3.44,-9.31,0.11,0.0,0.0,0.02,7729,1559243540.248
-3.44,-9.31,0.11,0.0,0.0,0.02,7734,1559243540.253
-3.45,-9.29,0.1,0.0,0.0,0.02,7739,1559243540.258
-3.45,-9.29,0.1,0.0,0.0,0.02,7744,1559243540.263
-3.45,-9.29,0.1,0.0,0.0,0.01,7749,1559243540.268
-3.45,-9.29,0.1,0.0,0.0,0.01,7754,1559243540.273
-3.45,-9.29,0.1,0.0,0.0,0.01,7759,1559243540.278
-3.54,-9.31,0.09,0.0,0.0,0.01,7764,1559243540.283
-3.54,-9.31,0.09,0.0,0.0,0.01,7769,1559243540.288
-3.54,-9.31,0.09,0.0,0.0,0.01,7774,1559243540.293
-3.54,-9.31,0.09,0.0,0.0,0.01,7779,1559243540.298
-3.54,-9.24,0.09,0.0,0.0,0.01,7784,1559243540.303
-3.54,-9.24,0.09,0.0,0.0,0.01,7789,1559243540.308
-3.54,-9.24,0.09,0.0,0.0,0.01,7793,1559243540.312
-3.55,-9.24,0.16,0.0,0.0,0.0,7805,1559243540.324
-3.55,-9.24,0.16,0.0,0.0,0.0,7807,1559243540.326
-3.55,-9.24,0.16,0.0,0.0,0.0,7808,1559243540.327
-3.55,-9.24,0.16,0.0,0.0,0.0,7814,1559243540.333
-3.55,-9.24,0.16,0.0,0.0,0.0,7822,1559243540.341
-3.55,-9.24,0.16,0.0,0.0,0.0,7824,1559243540.343
-3.55,-9.24,0.16,0.0,0.0,0.0,7829,1559243540.348
-3.55,-9.24,0.16,0.0,0.0,0.0,7834,1559243540.353
-3.51,-9.31,0.06,0.0,0.0,0.0,7842,1559243540.361
-3.51,-9.31,0.06,0.0,0.0,0.0,7845,1559243540.364
-3.51,-9.31,0.06,0.0,0.0,0.0,7849,1559243540.368
-3.51,-9.31,0.06,0.0,0.0,0.0,7854,1559243540.373
-3.46,-9.33,0.07,0.0,0.0,0.0,7860,1559243540.379
-3.46,-9.33,0.07,0.0,0.0,0.0,7864,1559243540.383
-3.46,-9.33,0.07,0.0,0.0,0.0,7869,1559243540.388
-3.46,-9.33,0.07,0.0,0.0,-0.01,7874,1559243540.393
-3.46,-9.33,0.07,0.0,0.0,-0.01,7879,1559243540.398
-3.46,-9.33,0.07,0.0,0.0,-0.01,7884,1559243540.403
-3.45,-9.29,0.08,0.0,0.0,-0.01,7890,1559243540.409
-3.45,-9.29,0.08,0.0,0.0,-0.01,7895,1559243540.414
-3.45,-9.29,0.08,0.0,0.0,-0.01,7899,1559243540.418
-3.47,-9.31,0.1,0.0,0.0,-0.01,7906,1559243540.425
-3.47,-9.31,0.1,0.0,0.0,-0.01,7909,1559243540.428
-3.47,-9.31,0.1,0.0,0.0,-0.01,7914,1559243540.433
-3.47,-9.31,0.1,0.0,0.0,-0.01,7919,1559243540.438
-3.47,-9.31,0.1,0.0,0.0,-0.01,7924,1559243540.443
-3.46,-9.32,0.09,0.0,0.0,-0.01,7929,1559243540.448
-3.46,-9.32,0.09,0.0,0.0,-0.01,7936,1559243540.455
-3.46,-9.32,0.09,0.0,0.0,-0.01,7939,1559243540.458
-3.46,-9.32,0.09,0.0,0.0,-0.01,7945,1559243540.464
-3.46,-9.32,0.09,0.0,0.0,-0.01,7950,1559243540.469
-3.46,-9.31,0.06,0.0,0.0,-0.01,7955,1559243540.474
-3.46,-9.31,0.06,0.0,0.0,-0.01,7960,1559243540.479
-3.46,-9.31,0.06,0.0,0.0,-0.01,7964,1559243540.483
-3.46,-9.31,0.06,0.0,0.0,-0.01,7969,1559243540.488
-3.41,-9.32,0.14,0.0,0.0,-0.02,7975,1559243540.494
-3.41,-9.32,0.14,0.0,0.0,-0.02,7979,1559243540.498
-3.41,-9.32,0.14,0.0,0.0,-0.02,7985,1559243540.504
-3.48,-9.31,0.08,0.0,0.0,-0.01,7989,1559243540.508
-3.48,-9.31,0.08,0.0,0.0,-0.01,7998,1559243540.517
-3.4,-9.29,0.08,0.0,0.0,-0.01,7999,1559243540.518
-3.4,-9.29,0.08,0.0,0.0,-0.01,8004,1559243540.523
-3.4,-9.29,0.08,0.0,0.0,-0.01,8009,1559243540.528
-3.4,-9.29,0.08,0.0,0.0,-0.01,8014,1559243540.533
-3.4,-9.29,0.08,0.0,0.0,-0.01,8020,1559243540.539
-3.4,-9.29,0.08,0.0,0.0,-0.01,8025,1559243540.544
-3.4,-9.29,0.08,0.0,0.0,-0.01,8029,1559243540.548
-3.38,-9.29,0.07,0.0,0.0,-0.01,8037,1559243540.556
-3.38,-9.29,0.07,0.0,0.0,-0.01,8039,1559243540.558
-3.38,-9.29,0.07,0.0,0.0,-0.01,8046,1559243540.565
-3.38,-9.29,0.07,0.0,0.0,-0.01,8049,1559243540.568
-3.4,-9.38,0.06,0.0,0.0,-0.01,8055,1559243540.574
-3.4,-9.38,0.06,0.0,0.0,-0.01,8059,1559243540.578
-3.4,-9.38,0.06,0.0,0.0,-0.01,8064,1559243540.583
-3.37,-9.32,0.1,0.0,0.01,-0.01,8069,1559243540.588
-3.37,-9.32,0.1,0.0,0.01,-0.01,8074,1559243540.593
-3.37,-9.32,0.1,0.0,0.01,-0.01,8080,1559243540.599
-3.37,-9.32,0.1,0.0,0.01,-0.01,8084,1559243540.603
-3.41,-9.31,0.1,0.0,0.01,-0.01,8103,1559243540.622
-3.41,-9.31,0.1,0.0,0.01,-0.01,8104,1559243540.623
-3.41,-9.31,0.1,0.0,0.01,-0.01,8105,1559243540.624
-3.41,-9.31,0.1,0.0,0.01,-0.01,8106,1559243540.625
-3.41,-9.31,0.1,0.0,0.01,-0.01,8108,1559243540.627
-3.42,-9.32,0.07,0.0,0.01,-0.01,8114,1559243540.633
-3.42,-9.32,0.07,0.0,0.01,-0.01,8119,1559243540.638
-3.42,-9.32,0.07,0.0,0.01,-0.01,8124,1559243540.643
-3.45,-9.32,0.06,0.0,0.01,0.0,8129,1559243540.648
-3.45,-9.32,0.06,0.0,0.01,0.0,8134,1559243540.653
-3.45,-9.32,0.06,0.0,0.01,0.0,8139,1559243540.658
-3.45,-9.32,0.06,0.0,0.01,0.0,8144,1559243540.663
-3.41,-9.31,0.05,0.0,0.01,-0.01,8149,1559243540.668
-3.41,-9.31,0.05,0.0,0.01,-0.01,8154,1559243540.673
-3.41,-9.31,0.05,0.0,0.01,-0.01,8159,1559243540.678
-3.41,-9.31,0.05,0.0,0.01,-0.01,8164,1559243540.683
-3.41,-9.31,0.05,0.0,0.01,-0.01,8170,1559243540.689
-3.44,-9.34,0.07,0.0,0.01,-0.01,8174,1559243540.693
-3.44,-9.34,0.07,0.0,0.01,-0.01,8179,1559243540.698
-3.44,-9.34,0.07,0.0,0.01,-0.01,8184,1559243540.703
-3.44,-9.34,0.07,0.0,0.01,-0.01,8189,1559243540.708
-3.45,-9.32,0.09,0.0,0.01,-0.01,8194,1559243540.713
-3.45,-9.32,0.09,0.0,0.01,-0.01,8199,1559243540.718
-3.45,-9.32,0.09,0.0,0.01,-0.01,8204,1559243540.723
-3.42,-9.29,0.1,0.0,0.0,-0.01,8210,1559243540.729
-3.42,-9.29,0.1,0.0,0.0,-0.01,8214,1559243540.733
-3.42,-9.29,0.1,0.0,0.0,-0.01,8219,1559243540.738
-3.39,-9.33,0.07,0.0,0.0,-0.01,8224,1559243540.743
-3.39,-9.33,0.07,0.0,0.0,-0.01,8229,1559243540.748
-3.39,-9.33,0.07,0.0,0.0,-0.01,8234,1559243540.753
-3.39,-9.33,0.07,0.0,0.0,-0.01,8240,1559243540.759
-3.39,-9.33,0.07,0.0,0.0,-0.01,8243,1559243540.762
-3.39,-9.33,0.07,0.0,0.0,-0.01,8249,1559243540.768
-3.37,-9.33,0.12,0.0,0.0,-0.01,8256,1559243540.775
-3.37,-9.33,0.12,0.0,0.0,-0.01,8260,1559243540.779
-3.37,-9.33,0.12,0.0,0.0,-0.01,8264,1559243540.783
-3.37,-9.33,0.12,0.0,0.0,-0.01,8269,1559243540.788
-3.32,-9.35,0.1,0.0,0.0,-0.01,8275,1559243540.794
-3.32,-9.35,0.1,0.0,0.0,-0.01,8279,1559243540.798
-3.33,-9.34,0.12,0.0,0.0,-0.01,8284,1559243540.803
-3.33,-9.34,0.12,0.0,0.0,-0.01,8291,1559243540.81
-3.33,-9.34,0.12,0.0,0.0,-0.01,8294,1559243540.813
-3.33,-9.34,0.12,0.0,0.0,-0.01,8299,1559243540.818
-3.38,-9.36,0.12,0.0,0.0,-0.01,8304,1559243540.823
-3.38,-9.36,0.12,0.0,0.01,0.0,8309,1559243540.828
-3.38,-9.36,0.12,0.0,0.01,0.0,8314,1559243540.833
-3.38,-9.36,0.12,0.0,0.01,0.0,8319,1559243540.838
-3.38,-9.36,0.12,0.0,0.01,0.0,8324,1559243540.843
-3.38,-9.36,0.12,0.0,0.01,0.0,8329,1559243540.848
-3.39,-9.33,0.1,0.0,0.01,0.0,8335,1559243540.854
-3.39,-9.33,0.1,0.0,0.01,0.0,8339,1559243540.858
-3.39,-9.33,0.1,0.0,0.01,0.0,8344,1559243540.863
-3.39,-9.33,0.1,0.0,0.01,0.0,8349,1559243540.868
-3.39,-9.33,0.1,0.0,0.01,0.0,8354,1559243540.873
-3.39,-9.32,0.06,0.0,0.01,0.0,8359,1559243540.878
-3.39,-9.32,0.06,0.0,0.01,0.0,8364,1559243540.883
-3.39,-9.32,0.06,0.0,0.01,0.0,8369,1559243540.888
-3.39,-9.32,0.06,0.0,0.01,0.0,8374,1559243540.893
-3.43,-9.32,0.13,0.0,0.0,0.0,8380,1559243540.899
-3.43,-9.32,0.13,0.0,0.0,0.0,8385,1559243540.904
-3.43,-9.32,0.13,0.0,0.0,0.0,8390,1559243540.909
-3.43,-9.32,0.13,0.0,0.0,0.0,8394,1559243540.913
-3.38,-9.3,0.08,0.0,0.0,0.0,8400,1559243540.919
-3.38,-9.3,0.08,0.0,0.0,0.0,8404,1559243540.923
-3.38,-9.3,0.08,0.0,0.0,0.0,8409,1559243540.928
-3.38,-9.3,0.08,0.0,0.0,0.0,8414,1559243540.933
-3.38,-9.3,0.08,0.0,0.0,0.0,8419,1559243540.938
-3.34,-9.32,0.1,0.0,0.0,0.0,8426,1559243540.945
-3.34,-9.32,0.1,0.0,0.0,0.0,8432,1559243540.951
-3.34,-9.32,0.1,0.0,0.0,0.0,8434,1559243540.953
-3.34,-9.32,0.1,0.0,0.0,0.0,8441,1559243540.96
-3.34,-9.32,0.1,0.0,0.0,0.0,8444,1559243540.963
-3.34,-9.32,0.1,0.0,0.0,0.0,8450,1559243540.969
-3.37,-9.34,0.07,0.0,0.0,0.0,8454,1559243540.973
-3.37,-9.34,0.07,0.0,0.0,0.0,8459,1559243540.978
-3.37,-9.34,0.07,0.0,0.0,0.0,8464,1559243540.983
-3.32,-9.32,0.04,0.0,0.0,0.0,8470,1559243540.989
-3.32,-9.32,0.04,0.0,0.0,0.0,8474,1559243540.993
-3.32,-9.32,0.04,0.0,0.0,0.0,8480,1559243540.999
-3.32,-9.32,0.04,0.0,0.0,0.0,8484,1559243541.003
-3.32,-9.32,0.04,0.0,0.0,0.0,8489,1559243541.008
-3.32,-9.32,0.04,0.0,0.0,0.0,8494,1559243541.013
-3.33,-9.36,0.04,0.0,0.0,0.0,8499,1559243541.018
-3.33,-9.36,0.04,0.0,0.0,0.0,8505,1559243541.024
-3.33,-9.36,0.04,0.0,0.0,0.0,8511,1559243541.03
-3.33,-9.36,0.04,0.0,0.0,0.0,8514,1559243541.033
-3.33,-9.36,0.04,0.0,0.0,0.0,8519,1559243541.038
-3.33,-9.36,0.04,0.0,0.0,0.0,8525,1559243541.044
-3.44,-9.31,0.05,0.0,0.0,0.0,8529,1559243541.048
-3.44,-9.31,0.05,0.0,0.0,0.0,8534,1559243541.053
-3.44,-9.31,0.05,0.0,0.0,0.0,8541,1559243541.06
-3.44,-9.32,0.1,0.0,0.0,0.0,8544,1559243541.063
-3.44,-9.32,0.1,0.0,0.0,0.0,8551,1559243541.07
-3.44,-9.32,0.1,0.0,0.0,0.0,8555,1559243541.074
-3.44,-9.32,0.1,0.0,0.0,0.0,8559,1559243541.078
-3.44,-9.32,0.1,0.0,0.0,0.0,8564,1559243541.083
-3.4,-9.31,0.07,0.0,0.0,0.0,8569,1559243541.088
-3.4,-9.31,0.07,0.0,0.0,0.0,8576,1559243541.095
-3.4,-9.31,0.07,0.0,0.0,0.0,8579,1559243541.098
-3.38,-9.33,0.06,0.0,0.0,0.0,8584,1559243541.103
-3.38,-9.33,0.06,0.0,0.0,0.0,8590,1559243541.109
-3.38,-9.33,0.06,0.0,0.0,0.0,8594,1559243541.113
-3.38,-9.33,0.06,0.0,0.0,0.0,8599,1559243541.118
-3.38,-9.33,0.06,0.0,0.0,0.0,8604,1559243541.123
-3.34,-9.38,0.11,0.0,0.0,0.0,8609,1559243541.128
-3.34,-9.38,0.11,0.0,0.0,0.0,8614,1559243541.133
-3.34,-9.38,0.11,0.0,0.0,0.0,8623,1559243541.142
-3.33,-9.33,0.13,0.0,0.0,0.0,8624,1559243541.143
-3.33,-9.33,0.13,0.0,0.0,0.0,8630,1559243541.149
-3.33,-9.33,0.13,0.0,0.0,0.0,8637,1559243541.156
-3.33,-9.33,0.13,0.0,0.0,0.0,8639,1559243541.158
-3.33,-9.33,0.13,0.0,0.0,0.0,8644,1559243541.163
-3.41,-9.32,0.14,0.0,0.0,0.01,8650,1559243541.169
-3.41,-9.32,0.14,0.0,0.0,0.01,8654,1559243541.173
-3.41,-9.32,0.14,0.0,0.0,0.01,8661,1559243541.18
-3.41,-9.32,0.14,0.0,0.0,0.01,8664,1559243541.183
-3.41,-9.32,0.14,0.0,0.0,0.01,8670,1559243541.189
-3.41,-9.32,0.14,0.0,0.0,0.01,8675,1559243541.194
-3.39,-9.32,0.12,0.0,0.0,0.01,8684,1559243541.203
-3.39,-9.32,0.12,0.0,0.0,0.01,8685,1559243541.204
-3.39,-9.32,0.12,0.0,0.0,0.01,8689,1559243541.208
-3.39,-9.32,0.12,0.0,0.0,0.01,8694,1559243541.213
-3.39,-9.34,0.11,0.0,0.0,0.01,8699,1559243541.218
-3.39,-9.34,0.11,0.0,0.0,0.01,8706,1559243541.225
-3.39,-9.34,0.11,0.0,0.0,0.01,8710,1559243541.229
-3.39,-9.34,0.11,0.0,0.0,0.01,8715,1559243541.234
-3.39,-9.34,0.11,0.0,0.0,0.01,8720,1559243541.239
-3.39,-9.34,0.11,0.0,0.0,0.01,8724,1559243541.243
-3.39,-9.34,0.11,0.0,0.0,0.01,8729,1559243541.248
-3.42,-9.33,0.08,0.0,0.0,0.01,8734,1559243541.253
-3.42,-9.33,0.08,0.0,0.0,0.01,8740,1559243541.259
-3.42,-9.33,0.08,0.0,0.0,0.01,8744,1559243541.263
-3.43,-9.32,0.06,0.0,0.0,0.01,8749,1559243541.268
-3.43,-9.32,0.06,0.0,0.0,0.01,8754,1559243541.273
-3.43,-9.32,0.06,0.0,0.0,0.01,8759,1559243541.278
-3.43,-9.32,0.06,0.0,0.0,0.01,8764,1559243541.283
-3.43,-9.32,0.06,0.0,0.0,0.01,8769,1559243541.288
-3.42,-9.3,0.09,0.0,0.0,0.01,8778,1559243541.297
-3.42,-9.3,0.09,0.0,0.0,0.01,8779,1559243541.298
-3.42,-9.3,0.09,0.0,0.0,0.01,8785,1559243541.304
-3.45,-9.31,0.04,0.0,0.0,0.01,8792,1559243541.311
-3.45,-9.31,0.04,0.0,0.0,0.01,8797,1559243541.316
-3.45,-9.31,0.04,0.0,0.0,0.01,8799,1559243541.318
-3.45,-9.31,0.04,0.0,0.0,0.01,8804,1559243541.323
-3.45,-9.31,0.06,0.0,0.0,0.01,8809,1559243541.328
-3.45,-9.31,0.06,0.0,0.0,0.01,8814,1559243541.333
-3.45,-9.31,0.06,0.0,0.0,0.01,8819,1559243541.338
-3.49,-9.31,0.06,0.0,0.0,0.01,8824,1559243541.343
-3.49,-9.31,0.06,0.0,0.0,0.01,8829,1559243541.348
-3.49,-9.31,0.06,0.0,0.0,0.01,8834,1559243541.353
-3.49,-9.31,0.06,0.0,0.0,0.01,8839,1559243541.358
-3.49,-9.31,0.06,0.0,0.0,0.01,8845,1559243541.364
-3.47,-9.3,0.06,0.0,0.0,0.0,8849,1559243541.368
-3.47,-9.3,0.06,0.0,0.0,0.0,8854,1559243541.373
-3.47,-9.3,0.06,0.0,0.0,0.0,8861,1559243541.38
-3.44,-9.32,0.07,0.0,0.0,0.0,8865,1559243541.384
-3.44,-9.32,0.07,0.0,0.0,0.0,8869,1559243541.388
-3.44,-9.32,0.07,0.0,0.0,0.0,8875,1559243541.394
-3.41,-9.31,0.07,0.0,0.0,0.0,8879,1559243541.398
-3.41,-9.31,0.07,0.0,0.0,0.0,8886,1559243541.405
-3.41,-9.31,0.07,0.0,0.0,0.0,8891,1559243541.41
-3.46,-9.31,0.1,0.0,0.0,0.0,8894,1559243541.413
-3.46,-9.31,0.1,0.0,0.0,0.0,8900,1559243541.419
-3.46,-9.31,0.1,0.0,0.0,0.0,8906,1559243541.425
-3.46,-9.31,0.1,0.0,0.0,0.0,8909,1559243541.428
-3.46,-9.31,0.1,0.0,0.0,0.0,8916,1559243541.435
-3.46,-9.31,0.1,0.0,0.0,0.0,8919,1559243541.438
-3.46,-9.3,0.04,0.0,0.0,0.0,8924,1559243541.443
-3.46,-9.3,0.04,0.0,0.0,0.0,8929,1559243541.448
-3.46,-9.3,0.04,0.0,0.0,0.0,8935,1559243541.454
-3.46,-9.3,0.04,0.0,0.0,0.0,8940,1559243541.459
-3.4,-9.31,0.08,0.0,0.0,0.0,8945,1559243541.464
-3.4,-9.31,0.08,0.0,0.0,0.0,8949,1559243541.468
-3.4,-9.31,0.08,0.0,0.0,0.0,8954,1559243541.473
-3.43,-9.3,0.12,0.0,0.0,0.0,8960,1559243541.479
-3.43,-9.3,0.12,0.0,0.0,0.0,8964,1559243541.483
-3.43,-9.3,0.12,0.0,0.0,0.0,8969,1559243541.488
-3.43,-9.32,0.06,0.0,0.0,0.0,8974,1559243541.493
-3.43,-9.32,0.06,0.0,0.0,0.0,8981,1559243541.5
-3.43,-9.32,0.06,0.0,0.0,0.0,8988,1559243541.507
-3.43,-9.32,0.06,0.0,0.0,0.0,8989,1559243541.508
-3.43,-9.32,0.06,0.0,0.0,0.0,8994,1559243541.513
-3.43,-9.32,0.1,0.0,0.0,0.0,9001,1559243541.52
-3.43,-9.32,0.1,0.0,0.0,0.0,9005,1559243541.524
-3.43,-9.32,0.1,0.0,0.0,0.0,9010,1559243541.529
-3.43,-9.3,0.12,0.0,0.0,0.0,9015,1559243541.534
-3.45,-9.3,0.12,0.0,0.0,0.0,9020,1559243541.539
-3.45,-9.3,0.12,0.0,0.0,0.0,9024,1559243541.543
-3.45,-9.3,0.12,0.0,0.0,0.0,9029,1559243541.548
-3.44,-9.31,0.1,0.0,0.0,0.0,9041,1559243541.56
-3.44,-9.31,0.1,0.0,0.0,0.0,9042,1559243541.561
-3.44,-9.31,0.1,0.0,0.0,0.0,9045,1559243541.564
-3.44,-9.31,0.1,0.0,0.0,0.0,9049,1559243541.568
-3.44,-9.32,0.09,0.0,0.0,0.0,9054,1559243541.573
-3.44,-9.32,0.09,0.0,0.0,0.0,9059,1559243541.578
-3.44,-9.32,0.09,0.0,0.0,0.0,9064,1559243541.583
-3.44,-9.32,0.13,0.0,0.0,0.0,9069,1559243541.588
-3.44,-9.32,0.13,0.0,0.0,0.0,9074,1559243541.593
-3.44,-9.32,0.13,0.0,0.0,0.0,9080,1559243541.599
-3.44,-9.32,0.13,0.0,0.0,0.0,9084,1559243541.603
-3.44,-9.32,0.13,0.0,0.0,0.0,9090,1559243541.609
-3.48,-9.3,0.09,0.0,0.0,0.0,9094,1559243541.613
-3.48,-9.3,0.09,0.0,0.0,0.0,9100,1559243541.619
-3.48,-9.3,0.09,0.0,0.0,0.0,9104,1559243541.623
-3.48,-9.3,0.09,0.0,0.0,0.0,9109,1559243541.628
-3.46,-9.27,0.06,0.0,0.0,0.0,9114,1559243541.633
-3.46,-9.27,0.06,0.0,0.0,0.0,9118,1559243541.637
-3.46,-9.27,0.06,0.0,0.0,0.0,9128,1559243541.647
-3.46,-9.27,0.06,0.0,0.0,0.0,9128,1559243541.647
-3.46,-9.27,0.06,0.0,0.0,0.0,9138,1559243541.657
-3.46,-9.27,0.06,0.0,0.0,0.0,9139,1559243541.658
-3.46,-9.27,0.06,0.0,0.0,0.0,9144,1559243541.663
-3.43,-9.3,0.1,0.0,0.0,-0.01,9152,1559243541.671
-3.43,-9.3,0.1,0.0,0.0,-0.01,9155,1559243541.674
-3.43,-9.3,0.1,0.0,0.0,-0.01,9159,1559243541.678
-3.43,-9.3,0.1,0.0,0.0,-0.01,9164,1559243541.683
-3.43,-9.3,0.1,0.0,0.0,-0.01,9169,1559243541.688
-3.38,-9.3,0.14,0.0,0.0,-0.01,9174,1559243541.693
-3.38,-9.3,0.14,0.0,0.0,-0.01,9181,1559243541.7
-3.38,-9.3,0.14,0.0,0.0,-0.01,9185,1559243541.704
-3.38,-9.3,0.14,0.0,0.0,-0.01,9190,1559243541.709
-3.38,-9.3,0.14,0.0,0.0,-0.01,9194,1559243541.713
-3.35,-9.37,0.17,0.0,0.0,-0.01,9200,1559243541.719
-3.35,-9.37,0.17,0.0,0.0,-0.01,9205,1559243541.724
-3.35,-9.37,0.17,0.0,0.0,-0.01,9209,1559243541.728
-3.37,-9.37,0.14,0.0,0.0,-0.01,9214,1559243541.733
-3.37,-9.37,0.14,0.0,0.01,0.0,9219,1559243541.738
-3.37,-9.37,0.14,0.0,0.01,0.0,9224,1559243541.743
-3.37,-9.37,0.14,0.0,0.01,0.0,9229,1559243541.748
-3.37,-9.37,0.14,0.0,0.01,0.0,9234,1559243541.753
-3.37,-9.37,0.14,0.0,0.01,0.0,9239,1559243541.758
-3.37,-9.37,0.14,0.0,0.01,0.0,9244,1559243541.763
-3.34,-9.34,0.12,0.0,0.01,0.0,9249,1559243541.768
-3.34,-9.34,0.12,0.0,0.01,0.0,9254,1559243541.773
-3.34,-9.34,0.12,0.0,0.01,0.0,9259,1559243541.778
-3.34,-9.34,0.12,0.0,0.01,0.0,9264,1559243541.783
-3.34,-9.34,0.12,0.0,0.01,0.0,9272,1559243541.791
-3.34,-9.34,0.12,0.0,0.01,0.0,9275,1559243541.794
-3.4,-9.31,0.09,0.0,0.01,0.0,9278,1559243541.797
-3.4,-9.31,0.09,0.0,0.01,0.0,9291,1559243541.81
-3.4,-9.31,0.09,0.0,0.01,0.0,9291,1559243541.81
-3.4,-9.31,0.09,0.0,0.01,0.0,9295,1559243541.814
-3.4,-9.31,0.09,0.0,0.01,0.0,9300,1559243541.819
-3.4,-9.31,0.09,0.0,0.01,0.0,9304,1559243541.823
-3.4,-9.31,0.08,0.0,0.01,0.0,9309,1559243541.828
-3.4,-9.31,0.08,0.0,0.01,0.0,9314,1559243541.833
-3.4,-9.31,0.08,0.0,0.01,0.0,9320,1559243541.839
-3.4,-9.31,0.08,0.0,0.01,0.0,9325,1559243541.844
-3.4,-9.31,0.08,0.0,0.01,0.0,9330,1559243541.849
-3.42,-9.33,0.07,0.0,0.01,0.0,9334,1559243541.853
-3.42,-9.33,0.07,0.0,0.01,0.0,9340,1559243541.859
-3.42,-9.33,0.07,0.0,0.01,0.0,9350,1559243541.869
-3.45,-9.33,0.06,0.0,0.01,0.0,9351,1559243541.87
-3.45,-9.33,0.06,0.0,0.01,0.0,9355,1559243541.874
-3.45,-9.33,0.06,0.0,0.01,0.0,9360,1559243541.879
-3.45,-9.33,0.06,0.0,0.01,0.0,9364,1559243541.883
-3.45,-9.33,0.06,0.0,0.01,0.0,9369,1559243541.888
-3.47,-9.34,0.07,0.0,0.0,0.0,9375,1559243541.894
-3.47,-9.34,0.07,0.0,0.0,0.0,9379,1559243541.898
-3.47,-9.34,0.07,0.0,0.0,0.0,9385,1559243541.904
-3.47,-9.34,0.07,0.0,0.0,0.0,9389,1559243541.908
-3.49,-9.31,0.05,0.0,0.0,0.0,9394,1559243541.913
-3.49,-9.31,0.05,0.0,0.0,0.0,9401,1559243541.92
-3.49,-9.31,0.05,0.0,0.0,0.0,9405,1559243541.924
-3.49,-9.31,0.05,0.0,0.0,0.0,9409,1559243541.928
-3.46,-9.28,0.09,0.0,0.0,0.0,9414,1559243541.933
-3.46,-9.28,0.09,0.0,0.0,0.0,9419,1559243541.938
-3.46,-9.28,0.09,0.0,0.0,0.0,9432,1559243541.951
-3.46,-9.28,0.09,0.0,0.0,0.0,9433,1559243541.952
-3.46,-9.29,0.08,0.0,0.0,0.0,9435,1559243541.954
-3.46,-9.29,0.08,0.0,0.0,0.0,9439,1559243541.958
-3.46,-9.29,0.08,0.0,0.0,0.0,9444,1559243541.963
-3.46,-9.29,0.08,0.0,0.0,0.0,9451,1559243541.97
-3.46,-9.23,0.1,0.0,0.0,0.0,9455,1559243541.974
-3.46,-9.23,0.1,0.0,-0.01,-0.01,9459,1559243541.978
-3.46,-9.23,0.1,0.0,-0.01,-0.01,9464,1559243541.983
-3.46,-9.23,0.1,0.0,-0.01,-0.01,9469,1559243541.988
-3.46,-9.23,0.1,0.0,-0.01,-0.01,9474,1559243541.993
-3.46,-9.23,0.1,0.0,-0.01,-0.01,9480,1559243541.999
-3.46,-9.23,0.1,0.0,-0.01,-0.01,9484,1559243542.003
-3.44,-9.32,0.13,0.0,-0.01,-0.01,9493,1559243542.012
-3.44,-9.32,0.13,0.0,-0.01,-0.01,9494,1559243542.013
-3.44,-9.32,0.13,0.0,-0.01,-0.01,9503,1559243542.022
-3.44,-9.32,0.13,0.0,-0.01,-0.01,9506,1559243542.025
-3.44,-9.32,0.13,0.0,-0.01,-0.01,9509,1559243542.028
-3.44,-9.32,0.13,0.0,-0.01,-0.01,9518,1559243542.037
-3.44,-9.32,0.13,0.0,-0.01,-0.01,9519,1559243542.038
-3.44,-9.32,0.13,0.0,-0.01,-0.01,9524,1559243542.043
-3.41,-9.32,0.11,0.0,0.0,-0.02,9529,1559243542.048
-3.41,-9.32,0.11,0.0,0.0,-0.02,9534,1559243542.053
-3.37,-9.3,0.11,0.0,0.0,-0.02,9539,1559243542.058
-3.37,-9.3,0.11,0.0,0.0,-0.02,9544,1559243542.063
-3.37,-9.3,0.11,0.0,0.0,-0.02,9550,1559243542.069
-3.37,-9.37,0.13,0.0,0.0,-0.02,9556,1559243542.075
-3.37,-9.37,0.13,0.0,0.0,-0.02,9559,1559243542.078
-3.37,-9.37,0.13,0.0,0.0,-0.02,9565,1559243542.084
-3.37,-9.37,0.13,0.0,0.0,-0.02,9570,1559243542.089
-3.31,-9.4,0.08,0.0,0.0,-0.02,9576,1559243542.095
-3.31,-9.4,0.08,0.0,0.0,-0.02,9579,1559243542.098
-3.31,-9.4,0.08,0.0,0.0,-0.02,9585,1559243542.104
-3.31,-9.4,0.08,0.0,0.0,-0.02,9592,1559243542.111
-3.34,-9.31,0.13,0.0,0.0,-0.02,9598,1559243542.117
-3.34,-9.31,0.13,0.0,0.0,-0.02,9600,1559243542.119
-3.34,-9.31,0.13,0.0,0.0,-0.02,9605,1559243542.124
-3.34,-9.31,0.13,0.0,0.0,-0.02,9612,1559243542.131
-3.41,-9.33,0.06,0.0,0.0,-0.02,9614,1559243542.133
-3.41,-9.33,0.06,0.0,0.0,-0.01,9620,1559243542.139
-3.41,-9.33,0.06,0.0,0.0,-0.01,9625,1559243542.144
-3.41,-9.33,0.06,0.0,0.0,-0.01,9630,1559243542.149
-3.41,-9.36,0.03,0.0,0.0,-0.01,9634,1559243542.153
-3.4,-9.36,0.03,0.0,0.0,-0.01,9639,1559243542.158
-3.4,-9.36,0.03,0.0,0.0,-0.01,9643,1559243542.162
-3.4,-9.36,0.03,0.0,0.0,-0.01,9650,1559243542.169
-3.4,-9.36,0.03,0.0,0.0,-0.01,9657,1559243542.176
-3.4,-9.36,0.03,0.0,0.0,-0.01,9659,1559243542.178
-3.38,-9.32,0.08,0.0,0.0,-0.01,9664,1559243542.183
-3.38,-9.32,0.08,0.0,0.0,-0.01,9670,1559243542.189
-3.38,-9.32,0.08,0.0,0.0,-0.01,9677,1559243542.196
-3.38,-9.32,0.08,0.0,0.0,-0.01,9679,1559243542.198
-3.31,-9.35,0.09,0.0,0.0,-0.01,9684,1559243542.203
-3.31,-9.35,0.09,0.0,0.0,-0.01,9692,1559243542.211
-3.31,-9.35,0.09,0.0,0.0,-0.01,9694,1559243542.213
-3.33,-9.36,0.09,0.0,0.0,0.0,9700,1559243542.219
-3.33,-9.36,0.09,0.0,0.0,0.0,9704,1559243542.223
-3.33,-9.36,0.09,0.0,0.0,0.0,9710,1559243542.229
-3.33,-9.36,0.09,0.0,0.0,0.0,9716,1559243542.235
-3.33,-9.36,0.09,0.0,0.0,0.0,9721,1559243542.24
-3.4,-9.37,0.02,0.0,0.0,0.0,9725,1559243542.244
-3.4,-9.37,0.02,0.0,0.0,0.0,9733,1559243542.252
-3.4,-9.37,0.02,0.0,0.0,0.0,9734,1559243542.253
-3.35,-9.35,0.1,0.0,0.0,0.0,9738,1559243542.257
-3.35,-9.35,0.1,0.0,0.0,0.0,9744,1559243542.263
-3.35,-9.35,0.1,0.0,0.0,0.0,9750,1559243542.269
-3.37,-9.32,0.08,0.0,0.0,0.0,9755,1559243542.274
-3.37,-9.32,0.08,0.0,0.0,0.0,9759,1559243542.278
-3.37,-9.32,0.08,0.0,0.0,0.0,9764,1559243542.283
-3.37,-9.32,0.08,0.0,0.0,0.0,9769,1559243542.288
-3.39,-9.33,0.07,0.0,0.0,0.0,9775,1559243542.294
-3.39,-9.33,0.07,0.0,0.0,0.0,9779,1559243542.298
-3.39,-9.33,0.07,0.0,0.0,0.0,9784,1559243542.303
-3.39,-9.33,0.07,0.0,0.0,0.0,9789,1559243542.308
-3.35,-9.37,0.1,0.0,0.0,0.0,9802,1559243542.321
-3.35,-9.37,0.1,0.0,0.0,0.0,9803,1559243542.322
-3.35,-9.37,0.1,0.0,0.0,0.0,9805,1559243542.324
-3.35,-9.37,0.1,0.0,0.0,0.0,9811,1559243542.33
-3.35,-9.37,0.1,0.0,0.0,0.0,9814,1559243542.333
-3.35,-9.37,0.1,0.0,0.0,0.0,9820,1559243542.339
-3.44,-9.32,0.11,0.0,0.0,0.0,9824,1559243542.343
-3.44,-9.32,0.11,0.0,0.0,0.0,9829,1559243542.348
-3.44,-9.32,0.11,0.0,0.0,0.0,9835,1559243542.354
-3.41,-9.34,0.05,0.0,0.0,0.0,9842,1559243542.361
-3.41,-9.34,0.05,0.0,0.0,0.0,9844,1559243542.363
-3.41,-9.34,0.05,0.0,0.0,0.0,9849,1559243542.368
-3.41,-9.34,0.05,0.0,0.0,0.0,9854,1559243542.373
-3.41,-9.34,0.05,0.0,0.0,0.0,9859,1559243542.378
-3.45,-9.34,0.09,0.0,0.0,0.0,9866,1559243542.385
-3.45,-9.34,0.09,0.0,0.0,0.0,9869,1559243542.388
-3.45,-9.34,0.09,0.0,0.0,0.0,9874,1559243542.393
-3.43,-9.32,0.11,0.0,0.0,0.0,9886,1559243542.405
-3.43,-9.32,0.11,0.0,0.0,0.0,9886,1559243542.405
-3.43,-9.32,0.11,0.0,0.0,0.0,9890,1559243542.409
-3.43,-9.32,0.11,0.0,0.0,0.0,9893,1559243542.412
-3.43,-9.3,0.13,0.0,0.0,0.0,9900,1559243542.419
-3.43,-9.3,0.13,0.0,0.0,0.0,9904,1559243542.423
-3.43,-9.3,0.13,0.0,0.0,0.0,9909,1559243542.428
-3.43,-9.3,0.13,0.0,0.0,0.0,9914,1559243542.433
-3.43,-9.31,0.04,0.0,0.0,0.0,9924,1559243542.443
-3.43,-9.31,0.04,0.0,0.0,0.0,9925,1559243542.444
-3.43,-9.31,0.04,0.0,0.0,0.0,9929,1559243542.448
-3.43,-9.31,0.04,0.0,0.0,0.0,9934,1559243542.453
-3.43,-9.31,0.04,0.0,0.0,0.0,9939,1559243542.458
-3.45,-9.29,0.08,0.0,-0.01,0.0,9945,1559243542.464
-3.45,-9.29,0.08,0.0,-0.01,0.0,9950,1559243542.469
-3.42,-9.32,0.04,0.0,-0.01,0.0,9956,1559243542.475
-3.42,-9.32,0.04,0.0,-0.01,0.0,9962,1559243542.481
-3.42,-9.32,0.04,0.0,-0.01,0.0,9964,1559243542.483
-3.42,-9.32,0.04,0.0,-0.01,0.0,9970,1559243542.489
-3.4,-9.34,0.08,0.0,-0.01,0.0,9975,1559243542.494
-3.4,-9.34,0.08,0.0,-0.01,0.0,9979,1559243542.498
-3.4,-9.34,0.08,0.0,-0.01,0.0,9986,1559243542.505
-3.4,-9.34,0.08,0.0,-0.01,0.0,9989,1559243542.508
-3.41,-9.33,0.1,0.0,-0.01,0.0,9994,1559243542.513
-3.41,-9.33,0.1,0.0,-0.02,0.0,9999,1559243542.518
-3.41,-9.33,0.1,0.0,-0.02,0.0,10006,1559243542.525
-3.41,-9.33,0.1,0.0,-0.02,0.0,10013,1559243542.532
-3.38,-9.38,0.06,0.0,-0.01,0.0,10017,1559243542.536
-3.38,-9.38,0.06,0.0,-0.01,0.0,10020,1559243542.539
-3.38,-9.38,0.06,0.0,-0.01,0.0,10025,1559243542.544
-3.38,-9.38,0.06,0.0,-0.01,0.0,10029,1559243542.548
-3.34,-9.38,0.11,0.0,-0.01,0.0,10034,1559243542.553
-3.34,-9.38,0.11,0.0,-0.01,0.0,10040,1559243542.559
-3.34,-9.38,0.11,0.0,-0.01,0.0,10044,1559243542.563
-3.34,-9.38,0.11,0.0,-0.01,0.0,10051,1559243542.57
-3.34,-9.38,0.11,0.0,-0.01,0.0,10054,1559243542.573
-3.31,-9.42,0.1,0.0,-0.01,0.0,10060,1559243542.579
-3.31,-9.42,0.1,0.0,-0.01,0.0,10064,1559243542.583
-3.31,-9.42,0.1,0.0,-0.01,0.0,10069,1559243542.588
-3.31,-9.42,0.1,0.0,-0.01,0.0,10074,1559243542.593
-3.34,-9.36,0.05,0.0,-0.01,0.0,10079,1559243542.598
-3.34,-9.36,0.05,0.0,-0.01,0.01,10085,1559243542.604
-3.34,-9.36,0.05,0.0,-0.01,0.01,10089,1559243542.608
-3.34,-9.33,0.15,0.0,-0.01,0.01,10094,1559243542.613
-3.34,-9.33,0.15,0.0,-0.01,0.01,10099,1559243542.618
-3.34,-9.33,0.15,0.0,-0.01,0.01,10104,1559243542.623
-3.37,-9.36,0.12,0.0,-0.01,0.02,10110,1559243542.629
-3.37,-9.36,0.12,0.0,-0.01,0.02,10114,1559243542.633
-3.37,-9.36,0.12,0.0,-0.01,0.02,10122,1559243542.641
-3.37,-9.36,0.12,0.0,0.0,0.02,10125,1559243542.644
-3.37,-9.36,0.12,0.0,0.0,0.02,10132,1559243542.651
-3.43,-9.33,0.07,0.0,0.0,0.02,10134,1559243542.653
-3.43,-9.33,0.07,0.0,0.0,0.02,10141,1559243542.66
-3.43,-9.33,0.07,0.0,0.0,0.02,10144,1559243542.663
-3.43,-9.33,0.07,0.0,0.0,0.02,10150,1559243542.669
-3.43,-9.33,0.07,0.0,0.0,0.02,10154,1559243542.673
-3.43,-9.33,0.07,0.0,0.0,0.02,10159,1559243542.678
-3.48,-9.29,0.04,0.0,0.0,0.03,10165,1559243542.684
-3.48,-9.29,0.04,0.0,0.0,0.03,10170,1559243542.689
-3.48,-9.29,0.04,0.0,0.0,0.03,10175,1559243542.694
-3.48,-9.29,0.04,0.0,0.0,0.02,10179,1559243542.698
-3.48,-9.29,0.04,0.0,0.0,0.02,10189,1559243542.708
-3.48,-9.29,0.04,0.0,0.0,0.02,10189,1559243542.708
-3.51,-9.29,0.07,0.0,0.0,0.02,10194,1559243542.713
-3.51,-9.29,0.07,0.0,0.0,0.02,10199,1559243542.718
-3.51,-9.29,0.07,0.0,0.0,0.02,10204,1559243542.723
-3.51,-9.29,0.07,0.0,0.0,0.02,10211,1559243542.73
-3.46,-9.29,0.06,0.0,0.0,0.02,10214,1559243542.733
-3.46,-9.29,0.06,0.0,0.0,0.02,10219,1559243542.738
-3.46,-9.29,0.06,0.0,0.0,0.02,10225,1559243542.744
-3.46,-9.29,0.06,0.0,0.0,0.02,10232,1559243542.751
-3.46,-9.31,0.07,0.0,0.0,0.02,10234,1559243542.753
-3.46,-9.31,0.07,0.0,0.0,0.02,10239,1559243542.758
-3.46,-9.31,0.07,0.0,0.0,0.02,10244,1559243542.763
-3.46,-9.31,0.07,0.0,0.0,0.02,10250,1559243542.769
-3.51,-9.29,0.15,0.0,-0.01,0.02,10255,1559243542.774
-3.51,-9.29,0.15,0.0,-0.01,0.02,10260,1559243542.779
-3.51,-9.29,0.15,0.0,-0.01,0.02,10265,1559243542.784
-3.51,-9.29,0.15,0.0,-0.01,0.02,10269,1559243542.788
-3.54,-9.29,0.08,0.0,-0.01,0.02,10274,1559243542.793
-3.54,-9.29,0.08,0.0,0.0,0.02,10280,1559243542.799
-3.54,-9.29,0.08,0.0,0.0,0.02,10284,1559243542.803
-3.54,-9.29,0.08,0.0,0.0,0.02,10289,1559243542.808
-3.54,-9.29,0.08,0.0,0.0,0.02,10294,1559243542.813
-3.54,-9.27,0.12,0.0,-0.01,0.01,10300,1559243542.819
-3.54,-9.27,0.12,0.0,-0.01,0.01,10306,1559243542.825
-3.54,-9.27,0.12,0.0,-0.01,0.01,10309,1559243542.828
-3.57,-9.27,0.05,0.0,-0.01,0.01,10314,1559243542.833
-3.57,-9.27,0.05,0.0,-0.01,0.0,10319,1559243542.838
-3.57,-9.27,0.05,0.0,-0.01,0.0,10325,1559243542.844
-3.57,-9.27,0.05,0.0,-0.01,0.0,10329,1559243542.848
-3.52,-9.22,0.09,0.0,0.0,0.0,10337,1559243542.856
-3.52,-9.22,0.09,0.0,0.0,0.0,10340,1559243542.859
-3.52,-9.22,0.09,0.0,0.0,0.0,10344,1559243542.863
-3.52,-9.22,0.09,0.0,0.0,0.0,10350,1559243542.869
-3.52,-9.24,0.14,0.0,0.0,0.0,10355,1559243542.874
-3.52,-9.24,0.14,0.0,0.0,0.0,10359,1559243542.878
-3.52,-9.24,0.14,0.0,0.0,0.0,10364,1559243542.883
-3.52,-9.24,0.14,0.0,0.0,0.0,10369,1559243542.888
-3.54,-9.3,0.11,0.0,0.0,0.0,10374,1559243542.893
-3.54,-9.3,0.11,0.0,0.0,0.0,10379,1559243542.898
-3.54,-9.3,0.11,0.0,0.0,0.0,10385,1559243542.904
-3.52,-9.3,0.07,0.0,0.0,0.0,10391,1559243542.91
-3.52,-9.3,0.07,0.0,0.0,0.0,10395,1559243542.914
-3.52,-9.3,0.07,0.0,0.0,0.0,10399,1559243542.918
-3.52,-9.3,0.07,0.0,0.0,0.0,10404,1559243542.923
-3.52,-9.3,0.07,0.0,0.0,0.0,10409,1559243542.928
-3.52,-9.3,0.07,0.0,0.0,0.0,10415,1559243542.934
-3.52,-9.3,0.07,0.0,0.0,0.0,10418,1559243542.937
-3.52,-9.3,0.07,0.0,0.0,0.0,10424,1559243542.943
-3.53,-9.28,0.1,0.0,0.0,-0.01,10433,1559243542.952
-3.53,-9.28,0.1,0.0,0.0,-0.01,10434,1559243542.953
-3.53,-9.28,0.1,0.0,0.0,-0.01,10442,1559243542.961
-3.53,-9.28,0.1,0.0,0.0,-0.01,10444,1559243542.963
-3.51,-9.34,0.11,0.0,0.0,-0.01,10449,1559243542.968
-3.51,-9.34,0.11,0.0,0.0,-0.01,10454,1559243542.973
-3.51,-9.34,0.11,0.0,0.0,-0.01,10459,1559243542.978
-3.51,-9.34,0.11,0.0,0.0,-0.01,10464,1559243542.983
-3.39,-9.31,0.11,0.0,0.0,-0.02,10469,1559243542.988
-3.39,-9.31,0.11,0.0,0.0,-0.02,10474,1559243542.993
-3.39,-9.31,0.11,0.0,0.0,-0.02,10480,1559243542.999
-3.39,-9.31,0.11,0.0,0.0,-0.02,10484,1559243543.003
-3.44,-9.34,0.08,0.0,0.0,-0.02,10489,1559243543.008
-3.44,-9.34,0.08,0.0,0.0,-0.02,10494,1559243543.013
-3.45,-9.31,0.04,0.0,0.01,-0.02,10499,1559243543.018
-3.45,-9.31,0.04,0.0,0.01,-0.02,10506,1559243543.025
-3.45,-9.31,0.04,0.0,0.01,-0.02,10510,1559243543.029
-3.46,-9.32,0.03,0.0,0.01,-0.02,10515,1559243543.034
-3.46,-9.32,0.03,0.0,0.01,-0.01,10520,1559243543.039
-3.46,-9.32,0.03,0.0,0.01,-0.01,10524,1559243543.043
-3.46,-9.32,0.03,0.0,0.01,-0.01,10530,1559243543.049
-3.46,-9.32,0.03,0.0,0.01,-0.01,10534,1559243543.053
-3.52,-9.29,0.01,0.0,0.01,-0.01,10540,1559243543.059
-3.52,-9.29,0.01,0.0,0.01,-0.01,10546,1559243543.065
-3.52,-9.29,0.01,0.0,0.01,-0.01,10550,1559243543.069
-3.52,-9.29,0.01,0.0,0.01,-0.01,10554,1559243543.073
-3.52,-9.29,0.01,0.0,0.01,-0.01,10561,1559243543.08
-3.52,-9.26,0.08,0.0,0.01,-0.02,10566,1559243543.085
-3.52,-9.26,0.08,0.0,0.01,-0.02,10569,1559243543.088
-3.52,-9.26,0.08,0.0,0.01,-0.02,10575,1559243543.094
-3.56,-9.24,0.08,0.0,0.01,-0.02,10579,1559243543.098
-3.56,-9.24,0.08,0.0,0.01,-0.02,10585,1559243543.104
-3.56,-9.24,0.08,0.0,0.01,-0.02,10589,1559243543.108
-3.56,-9.24,0.08,0.0,0.01,-0.02,10595,1559243543.114
-3.53,-9.19,0.03,0.0,0.0,-0.03,10603,1559243543.122
-3.53,-9.19,0.03,0.0,0.0,-0.03,10604,1559243543.123
-3.53,-9.19,0.03,0.0,0.0,-0.03,10609,1559243543.128
-3.47,-9.27,0.19,0.0,0.0,-0.04,10615,1559243543.134
-3.47,-9.27,0.19,0.0,0.0,-0.04,10621,1559243543.14
-3.47,-9.27,0.19,0.0,0.0,-0.04,10624,1559243543.143
-3.47,-9.27,0.19,0.0,0.0,-0.04,10629,1559243543.148
-3.47,-9.27,0.19,0.0,0.0,-0.04,10634,1559243543.153
-3.49,-9.27,0.15,0.0,0.0,-0.05,10639,1559243543.158
-3.49,-9.27,0.15,0.0,0.0,-0.05,10644,1559243543.163
-3.58,-9.33,0.11,0.0,0.0,-0.05,10649,1559243543.168
-3.58,-9.33,0.11,0.0,0.0,-0.05,10656,1559243543.175
-3.58,-9.33,0.11,0.0,0.0,-0.05,10659,1559243543.178
-3.58,-9.33,0.11,0.0,0.0,-0.05,10664,1559243543.183
-3.58,-9.33,0.11,0.0,0.0,-0.05,10669,1559243543.188
-3.59,-9.29,0.09,0.0,0.0,-0.05,10675,1559243543.194
-3.59,-9.29,0.09,0.0,0.0,-0.06,10679,1559243543.198
-3.59,-9.29,0.09,0.0,0.0,-0.06,10685,1559243543.204
-3.59,-9.29,0.09,0.0,0.0,-0.06,10689,1559243543.208
-3.59,-9.29,0.09,0.0,0.0,-0.06,10694,1559243543.213
-3.51,-9.33,0.12,0.0,0.0,-0.07,10699,1559243543.218
-3.51,-9.33,0.12,0.0,0.0,-0.07,10704,1559243543.223
-3.51,-9.33,0.12,0.0,0.0,-0.07,10710,1559243543.229
-3.42,-9.34,0.08,0.0,0.0,-0.07,10714,1559243543.233
-3.42,-9.34,0.08,0.0,0.0,-0.08,10721,1559243543.24
-3.42,-9.34,0.08,0.0,0.0,-0.08,10724,1559243543.243
-3.37,-9.3,0.03,0.0,0.0,-0.09,10729,1559243543.248
-3.37,-9.3,0.03,0.0,0.0,-0.09,10737,1559243543.256
-3.37,-9.3,0.03,0.0,0.0,-0.09,10741,1559243543.26
-3.31,-9.32,0.07,0.0,0.0,-0.09,10745,1559243543.264
-3.31,-9.32,0.07,0.0,0.0,-0.08,10750,1559243543.269
-3.31,-9.32,0.07,0.0,0.0,-0.08,10754,1559243543.273
-3.31,-9.32,0.07,0.0,0.0,-0.08,10759,1559243543.278
-3.35,-9.35,0.08,0.0,0.0,-0.08,10764,1559243543.283
-3.35,-9.35,0.08,0.0,0.0,-0.08,10769,1559243543.288
-3.35,-9.35,0.08,0.0,0.0,-0.08,10774,1559243543.293
-3.35,-9.35,0.08,0.0,0.0,-0.08,10779,1559243543.298
-3.35,-9.35,0.08,0.0,0.0,-0.08,10784,1559243543.303
-3.38,-9.35,0.05,0.0,-0.01,-0.08,10789,1559243543.308
-3.38,-9.35,0.05,0.0,-0.01,-0.08,10795,1559243543.314
-3.38,-9.35,0.05,0.0,-0.01,-0.08,10800,1559243543.319
-3.38,-9.35,0.05,0.0,-0.01,-0.08,10806,1559243543.325
-3.38,-9.35,0.05,0.0,-0.01,-0.08,10809,1559243543.328
-3.38,-9.35,0.05,0.0,-0.01,-0.08,10814,1559243543.333
-3.38,-9.35,0.05,0.0,-0.01,-0.08,10819,1559243543.338
-3.46,-9.32,0.05,0.0,-0.01,-0.08,10826,1559243543.345
-3.46,-9.32,0.05,0.0,-0.01,-0.08,10833,1559243543.352
-3.46,-9.32,0.05,0.0,-0.01,-0.08,10835,1559243543.354
-3.46,-9.32,0.05,0.0,-0.01,-0.08,10840,1559243543.359
-3.45,-9.29,0.09,0.0,-0.02,-0.09,10845,1559243543.364
-3.45,-9.29,0.09,0.0,-0.02,-0.09,10849,1559243543.368
-3.45,-9.29,0.09,0.0,-0.02,-0.09,10854,1559243543.373
-3.45,-9.29,0.09,0.0,-0.02,-0.09,10862,1559243543.381
-3.45,-9.29,0.09,0.0,-0.02,-0.09,10865,1559243543.384
-3.45,-9.29,0.09,0.0,-0.02,-0.09,10869,1559243543.388
-3.18,-9.38,0.18,0.0,-0.02,-0.09,10874,1559243543.393
-3.18,-9.38,0.18,0.0,-0.01,-0.11,10881,1559243543.4
-3.18,-9.38,0.18,0.0,-0.01,-0.11,10884,1559243543.403
-4.19,-8.71,-3.2,0.0,-0.01,-0.11,10889,1559243543.408
-4.19,-8.71,-3.2,0.0,-0.01,-0.11,10894,1559243543.413
-4.19,-8.71,-3.2,0.0,-0.01,-0.11,10899,1559243543.418
-4.19,-8.71,-3.2,0.0,-0.01,-0.11,10906,1559243543.425
-4.19,-8.71,-3.2,0.0,-0.01,-0.11,10908,1559243543.427
-2.76,-9.53,0.77,0.0,-0.01,-0.11,10915,1559243543.434
-2.76,-9.53,0.77,0.0,-0.01,-0.11,10919,1559243543.438
-3.81,-9.77,0.29,0.0,0.0,-0.11,10927,1559243543.446
-3.81,-9.77,0.29,0.0,0.0,-0.11,10929,1559243543.448
-3.81,-9.77,0.29,0.0,0.0,-0.11,10935,1559243543.454
-3.81,-9.77,0.29,0.0,0.0,-0.11,10939,1559243543.458
-3.24,-9.71,-0.31,0.0,0.01,-0.09,10946,1559243543.465
-3.24,-9.71,-0.31,0.0,0.01,-0.09,10951,1559243543.47
-3.24,-9.71,-0.31,0.0,0.01,-0.09,10953,1559243543.472
-3.24,-9.71,-0.31,0.0,0.01,-0.09,10961,1559243543.48
-3.24,-9.71,-0.31,0.0,0.01,-0.09,10964,1559243543.483
-3.0,-9.29,-0.81,0.0,0.02,-0.06,10970,1559243543.489
-3.0,-9.29,-0.81,0.0,0.02,-0.06,10975,1559243543.494
-3.0,-9.29,-0.81,0.0,0.02,-0.06,10981,1559243543.5
-3.0,-9.29,-0.81,0.0,0.02,-0.06,10984,1559243543.503
-2.49,-9.26,1.72,0.0,0.0,-0.05,10990,1559243543.509
-2.49,-9.26,1.72,0.0,0.0,-0.05,10995,1559243543.514
-2.49,-9.26,1.72,0.0,0.0,-0.05,10999,1559243543.518
-2.49,-9.26,1.72,0.0,0.0,-0.05,11008,1559243543.527
-2.49,-9.26,1.72,0.0,0.0,-0.05,11009,1559243543.528
-4.16,-8.71,-1.66,-0.02,0.03,-0.03,11016,1559243543.535
-4.16,-8.71,-1.66,-0.02,0.03,-0.03,11019,1559243543.538
-4.16,-8.71,-1.66,-0.02,0.03,-0.03,11024,1559243543.543
-4.16,-8.71,-1.66,-0.02,0.03,-0.03,11029,1559243543.548
-2.2,-9.73,-0.97,0.0,0.0,-0.02,11034,1559243543.553
-2.2,-9.73,-0.97,0.0,0.0,-0.02,11039,1559243543.558
-2.2,-9.73,-0.97,0.0,0.0,-0.02,11044,1559243543.563
-2.2,-9.73,-0.97,0.0,0.0,-0.02,11049,1559243543.568
-3.1,-9.38,-0.26,0.0,0.02,-0.01,11054,1559243543.573
-3.1,-9.38,-0.26,0.0,0.02,-0.01,11059,1559243543.578
-3.1,-9.38,-0.26,0.0,0.02,-0.01,11063,1559243543.582
-3.1,-9.38,-0.26,0.0,0.02,-0.01,11069,1559243543.588
-3.1,-9.38,-0.26,0.0,0.02,-0.01,11074,1559243543.593
-2.79,-9.08,0.51,0.0,0.0,0.0,11079,1559243543.598
-2.79,-9.08,0.51,0.0,0.0,0.0,11085,1559243543.604
-2.79,-9.08,0.51,0.0,0.0,0.0,11092,1559243543.611
-2.91,-9.21,0.93,0.0,0.0,0.0,11094,1559243543.613
-2.91,-9.21,0.93,0.0,0.0,0.02,11099,1559243543.618
-2.91,-9.21,0.93,0.0,0.0,0.02,11104,1559243543.623
-2.94,-9.26,0.97,0.0,0.0,0.03,11110,1559243543.629
-2.94,-9.26,0.97,0.0,0.0,0.03,11114,1559243543.633
-2.94,-9.26,0.97,0.0,0.0,0.03,11119,1559243543.638
-2.94,-9.26,0.97,0.0,0.0,0.03,11125,1559243543.644
-3.02,-9.54,-0.49,0.0,-0.01,0.04,11131,1559243543.65
-3.02,-9.54,-0.49,0.0,-0.01,0.04,11135,1559243543.654
-3.02,-9.54,-0.49,0.0,-0.01,0.04,11139,1559243543.658
-2.91,-9.38,0.24,0.0,0.0,0.04,11145,1559243543.664
-2.91,-9.38,0.24,0.0,0.0,0.04,11150,1559243543.669
-2.91,-9.38,0.24,0.0,0.0,0.04,11156,1559243543.675
-2.91,-9.38,0.24,0.0,0.0,0.04,11160,1559243543.679
-2.91,-9.38,0.24,0.0,0.0,0.04,11165,1559243543.684
-2.91,-9.38,0.24,0.0,0.0,0.04,11170,1559243543.689
-3.23,-9.25,0.49,0.0,0.0,0.04,11174,1559243543.693
-3.23,-9.25,0.49,0.0,0.0,0.05,11179,1559243543.698
-3.23,-9.25,0.49,0.0,0.0,0.05,11184,1559243543.703
-3.02,-9.34,0.17,0.0,-0.01,0.05,11189,1559243543.708
-3.02,-9.34,0.17,0.0,-0.01,0.05,11194,1559243543.713
-3.02,-9.34,0.17,0.0,-0.01,0.05,11199,1559243543.718
-3.76,-10.22,-0.73,0.0,-0.02,0.06,11205,1559243543.724
-3.76,-10.22,-0.73,0.0,-0.02,0.06,11210,1559243543.729
-3.76,-10.22,-0.73,0.0,-0.02,0.06,11214,1559243543.733
-3.76,-10.22,-0.73,0.0,-0.02,0.06,11219,1559243543.738
-3.76,-10.22,-0.73,0.0,-0.02,0.06,11224,1559243543.743
-3.76,-10.22,-0.73,0.0,-0.02,0.06,11229,1559243543.748
-2.65,-9.75,-0.73,-0.01,-0.04,0.09,11236,1559243543.755
-2.65,-9.75,-0.73,-0.01,-0.04,0.09,11239,1559243543.758
-2.65,-9.75,-0.73,-0.01,-0.04,0.09,11244,1559243543.763
-2.65,-9.75,-0.73,-0.01,-0.04,0.09,11250,1559243543.769
-2.52,-9.36,0.79,-0.01,-0.04,0.09,11254,1559243543.773
-2.52,-9.36,0.79,0.0,0.0,0.15,11259,1559243543.778
-2.52,-9.36,0.79,0.0,0.0,0.15,11264,1559243543.783
-3.12,-9.83,-0.28,-0.01,0.03,0.19,11269,1559243543.788
-3.12,-9.83,-0.28,-0.01,0.03,0.19,11274,1559243543.793
-3.12,-9.83,-0.28,-0.01,0.03,0.19,11279,1559243543.798
-3.12,-9.83,-0.28,-0.01,0.03,0.19,11284,1559243543.803
-2.86,-9.61,0.58,-0.01,0.0,0.19,11290,1559243543.809
-2.86,-9.61,0.58,-0.01,0.0,0.19,11294,1559243543.813
-2.86,-9.61,0.58,-0.01,0.0,0.19,11299,1559243543.818
-2.86,-9.61,0.58,-0.01,0.0,0.19,11305,1559243543.824
-2.86,-9.61,0.58,-0.01,0.0,0.19,11309,1559243543.828
-3.12,-9.69,-0.13,0.0,0.01,0.21,11314,1559243543.833
-3.12,-9.69,-0.13,0.0,0.01,0.21,11319,1559243543.838
-3.12,-9.69,-0.13,0.0,0.01,0.21,11324,1559243543.843
-3.15,-9.29,0.03,0.0,0.0,0.22,11330,1559243543.849
-3.15,-9.29,0.03,0.0,0.0,0.22,11334,1559243543.853
-3.15,-9.29,0.03,0.0,0.0,0.22,11339,1559243543.858
-3.15,-9.29,0.03,0.0,0.0,0.22,11343,1559243543.862
-3.15,-9.29,0.03,0.0,0.0,0.22,11349,1559243543.868
-3.19,-9.24,0.32,0.0,0.0,0.22,11354,1559243543.873
-3.19,-9.24,0.32,0.0,0.0,0.23,11371,1559243543.89
-3.19,-9.24,0.32,0.0,0.0,0.23,11372,1559243543.891
-3.19,-9.24,0.32,0.0,0.0,0.23,11372,1559243543.891
-3.19,-9.24,0.32,0.0,0.0,0.23,11374,1559243543.893
-3.28,-9.34,0.42,0.0,-0.01,0.25,11379,1559243543.898
-3.28,-9.34,0.42,0.0,-0.01,0.25,11384,1559243543.903
-3.47,-9.38,0.16,0.0,-0.02,0.27,11390,1559243543.909
-3.47,-9.38,0.16,0.0,-0.02,0.27,11394,1559243543.913
-3.47,-9.38,0.16,0.0,-0.02,0.27,11400,1559243543.919
-3.47,-9.38,0.16,0.0,-0.02,0.27,11405,1559243543.924
-3.47,-9.38,0.16,0.0,-0.02,0.27,11410,1559243543.929
-3.57,-9.44,-0.12,0.0,-0.02,0.27,11414,1559243543.933
-3.57,-9.44,-0.12,0.0,-0.03,0.28,11420,1559243543.939
-3.57,-9.44,-0.12,0.0,-0.03,0.28,11425,1559243543.944
-3.49,-9.31,0.2,0.0,-0.05,0.29,11429,1559243543.948
-3.49,-9.31,0.2,0.0,-0.05,0.29,11434,1559243543.953
-3.49,-9.31,0.2,0.0,-0.05,0.29,11443,1559243543.962
-3.49,-9.31,0.2,0.0,-0.05,0.29,11444,1559243543.963
-3.49,-9.31,0.2,0.0,-0.05,0.29,11450,1559243543.969
-3.45,-9.39,0.0,0.0,-0.05,0.29,11454,1559243543.973
-3.45,-9.39,0.0,-0.01,-0.06,0.31,11459,1559243543.978
-3.45,-9.39,0.0,-0.01,-0.06,0.31,11464,1559243543.983
-3.4,-9.36,-0.01,-0.01,-0.06,0.33,11471,1559243543.99
-3.4,-9.36,-0.01,-0.01,-0.06,0.33,11474,1559243543.993
-3.4,-9.36,-0.01,-0.01,-0.06,0.33,11479,1559243543.998
-3.45,-9.42,0.07,-0.01,-0.06,0.33,11484,1559243544.003
-3.45,-9.42,0.07,-0.02,-0.06,0.36,11492,1559243544.011
-3.45,-9.42,0.07,-0.02,-0.06,0.36,11494,1559243544.013
-3.45,-9.42,0.07,-0.02,-0.06,0.36,11500,1559243544.019
-3.57,-9.23,0.25,-0.01,-0.06,0.39,11517,1559243544.036
-3.57,-9.23,0.25,-0.01,-0.06,0.39,11517,1559243544.036
-3.57,-9.23,0.25,-0.01,-0.06,0.39,11518,1559243544.037
-3.57,-9.23,0.25,-0.01,-0.06,0.39,11518,1559243544.037
-3.57,-9.23,0.25,-0.01,-0.06,0.39,11525,1559243544.044
-3.57,-9.23,0.25,-0.01,-0.06,0.39,11529,1559243544.048
-3.57,-9.23,0.25,-0.01,-0.06,0.39,11533,1559243544.052
-3.54,-9.51,0.31,-0.02,-0.06,0.43,11539,1559243544.058
-3.54,-9.51,0.31,-0.02,-0.06,0.43,11544,1559243544.063
-3.54,-9.51,0.31,-0.02,-0.06,0.43,11549,1559243544.068
-3.52,-9.36,0.19,-0.01,-0.04,0.47,11555,1559243544.074
-3.52,-9.36,0.19,-0.01,-0.04,0.47,11559,1559243544.078
-3.67,-9.32,0.1,-0.01,-0.04,0.47,11565,1559243544.084
-3.67,-9.32,0.1,-0.02,-0.03,0.51,11569,1559243544.088
-3.67,-9.32,0.1,-0.02,-0.03,0.51,11575,1559243544.094
-3.67,-9.32,0.1,-0.02,-0.03,0.51,11579,1559243544.098
-3.67,-9.32,0.1,-0.02,-0.03,0.51,11584,1559243544.103
-3.84,-9.26,0.1,-0.01,-0.03,0.56,11595,1559243544.114
-3.84,-9.26,0.1,-0.01,-0.03,0.56,11596,1559243544.115
-3.84,-9.26,0.1,-0.01,-0.03,0.56,11599,1559243544.118
-3.84,-9.26,0.1,-0.01,-0.03,0.56,11605,1559243544.124
-3.84,-9.26,0.1,-0.01,-0.03,0.56,11609,1559243544.128
-4.0,-9.33,0.07,-0.02,-0.03,0.6,11614,1559243544.133
-4.0,-9.33,0.07,-0.02,-0.03,0.6,11620,1559243544.139
-4.0,-9.33,0.07,-0.02,-0.03,0.6,11626,1559243544.145
-4.0,-9.33,0.07,-0.02,-0.03,0.6,11630,1559243544.149
-4.02,-9.19,0.06,-0.02,-0.02,0.63,11634,1559243544.153
-4.02,-9.19,0.06,-0.02,-0.02,0.63,11640,1559243544.159
-4.02,-9.19,0.06,-0.02,-0.02,0.63,11645,1559243544.164
-4.14,-9.23,0.08,-0.02,-0.02,0.67,11656,1559243544.175
-4.14,-9.23,0.08,-0.02,-0.02,0.67,11657,1559243544.176
-4.14,-9.23,0.08,-0.02,-0.02,0.67,11659,1559243544.178
-4.14,-9.23,0.08,-0.02,-0.02,0.67,11666,1559243544.185
-4.14,-9.23,0.08,-0.02,-0.02,0.67,11668,1559243544.187
-4.14,-9.23,0.08,-0.02,-0.02,0.67,11674,1559243544.193
-4.25,-9.06,0.02,-0.02,-0.01,0.72,11681,1559243544.2
-4.25,-9.06,0.02,-0.02,-0.01,0.72,11684,1559243544.203
-4.25,-9.06,0.02,-0.01,-0.01,0.76,11690,1559243544.209
-4.25,-9.06,0.02,-0.01,-0.01,0.76,11695,1559243544.214
-4.25,-9.06,0.02,-0.01,-0.01,0.76,11700,1559243544.219
-4.51,-8.99,0.13,-0.01,-0.01,0.76,11704,1559243544.223
-4.51,-8.99,0.13,-0.01,0.0,0.81,11709,1559243544.228
-4.51,-8.99,0.13,-0.01,0.0,0.81,11718,1559243544.237
-4.51,-8.99,0.13,-0.01,0.0,0.81,11719,1559243544.238
-4.67,-9.0,0.17,-0.01,0.0,0.81,11724,1559243544.243
-4.67,-9.0,0.17,-0.01,0.0,0.85,11729,1559243544.248
-4.67,-9.0,0.17,-0.01,0.0,0.85,11735,1559243544.254
-4.67,-9.0,0.17,-0.01,0.0,0.85,11739,1559243544.258
-4.86,-8.91,0.12,-0.01,0.0,0.9,11746,1559243544.265
-4.86,-8.91,0.12,-0.01,0.0,0.9,11749,1559243544.268
-4.86,-8.91,0.12,-0.01,0.0,0.9,11754,1559243544.273
-4.86,-8.91,0.12,-0.01,0.0,0.9,11760,1559243544.279
-4.99,-8.75,0.08,-0.01,0.0,0.94,11765,1559243544.284
-4.99,-8.75,0.08,-0.01,0.0,0.94,11770,1559243544.289
-4.99,-8.75,0.08,-0.01,0.0,0.94,11774,1559243544.293
-4.99,-8.75,0.08,-0.01,0.0,0.96,11780,1559243544.299
-4.99,-8.75,0.08,-0.01,0.0,0.96,11784,1559243544.303
-4.99,-8.75,0.08,-0.01,0.0,0.96,11790,1559243544.309
-4.99,-8.75,0.08,-0.01,0.0,0.96,11795,1559243544.314
-5.19,-8.71,0.03,0.0,0.0,0.99,11799,1559243544.318
-5.19,-8.71,0.03,0.0,0.0,0.99,11805,1559243544.324
-5.19,-8.71,0.03,0.0,0.0,1.05,11812,1559243544.331
-5.19,-8.71,0.03,0.0,0.0,1.05,11816,1559243544.335
-5.19,-8.71,0.03,0.0,0.0,1.05,11820,1559243544.339
-5.56,-8.53,0.0,0.0,0.0,1.05,11824,1559243544.343
-5.56,-8.53,0.0,0.0,0.0,1.08,11830,1559243544.349
-5.56,-8.53,0.0,0.0,0.0,1.08,11835,1559243544.354
-5.56,-8.53,0.0,0.0,0.0,1.08,11839,1559243544.358
-5.73,-8.31,0.17,0.0,0.0,1.08,11844,1559243544.363
-5.73,-8.31,0.17,0.0,0.0,1.12,11849,1559243544.368
-5.73,-8.31,0.17,0.0,0.0,1.12,11858,1559243544.377
-5.73,-8.31,0.17,0.0,0.0,1.12,11859,1559243544.378
-5.73,-8.31,0.17,0.0,0.0,1.12,11865,1559243544.384
-5.73,-8.31,0.17,0.0,0.0,1.12,11869,1559243544.388
-5.9,-8.2,0.15,0.0,0.0,1.12,11874,1559243544.393
-5.9,-8.2,0.15,0.0,0.0,1.16,11880,1559243544.399
-5.9,-8.2,0.15,0.0,0.0,1.16,11884,1559243544.403
-6.37,-7.76,-0.13,-0.01,0.0,1.2,11889,1559243544.408
-6.37,-7.76,-0.13,-0.01,0.0,1.2,11894,1559243544.413
-6.37,-7.76,-0.13,-0.01,0.0,1.2,11901,1559243544.42
-6.37,-7.85,-0.1,-0.01,0.0,1.2,11904,1559243544.423
-6.48,-7.85,-0.1,0.0,0.0,1.25,11910,1559243544.429
-6.48,-7.85,-0.1,0.0,0.0,1.25,11920,1559243544.439
-6.48,-7.85,-0.1,0.0,0.0,1.25,11921,1559243544.44
-6.48,-7.85,-0.1,0.0,0.0,1.25,11924,1559243544.443
-6.48,-7.85,-0.1,0.0,0.0,1.25,11932,1559243544.451
-6.48,-7.85,-0.1,0.0,0.0,1.25,11934,1559243544.453
-6.48,-7.85,-0.1,0.0,0.0,1.25,11939,1559243544.458
