ACCELEROMETER X (m/s²),ACCELEROMETER Y (m/s²),ACCELEROMETER Z (m/s²),LINEAR ACCELERATION X (m/s²),LINEAR ACCELERATION Y (m/s²),LINEAR ACCELERATION Z (m/s²),GYROSCOPE X (rad/s),GYROSCOPE Y (rad/s),GYROSCOPE Z (rad/s),Time since start in ms ,YYYY-MO-DD HH-MI-SS_SSS
0.52,-0.41,10.13,0.2,0.04,0.16,0.0,0.0,0.02,7,2019-04-29 17:27:25:938
0.52,-0.41,10.13,0.2,0.04,0.16,0.0,0.0,0.02,12,2019-04-29 17:27:25:943
0.52,-0.41,10.13,0.2,0.04,0.16,0.0,0.0,0.02,18,2019-04-29 17:27:25:949
0.52,-0.41,10.13,0.2,0.04,0.16,0.0,0.0,0.02,23,2019-04-29 17:27:25:954
0.52,-0.41,10.13,0.2,0.04,0.16,0.0,0.0,0.02,27,2019-04-29 17:27:25:958
0.4,-0.32,9.97,0.08,0.11,0.0,0.0,0.0,0.02,32,2019-04-29 17:27:25:963
0.4,-0.32,9.97,0.08,0.11,0.0,0.0,0.0,0.02,37,2019-04-29 17:27:25:968
0.14,-0.39,10.04,-0.16,0.02,0.08,0.0,0.0,0.02,43,2019-04-29 17:27:25:974
0.14,-0.39,10.04,-0.16,0.02,0.08,0.0,0.0,0.02,50,2019-04-29 17:27:25:981
0.14,-0.39,10.04,-0.16,0.02,0.08,0.0,0.0,0.02,52,2019-04-29 17:27:25:983
0.19,-0.37,10.03,-0.16,0.02,0.08,0.0,0.0,0.01,58,2019-04-29 17:27:25:989
0.19,-0.37,10.03,-0.1,0.02,0.07,0.0,0.0,0.01,64,2019-04-29 17:27:25:995
0.19,-0.37,10.03,-0.1,0.02,0.07,0.0,0.0,0.01,68,2019-04-29 17:27:25:999
0.19,-0.37,10.03,-0.1,0.02,0.07,0.0,0.0,0.01,73,2019-04-29 17:27:26:004
0.19,-0.37,10.03,-0.1,0.02,0.07,0.0,0.0,0.01,77,2019-04-29 17:27:26:008
0.28,-0.39,10.07,-0.01,0.0,0.12,0.0,0.0,0.02,83,2019-04-29 17:27:26:014
0.28,-0.39,10.07,-0.01,0.0,0.12,0.0,0.0,0.02,88,2019-04-29 17:27:26:019
0.28,-0.39,10.07,-0.01,0.0,0.12,0.0,0.0,0.02,93,2019-04-29 17:27:26:024
0.28,-0.39,10.07,-0.01,0.0,0.12,0.0,0.0,0.02,98,2019-04-29 17:27:26:029
0.16,-0.27,9.83,-0.14,0.09,-0.12,0.01,0.0,0.01,103,2019-04-29 17:27:26:034
0.16,-0.27,9.83,-0.14,0.09,-0.12,0.01,0.0,0.01,107,2019-04-29 17:27:26:038
0.16,-0.27,9.83,-0.14,0.09,-0.12,0.01,0.0,0.01,113,2019-04-29 17:27:26:044
0.16,-0.27,9.83,-0.14,0.09,-0.12,0.01,0.0,0.01,117,2019-04-29 17:27:26:048
0.36,-0.29,9.85,0.04,0.06,-0.08,0.0,0.0,0.01,122,2019-04-29 17:27:26:053
0.36,-0.29,9.85,0.04,0.06,-0.08,0.0,0.0,0.01,127,2019-04-29 17:27:26:058
0.36,-0.29,9.85,0.04,0.06,-0.08,0.0,0.0,0.01,132,2019-04-29 17:27:26:063
0.36,-0.29,9.85,0.04,0.06,-0.08,0.0,0.0,0.01,138,2019-04-29 17:27:26:069
0.36,-0.29,9.85,0.04,0.06,-0.08,0.0,0.0,0.01,143,2019-04-29 17:27:26:074
0.36,-0.29,9.85,0.04,0.06,-0.08,0.0,0.0,0.01,147,2019-04-29 17:27:26:078
0.34,-0.44,10.03,0.0,-0.09,0.08,0.0,0.0,0.01,152,2019-04-29 17:27:26:083
0.34,-0.44,10.03,0.0,-0.09,0.08,0.0,0.0,0.01,157,2019-04-29 17:27:26:088
0.34,-0.44,10.03,0.0,-0.09,0.08,0.0,0.0,0.01,162,2019-04-29 17:27:26:093
0.37,-0.38,9.96,0.0,-0.09,0.08,0.0,0.0,0.0,168,2019-04-29 17:27:26:099
0.37,-0.38,9.96,0.02,-0.03,0.01,0.0,0.0,0.0,172,2019-04-29 17:27:26:103
0.37,-0.38,9.96,0.02,-0.03,0.01,0.0,0.0,0.0,177,2019-04-29 17:27:26:108
0.37,-0.28,9.83,0.02,0.06,-0.1,0.0,0.0,0.0,183,2019-04-29 17:27:26:114
0.37,-0.28,9.83,0.02,0.06,-0.1,0.0,0.0,0.0,187,2019-04-29 17:27:26:118
0.37,-0.28,9.83,0.02,0.06,-0.1,0.0,0.0,0.0,192,2019-04-29 17:27:26:123
0.37,-0.28,9.83,0.02,0.06,-0.1,0.0,0.0,0.0,197,2019-04-29 17:27:26:128
0.35,-0.47,9.88,0.02,-0.12,-0.05,0.0,0.0,0.0,203,2019-04-29 17:27:26:134
0.35,-0.47,9.88,0.02,-0.12,-0.05,0.0,0.0,0.0,208,2019-04-29 17:27:26:139
0.35,-0.47,9.88,0.02,-0.12,-0.05,0.0,0.0,0.0,213,2019-04-29 17:27:26:144
0.29,-0.37,10.02,0.02,-0.12,-0.05,0.0,0.0,-0.01,217,2019-04-29 17:27:26:148
0.29,-0.37,10.02,-0.03,-0.01,0.08,0.0,0.0,-0.01,222,2019-04-29 17:27:26:153
0.29,-0.37,10.02,-0.03,-0.01,0.08,0.0,0.0,-0.01,228,2019-04-29 17:27:26:159
0.29,-0.37,10.02,-0.03,-0.01,0.08,0.0,0.0,-0.01,232,2019-04-29 17:27:26:163
0.29,-0.3,9.88,-0.03,-0.01,0.08,0.0,0.0,-0.01,238,2019-04-29 17:27:26:169
0.34,-0.3,9.88,0.01,0.04,-0.06,0.0,0.0,-0.01,242,2019-04-29 17:27:26:173
0.34,-0.3,9.88,0.01,0.04,-0.06,0.0,0.0,-0.01,247,2019-04-29 17:27:26:178
0.34,-0.3,9.88,0.01,0.04,-0.06,0.0,0.0,-0.01,253,2019-04-29 17:27:26:184
0.34,-0.3,9.88,0.01,0.04,-0.06,0.0,0.0,-0.01,257,2019-04-29 17:27:26:188
0.34,-0.3,9.88,0.01,0.04,-0.06,0.0,0.0,-0.01,262,2019-04-29 17:27:26:193
0.2,-0.31,9.89,0.01,0.04,-0.06,0.0,0.0,-0.01,268,2019-04-29 17:27:26:199
0.2,-0.31,9.89,-0.11,0.03,-0.04,0.0,0.0,-0.01,273,2019-04-29 17:27:26:204
0.2,-0.31,9.89,-0.11,0.03,-0.04,0.0,0.0,-0.01,277,2019-04-29 17:27:26:208
0.2,-0.31,9.89,-0.03,0.03,-0.09,0.0,0.0,0.0,282,2019-04-29 17:27:26:213
0.2,-0.31,9.89,-0.03,0.03,-0.09,0.0,0.0,0.0,288,2019-04-29 17:27:26:219
0.2,-0.31,9.89,-0.03,0.03,-0.09,0.0,0.0,0.0,293,2019-04-29 17:27:26:224
0.2,-0.31,9.89,-0.03,0.03,-0.09,0.0,0.0,0.0,298,2019-04-29 17:27:26:229
0.2,-0.31,9.89,-0.03,0.03,-0.09,0.0,0.0,0.0,303,2019-04-29 17:27:26:234
0.2,-0.31,9.89,-0.03,0.03,-0.09,0.0,0.0,0.0,307,2019-04-29 17:27:26:238
0.36,-0.39,9.99,0.02,-0.03,0.04,0.0,0.0,0.0,313,2019-04-29 17:27:26:244
0.36,-0.39,9.99,0.02,-0.03,0.04,0.0,0.0,0.0,317,2019-04-29 17:27:26:248
0.36,-0.39,9.99,0.02,-0.03,0.04,0.0,0.0,0.0,322,2019-04-29 17:27:26:253
0.36,-0.39,9.99,0.02,-0.03,0.04,0.0,0.0,0.0,327,2019-04-29 17:27:26:258
0.44,-0.32,9.87,0.1,0.03,-0.06,0.0,0.0,0.0,332,2019-04-29 17:27:26:263
0.44,-0.32,9.87,0.1,0.03,-0.06,0.0,0.0,0.0,338,2019-04-29 17:27:26:269
0.44,-0.32,9.87,0.05,0.07,-0.04,0.0,0.0,0.0,342,2019-04-29 17:27:26:273
0.44,-0.32,9.87,0.05,0.07,-0.04,0.0,0.0,0.0,347,2019-04-29 17:27:26:278
0.44,-0.32,9.87,0.05,0.07,-0.04,0.0,0.0,0.0,353,2019-04-29 17:27:26:284
0.44,-0.32,9.87,0.05,0.07,-0.04,0.0,0.0,0.0,357,2019-04-29 17:27:26:288
0.33,-0.44,9.98,0.0,-0.07,0.03,0.0,0.0,0.0,362,2019-04-29 17:27:26:293
0.33,-0.44,9.98,0.0,-0.07,0.03,0.0,0.0,0.0,367,2019-04-29 17:27:26:298
0.33,-0.44,9.98,0.0,-0.07,0.03,0.0,0.0,0.0,373,2019-04-29 17:27:26:304
0.33,-0.44,9.98,0.0,-0.07,0.03,0.0,0.0,0.0,377,2019-04-29 17:27:26:308
0.21,-0.41,9.93,-0.1,-0.03,0.0,0.0,0.0,0.0,383,2019-04-29 17:27:26:314
0.21,-0.41,9.93,-0.1,-0.03,0.0,0.0,0.0,0.0,387,2019-04-29 17:27:26:318
0.21,-0.41,9.93,-0.1,-0.03,0.0,0.0,0.0,0.0,392,2019-04-29 17:27:26:323
0.21,-0.41,9.93,-0.1,-0.03,0.0,0.0,0.0,0.0,397,2019-04-29 17:27:26:328
0.22,-0.38,9.9,-0.07,-0.01,-0.04,0.0,0.0,0.0,402,2019-04-29 17:27:26:333
0.22,-0.38,9.9,-0.07,-0.01,-0.04,0.0,0.0,0.0,407,2019-04-29 17:27:26:338
0.22,-0.38,9.9,-0.07,-0.01,-0.04,0.0,0.0,0.0,412,2019-04-29 17:27:26:343
0.22,-0.38,9.9,-0.07,-0.01,-0.04,0.0,0.0,0.0,417,2019-04-29 17:27:26:348
0.27,-0.37,9.97,-0.02,0.0,0.02,0.0,0.0,0.0,422,2019-04-29 17:27:26:353
0.27,-0.37,9.97,-0.02,0.0,0.02,0.0,0.0,0.0,427,2019-04-29 17:27:26:358
0.27,-0.37,9.97,-0.02,0.0,0.02,0.0,0.0,0.0,432,2019-04-29 17:27:26:363
0.31,-0.42,9.98,0.0,-0.04,0.03,0.0,0.0,0.0,439,2019-04-29 17:27:26:370
0.31,-0.42,9.98,0.0,-0.04,0.03,0.0,0.0,0.0,442,2019-04-29 17:27:26:373
0.31,-0.42,9.98,0.0,-0.04,0.03,0.0,0.0,0.0,448,2019-04-29 17:27:26:379
0.31,-0.42,9.98,0.0,-0.04,0.03,0.0,0.0,0.0,453,2019-04-29 17:27:26:384
0.31,-0.42,9.98,0.0,-0.04,0.03,0.0,0.0,0.0,458,2019-04-29 17:27:26:389
0.31,-0.42,9.98,0.0,-0.04,0.03,0.0,0.0,0.0,463,2019-04-29 17:27:26:394
0.31,-0.42,9.98,0.0,-0.04,0.03,0.0,0.0,0.0,468,2019-04-29 17:27:26:399
0.31,-0.37,9.94,0.0,0.0,0.0,0.0,0.0,0.0,473,2019-04-29 17:27:26:404
0.31,-0.37,9.94,0.0,0.0,0.0,0.0,0.0,0.0,478,2019-04-29 17:27:26:409
0.37,-0.41,9.89,0.0,0.0,0.0,0.0,0.0,0.0,482,2019-04-29 17:27:26:413
0.37,-0.41,9.89,0.0,0.0,0.0,0.0,0.0,0.0,488,2019-04-29 17:27:26:419
0.37,-0.41,9.89,0.0,0.0,0.0,0.0,0.0,0.0,492,2019-04-29 17:27:26:423
0.37,-0.41,9.89,0.0,0.0,0.0,0.0,0.0,0.0,499,2019-04-29 17:27:26:430
0.37,-0.41,9.89,0.0,0.0,0.0,0.0,0.0,0.0,503,2019-04-29 17:27:26:434
0.4,-0.42,9.98,0.06,-0.03,0.03,0.0,0.0,0.0,518,2019-04-29 17:27:26:449
0.4,-0.42,9.98,0.06,-0.03,0.03,0.0,0.0,0.0,520,2019-04-29 17:27:26:451
0.4,-0.42,9.98,0.06,-0.03,0.03,0.0,0.0,0.0,521,2019-04-29 17:27:26:452
0.4,-0.42,9.98,0.06,-0.03,0.03,0.0,0.0,0.0,523,2019-04-29 17:27:26:454
0.4,-0.42,9.98,0.06,-0.03,0.03,0.0,0.0,0.0,527,2019-04-29 17:27:26:458
0.38,-0.39,9.94,0.04,0.0,0.0,0.0,0.0,0.0,532,2019-04-29 17:27:26:463
0.38,-0.39,9.94,0.04,0.0,0.0,0.0,0.0,0.0,537,2019-04-29 17:27:26:468
0.38,-0.39,9.94,0.04,0.0,0.0,0.0,0.0,0.0,543,2019-04-29 17:27:26:474
0.38,-0.39,9.94,0.04,0.0,0.0,0.0,0.0,0.0,548,2019-04-29 17:27:26:479
0.38,-0.39,9.94,0.04,0.0,0.0,0.0,0.0,0.0,552,2019-04-29 17:27:26:483
0.38,-0.39,9.94,0.04,0.0,0.0,0.0,0.0,0.0,557,2019-04-29 17:27:26:488
0.38,-0.39,9.94,0.04,0.0,0.0,0.0,0.0,0.0,563,2019-04-29 17:27:26:494
0.28,-0.44,9.92,-0.03,-0.04,-0.01,0.0,0.0,0.0,568,2019-04-29 17:27:26:499
0.28,-0.44,9.92,-0.03,-0.04,-0.01,0.0,0.0,0.0,573,2019-04-29 17:27:26:504
0.28,-0.44,9.92,-0.03,-0.04,-0.01,0.0,0.0,0.0,577,2019-04-29 17:27:26:508
0.33,-0.37,9.93,0.01,0.02,0.0,0.0,0.0,0.0,583,2019-04-29 17:27:26:514
0.33,-0.37,9.93,0.01,0.02,0.0,0.0,0.0,0.0,587,2019-04-29 17:27:26:518
0.33,-0.37,9.93,0.01,0.02,0.0,0.0,0.0,0.0,592,2019-04-29 17:27:26:523
0.33,-0.37,9.93,0.01,0.02,0.0,0.0,0.0,0.0,597,2019-04-29 17:27:26:528
0.29,-0.39,9.91,-0.03,0.01,-0.03,0.0,0.0,0.0,602,2019-04-29 17:27:26:533
0.29,-0.39,9.91,-0.03,0.01,-0.03,0.0,0.0,0.0,608,2019-04-29 17:27:26:539
0.29,-0.39,9.91,-0.03,0.01,-0.03,0.0,0.0,0.0,613,2019-04-29 17:27:26:544
0.29,-0.39,9.91,-0.03,0.01,-0.03,0.0,0.0,0.0,618,2019-04-29 17:27:26:549
0.29,-0.41,9.93,-0.02,0.0,0.0,0.0,0.0,0.0,622,2019-04-29 17:27:26:553
0.29,-0.41,9.93,-0.02,0.0,0.0,0.0,0.0,0.0,628,2019-04-29 17:27:26:559
0.29,-0.41,9.93,-0.02,0.0,0.0,0.0,0.0,0.0,633,2019-04-29 17:27:26:564
0.29,-0.41,9.93,-0.02,0.0,0.0,0.0,0.0,0.0,637,2019-04-29 17:27:26:568
0.34,-0.46,9.99,0.01,-0.05,0.04,0.0,0.0,0.0,642,2019-04-29 17:27:26:573
0.34,-0.46,9.99,0.01,-0.05,0.04,0.0,0.0,0.0,648,2019-04-29 17:27:26:579
0.34,-0.46,9.99,0.01,-0.05,0.04,0.0,0.0,0.0,653,2019-04-29 17:27:26:584
0.34,-0.46,9.99,0.01,-0.05,0.04,0.0,0.0,0.0,657,2019-04-29 17:27:26:588
0.34,-0.42,9.91,0.0,-0.01,-0.03,0.0,0.0,0.0,662,2019-04-29 17:27:26:593
0.34,-0.42,9.91,0.0,-0.01,-0.03,0.0,0.0,0.0,667,2019-04-29 17:27:26:598
0.34,-0.42,9.91,0.0,-0.01,-0.03,0.0,0.0,0.0,673,2019-04-29 17:27:26:604
0.34,-0.42,9.91,0.0,-0.01,-0.03,0.0,0.0,0.0,677,2019-04-29 17:27:26:608
0.36,-0.38,9.9,0.02,0.01,-0.03,0.0,0.0,0.0,682,2019-04-29 17:27:26:613
0.36,-0.38,9.9,0.02,0.01,-0.03,0.0,0.0,0.0,687,2019-04-29 17:27:26:618
0.36,-0.38,9.9,0.02,0.01,-0.03,0.0,0.0,0.0,693,2019-04-29 17:27:26:624
0.36,-0.38,9.9,0.02,0.01,-0.03,0.0,0.0,0.0,698,2019-04-29 17:27:26:629
0.35,-0.42,9.95,0.02,-0.02,0.0,0.0,0.0,0.0,702,2019-04-29 17:27:26:633
0.35,-0.42,9.95,0.02,-0.02,0.0,0.0,0.0,0.0,707,2019-04-29 17:27:26:638
0.35,-0.42,9.95,0.02,-0.02,0.0,0.0,0.0,0.0,712,2019-04-29 17:27:26:643
0.35,-0.42,9.95,0.02,-0.02,0.0,0.0,0.0,0.0,718,2019-04-29 17:27:26:649
0.35,-0.42,9.95,0.02,-0.02,0.0,0.0,0.0,0.0,723,2019-04-29 17:27:26:654
0.31,-0.4,9.97,0.0,0.0,0.02,0.0,0.0,0.0,728,2019-04-29 17:27:26:659
0.31,-0.4,9.97,0.0,0.0,0.02,0.0,0.0,0.0,732,2019-04-29 17:27:26:663
0.31,-0.4,9.97,0.0,0.0,0.02,0.0,0.0,0.0,738,2019-04-29 17:27:26:669
0.36,-0.42,9.88,0.04,0.0,-0.05,0.0,0.0,0.0,742,2019-04-29 17:27:26:673
0.36,-0.42,9.88,0.04,0.0,-0.05,0.0,0.0,0.0,748,2019-04-29 17:27:26:679
0.36,-0.42,9.88,0.04,0.0,-0.05,0.0,0.0,0.0,753,2019-04-29 17:27:26:684
0.36,-0.42,9.88,0.04,0.0,-0.05,0.0,0.0,0.0,757,2019-04-29 17:27:26:688
0.36,-0.42,9.88,0.04,0.0,-0.05,0.0,0.0,0.0,763,2019-04-29 17:27:26:694
0.35,-0.39,9.93,0.04,0.0,-0.05,0.0,0.0,0.0,768,2019-04-29 17:27:26:699
0.35,-0.39,9.93,0.02,0.02,0.0,0.0,0.0,0.0,772,2019-04-29 17:27:26:703
0.35,-0.39,9.93,0.02,0.02,0.0,0.0,0.0,0.0,777,2019-04-29 17:27:26:708
0.34,-0.42,9.89,0.0,-0.01,-0.04,0.0,0.0,0.0,782,2019-04-29 17:27:26:713
0.34,-0.42,9.89,0.0,-0.01,-0.04,0.0,0.0,0.0,788,2019-04-29 17:27:26:719
0.34,-0.42,9.89,0.0,-0.01,-0.04,0.0,0.0,0.0,793,2019-04-29 17:27:26:724
0.34,-0.42,9.89,0.0,-0.01,-0.04,0.0,0.0,0.0,798,2019-04-29 17:27:26:729
0.33,-0.44,9.95,0.0,-0.03,0.0,0.0,0.0,0.0,802,2019-04-29 17:27:26:733
0.33,-0.44,9.95,0.0,-0.03,0.0,0.0,0.0,0.0,808,2019-04-29 17:27:26:739
0.33,-0.44,9.95,0.0,-0.03,0.0,0.0,0.0,0.0,812,2019-04-29 17:27:26:743
0.33,-0.44,9.95,0.0,-0.03,0.0,0.0,0.0,0.0,817,2019-04-29 17:27:26:748
0.32,-0.44,9.94,-0.02,-0.02,0.0,0.0,0.0,0.0,823,2019-04-29 17:27:26:754
0.32,-0.44,9.94,-0.02,-0.02,0.0,0.0,0.0,0.0,827,2019-04-29 17:27:26:758
0.32,-0.44,9.94,-0.02,-0.02,0.0,0.0,0.0,0.0,833,2019-04-29 17:27:26:764
0.32,-0.44,9.94,-0.02,-0.02,0.0,0.0,0.0,0.0,837,2019-04-29 17:27:26:768
0.31,-0.42,9.95,-0.02,0.0,0.01,0.0,0.0,0.0,843,2019-04-29 17:27:26:774
0.31,-0.42,9.95,-0.02,0.0,0.01,0.0,0.0,0.0,847,2019-04-29 17:27:26:778
0.31,-0.42,9.95,-0.02,0.0,0.01,0.0,0.0,0.0,853,2019-04-29 17:27:26:784
0.31,-0.42,9.95,-0.02,0.0,0.01,0.0,0.0,0.0,858,2019-04-29 17:27:26:789
0.31,-0.42,9.95,-0.02,0.0,0.01,0.0,0.0,0.0,863,2019-04-29 17:27:26:794
0.31,-0.45,9.94,-0.02,0.0,0.01,0.0,0.0,0.0,867,2019-04-29 17:27:26:798
0.28,-0.45,9.94,-0.04,-0.02,0.0,0.0,0.0,0.0,872,2019-04-29 17:27:26:803
0.28,-0.45,9.94,-0.04,-0.02,0.0,0.0,0.0,0.0,877,2019-04-29 17:27:26:808
0.28,-0.45,9.94,-0.04,-0.02,0.0,0.0,0.0,0.0,883,2019-04-29 17:27:26:814
0.3,-0.46,9.98,-0.02,-0.03,0.04,0.0,0.0,0.0,888,2019-04-29 17:27:26:819
0.3,-0.46,9.98,-0.02,-0.03,0.04,0.0,0.0,0.0,892,2019-04-29 17:27:26:823
0.3,-0.46,9.98,-0.02,-0.03,0.04,0.0,0.0,0.0,897,2019-04-29 17:27:26:828
0.31,-0.43,9.94,-0.01,0.0,0.0,0.0,0.0,0.0,902,2019-04-29 17:27:26:833
0.31,-0.43,9.94,-0.01,0.0,0.0,0.0,0.0,0.0,907,2019-04-29 17:27:26:838
0.31,-0.43,9.94,-0.01,0.0,0.0,0.0,0.0,0.0,912,2019-04-29 17:27:26:843
0.31,-0.43,9.94,-0.01,0.0,0.0,0.0,0.0,0.0,917,2019-04-29 17:27:26:848
0.31,-0.44,9.92,-0.01,0.0,-0.01,0.0,0.0,0.0,923,2019-04-29 17:27:26:854
0.31,-0.44,9.92,-0.01,0.0,-0.01,0.0,0.0,0.0,927,2019-04-29 17:27:26:858
0.31,-0.44,9.92,-0.01,0.0,-0.01,0.0,0.0,0.0,932,2019-04-29 17:27:26:863
0.31,-0.44,9.92,-0.01,0.0,-0.01,0.0,0.0,0.0,937,2019-04-29 17:27:26:868
0.34,-0.46,9.97,0.01,-0.02,0.02,0.0,0.0,0.0,943,2019-04-29 17:27:26:874
0.34,-0.46,9.97,0.01,-0.02,0.02,0.0,0.0,0.0,949,2019-04-29 17:27:26:880
0.34,-0.46,9.97,0.01,-0.02,0.02,0.0,0.0,0.0,952,2019-04-29 17:27:26:883
0.3,-0.43,10.0,0.01,-0.02,0.02,0.0,0.0,0.0,958,2019-04-29 17:27:26:889
0.3,-0.43,10.0,-0.02,0.0,0.04,0.0,0.0,0.0,963,2019-04-29 17:27:26:894
0.3,-0.43,10.0,-0.02,0.0,0.04,0.0,0.0,0.0,968,2019-04-29 17:27:26:899
0.3,-0.43,10.0,-0.02,0.0,0.04,0.0,0.0,0.0,972,2019-04-29 17:27:26:903
0.3,-0.43,10.0,-0.02,0.0,0.04,0.0,0.0,0.0,977,2019-04-29 17:27:26:908
0.31,-0.45,9.91,-0.01,-0.01,-0.04,0.0,0.0,0.0,982,2019-04-29 17:27:26:913
0.31,-0.45,9.91,-0.01,-0.01,-0.04,0.0,0.0,0.0,988,2019-04-29 17:27:26:919
0.31,-0.45,9.91,-0.01,-0.01,-0.04,0.0,0.0,0.0,992,2019-04-29 17:27:26:923
0.31,-0.45,9.91,-0.01,-0.01,-0.04,0.0,0.0,0.0,998,2019-04-29 17:27:26:929
0.34,-0.43,9.9,0.01,0.0,-0.04,0.0,0.0,0.0,1003,2019-04-29 17:27:26:934
0.34,-0.43,9.9,0.01,0.0,-0.04,0.0,0.0,0.0,1009,2019-04-29 17:27:26:940
0.34,-0.43,9.9,0.01,0.0,-0.04,0.0,0.0,0.0,1012,2019-04-29 17:27:26:943
0.34,-0.43,9.9,0.01,0.0,-0.04,0.0,0.0,0.0,1017,2019-04-29 17:27:26:948
0.29,-0.4,9.96,-0.02,0.03,0.0,0.0,0.0,0.0,1023,2019-04-29 17:27:26:954
0.29,-0.4,9.96,-0.02,0.03,0.0,0.0,0.0,0.0,1027,2019-04-29 17:27:26:958
0.29,-0.4,9.96,-0.02,0.03,0.0,0.0,0.0,0.0,1032,2019-04-29 17:27:26:963
0.29,-0.4,9.96,-0.02,0.03,0.0,0.0,0.0,0.0,1037,2019-04-29 17:27:26:968
0.33,-0.39,9.92,0.0,0.04,-0.02,0.0,0.0,0.0,1042,2019-04-29 17:27:26:973
0.33,-0.39,9.92,0.0,0.04,-0.02,0.0,0.0,0.0,1047,2019-04-29 17:27:26:978
0.33,-0.39,9.92,0.0,0.04,-0.02,0.0,0.0,0.0,1053,2019-04-29 17:27:26:984
0.33,-0.39,9.92,0.0,0.04,-0.02,0.0,0.0,0.0,1057,2019-04-29 17:27:26:988
0.34,-0.44,9.96,0.01,-0.01,0.0,0.0,0.0,0.0,1063,2019-04-29 17:27:26:994
0.34,-0.44,9.96,0.01,-0.01,0.0,0.0,0.0,0.0,1067,2019-04-29 17:27:26:998
0.34,-0.44,9.96,0.01,-0.01,0.0,0.0,0.0,0.0,1072,2019-04-29 17:27:27:003
0.34,-0.44,9.96,0.01,-0.01,0.0,0.0,0.0,0.0,1077,2019-04-29 17:27:27:008
0.35,-0.41,9.94,0.01,0.01,0.0,0.0,0.0,0.0,1083,2019-04-29 17:27:27:014
0.35,-0.41,9.94,0.01,0.01,0.0,0.0,0.0,0.0,1088,2019-04-29 17:27:27:019
0.35,-0.41,9.94,0.01,0.01,0.0,0.0,0.0,0.0,1093,2019-04-29 17:27:27:024
0.35,-0.41,9.94,0.01,0.01,0.0,0.0,0.0,0.0,1098,2019-04-29 17:27:27:029
0.35,-0.42,9.94,0.02,0.0,0.0,0.0,0.0,0.0,1103,2019-04-29 17:27:27:034
0.35,-0.42,9.94,0.02,0.0,0.0,0.0,0.0,0.0,1108,2019-04-29 17:27:27:039
0.35,-0.42,9.94,0.02,0.0,0.0,0.0,0.0,0.0,1113,2019-04-29 17:27:27:044
0.35,-0.42,9.94,0.02,0.0,0.0,0.0,0.0,0.0,1117,2019-04-29 17:27:27:048
0.35,-0.42,9.94,0.02,0.0,0.0,0.0,0.0,0.0,1122,2019-04-29 17:27:27:053
0.35,-0.42,9.94,0.02,0.0,0.0,0.0,0.0,0.0,1127,2019-04-29 17:27:27:058
0.3,-0.42,9.92,-0.02,0.0,-0.02,0.0,0.0,0.0,1132,2019-04-29 17:27:27:063
0.3,-0.42,9.92,-0.02,0.0,-0.02,0.0,0.0,0.0,1138,2019-04-29 17:27:27:069
0.3,-0.42,9.92,-0.02,0.0,-0.02,0.0,0.0,0.0,1142,2019-04-29 17:27:27:073
0.3,-0.42,9.92,-0.02,0.0,-0.02,0.0,0.0,0.0,1147,2019-04-29 17:27:27:078
0.3,-0.42,9.92,-0.02,0.0,-0.02,0.0,0.0,0.0,1154,2019-04-29 17:27:27:085
0.3,-0.42,9.92,-0.02,0.0,-0.02,0.0,0.0,0.0,1157,2019-04-29 17:27:27:088
0.3,-0.42,9.92,-0.02,0.0,-0.02,0.0,0.0,0.0,1163,2019-04-29 17:27:27:094
0.32,-0.43,9.9,-0.02,0.0,-0.02,0.0,0.0,0.0,1168,2019-04-29 17:27:27:099
0.32,-0.43,9.9,0.0,0.0,-0.03,0.0,0.0,0.0,1172,2019-04-29 17:27:27:103
0.32,-0.43,9.9,0.0,0.0,-0.03,0.0,0.0,0.0,1177,2019-04-29 17:27:27:108
0.32,-0.43,9.9,0.0,0.0,-0.03,0.0,0.0,0.0,1182,2019-04-29 17:27:27:113
0.32,-0.43,9.9,0.0,0.01,0.02,0.0,0.0,0.0,1187,2019-04-29 17:27:27:118
0.32,-0.43,9.9,0.0,0.01,0.02,0.0,0.0,0.0,1193,2019-04-29 17:27:27:124
0.32,-0.43,9.9,0.0,0.01,0.02,0.0,0.0,0.0,1198,2019-04-29 17:27:27:129
0.32,-0.4,9.93,-0.01,0.01,0.0,0.0,0.0,0.0,1202,2019-04-29 17:27:27:133
0.32,-0.4,9.93,-0.01,0.01,0.0,0.0,0.0,0.0,1207,2019-04-29 17:27:27:138
0.32,-0.4,9.93,-0.01,0.01,0.0,0.0,0.0,0.0,1213,2019-04-29 17:27:27:144
0.32,-0.4,9.93,-0.01,0.01,0.0,0.0,0.0,0.0,1218,2019-04-29 17:27:27:149
0.35,-0.44,10.01,0.01,-0.02,0.06,0.0,0.0,0.0,1222,2019-04-29 17:27:27:153
0.35,-0.44,10.01,0.01,-0.02,0.06,0.0,0.0,0.0,1227,2019-04-29 17:27:27:158
0.35,-0.44,10.01,0.01,-0.02,0.06,0.0,0.0,0.0,1233,2019-04-29 17:27:27:164
0.35,-0.44,10.01,0.01,-0.02,0.06,0.0,0.0,0.0,1238,2019-04-29 17:27:27:169
0.29,-0.44,9.95,-0.04,-0.01,0.0,0.0,0.0,0.0,1242,2019-04-29 17:27:27:173
0.29,-0.44,9.95,-0.04,-0.01,0.0,0.0,0.0,0.0,1248,2019-04-29 17:27:27:179
0.29,-0.44,9.95,-0.04,-0.01,0.0,0.0,0.0,0.0,1252,2019-04-29 17:27:27:183
0.31,-0.36,9.89,-0.04,-0.01,0.0,0.0,0.0,0.0,1258,2019-04-29 17:27:27:189
0.31,-0.36,9.89,-0.02,0.06,-0.04,0.0,0.0,0.0,1262,2019-04-29 17:27:27:193
0.31,-0.36,9.89,-0.02,0.06,-0.04,0.0,0.0,0.0,1267,2019-04-29 17:27:27:198
0.31,-0.36,9.89,-0.02,0.06,-0.04,0.0,0.0,0.0,1272,2019-04-29 17:27:27:203
0.31,-0.36,9.89,-0.02,0.06,-0.04,0.0,0.0,0.0,1278,2019-04-29 17:27:27:209
0.36,-0.39,9.94,0.02,0.02,0.0,0.0,0.0,0.0,1283,2019-04-29 17:27:27:214
0.36,-0.39,9.94,0.02,0.02,0.0,0.0,0.0,0.0,1288,2019-04-29 17:27:27:219
0.36,-0.39,9.94,0.02,0.02,0.0,0.0,0.0,0.0,1292,2019-04-29 17:27:27:223
0.36,-0.39,9.94,0.02,0.02,0.0,0.0,0.0,0.0,1297,2019-04-29 17:27:27:228
0.28,-0.41,9.94,-0.03,0.0,0.0,0.0,0.0,0.0,1302,2019-04-29 17:27:27:233
0.28,-0.41,9.94,-0.03,0.0,0.0,0.0,0.0,0.0,1307,2019-04-29 17:27:27:238
0.28,-0.41,9.94,-0.03,0.0,0.0,0.0,0.0,0.0,1312,2019-04-29 17:27:27:243
0.33,-0.4,9.95,-0.03,0.0,0.0,0.0,0.0,0.0,1317,2019-04-29 17:27:27:248
0.33,-0.4,9.95,0.01,0.01,0.0,0.0,0.0,0.0,1323,2019-04-29 17:27:27:254
0.33,-0.4,9.95,0.01,0.01,0.0,0.0,0.0,0.0,1327,2019-04-29 17:27:27:258
0.33,-0.4,9.95,0.01,0.01,0.0,0.0,0.0,0.0,1332,2019-04-29 17:27:27:263
0.31,-0.42,9.96,0.0,0.0,0.01,0.0,0.0,0.0,1338,2019-04-29 17:27:27:269
0.31,-0.42,9.96,0.0,0.0,0.01,0.0,0.0,0.0,1342,2019-04-29 17:27:27:273
0.31,-0.42,9.96,0.0,0.0,0.01,0.0,0.0,0.0,1348,2019-04-29 17:27:27:279
0.31,-0.42,9.96,0.0,0.0,0.01,0.0,0.0,0.0,1353,2019-04-29 17:27:27:284
0.31,-0.42,9.96,0.0,0.0,0.01,0.0,0.0,0.0,1357,2019-04-29 17:27:27:288
0.33,-0.38,9.91,0.01,0.03,-0.03,0.0,0.0,0.0,1362,2019-04-29 17:27:27:293
0.33,-0.38,9.91,0.01,0.03,-0.03,0.0,0.0,0.0,1368,2019-04-29 17:27:27:299
0.33,-0.38,9.91,0.01,0.03,-0.03,0.0,0.0,0.0,1373,2019-04-29 17:27:27:304
0.33,-0.38,9.91,0.01,0.03,-0.03,0.0,0.0,0.0,1377,2019-04-29 17:27:27:308
0.34,-0.41,9.96,0.01,0.0,0.01,0.0,0.0,0.0,1382,2019-04-29 17:27:27:313
0.34,-0.41,9.96,0.01,0.0,0.01,0.0,0.0,0.0,1387,2019-04-29 17:27:27:318
0.34,-0.41,9.96,0.01,0.0,0.01,0.0,0.0,0.0,1392,2019-04-29 17:27:27:323
0.34,-0.41,9.96,0.01,0.0,0.01,0.0,0.0,0.0,1397,2019-04-29 17:27:27:328
0.35,-0.37,9.93,0.02,0.03,-0.01,0.0,0.0,0.0,1404,2019-04-29 17:27:27:335
0.35,-0.37,9.93,0.02,0.03,-0.01,0.0,0.0,0.0,1407,2019-04-29 17:27:27:338
0.35,-0.37,9.93,0.02,0.03,-0.01,0.0,0.0,0.0,1412,2019-04-29 17:27:27:343
0.35,-0.37,9.93,0.02,0.03,-0.01,0.0,0.0,0.0,1417,2019-04-29 17:27:27:348
0.32,-0.38,9.93,0.0,0.01,0.0,0.0,0.0,0.0,1422,2019-04-29 17:27:27:353
0.32,-0.38,9.93,0.0,0.01,0.0,0.0,0.0,0.0,1427,2019-04-29 17:27:27:358
0.32,-0.38,9.93,0.0,0.01,0.0,0.0,0.0,0.0,1432,2019-04-29 17:27:27:363
0.32,-0.38,9.93,0.0,0.01,0.0,0.0,0.0,0.0,1438,2019-04-29 17:27:27:369
0.33,-0.41,9.91,0.0,-0.01,-0.02,0.0,0.0,0.0,1442,2019-04-29 17:27:27:373
0.33,-0.41,9.91,0.0,-0.01,-0.02,0.0,0.0,0.0,1447,2019-04-29 17:27:27:378
0.33,-0.41,9.91,0.0,-0.01,-0.02,0.0,0.0,0.0,1455,2019-04-29 17:27:27:386
0.33,-0.41,9.91,0.0,-0.01,-0.02,0.0,0.0,0.0,1457,2019-04-29 17:27:27:388
0.36,-0.39,9.94,0.03,0.01,0.0,0.0,0.0,0.0,1464,2019-04-29 17:27:27:395
0.36,-0.39,9.94,0.03,0.01,0.0,0.0,0.0,0.0,1467,2019-04-29 17:27:27:398
0.36,-0.39,9.94,0.03,0.01,0.0,0.0,0.0,0.0,1472,2019-04-29 17:27:27:403
0.3,-0.43,9.96,0.03,0.01,0.0,0.0,0.0,0.0,1478,2019-04-29 17:27:27:409
0.3,-0.43,9.96,-0.02,-0.02,0.02,0.0,0.0,0.0,1482,2019-04-29 17:27:27:413
0.3,-0.43,9.96,-0.02,-0.02,0.02,0.0,0.0,0.0,1487,2019-04-29 17:27:27:418
0.3,-0.43,9.96,-0.02,-0.02,0.02,0.0,0.0,0.0,1493,2019-04-29 17:27:27:424
0.3,-0.43,9.96,-0.02,-0.02,0.02,0.0,0.0,0.0,1498,2019-04-29 17:27:27:429
0.3,-0.43,9.96,-0.02,-0.02,0.02,0.0,0.0,0.0,1502,2019-04-29 17:27:27:433
0.31,-0.39,9.99,-0.02,0.01,0.05,0.0,0.0,0.0,1507,2019-04-29 17:27:27:438
0.31,-0.39,9.99,-0.02,0.01,0.05,0.0,0.0,0.0,1513,2019-04-29 17:27:27:444
0.31,-0.39,9.99,-0.02,0.01,0.05,0.0,0.0,0.0,1517,2019-04-29 17:27:27:448
0.36,-0.4,9.92,0.02,0.0,-0.02,0.0,0.0,0.0,1522,2019-04-29 17:27:27:453
0.36,-0.4,9.92,0.02,0.0,-0.02,0.0,0.0,0.0,1529,2019-04-29 17:27:27:460
0.36,-0.4,9.92,0.02,0.0,-0.02,0.0,0.0,0.0,1532,2019-04-29 17:27:27:463
0.33,-0.38,9.94,0.0,0.01,0.0,0.0,0.0,0.0,1539,2019-04-29 17:27:27:470
0.33,-0.38,9.94,0.0,0.01,0.0,0.0,0.0,0.0,1542,2019-04-29 17:27:27:473
0.33,-0.38,9.94,0.0,0.01,0.0,0.0,0.0,0.0,1547,2019-04-29 17:27:27:478
0.33,-0.38,9.94,0.0,0.01,0.0,0.0,0.0,0.0,1556,2019-04-29 17:27:27:487
0.33,-0.38,9.94,0.0,0.01,0.0,0.0,0.0,0.0,1558,2019-04-29 17:27:27:489
0.3,-0.38,9.9,-0.02,0.0,-0.04,0.0,0.0,0.0,1562,2019-04-29 17:27:27:493
0.3,-0.38,9.9,-0.02,0.0,-0.04,0.0,0.0,0.0,1567,2019-04-29 17:27:27:498
0.3,-0.38,9.9,-0.02,0.0,-0.04,0.0,0.0,0.0,1572,2019-04-29 17:27:27:503
0.3,-0.38,9.9,-0.02,0.0,-0.04,0.0,0.0,0.0,1577,2019-04-29 17:27:27:508
0.33,-0.4,9.96,0.0,0.0,0.02,0.0,0.0,0.0,1582,2019-04-29 17:27:27:513
0.33,-0.4,9.96,0.0,0.0,0.02,0.0,0.0,0.0,1589,2019-04-29 17:27:27:520
0.33,-0.4,9.96,0.0,0.0,0.02,0.0,0.0,0.0,1593,2019-04-29 17:27:27:524
0.33,-0.4,9.96,0.0,0.0,0.02,0.0,0.0,0.0,1598,2019-04-29 17:27:27:529
0.34,-0.37,9.98,0.0,0.02,0.03,0.0,0.0,0.0,1603,2019-04-29 17:27:27:534
0.34,-0.37,9.98,0.0,0.02,0.03,0.0,0.0,0.0,1608,2019-04-29 17:27:27:539
0.34,-0.37,9.98,0.0,0.02,0.03,0.0,0.0,0.0,1614,2019-04-29 17:27:27:545
0.34,-0.37,9.98,0.0,0.02,0.03,0.0,0.0,0.0,1617,2019-04-29 17:27:27:548
0.32,-0.38,9.93,-0.01,0.0,-0.01,0.0,0.0,0.0,1623,2019-04-29 17:27:27:554
0.32,-0.38,9.93,-0.01,0.0,-0.01,0.0,0.0,0.0,1628,2019-04-29 17:27:27:559
0.32,-0.38,9.93,-0.01,0.0,-0.01,0.0,0.0,0.0,1633,2019-04-29 17:27:27:564
0.32,-0.38,9.93,-0.01,0.0,-0.01,0.0,0.0,0.0,1638,2019-04-29 17:27:27:569
0.32,-0.38,9.93,-0.01,0.0,-0.01,0.0,0.0,0.0,1643,2019-04-29 17:27:27:574
0.32,-0.38,9.93,-0.01,0.0,-0.01,0.0,0.0,0.0,1648,2019-04-29 17:27:27:579
0.32,-0.4,9.93,0.0,-0.01,-0.01,0.0,0.0,0.0,1653,2019-04-29 17:27:27:584
0.32,-0.4,9.93,0.0,-0.01,-0.01,0.0,0.0,0.0,1658,2019-04-29 17:27:27:589
0.32,-0.4,9.93,0.0,-0.01,-0.01,0.0,0.0,0.0,1663,2019-04-29 17:27:27:594
0.31,-0.38,9.94,-0.01,0.0,0.0,0.0,0.0,0.0,1668,2019-04-29 17:27:27:599
0.31,-0.38,9.94,-0.01,0.0,0.0,0.0,0.0,0.0,1673,2019-04-29 17:27:27:604
0.31,-0.38,9.94,-0.01,0.0,0.0,0.0,0.0,0.0,1677,2019-04-29 17:27:27:608
0.31,-0.38,9.94,-0.01,0.0,0.0,0.0,0.0,0.0,1683,2019-04-29 17:27:27:614
0.31,-0.38,9.94,0.0,0.0,0.0,0.0,0.0,0.0,1689,2019-04-29 17:27:27:620
0.31,-0.38,9.94,0.0,0.0,0.0,0.0,0.0,0.0,1692,2019-04-29 17:27:27:623
0.31,-0.38,9.94,0.0,0.0,0.0,0.0,0.0,0.0,1698,2019-04-29 17:27:27:629
0.35,-0.38,9.94,0.02,0.0,0.0,0.0,0.0,0.0,1703,2019-04-29 17:27:27:634
0.35,-0.38,9.94,0.02,0.0,0.0,0.0,0.0,0.0,1707,2019-04-29 17:27:27:638
0.35,-0.38,9.94,0.02,0.0,0.0,0.0,0.0,0.0,1712,2019-04-29 17:27:27:643
0.35,-0.38,9.94,0.02,0.0,0.0,0.0,0.0,0.0,1718,2019-04-29 17:27:27:649
0.33,-0.39,9.92,0.0,0.0,-0.01,0.0,0.0,0.0,1724,2019-04-29 17:27:27:655
0.33,-0.39,9.92,0.0,0.0,-0.01,0.0,0.0,0.0,1728,2019-04-29 17:27:27:659
0.33,-0.39,9.92,0.0,0.0,-0.01,0.0,0.0,0.0,1733,2019-04-29 17:27:27:664
0.33,-0.39,9.92,0.0,0.0,-0.01,0.0,0.0,0.0,1737,2019-04-29 17:27:27:668
0.33,-0.39,9.92,0.0,0.0,-0.01,0.0,0.0,0.0,1742,2019-04-29 17:27:27:673
0.3,-0.4,9.93,0.0,0.0,-0.01,0.0,0.0,0.0,1749,2019-04-29 17:27:27:680
0.3,-0.4,9.93,-0.02,0.0,0.0,0.0,0.0,0.0,1752,2019-04-29 17:27:27:683
0.3,-0.4,9.93,-0.02,0.0,0.0,0.0,0.0,0.0,1757,2019-04-29 17:27:27:688
0.3,-0.4,9.93,-0.02,0.0,0.0,0.0,0.0,0.0,1762,2019-04-29 17:27:27:693
0.3,-0.4,9.93,-0.02,0.0,0.0,0.0,0.0,0.0,1767,2019-04-29 17:27:27:698
0.3,-0.4,9.93,-0.02,0.0,0.0,0.0,0.0,0.0,1773,2019-04-29 17:27:27:704
0.31,-0.43,9.89,0.0,-0.04,-0.04,0.0,0.0,0.0,1779,2019-04-29 17:27:27:710
0.31,-0.43,9.89,0.0,-0.04,-0.04,0.0,0.0,0.0,1784,2019-04-29 17:27:27:715
0.31,-0.43,9.89,0.0,-0.04,-0.04,0.0,0.0,0.0,1787,2019-04-29 17:27:27:718
0.31,-0.43,9.89,0.0,-0.04,-0.04,0.0,0.0,0.0,1793,2019-04-29 17:27:27:724
0.31,-0.43,9.89,0.0,-0.04,-0.04,0.0,0.0,0.0,1798,2019-04-29 17:27:27:729
0.31,-0.4,9.96,0.0,-0.01,0.02,0.0,0.0,0.0,1802,2019-04-29 17:27:27:733
0.31,-0.4,9.96,0.0,-0.01,0.02,0.0,0.0,0.0,1807,2019-04-29 17:27:27:738
0.31,-0.4,9.96,0.0,-0.01,0.02,0.0,0.0,0.0,1815,2019-04-29 17:27:27:746
0.31,-0.4,9.96,0.0,-0.01,0.02,0.0,0.0,0.0,1818,2019-04-29 17:27:27:749
0.31,-0.4,9.96,0.0,-0.01,0.02,0.0,0.0,0.0,1823,2019-04-29 17:27:27:754
0.32,-0.4,9.9,0.0,-0.01,0.02,0.0,0.0,0.0,1827,2019-04-29 17:27:27:758
0.32,-0.4,9.9,0.0,-0.01,-0.02,0.0,0.0,0.0,1833,2019-04-29 17:27:27:764
0.32,-0.4,9.9,0.0,-0.01,-0.02,0.0,0.0,0.0,1837,2019-04-29 17:27:27:768
0.32,-0.42,9.94,0.0,-0.02,0.0,0.0,0.0,0.0,1842,2019-04-29 17:27:27:773
0.32,-0.42,9.94,0.0,-0.02,0.0,0.0,0.0,0.0,1848,2019-04-29 17:27:27:779
0.32,-0.42,9.94,0.0,-0.02,0.0,0.0,0.0,0.0,1853,2019-04-29 17:27:27:784
0.32,-0.42,9.94,0.0,-0.02,0.0,0.0,0.0,0.0,1857,2019-04-29 17:27:27:788
0.32,-0.36,9.96,0.0,0.03,0.02,0.0,0.0,0.0,1864,2019-04-29 17:27:27:795
0.32,-0.36,9.96,0.0,0.03,0.02,0.0,0.0,0.0,1867,2019-04-29 17:27:27:798
0.32,-0.36,9.96,0.0,0.03,0.02,0.0,0.0,0.0,1873,2019-04-29 17:27:27:804
0.32,-0.36,9.96,0.0,0.03,0.02,0.0,0.0,0.0,1878,2019-04-29 17:27:27:809
0.32,-0.36,9.96,0.0,0.03,0.02,0.0,0.0,0.0,1883,2019-04-29 17:27:27:814
0.32,-0.36,9.96,0.0,0.03,0.02,0.0,0.0,0.0,1887,2019-04-29 17:27:27:818
0.31,-0.39,9.99,0.0,0.0,0.05,0.0,0.0,0.0,1892,2019-04-29 17:27:27:823
0.31,-0.39,9.99,0.0,0.0,0.05,0.0,0.0,0.0,1897,2019-04-29 17:27:27:828
0.31,-0.39,9.99,0.0,0.0,0.05,0.0,0.0,0.0,1902,2019-04-29 17:27:27:833
0.32,-0.46,9.97,0.0,-0.06,0.03,0.0,0.0,0.0,1908,2019-04-29 17:27:27:839
0.32,-0.46,9.97,0.0,-0.06,0.03,0.0,0.0,0.0,1913,2019-04-29 17:27:27:844
0.32,-0.46,9.97,0.0,-0.06,0.03,0.0,0.0,0.0,1917,2019-04-29 17:27:27:848
0.32,-0.46,9.97,0.0,-0.06,0.03,0.0,0.0,0.0,1924,2019-04-29 17:27:27:855
0.32,-0.46,9.97,0.0,-0.06,0.03,0.0,0.0,0.0,1927,2019-04-29 17:27:27:858
0.34,-0.42,9.95,0.01,-0.01,0.0,0.0,0.0,0.0,1933,2019-04-29 17:27:27:864
0.34,-0.42,9.95,0.01,-0.01,0.0,0.0,0.0,0.0,1938,2019-04-29 17:27:27:869
0.34,-0.42,9.95,0.01,0.0,-0.02,0.0,0.0,0.0,1943,2019-04-29 17:27:27:874
0.34,-0.42,9.95,0.01,0.0,-0.02,0.0,0.0,0.0,1947,2019-04-29 17:27:27:878
0.34,-0.42,9.95,0.01,0.0,-0.02,0.0,0.0,0.0,1953,2019-04-29 17:27:27:884
0.35,-0.4,9.92,0.02,0.0,-0.01,0.0,0.0,0.0,1958,2019-04-29 17:27:27:889
0.35,-0.4,9.92,0.02,0.0,-0.01,0.0,0.0,0.0,1963,2019-04-29 17:27:27:894
0.35,-0.4,9.92,0.02,0.0,-0.01,0.0,0.0,0.0,1968,2019-04-29 17:27:27:899
0.35,-0.4,9.92,0.02,0.0,-0.01,0.0,0.0,0.0,1973,2019-04-29 17:27:27:904
0.22,-0.39,9.94,-0.1,0.01,0.0,0.0,0.0,0.0,1978,2019-04-29 17:27:27:909
0.22,-0.39,9.94,-0.1,0.01,0.0,0.0,0.0,0.0,1982,2019-04-29 17:27:27:913
0.22,-0.39,9.94,-0.1,0.01,0.0,0.0,0.0,0.0,1987,2019-04-29 17:27:27:918
0.22,-0.39,9.94,-0.1,0.01,0.0,0.0,0.0,0.0,1992,2019-04-29 17:27:27:923
0.22,-0.39,9.94,-0.1,0.01,0.0,0.0,0.0,0.0,1998,2019-04-29 17:27:27:929
0.3,-0.37,9.86,-0.01,0.03,-0.07,0.0,0.0,0.0,2004,2019-04-29 17:27:27:935
0.3,-0.37,9.86,-0.01,0.03,-0.07,0.0,0.0,0.0,2008,2019-04-29 17:27:27:939
0.3,-0.37,9.86,-0.01,0.03,-0.07,0.0,0.0,0.0,2014,2019-04-29 17:27:27:945
0.3,-0.37,9.86,-0.01,0.03,-0.07,0.0,0.0,0.0,2018,2019-04-29 17:27:27:949
0.35,-0.43,9.9,0.02,-0.01,-0.04,0.0,0.0,0.0,2022,2019-04-29 17:27:27:953
0.35,-0.43,9.9,0.02,-0.01,-0.04,0.0,0.0,0.0,2028,2019-04-29 17:27:27:959
0.35,-0.43,9.9,0.02,-0.01,-0.04,0.0,0.0,0.0,2035,2019-04-29 17:27:27:966
0.35,-0.43,9.9,0.02,-0.01,-0.04,0.0,0.0,0.0,2038,2019-04-29 17:27:27:969
0.35,-0.43,9.9,0.02,-0.01,-0.04,0.0,0.0,0.0,2043,2019-04-29 17:27:27:974
0.35,-0.43,9.9,0.02,-0.01,-0.04,0.0,0.0,0.0,2048,2019-04-29 17:27:27:979
0.35,-0.43,9.98,0.02,-0.02,0.04,0.0,0.0,0.0,2052,2019-04-29 17:27:27:983
0.35,-0.43,9.98,0.02,-0.02,0.04,0.0,0.0,0.0,2058,2019-04-29 17:27:27:989
0.35,-0.43,9.98,0.02,-0.02,0.04,0.0,0.0,0.0,2064,2019-04-29 17:27:27:995
0.35,-0.43,9.98,0.02,-0.02,0.04,0.0,0.0,0.0,2068,2019-04-29 17:27:27:999
0.37,-0.42,9.95,0.03,-0.01,0.0,0.0,0.0,0.0,2072,2019-04-29 17:27:28:003
0.37,-0.42,9.95,0.03,-0.01,0.0,0.0,0.0,0.0,2077,2019-04-29 17:27:28:008
0.25,-0.43,9.99,-0.07,-0.01,0.05,0.0,0.0,0.0,2083,2019-04-29 17:27:28:014
0.25,-0.43,9.99,-0.07,-0.01,0.05,0.0,0.0,0.0,2088,2019-04-29 17:27:28:019
0.25,-0.43,9.99,-0.07,-0.01,0.05,0.0,0.0,0.0,2093,2019-04-29 17:27:28:024
0.25,-0.43,9.99,-0.07,-0.01,0.05,0.0,0.0,0.0,2098,2019-04-29 17:27:28:029
0.26,-0.43,9.98,-0.05,-0.01,0.04,0.0,0.0,0.0,2103,2019-04-29 17:27:28:034
0.26,-0.43,9.98,-0.05,-0.01,0.04,0.0,0.0,0.0,2108,2019-04-29 17:27:28:039
0.26,-0.43,9.98,-0.05,-0.01,0.04,0.0,0.0,0.0,2113,2019-04-29 17:27:28:044
0.26,-0.43,9.98,-0.05,-0.01,0.04,0.0,0.0,0.0,2118,2019-04-29 17:27:28:049
0.32,-0.44,9.96,0.0,-0.02,0.01,0.0,0.0,0.0,2123,2019-04-29 17:27:28:054
0.32,-0.44,9.96,0.0,-0.02,0.01,0.0,0.0,0.0,2128,2019-04-29 17:27:28:059
0.32,-0.44,9.96,0.0,-0.02,0.01,0.0,0.0,0.0,2136,2019-04-29 17:27:28:067
0.32,-0.44,9.96,0.0,-0.02,0.01,0.0,0.0,0.0,2137,2019-04-29 17:27:28:068
0.37,-0.45,9.92,0.06,-0.03,-0.01,0.0,0.0,0.0,2142,2019-04-29 17:27:28:073
0.37,-0.45,9.92,0.06,-0.03,-0.01,0.0,0.0,0.0,2152,2019-04-29 17:27:28:083
0.37,-0.45,9.92,0.06,-0.03,-0.01,0.0,0.0,0.0,2154,2019-04-29 17:27:28:085
0.37,-0.45,9.92,0.06,-0.03,-0.01,0.0,0.0,0.0,2158,2019-04-29 17:27:28:089
0.35,-0.44,9.91,0.03,-0.01,-0.02,0.0,0.0,0.0,2165,2019-04-29 17:27:28:096
0.35,-0.44,9.91,0.03,-0.01,-0.02,0.0,0.0,0.0,2169,2019-04-29 17:27:28:100
0.35,-0.44,9.91,0.03,-0.01,-0.02,0.0,0.0,0.0,2173,2019-04-29 17:27:28:104
0.29,-0.47,10.06,-0.03,-0.04,0.12,0.0,0.0,0.0,2178,2019-04-29 17:27:28:109
0.29,-0.47,10.06,-0.03,-0.04,0.12,0.0,0.0,0.0,2183,2019-04-29 17:27:28:114
0.29,-0.47,10.06,-0.03,-0.04,0.12,0.0,0.0,0.0,2187,2019-04-29 17:27:28:118
0.29,-0.47,10.06,-0.03,-0.04,0.12,0.0,0.0,0.0,2193,2019-04-29 17:27:28:124
0.29,-0.47,10.06,-0.03,-0.04,0.12,0.0,0.0,0.0,2198,2019-04-29 17:27:28:129
0.29,-0.47,10.06,-0.03,-0.04,0.12,0.0,0.0,0.0,2202,2019-04-29 17:27:28:133
0.29,-0.47,10.06,-0.03,-0.04,0.12,0.0,0.0,0.0,2207,2019-04-29 17:27:28:138
0.34,-0.46,9.86,0.01,-0.02,-0.07,0.0,0.0,0.0,2213,2019-04-29 17:27:28:144
0.34,-0.46,9.86,0.01,-0.02,-0.07,0.0,0.0,0.0,2217,2019-04-29 17:27:28:148
0.31,-0.52,9.94,0.0,-0.07,0.0,0.0,0.0,0.0,2223,2019-04-29 17:27:28:154
0.31,-0.52,9.94,0.0,-0.07,0.0,0.0,0.0,0.0,2227,2019-04-29 17:27:28:158
0.31,-0.52,9.94,0.0,-0.07,0.0,0.0,0.0,0.0,2234,2019-04-29 17:27:28:165
0.32,-0.56,10.0,0.0,-0.1,0.05,0.0,0.0,0.0,2238,2019-04-29 17:27:28:169
0.32,-0.56,10.0,0.0,-0.1,0.05,0.0,0.0,0.0,2242,2019-04-29 17:27:28:173
0.32,-0.56,10.0,0.0,-0.1,0.05,0.0,0.0,0.0,2247,2019-04-29 17:27:28:178
0.32,-0.56,10.0,0.0,-0.1,0.05,0.0,0.0,0.0,2252,2019-04-29 17:27:28:183
0.24,-0.44,10.04,0.0,-0.1,0.05,0.0,0.0,0.0,2257,2019-04-29 17:27:28:188
0.24,-0.44,10.04,-0.06,0.01,0.09,0.0,0.0,0.0,2263,2019-04-29 17:27:28:194
0.24,-0.44,10.04,-0.06,0.01,0.09,0.0,0.0,0.0,2267,2019-04-29 17:27:28:198
0.24,-0.44,10.04,-0.06,0.01,0.09,0.0,0.0,0.0,2275,2019-04-29 17:27:28:206
0.24,-0.44,10.04,-0.06,0.01,0.09,0.0,0.0,0.0,2277,2019-04-29 17:27:28:208
0.24,-0.44,10.04,-0.06,0.01,0.09,0.0,0.0,0.0,2282,2019-04-29 17:27:28:213
0.41,-0.43,9.76,-0.06,0.01,0.09,0.0,0.0,0.0,2287,2019-04-29 17:27:28:218
0.41,-0.43,9.76,0.09,0.02,-0.17,0.0,0.0,0.0,2294,2019-04-29 17:27:28:225
0.41,-0.43,9.76,0.09,0.02,-0.17,0.0,0.0,0.0,2298,2019-04-29 17:27:28:229
0.39,-0.37,10.02,0.06,0.08,0.09,0.0,0.0,0.0,2305,2019-04-29 17:27:28:236
0.39,-0.37,10.02,0.06,0.08,0.09,0.0,0.0,0.0,2307,2019-04-29 17:27:28:238
0.39,-0.37,10.02,0.06,0.08,0.09,0.0,0.0,0.0,2314,2019-04-29 17:27:28:245
0.37,-0.44,10.0,0.03,0.0,0.06,0.0,0.0,0.0,2321,2019-04-29 17:27:28:252
0.37,-0.44,10.0,0.03,0.0,0.06,0.0,0.0,0.0,2322,2019-04-29 17:27:28:253
0.37,-0.44,10.0,0.03,0.0,0.06,0.0,0.0,0.0,2327,2019-04-29 17:27:28:258
0.37,-0.44,10.0,0.03,0.0,0.06,0.0,0.0,0.0,2333,2019-04-29 17:27:28:264
0.37,-0.44,10.0,0.03,0.0,0.06,0.0,0.0,0.0,2338,2019-04-29 17:27:28:269
0.37,-0.44,10.0,0.03,0.0,0.06,0.0,0.0,0.0,2342,2019-04-29 17:27:28:273
0.37,-0.44,10.0,0.03,0.0,0.06,0.0,0.0,0.0,2347,2019-04-29 17:27:28:278
0.34,-0.35,10.05,0.0,0.09,0.1,0.0,0.0,0.0,2354,2019-04-29 17:27:28:285
0.34,-0.35,10.05,0.0,0.09,0.1,0.0,0.0,0.0,2357,2019-04-29 17:27:28:288
0.34,-0.35,10.05,0.0,0.09,0.1,0.0,0.0,0.0,2362,2019-04-29 17:27:28:293
0.34,-0.35,10.05,0.0,0.09,0.1,0.0,0.0,0.0,2367,2019-04-29 17:27:28:298
0.34,-0.35,10.05,0.0,0.09,0.1,0.0,0.0,0.0,2372,2019-04-29 17:27:28:303
0.34,-0.35,10.05,0.0,0.09,0.1,0.0,0.0,0.0,2377,2019-04-29 17:27:28:308
0.29,-0.64,9.81,-0.02,-0.19,-0.1,0.0,0.0,0.0,2382,2019-04-29 17:27:28:313
0.29,-0.64,9.81,-0.02,-0.19,-0.1,0.0,0.0,0.0,2388,2019-04-29 17:27:28:319
0.29,-0.64,9.81,-0.02,-0.19,-0.1,0.0,0.0,0.0,2392,2019-04-29 17:27:28:323
0.29,-0.64,9.81,-0.02,-0.19,-0.1,0.0,0.0,0.0,2397,2019-04-29 17:27:28:328
0.5,-0.29,10.12,0.17,0.14,0.18,0.0,0.0,0.0,2403,2019-04-29 17:27:28:334
0.5,-0.29,10.12,0.17,0.14,0.18,0.0,0.0,0.0,2409,2019-04-29 17:27:28:340
0.5,-0.29,10.12,0.17,0.14,0.18,0.0,0.0,0.0,2414,2019-04-29 17:27:28:345
0.5,-0.29,10.12,0.17,0.14,0.18,0.0,0.0,0.0,2420,2019-04-29 17:27:28:351
0.5,-0.29,10.12,0.17,0.14,0.18,0.0,0.0,0.0,2423,2019-04-29 17:27:28:354
0.5,-0.29,10.12,0.17,0.14,0.18,0.0,0.0,0.0,2427,2019-04-29 17:27:28:358
0.31,-0.33,9.65,-0.01,0.07,-0.27,0.0,0.0,0.0,2432,2019-04-29 17:27:28:363
0.31,-0.33,9.65,-0.01,0.07,-0.27,0.0,0.0,0.0,2437,2019-04-29 17:27:28:368
0.31,-0.33,9.65,-0.07,0.15,0.21,0.0,0.0,0.0,2442,2019-04-29 17:27:28:373
0.31,-0.33,9.65,-0.07,0.15,0.21,0.0,0.0,0.0,2448,2019-04-29 17:27:28:379
0.31,-0.33,9.65,-0.07,0.15,0.21,0.0,0.0,0.0,2453,2019-04-29 17:27:28:384
0.17,-0.3,10.2,-0.16,0.06,0.24,0.0,0.0,0.0,2460,2019-04-29 17:27:28:391
0.17,-0.3,10.2,-0.16,0.06,0.24,0.0,0.0,0.0,2466,2019-04-29 17:27:28:397
0.17,-0.3,10.2,-0.16,0.06,0.24,0.0,0.0,0.0,2467,2019-04-29 17:27:28:398
0.17,-0.4,9.84,-0.14,-0.04,-0.12,0.0,0.0,0.0,2483,2019-04-29 17:27:28:414
0.17,-0.4,9.84,-0.14,-0.04,-0.12,0.0,0.0,0.0,2484,2019-04-29 17:27:28:415
0.17,-0.4,9.84,-0.14,-0.04,-0.12,0.0,0.0,0.0,2485,2019-04-29 17:27:28:416
0.17,-0.4,9.84,-0.14,-0.04,-0.12,0.0,0.0,0.0,2488,2019-04-29 17:27:28:419
0.17,-0.4,9.84,-0.14,-0.04,-0.12,0.0,0.0,0.0,2492,2019-04-29 17:27:28:423
0.17,-0.4,9.84,-0.14,-0.04,-0.12,0.0,0.0,0.0,2498,2019-04-29 17:27:28:429
0.25,-0.32,9.93,-0.05,0.02,-0.02,0.0,0.0,0.0,2504,2019-04-29 17:27:28:435
0.25,-0.32,9.93,-0.05,0.02,-0.02,0.0,0.0,0.0,2508,2019-04-29 17:27:28:439
0.25,-0.32,9.93,-0.05,0.02,-0.02,0.0,0.0,0.0,2513,2019-04-29 17:27:28:444
0.51,-0.3,10.07,-0.05,0.02,-0.02,0.0,0.0,0.0,2519,2019-04-29 17:27:28:450
0.51,-0.3,10.07,-0.05,0.02,-0.02,0.0,0.0,0.0,2522,2019-04-29 17:27:28:453
0.51,-0.3,10.07,0.2,0.05,0.1,0.0,0.0,0.0,2527,2019-04-29 17:27:28:458
0.51,-0.3,10.07,0.2,0.05,0.1,0.0,0.0,0.0,2532,2019-04-29 17:27:28:463
0.51,-0.3,10.07,0.2,0.05,0.1,0.0,0.0,0.0,2537,2019-04-29 17:27:28:468
0.4,-0.34,9.97,0.09,0.0,0.01,0.0,0.0,0.0,2542,2019-04-29 17:27:28:473
0.4,-0.34,9.97,0.09,0.0,0.01,0.0,0.0,0.0,2547,2019-04-29 17:27:28:478
0.4,-0.34,9.97,0.09,0.0,0.01,0.0,0.0,0.0,2553,2019-04-29 17:27:28:484
0.4,-0.34,9.97,0.09,0.0,0.01,0.0,0.0,0.0,2557,2019-04-29 17:27:28:488
0.4,-0.34,9.97,0.09,0.0,0.01,0.0,0.0,0.0,2562,2019-04-29 17:27:28:493
0.48,-0.32,9.89,0.16,0.02,-0.06,0.0,0.0,0.0,2572,2019-04-29 17:27:28:503
0.48,-0.32,9.89,0.16,0.02,-0.06,0.0,0.0,0.0,2573,2019-04-29 17:27:28:504
0.26,-0.44,9.98,-0.06,-0.1,0.0,0.0,0.0,0.0,2586,2019-04-29 17:27:28:517
0.26,-0.44,9.98,-0.06,-0.1,0.0,0.0,0.0,0.0,2590,2019-04-29 17:27:28:521
0.26,-0.44,9.98,-0.06,-0.1,0.0,0.0,0.0,0.0,2591,2019-04-29 17:27:28:522
0.26,-0.44,9.98,-0.06,-0.1,0.0,0.0,0.0,0.0,2597,2019-04-29 17:27:28:528
0.26,-0.44,9.98,-0.06,-0.1,0.0,0.0,0.0,0.0,2598,2019-04-29 17:27:28:529
0.26,-0.44,9.98,-0.06,-0.1,0.0,0.0,0.0,0.0,2602,2019-04-29 17:27:28:533
0.27,-0.46,9.94,-0.06,-0.1,0.0,0.0,0.0,0.0,2608,2019-04-29 17:27:28:539
0.27,-0.46,9.94,-0.04,-0.11,-0.02,0.0,0.0,0.0,2612,2019-04-29 17:27:28:543
0.27,-0.46,9.94,-0.04,-0.11,-0.02,0.0,0.0,0.0,2619,2019-04-29 17:27:28:550
0.27,-0.46,9.94,0.0,-0.08,0.14,0.0,0.0,0.0,2623,2019-04-29 17:27:28:554
0.27,-0.46,9.94,0.0,-0.08,0.14,0.0,0.0,0.0,2628,2019-04-29 17:27:28:559
0.27,-0.46,9.94,0.0,-0.08,0.14,0.0,0.0,0.0,2633,2019-04-29 17:27:28:564
0.27,-0.46,9.94,0.0,-0.08,0.14,0.0,0.0,0.0,2660,2019-04-29 17:27:28:591
0.27,-0.46,9.94,0.0,-0.08,0.14,0.0,0.0,0.0,2661,2019-04-29 17:27:28:592
0.27,-0.46,9.94,0.0,-0.08,0.14,0.0,0.0,0.0,2661,2019-04-29 17:27:28:592
0.27,-0.46,9.94,0.0,-0.08,0.14,0.0,0.0,0.0,2661,2019-04-29 17:27:28:592
0.24,-0.38,9.91,-0.06,-0.02,-0.05,0.0,0.0,0.0,2667,2019-04-29 17:27:28:598
0.24,-0.38,9.91,-0.06,-0.02,-0.05,0.0,0.0,0.0,2670,2019-04-29 17:27:28:601
0.24,-0.38,9.91,-0.06,-0.02,-0.05,0.0,0.0,0.0,2670,2019-04-29 17:27:28:601
0.24,-0.38,9.91,-0.06,-0.02,-0.05,0.0,0.0,0.0,2673,2019-04-29 17:27:28:604
0.36,-0.37,9.93,0.05,0.0,0.0,0.0,0.0,0.0,2678,2019-04-29 17:27:28:609
0.36,-0.37,9.93,0.05,0.0,0.0,0.0,0.0,0.0,2684,2019-04-29 17:27:28:615
0.36,-0.37,9.93,0.05,0.0,0.0,0.0,0.0,0.0,2691,2019-04-29 17:27:28:622
0.36,-0.37,9.93,0.05,0.0,0.0,0.0,0.0,0.0,2692,2019-04-29 17:27:28:623
0.36,-0.37,9.93,0.05,0.0,0.0,0.0,0.0,0.0,2698,2019-04-29 17:27:28:629
0.36,-0.37,9.93,0.05,0.0,0.0,0.0,0.0,0.0,2703,2019-04-29 17:27:28:634
0.36,-0.36,9.94,0.03,0.01,-0.01,0.0,0.0,0.0,2708,2019-04-29 17:27:28:639
0.36,-0.36,9.94,0.03,0.01,-0.01,0.0,0.0,0.0,2713,2019-04-29 17:27:28:644
0.36,-0.36,9.94,0.03,0.01,-0.01,0.0,0.0,0.0,2718,2019-04-29 17:27:28:649
0.36,-0.36,9.94,0.01,-0.03,-0.04,0.0,0.0,0.0,2722,2019-04-29 17:27:28:653
0.36,-0.36,9.94,0.01,-0.03,-0.04,0.0,0.0,0.0,2727,2019-04-29 17:27:28:658
0.36,-0.36,9.94,0.01,-0.03,-0.04,0.0,0.0,0.0,2732,2019-04-29 17:27:28:663
0.36,-0.36,9.94,0.01,-0.03,-0.04,0.0,0.0,0.0,2737,2019-04-29 17:27:28:668
0.36,-0.36,9.94,0.01,-0.03,-0.04,0.0,0.0,0.0,2742,2019-04-29 17:27:28:673
0.36,-0.36,9.94,0.01,-0.03,-0.04,0.0,0.0,0.0,2747,2019-04-29 17:27:28:678
0.39,-0.35,9.91,0.05,0.03,-0.02,0.0,0.0,0.0,2753,2019-04-29 17:27:28:684
0.39,-0.35,9.91,0.05,0.03,-0.02,0.0,0.0,0.0,2758,2019-04-29 17:27:28:689
0.39,-0.35,9.91,0.05,0.03,-0.02,0.0,0.0,0.0,2762,2019-04-29 17:27:28:693
0.39,-0.35,9.91,0.05,0.03,-0.02,0.0,0.0,0.0,2769,2019-04-29 17:27:28:700
0.39,-0.35,9.91,0.05,0.03,-0.02,0.0,0.0,0.0,2772,2019-04-29 17:27:28:703
0.39,-0.35,9.91,0.05,0.03,-0.02,0.0,0.0,0.0,2777,2019-04-29 17:27:28:708
0.28,-0.36,9.96,-0.04,0.01,0.02,0.0,0.0,0.0,2783,2019-04-29 17:27:28:714
0.28,-0.36,9.96,-0.04,0.01,0.02,0.0,0.0,0.0,2788,2019-04-29 17:27:28:719
0.28,-0.36,9.96,-0.04,0.01,0.02,0.0,0.0,0.0,2792,2019-04-29 17:27:28:723
0.28,-0.36,9.96,-0.04,0.01,0.02,0.0,0.0,0.0,2798,2019-04-29 17:27:28:729
0.29,-0.42,9.99,-0.01,-0.03,0.05,0.0,0.0,0.0,2803,2019-04-29 17:27:28:734
0.29,-0.42,9.99,-0.01,-0.03,0.05,0.0,0.0,0.0,2808,2019-04-29 17:27:28:739
0.29,-0.42,9.99,-0.01,-0.03,0.05,0.0,0.0,0.0,2814,2019-04-29 17:27:28:745
0.29,-0.42,9.99,-0.01,-0.03,0.05,0.0,0.0,0.0,2818,2019-04-29 17:27:28:749
0.29,-0.42,9.99,-0.01,-0.03,0.05,0.0,0.0,0.0,2823,2019-04-29 17:27:28:754
0.29,-0.42,9.99,-0.01,-0.03,0.05,0.0,0.0,0.0,2827,2019-04-29 17:27:28:758
0.26,-0.41,9.9,-0.05,-0.02,-0.04,0.0,0.0,0.0,2833,2019-04-29 17:27:28:764
0.26,-0.41,9.9,-0.05,-0.02,-0.04,0.0,0.0,0.0,2838,2019-04-29 17:27:28:769
0.33,-0.41,9.92,0.0,-0.03,-0.01,0.0,0.0,0.0,2842,2019-04-29 17:27:28:773
0.33,-0.41,9.92,0.0,-0.03,-0.01,0.0,0.0,0.0,2847,2019-04-29 17:27:28:778
0.33,-0.41,9.92,0.0,-0.03,-0.01,0.0,0.0,0.0,2854,2019-04-29 17:27:28:785
0.33,-0.41,9.92,0.0,-0.03,-0.01,0.0,0.0,0.0,2857,2019-04-29 17:27:28:788
0.33,-0.41,9.92,0.0,-0.03,-0.01,0.0,0.0,0.0,2862,2019-04-29 17:27:28:793
0.33,-0.41,9.92,0.0,-0.03,-0.01,0.0,0.0,0.0,2868,2019-04-29 17:27:28:799
0.26,-0.41,9.95,-0.07,-0.02,0.0,0.0,0.0,0.0,2873,2019-04-29 17:27:28:804
0.26,-0.41,9.95,-0.07,-0.02,0.0,0.0,0.0,0.0,2877,2019-04-29 17:27:28:808
0.26,-0.41,9.95,-0.07,-0.02,0.0,0.0,0.0,0.0,2883,2019-04-29 17:27:28:814
0.26,-0.41,9.95,-0.07,-0.02,0.0,0.0,0.0,0.0,2890,2019-04-29 17:27:28:821
0.26,-0.41,9.95,-0.07,-0.02,0.0,0.0,0.0,0.0,2892,2019-04-29 17:27:28:823
0.26,-0.41,9.95,-0.07,-0.02,0.0,0.0,0.0,0.0,2897,2019-04-29 17:27:28:828
0.3,-0.43,9.93,-0.03,-0.03,-0.01,0.0,0.0,0.0,2904,2019-04-29 17:27:28:835
0.3,-0.43,9.93,-0.03,-0.03,-0.01,0.0,0.0,0.0,2907,2019-04-29 17:27:28:838
0.3,-0.43,9.93,-0.03,-0.03,-0.01,0.0,0.0,0.0,2912,2019-04-29 17:27:28:843
0.3,-0.39,9.92,-0.02,0.0,-0.02,0.0,0.0,0.0,2917,2019-04-29 17:27:28:848
0.3,-0.39,9.92,-0.02,0.0,-0.02,0.0,0.0,0.0,2922,2019-04-29 17:27:28:853
0.3,-0.39,9.92,-0.02,0.0,-0.02,0.0,0.0,0.0,2928,2019-04-29 17:27:28:859
0.3,-0.39,9.92,-0.02,0.0,-0.02,0.0,0.0,0.0,2935,2019-04-29 17:27:28:866
0.3,-0.39,9.92,-0.02,0.0,-0.02,0.0,0.0,0.0,2937,2019-04-29 17:27:28:868
0.31,-0.4,9.94,0.0,0.0,0.0,0.0,0.0,0.0,2942,2019-04-29 17:27:28:873
0.31,-0.4,9.94,0.0,0.0,0.0,0.0,0.0,0.0,2947,2019-04-29 17:27:28:878
0.31,-0.4,9.94,0.0,0.0,0.0,0.0,0.0,0.0,2953,2019-04-29 17:27:28:884
0.35,-0.41,9.96,0.03,0.0,0.0,0.0,0.0,0.0,2958,2019-04-29 17:27:28:889
0.35,-0.41,9.96,0.03,0.0,0.0,0.0,0.0,0.0,2964,2019-04-29 17:27:28:895
0.35,-0.41,9.96,0.03,0.0,0.0,0.0,0.0,0.0,2968,2019-04-29 17:27:28:899
0.35,-0.41,9.96,0.03,0.0,0.0,0.0,0.0,0.0,2973,2019-04-29 17:27:28:904
0.35,-0.37,9.91,0.03,0.03,-0.02,0.0,0.0,0.0,2978,2019-04-29 17:27:28:909
0.35,-0.37,9.91,0.03,0.03,-0.02,0.0,0.0,0.0,2983,2019-04-29 17:27:28:914
0.35,-0.37,9.91,0.03,0.03,-0.02,0.0,0.0,0.0,2988,2019-04-29 17:27:28:919
0.35,-0.37,9.91,0.03,0.03,-0.02,0.0,0.0,0.0,2992,2019-04-29 17:27:28:923
0.35,-0.37,9.91,0.03,0.03,-0.02,0.0,0.0,0.0,2997,2019-04-29 17:27:28:928
0.38,-0.43,9.94,0.05,-0.02,0.0,0.0,0.0,0.0,3005,2019-04-29 17:27:28:936
0.38,-0.43,9.94,0.05,-0.02,0.0,0.0,0.0,0.0,3013,2019-04-29 17:27:28:944
0.38,-0.43,9.94,0.05,-0.02,0.0,0.0,0.0,0.0,3015,2019-04-29 17:27:28:946
0.38,-0.43,9.94,0.05,-0.02,0.0,0.0,0.0,0.0,3018,2019-04-29 17:27:28:949
0.38,-0.43,9.94,0.05,-0.02,0.0,0.0,0.0,0.0,3023,2019-04-29 17:27:28:954
0.38,-0.43,9.94,0.05,-0.02,0.0,0.0,0.0,0.0,3027,2019-04-29 17:27:28:958
0.37,-0.43,9.96,0.03,-0.02,0.01,0.0,0.0,0.0,3035,2019-04-29 17:27:28:966
0.37,-0.43,9.96,0.03,-0.02,0.01,0.0,0.0,0.0,3040,2019-04-29 17:27:28:971
0.37,-0.43,9.96,0.03,-0.02,0.01,0.0,0.0,0.0,3043,2019-04-29 17:27:28:974
0.37,-0.43,9.96,0.03,-0.02,0.01,0.0,0.0,0.0,3047,2019-04-29 17:27:28:978
0.37,-0.43,9.96,0.03,-0.02,0.01,0.0,0.0,0.0,3053,2019-04-29 17:27:28:984
0.32,-0.44,9.97,0.03,-0.02,0.01,0.0,0.0,0.0,3057,2019-04-29 17:27:28:988
0.32,-0.44,9.97,0.0,-0.02,0.03,0.0,0.0,0.0,3065,2019-04-29 17:27:28:996
0.32,-0.44,9.97,0.0,-0.02,0.03,0.0,0.0,0.0,3067,2019-04-29 17:27:28:998
0.32,-0.44,9.97,0.0,-0.02,0.03,0.0,0.0,0.0,3073,2019-04-29 17:27:29:004
0.32,-0.42,9.94,0.0,-0.02,0.03,0.0,0.0,0.0,3078,2019-04-29 17:27:29:009
0.32,-0.42,9.94,0.0,0.0,0.0,0.0,0.0,0.0,3083,2019-04-29 17:27:29:014
0.32,-0.42,9.94,0.0,0.0,0.0,0.0,0.0,0.0,3088,2019-04-29 17:27:29:019
0.32,-0.42,9.94,0.0,0.0,0.0,0.0,0.0,0.0,3092,2019-04-29 17:27:29:023
0.32,-0.42,9.94,0.0,0.0,0.0,0.0,0.0,0.0,3097,2019-04-29 17:27:29:028
0.32,-0.42,9.94,0.0,0.0,0.0,0.0,0.0,0.0,3103,2019-04-29 17:27:29:034
0.31,-0.46,9.99,-0.01,-0.03,0.05,0.0,0.0,0.0,3108,2019-04-29 17:27:29:039
0.31,-0.46,9.99,-0.01,-0.03,0.05,0.0,0.0,0.0,3112,2019-04-29 17:27:29:043
0.31,-0.46,9.99,-0.01,-0.03,0.05,0.0,0.0,0.0,3118,2019-04-29 17:27:29:049
0.31,-0.46,9.99,-0.01,-0.03,0.05,0.0,0.0,0.0,3122,2019-04-29 17:27:29:053
0.31,-0.46,9.99,-0.01,-0.03,0.05,0.0,0.0,0.0,3128,2019-04-29 17:27:29:059
0.32,-0.44,9.88,-0.01,-0.03,0.05,0.0,0.0,0.0,3132,2019-04-29 17:27:29:063
0.32,-0.44,9.88,0.0,-0.01,-0.04,0.0,0.0,0.0,3138,2019-04-29 17:27:29:069
0.32,-0.44,9.88,0.0,-0.01,-0.04,0.0,0.0,0.0,3142,2019-04-29 17:27:29:073
0.32,-0.44,9.88,0.0,-0.01,-0.04,0.0,0.0,0.0,3147,2019-04-29 17:27:29:078
0.32,-0.43,9.98,-0.01,0.0,0.05,0.0,0.0,0.0,3153,2019-04-29 17:27:29:084
0.32,-0.43,9.98,-0.01,0.0,0.05,0.0,0.0,0.0,3157,2019-04-29 17:27:29:088
0.32,-0.43,9.98,-0.01,0.0,0.05,0.0,0.0,0.0,3165,2019-04-29 17:27:29:096
0.32,-0.43,9.98,-0.01,0.0,0.05,0.0,0.0,0.0,3167,2019-04-29 17:27:29:098
0.32,-0.43,9.98,-0.01,0.0,0.05,0.0,0.0,0.0,3173,2019-04-29 17:27:29:104
0.32,-0.43,9.98,-0.01,0.0,0.05,0.0,0.0,0.0,3177,2019-04-29 17:27:29:108
0.32,-0.43,9.98,-0.01,0.0,0.05,0.0,0.0,0.0,3183,2019-04-29 17:27:29:114
0.35,-0.45,9.93,0.01,-0.01,0.0,0.0,0.0,0.0,3187,2019-04-29 17:27:29:118
0.35,-0.45,9.93,0.01,-0.01,0.0,0.0,0.0,0.0,3192,2019-04-29 17:27:29:123
0.35,-0.45,9.93,0.01,-0.01,0.0,0.0,0.0,0.0,3198,2019-04-29 17:27:29:129
0.35,-0.45,9.93,0.01,-0.01,0.0,0.0,0.0,0.0,3203,2019-04-29 17:27:29:134
0.33,-0.43,9.97,0.0,0.0,0.03,0.0,0.0,0.0,3208,2019-04-29 17:27:29:139
0.33,-0.43,9.97,0.0,0.0,0.03,0.0,0.0,0.0,3212,2019-04-29 17:27:29:143
0.28,-0.39,9.96,-0.03,0.04,0.02,0.0,0.0,0.0,3219,2019-04-29 17:27:29:150
0.28,-0.39,9.96,-0.03,0.04,0.02,0.0,0.0,0.0,3224,2019-04-29 17:27:29:155
0.28,-0.39,9.96,-0.03,0.04,0.02,0.0,0.0,0.0,3228,2019-04-29 17:27:29:159
0.28,-0.39,9.96,-0.03,0.04,0.02,0.0,0.0,0.0,3233,2019-04-29 17:27:29:164
0.28,-0.39,9.96,-0.03,0.04,0.02,0.0,0.0,0.0,3238,2019-04-29 17:27:29:169
0.28,-0.39,9.96,-0.03,0.04,0.02,0.0,0.0,0.0,3243,2019-04-29 17:27:29:174
0.28,-0.39,9.96,-0.03,0.04,0.02,0.0,0.0,0.0,3247,2019-04-29 17:27:29:178
0.32,-0.43,9.94,0.0,0.0,0.0,0.0,0.0,0.0,3256,2019-04-29 17:27:29:187
0.32,-0.43,9.94,0.0,0.0,0.0,0.0,0.0,0.0,3257,2019-04-29 17:27:29:188
0.32,-0.43,9.94,0.0,0.0,0.0,0.0,0.0,0.0,3263,2019-04-29 17:27:29:194
0.32,-0.43,9.94,0.0,0.0,0.0,0.0,0.0,0.0,3268,2019-04-29 17:27:29:199
0.32,-0.37,9.93,0.0,0.05,-0.01,0.0,0.0,0.0,3273,2019-04-29 17:27:29:204
0.32,-0.37,9.93,0.0,0.05,-0.01,0.0,0.0,0.0,3278,2019-04-29 17:27:29:209
0.34,-0.41,9.99,0.01,0.01,0.04,0.0,0.0,0.0,3282,2019-04-29 17:27:29:213
0.34,-0.41,9.99,0.01,0.01,0.04,0.0,0.0,0.0,3289,2019-04-29 17:27:29:220
0.34,-0.41,9.99,0.01,0.01,0.04,0.0,0.0,0.0,3293,2019-04-29 17:27:29:224
0.34,-0.41,9.99,0.01,0.01,0.04,0.0,0.0,0.0,3298,2019-04-29 17:27:29:229
0.3,-0.38,9.95,-0.02,0.04,0.0,0.0,0.0,0.0,3305,2019-04-29 17:27:29:236
0.3,-0.38,9.95,-0.02,0.04,0.0,0.0,0.0,0.0,3307,2019-04-29 17:27:29:238
0.3,-0.38,9.95,-0.02,0.04,0.0,0.0,0.0,0.0,3313,2019-04-29 17:27:29:244
0.3,-0.38,9.95,-0.02,0.04,0.0,0.0,0.0,0.0,3317,2019-04-29 17:27:29:248
0.23,-0.54,9.81,-0.08,-0.1,-0.12,0.0,0.0,0.0,3322,2019-04-29 17:27:29:253
0.23,-0.54,9.81,-0.08,-0.1,-0.12,0.0,0.0,0.0,3327,2019-04-29 17:27:29:258
0.23,-0.54,9.81,-0.08,-0.1,-0.12,0.0,0.0,0.0,3332,2019-04-29 17:27:29:263
0.23,-0.54,9.81,-0.08,-0.1,-0.12,0.0,0.0,0.0,3337,2019-04-29 17:27:29:268
0.23,-0.54,9.81,-0.08,-0.1,-0.12,0.0,0.0,0.0,3343,2019-04-29 17:27:29:274
0.23,-0.54,9.81,-0.08,-0.1,-0.12,0.0,0.0,0.0,3348,2019-04-29 17:27:29:279
0.44,-0.41,10.06,0.02,0.12,-0.05,0.0,0.0,-0.01,3353,2019-04-29 17:27:29:284
0.44,-0.41,10.06,0.02,0.12,-0.05,0.0,0.0,-0.01,3357,2019-04-29 17:27:29:288
0.44,-0.41,10.06,0.02,0.12,-0.05,0.0,0.0,-0.01,3363,2019-04-29 17:27:29:294
0.44,-0.41,10.06,0.02,0.12,-0.05,0.0,0.0,-0.01,3368,2019-04-29 17:27:29:299
0.44,-0.41,10.06,0.02,0.12,-0.05,0.0,0.0,-0.01,3373,2019-04-29 17:27:29:304
0.28,-0.63,10.11,-0.04,-0.2,0.17,0.0,0.0,0.0,3378,2019-04-29 17:27:29:309
0.28,-0.63,10.11,-0.04,-0.2,0.17,0.0,0.0,0.0,3382,2019-04-29 17:27:29:313
0.28,-0.63,10.11,-0.04,-0.2,0.17,0.0,0.0,0.0,3387,2019-04-29 17:27:29:318
0.28,-0.63,10.11,-0.04,-0.2,0.17,0.0,0.0,0.0,3393,2019-04-29 17:27:29:324
0.28,-0.63,10.11,-0.04,-0.2,0.17,0.0,0.0,0.0,3398,2019-04-29 17:27:29:329
0.25,-0.41,9.71,-0.08,0.0,-0.19,0.0,0.0,0.0,3406,2019-04-29 17:27:29:337
0.25,-0.41,9.71,-0.08,0.0,-0.19,0.0,0.0,0.0,3407,2019-04-29 17:27:29:338
0.25,-0.41,9.71,-0.08,0.0,-0.19,0.0,0.0,0.0,3416,2019-04-29 17:27:29:347
0.25,-0.41,9.71,-0.08,0.0,-0.19,0.0,0.0,0.0,3417,2019-04-29 17:27:29:348
0.25,-0.41,9.71,-0.08,0.0,-0.19,0.0,0.0,0.0,3422,2019-04-29 17:27:29:353
0.25,-0.41,9.71,-0.08,0.0,-0.19,0.0,0.0,0.0,3427,2019-04-29 17:27:29:358
0.07,-0.36,9.99,-0.23,0.06,0.07,0.0,0.0,0.01,3432,2019-04-29 17:27:29:363
0.07,-0.36,9.99,-0.23,0.06,0.07,0.0,0.0,0.01,3437,2019-04-29 17:27:29:368
0.07,-0.36,9.99,0.17,-0.17,-0.03,0.0,0.0,0.02,3443,2019-04-29 17:27:29:374
0.07,-0.36,9.99,0.17,-0.17,-0.03,0.0,0.0,0.02,3448,2019-04-29 17:27:29:379
0.07,-0.36,9.99,0.17,-0.17,-0.03,0.0,0.0,0.02,3453,2019-04-29 17:27:29:384
0.07,-0.36,9.99,0.17,-0.17,-0.03,0.0,0.0,0.02,3458,2019-04-29 17:27:29:389
0.07,-0.36,9.99,0.17,-0.17,-0.03,0.0,0.0,0.02,3463,2019-04-29 17:27:29:394
0.24,-0.58,10.02,0.17,-0.17,-0.03,0.0,0.0,0.01,3467,2019-04-29 17:27:29:398
0.24,-0.58,10.02,-0.07,-0.14,0.1,0.0,0.0,0.01,3474,2019-04-29 17:27:29:405
0.24,-0.58,10.02,-0.07,-0.14,0.1,0.0,0.0,0.01,3477,2019-04-29 17:27:29:408
0.41,-0.35,9.89,0.08,0.09,-0.03,0.0,0.0,0.01,3483,2019-04-29 17:27:29:414
0.41,-0.35,9.89,0.08,0.09,-0.03,0.0,0.0,0.01,3487,2019-04-29 17:27:29:418
0.41,-0.35,9.89,0.08,0.09,-0.03,0.0,0.0,0.01,3493,2019-04-29 17:27:29:424
0.41,-0.35,9.89,0.08,0.09,-0.03,0.0,0.0,0.01,3498,2019-04-29 17:27:29:429
0.6,-0.4,10.7,0.25,0.04,0.72,0.01,0.0,0.01,3504,2019-04-29 17:27:29:435
0.6,-0.4,10.7,0.25,0.04,0.72,0.01,0.0,0.01,3507,2019-04-29 17:27:29:438
0.6,-0.4,10.7,0.25,0.04,0.72,0.01,0.0,0.01,3512,2019-04-29 17:27:29:443
0.6,-0.4,10.7,0.25,0.04,0.72,0.01,0.0,0.01,3517,2019-04-29 17:27:29:448
0.27,-0.59,9.68,-0.05,-0.13,-0.3,0.0,0.0,0.01,3523,2019-04-29 17:27:29:454
0.27,-0.59,9.68,-0.05,-0.13,-0.3,0.0,0.0,0.01,3527,2019-04-29 17:27:29:458
0.27,-0.59,9.68,-0.05,-0.13,-0.3,0.0,0.0,0.01,3533,2019-04-29 17:27:29:464
0.6,-0.8,10.0,-0.05,-0.13,-0.3,0.0,0.0,0.01,3538,2019-04-29 17:27:29:469
0.6,-0.8,10.0,0.27,-0.28,0.0,0.0,0.0,0.02,3543,2019-04-29 17:27:29:474
0.6,-0.8,10.0,0.27,-0.28,0.0,0.0,0.0,0.02,3547,2019-04-29 17:27:29:478
0.6,-0.8,10.0,0.27,-0.28,0.0,0.0,0.0,0.02,3554,2019-04-29 17:27:29:485
0.6,-0.8,10.0,0.27,-0.28,0.0,0.0,0.0,0.02,3557,2019-04-29 17:27:29:488
0.62,-0.69,10.29,0.3,-0.14,0.29,0.0,0.0,0.0,3565,2019-04-29 17:27:29:496
0.62,-0.69,10.29,0.3,-0.14,0.29,0.0,0.0,0.0,3571,2019-04-29 17:27:29:502
0.62,-0.69,10.29,0.3,-0.14,0.29,0.0,0.0,0.0,3574,2019-04-29 17:27:29:505
0.62,-0.69,10.29,0.3,-0.14,0.29,0.0,0.0,0.0,3577,2019-04-29 17:27:29:508
0.4,-0.67,9.8,0.09,-0.09,-0.19,0.01,0.0,-0.01,3583,2019-04-29 17:27:29:514
0.4,-0.67,9.8,0.09,-0.09,-0.19,0.01,0.0,-0.01,3587,2019-04-29 17:27:29:518
0.4,-0.67,9.8,0.09,-0.09,-0.19,0.01,0.0,-0.01,3592,2019-04-29 17:27:29:523
0.4,-0.67,9.8,0.09,-0.09,-0.19,0.01,0.0,-0.01,3597,2019-04-29 17:27:29:528
0.39,-0.98,9.8,0.06,-0.36,-0.21,0.01,0.0,-0.04,3602,2019-04-29 17:27:29:533
0.39,-0.98,9.8,0.06,-0.36,-0.21,0.01,0.0,-0.04,3607,2019-04-29 17:27:29:538
0.39,-0.98,9.8,0.06,-0.36,-0.21,0.01,0.0,-0.04,3613,2019-04-29 17:27:29:544
0.39,-0.98,9.8,0.06,-0.36,-0.21,0.01,0.0,-0.04,3617,2019-04-29 17:27:29:548
0.2,-1.2,9.92,-0.15,-0.51,-0.08,0.0,0.0,-0.05,3622,2019-04-29 17:27:29:553
0.2,-1.2,9.92,-0.15,-0.51,-0.08,0.0,0.0,-0.05,3628,2019-04-29 17:27:29:559
0.2,-1.2,9.92,-0.15,-0.51,-0.08,0.0,0.0,-0.05,3633,2019-04-29 17:27:29:564
0.2,-1.2,9.92,-0.15,-0.51,-0.08,0.0,0.0,-0.05,3638,2019-04-29 17:27:29:569
0.15,-0.97,9.84,-0.19,-0.23,-0.16,0.0,0.0,-0.04,3643,2019-04-29 17:27:29:574
0.15,-0.97,9.84,-0.19,-0.23,-0.16,0.0,0.0,-0.04,3648,2019-04-29 17:27:29:579
0.15,-0.97,9.84,0.01,0.51,-0.06,0.02,0.0,-0.02,3652,2019-04-29 17:27:29:583
0.15,-0.97,9.84,0.01,0.51,-0.06,0.02,0.0,-0.02,3658,2019-04-29 17:27:29:589
0.15,-0.97,9.84,0.01,0.51,-0.06,0.02,0.0,-0.02,3662,2019-04-29 17:27:29:593
0.15,-0.97,9.84,0.01,0.51,-0.06,0.02,0.0,-0.02,3668,2019-04-29 17:27:29:599
0.15,-0.97,9.84,0.01,0.51,-0.06,0.02,0.0,-0.02,3673,2019-04-29 17:27:29:604
0.11,-0.29,10.16,0.01,0.51,-0.06,0.02,0.0,-0.02,3678,2019-04-29 17:27:29:609
0.11,-0.29,10.16,-0.22,0.42,0.19,0.0,0.0,0.0,3682,2019-04-29 17:27:29:613
0.11,-0.29,10.16,-0.22,0.42,0.19,0.0,0.0,0.0,3687,2019-04-29 17:27:29:618
0.22,0.34,9.88,-0.22,0.42,0.19,0.0,0.0,0.01,3692,2019-04-29 17:27:29:623
0.22,0.34,9.88,-0.22,0.42,0.19,0.0,0.0,0.01,3697,2019-04-29 17:27:29:628
0.22,0.34,9.88,-0.22,0.42,0.19,0.0,0.0,0.01,3703,2019-04-29 17:27:29:634
0.22,0.34,9.88,-0.22,0.42,0.19,0.0,0.0,0.01,3708,2019-04-29 17:27:29:639
0.32,0.68,9.81,-0.22,0.42,0.19,0.01,0.0,0.05,3713,2019-04-29 17:27:29:644
0.32,0.68,9.81,0.0,1.19,-0.09,0.01,0.0,0.05,3718,2019-04-29 17:27:29:649
0.32,0.68,9.81,0.0,1.19,-0.09,0.01,0.0,0.05,3723,2019-04-29 17:27:29:654
0.32,0.68,9.81,0.0,1.19,-0.09,0.01,0.0,0.05,3728,2019-04-29 17:27:29:659
0.56,1.67,9.76,0.22,1.98,-0.13,0.01,0.0,0.07,3732,2019-04-29 17:27:29:663
0.56,1.67,9.76,0.22,1.98,-0.13,0.01,0.0,0.07,3739,2019-04-29 17:27:29:670
0.56,1.67,9.76,0.22,1.98,-0.13,0.01,0.0,0.07,3743,2019-04-29 17:27:29:674
0.56,1.67,9.76,0.22,1.98,-0.13,0.01,0.0,0.07,3747,2019-04-29 17:27:29:678
0.56,1.67,9.76,0.22,1.98,-0.13,0.01,0.0,0.07,3753,2019-04-29 17:27:29:684
0.06,1.78,10.57,0.22,1.98,-0.13,-0.01,0.0,0.07,3758,2019-04-29 17:27:29:689
0.06,1.78,10.57,-0.22,1.86,0.62,-0.01,0.0,0.07,3763,2019-04-29 17:27:29:694
0.06,1.78,10.57,-0.22,1.86,0.62,-0.01,0.0,0.07,3767,2019-04-29 17:27:29:698
-0.22,1.74,9.67,-0.22,1.86,0.62,0.01,0.0,0.05,3773,2019-04-29 17:27:29:704
-0.22,1.74,9.67,-0.22,1.86,0.62,0.01,0.0,0.05,3778,2019-04-29 17:27:29:709
-0.22,1.74,9.67,-0.22,1.86,0.62,0.01,0.0,0.05,3782,2019-04-29 17:27:29:713
-0.22,1.74,9.67,-0.22,1.86,0.62,0.01,0.0,0.05,3787,2019-04-29 17:27:29:718
0.1,1.48,9.64,-0.11,1.06,-0.26,0.0,0.0,0.0,3792,2019-04-29 17:27:29:723
0.1,1.48,9.64,-0.11,1.06,-0.26,0.0,0.0,0.0,3797,2019-04-29 17:27:29:728
0.1,1.48,9.64,-0.11,1.06,-0.26,0.0,0.0,0.0,3802,2019-04-29 17:27:29:733
0.1,1.48,9.64,-0.11,1.06,-0.26,0.0,0.0,0.0,3807,2019-04-29 17:27:29:738
0.63,1.11,10.49,0.39,0.46,0.54,-0.01,0.0,-0.05,3812,2019-04-29 17:27:29:743
0.63,1.11,10.49,0.39,0.46,0.54,-0.01,0.0,-0.05,3817,2019-04-29 17:27:29:748
0.63,1.11,10.49,0.39,0.46,0.54,-0.01,0.0,-0.05,3822,2019-04-29 17:27:29:753
0.63,1.11,10.49,0.39,0.46,0.54,-0.01,0.0,-0.05,3828,2019-04-29 17:27:29:759
0.23,1.07,9.81,-0.02,0.22,-0.13,0.0,0.0,-0.1,3832,2019-04-29 17:27:29:763
0.23,1.07,9.81,-0.02,0.22,-0.13,0.0,0.0,-0.1,3837,2019-04-29 17:27:29:768
0.23,1.07,9.81,-0.02,0.22,-0.13,0.0,0.0,-0.1,3843,2019-04-29 17:27:29:774
0.49,-0.23,9.79,-0.02,0.22,-0.13,-0.02,0.0,-0.13,3848,2019-04-29 17:27:29:779
0.49,-0.23,9.79,0.17,-1.15,-0.17,-0.02,0.0,-0.13,3853,2019-04-29 17:27:29:784
0.49,-0.23,9.79,0.17,-1.15,-0.17,-0.02,0.0,-0.13,3857,2019-04-29 17:27:29:788
0.49,-0.23,9.79,0.17,-1.15,-0.17,-0.02,0.0,-0.13,3862,2019-04-29 17:27:29:793
0.49,-0.23,9.79,0.17,-1.15,-0.17,-0.02,0.0,-0.13,3868,2019-04-29 17:27:29:799
0.49,-0.23,9.79,0.17,-1.15,-0.17,-0.02,0.0,-0.13,3872,2019-04-29 17:27:29:803
0.49,-0.23,9.79,0.17,-1.15,-0.17,-0.02,0.0,-0.13,3878,2019-04-29 17:27:29:809
0.27,-0.71,9.42,-0.11,-1.61,-0.48,-0.01,0.0,-0.13,3883,2019-04-29 17:27:29:814
0.27,-0.71,9.42,-0.11,-1.61,-0.48,-0.01,0.0,-0.13,3887,2019-04-29 17:27:29:818
0.27,-0.71,9.42,0.13,-2.68,-0.78,-0.02,0.0,-0.13,3893,2019-04-29 17:27:29:824
0.27,-0.71,9.42,0.13,-2.68,-0.78,-0.02,0.0,-0.13,3898,2019-04-29 17:27:29:829
0.27,-0.71,9.42,0.13,-2.68,-0.78,-0.02,0.0,-0.13,3903,2019-04-29 17:27:29:834
0.27,-0.71,9.42,0.13,-2.68,-0.78,-0.02,0.0,-0.13,3907,2019-04-29 17:27:29:838
-0.19,-1.76,9.42,-0.65,-2.34,-0.39,-0.03,0.0,-0.11,3913,2019-04-29 17:27:29:844
-0.19,-1.76,9.42,-0.65,-2.34,-0.39,-0.03,0.0,-0.11,3917,2019-04-29 17:27:29:848
-0.19,-1.76,9.42,-0.65,-2.34,-0.39,-0.03,0.0,-0.11,3923,2019-04-29 17:27:29:854
-0.19,-1.76,9.42,-0.65,-2.34,-0.39,-0.03,0.0,-0.11,3927,2019-04-29 17:27:29:858
0.46,-1.11,10.02,0.07,-1.41,0.2,-0.02,0.0,-0.06,3932,2019-04-29 17:27:29:863
0.46,-1.11,10.02,0.07,-1.41,0.2,-0.02,0.0,-0.06,3937,2019-04-29 17:27:29:868
0.46,-1.11,10.02,0.07,-1.41,0.2,-0.02,0.0,-0.06,3943,2019-04-29 17:27:29:874
0.46,-1.11,10.02,0.07,-1.41,0.2,-0.02,0.0,-0.06,3947,2019-04-29 17:27:29:878
0.57,-1.41,10.01,0.22,-1.39,0.25,-0.01,0.0,-0.03,3952,2019-04-29 17:27:29:883
0.57,-1.41,10.01,0.22,-1.39,0.25,-0.01,0.0,-0.03,3957,2019-04-29 17:27:29:888
0.57,-1.41,10.01,0.22,-1.39,0.25,-0.01,0.0,-0.03,3962,2019-04-29 17:27:29:893
0.57,-1.41,10.01,0.22,-1.39,0.25,-0.01,0.0,-0.03,3967,2019-04-29 17:27:29:898
0.57,-1.41,10.01,0.22,-1.39,0.25,-0.01,0.0,-0.03,3972,2019-04-29 17:27:29:903
0.57,-1.41,10.01,0.22,-1.39,0.25,-0.01,0.0,-0.03,3978,2019-04-29 17:27:29:909
1.14,-1.2,9.95,0.79,-0.85,0.2,-0.02,0.0,-0.01,3982,2019-04-29 17:27:29:913
1.14,-1.2,9.95,0.79,-0.85,0.2,-0.02,0.0,-0.01,3987,2019-04-29 17:27:29:918
1.14,-1.2,9.95,0.79,-0.85,0.2,-0.02,0.0,-0.01,3992,2019-04-29 17:27:29:923
1.14,-1.2,9.95,0.79,-0.85,0.2,-0.02,0.0,-0.01,3998,2019-04-29 17:27:29:929
0.97,-0.99,9.89,0.57,-0.34,0.13,0.0,0.0,0.0,4002,2019-04-29 17:27:29:933
0.97,-0.99,9.89,0.57,-0.34,0.13,0.0,0.0,0.0,4007,2019-04-29 17:27:29:938
0.97,-0.99,9.89,0.65,0.38,0.5,0.0,-0.01,0.01,4013,2019-04-29 17:27:29:944
0.97,-0.99,9.89,0.65,0.38,0.5,0.0,-0.01,0.01,4017,2019-04-29 17:27:29:948
0.97,-0.99,9.89,0.65,0.38,0.5,0.0,-0.01,0.01,4023,2019-04-29 17:27:29:954
0.97,-0.99,9.89,0.65,0.38,0.5,0.0,-0.01,0.01,4027,2019-04-29 17:27:29:958
0.22,-0.97,9.4,-0.18,0.02,-0.33,0.0,0.0,-0.01,4033,2019-04-29 17:27:29:964
0.22,-0.97,9.4,-0.18,0.02,-0.33,0.0,0.0,-0.01,4038,2019-04-29 17:27:29:969
0.22,-0.97,9.4,-0.18,0.02,-0.33,0.0,0.0,-0.01,4042,2019-04-29 17:27:29:973
0.22,-0.97,9.4,-0.18,0.02,-0.33,0.0,0.0,-0.01,4047,2019-04-29 17:27:29:978
0.01,-0.74,9.8,-0.33,0.33,0.1,0.0,0.0,-0.02,4053,2019-04-29 17:27:29:984
0.01,-0.74,9.8,-0.33,0.33,0.1,0.0,0.0,-0.02,4058,2019-04-29 17:27:29:989
0.01,-0.74,9.8,-0.33,0.33,0.1,0.0,0.0,-0.02,4063,2019-04-29 17:27:29:994
0.01,-0.74,9.8,-0.33,0.33,0.1,0.0,0.0,-0.02,4067,2019-04-29 17:27:29:998
-0.03,-0.59,9.76,-0.35,0.49,0.02,0.0,0.0,-0.04,4072,2019-04-29 17:27:30:003
-0.03,-0.59,9.76,-0.35,0.49,0.02,0.0,0.0,-0.04,4077,2019-04-29 17:27:30:008
-0.03,-0.59,9.76,-0.35,0.49,0.02,0.0,0.0,-0.04,4083,2019-04-29 17:27:30:014
-0.03,-0.59,9.76,-0.35,0.49,0.02,0.0,0.0,-0.04,4087,2019-04-29 17:27:30:018
-0.03,-0.59,9.76,-0.35,0.49,0.02,0.0,0.0,-0.04,4093,2019-04-29 17:27:30:024
0.07,-0.66,9.84,-0.35,0.49,0.02,0.0,0.0,-0.04,4098,2019-04-29 17:27:30:029
0.07,-0.66,9.84,-0.18,0.41,0.07,0.0,0.0,-0.04,4102,2019-04-29 17:27:30:033
0.07,-0.66,9.84,-0.18,0.41,0.07,0.0,0.0,-0.04,4107,2019-04-29 17:27:30:038
0.07,-0.66,9.84,-0.18,0.41,0.07,0.0,0.0,-0.04,4114,2019-04-29 17:27:30:045
0.12,-0.72,9.73,-0.18,0.41,0.07,0.0,0.0,-0.05,4118,2019-04-29 17:27:30:049
0.12,-0.72,9.73,-0.13,0.24,-0.08,0.0,0.0,-0.05,4122,2019-04-29 17:27:30:053
0.12,-0.72,9.73,-0.13,0.24,-0.08,0.0,0.0,-0.05,4127,2019-04-29 17:27:30:058
0.03,-0.52,9.61,-0.13,0.24,-0.08,0.0,0.0,-0.03,4132,2019-04-29 17:27:30:063
0.03,-0.52,9.61,-0.13,0.24,-0.08,0.0,0.0,-0.03,4138,2019-04-29 17:27:30:069
0.03,-0.52,9.61,-0.13,0.24,-0.08,0.0,0.0,-0.03,4143,2019-04-29 17:27:30:074
0.03,-0.52,9.61,-0.13,0.24,-0.08,0.0,0.0,-0.03,4148,2019-04-29 17:27:30:079
0.03,-0.52,9.61,-0.13,0.24,-0.08,0.0,0.0,-0.03,4153,2019-04-29 17:27:30:084
0.03,-0.52,9.61,-0.13,0.24,-0.08,0.0,0.0,-0.03,4157,2019-04-29 17:27:30:088
0.44,-0.63,9.76,0.07,0.16,-0.08,-0.01,0.0,-0.02,4162,2019-04-29 17:27:30:093
0.44,-0.63,9.76,0.07,0.16,-0.08,-0.01,0.0,-0.02,4167,2019-04-29 17:27:30:098
0.44,-0.63,9.76,0.07,0.16,-0.08,-0.01,0.0,-0.02,4172,2019-04-29 17:27:30:103
0.44,-0.63,9.76,0.07,0.16,-0.08,-0.01,0.0,-0.02,4178,2019-04-29 17:27:30:109
0.59,0.0,9.98,0.19,0.68,0.12,0.0,0.0,-0.01,4183,2019-04-29 17:27:30:114
0.59,0.0,9.98,0.19,0.68,0.12,0.0,0.0,-0.01,4188,2019-04-29 17:27:30:119
0.59,0.0,9.98,0.19,0.68,0.12,0.0,0.0,-0.01,4193,2019-04-29 17:27:30:124
0.59,0.0,9.98,0.19,0.68,0.12,0.0,0.0,-0.01,4198,2019-04-29 17:27:30:129
0.74,0.01,10.06,0.36,0.58,0.18,0.0,0.0,0.0,4202,2019-04-29 17:27:30:133
0.74,0.01,10.06,0.36,0.58,0.18,0.0,0.0,0.0,4208,2019-04-29 17:27:30:139
0.74,0.01,10.06,0.36,0.58,0.18,0.0,0.0,0.0,4212,2019-04-29 17:27:30:143
0.74,0.01,10.06,0.36,0.58,0.18,0.0,0.0,0.0,4218,2019-04-29 17:27:30:149
0.74,0.01,10.06,0.36,0.58,0.18,0.0,0.0,0.0,4223,2019-04-29 17:27:30:154
0.58,0.42,10.06,0.36,0.58,0.18,0.0,0.0,-0.01,4228,2019-04-29 17:27:30:159
0.58,0.42,10.06,0.25,0.81,0.17,0.0,0.0,-0.01,4233,2019-04-29 17:27:30:164
0.58,0.42,10.06,0.25,0.81,0.17,0.0,0.0,-0.01,4237,2019-04-29 17:27:30:168
0.58,0.42,10.06,0.25,0.81,0.17,0.0,0.0,-0.01,4242,2019-04-29 17:27:30:173
0.58,0.42,10.06,0.25,0.81,0.17,0.0,0.0,-0.01,4247,2019-04-29 17:27:30:178
0.01,2.61,12.12,-0.29,2.77,2.1,0.0,0.01,-0.04,4252,2019-04-29 17:27:30:183
0.01,2.61,12.12,-0.29,2.77,2.1,0.0,0.01,-0.04,4258,2019-04-29 17:27:30:189
0.01,2.61,12.12,-0.29,2.77,2.1,0.0,0.01,-0.04,4262,2019-04-29 17:27:30:193
0.01,2.61,12.12,-0.29,2.77,2.1,0.0,0.01,-0.04,4268,2019-04-29 17:27:30:199
-0.11,1.41,9.56,-0.39,1.2,-0.64,0.05,0.01,0.0,4272,2019-04-29 17:27:30:203
-0.11,1.41,9.56,-0.39,1.2,-0.64,0.05,0.01,0.0,4277,2019-04-29 17:27:30:208
-0.11,1.41,9.56,-0.39,1.2,-0.64,0.05,0.01,0.0,4282,2019-04-29 17:27:30:213
-0.11,1.41,9.56,-0.39,1.2,-0.64,0.05,0.01,0.0,4287,2019-04-29 17:27:30:218
-0.11,1.41,9.56,-0.39,1.2,-0.64,0.05,0.01,0.0,4293,2019-04-29 17:27:30:224
-0.11,1.41,9.56,-0.39,1.2,-0.64,0.05,0.01,0.0,4297,2019-04-29 17:27:30:228
0.3,0.46,7.19,-0.01,0.19,-2.71,-0.02,0.01,-0.02,4303,2019-04-29 17:27:30:234
0.3,0.46,7.19,-0.01,0.19,-2.71,-0.02,0.01,-0.02,4307,2019-04-29 17:27:30:238
0.3,0.46,7.19,-0.01,0.19,-2.71,0.0,0.03,-0.12,4316,2019-04-29 17:27:30:247
0.3,0.46,7.19,-0.01,0.19,-2.71,0.0,0.03,-0.12,4317,2019-04-29 17:27:30:248
0.3,0.46,7.19,-0.01,0.19,-2.71,0.0,0.03,-0.12,4324,2019-04-29 17:27:30:255
0.3,0.46,7.19,-0.01,0.19,-2.71,0.0,0.03,-0.12,4328,2019-04-29 17:27:30:259
0.91,0.63,10.08,-0.01,0.19,-2.71,0.04,0.0,-0.07,4333,2019-04-29 17:27:30:264
0.91,0.63,10.08,0.49,0.02,0.06,0.04,0.0,-0.07,4337,2019-04-29 17:27:30:268
0.91,0.63,10.08,0.49,0.02,0.06,0.04,0.0,-0.07,4343,2019-04-29 17:27:30:274
0.91,0.63,10.08,0.49,0.02,0.06,0.04,0.0,-0.07,4348,2019-04-29 17:27:30:279
0.91,0.63,10.08,0.49,0.02,0.06,0.04,0.0,-0.07,4352,2019-04-29 17:27:30:283
0.91,0.63,10.08,0.49,0.02,0.06,0.04,0.0,-0.07,4358,2019-04-29 17:27:30:289
0.58,0.5,8.53,0.13,-0.14,-1.43,0.0,0.0,-0.12,4363,2019-04-29 17:27:30:294
0.58,0.5,8.53,0.13,-0.14,-1.43,0.0,0.0,-0.12,4369,2019-04-29 17:27:30:300
0.58,0.5,8.53,0.13,-0.14,-1.43,0.0,0.0,-0.12,4373,2019-04-29 17:27:30:304
0.58,0.5,8.53,0.13,-0.14,-1.43,0.0,0.0,-0.12,4378,2019-04-29 17:27:30:309
0.99,0.36,11.75,0.58,-0.32,1.71,-0.05,0.0,-0.13,4383,2019-04-29 17:27:30:314
0.99,0.36,11.75,0.58,-0.32,1.71,-0.05,0.0,-0.13,4387,2019-04-29 17:27:30:318
0.99,0.36,11.75,0.58,-0.32,1.71,-0.05,0.0,-0.13,4393,2019-04-29 17:27:30:324
0.99,0.36,11.75,0.58,-0.32,1.71,-0.05,0.0,-0.13,4399,2019-04-29 17:27:30:330
0.99,0.36,11.75,0.58,-0.32,1.71,-0.05,0.0,-0.13,4402,2019-04-29 17:27:30:333
0.19,-0.92,10.27,-0.15,-1.59,0.23,0.03,0.02,-0.14,4407,2019-04-29 17:27:30:338
0.19,-0.92,10.27,-0.15,-1.59,0.23,0.03,0.02,-0.14,4413,2019-04-29 17:27:30:344
0.19,-0.92,10.27,-0.15,-1.59,0.23,0.03,0.02,-0.14,4418,2019-04-29 17:27:30:349
0.06,-0.65,8.48,-0.24,-1.24,-1.47,0.02,0.0,-0.13,4422,2019-04-29 17:27:30:353
0.06,-0.65,8.48,-0.24,-1.24,-1.47,0.02,0.0,-0.13,4427,2019-04-29 17:27:30:358
0.06,-0.65,8.48,-0.24,-1.24,-1.47,0.02,0.0,-0.13,4432,2019-04-29 17:27:30:363
0.06,-0.65,8.48,-0.24,-1.24,-1.47,0.02,0.0,-0.13,4438,2019-04-29 17:27:30:369
-0.19,-2.11,9.61,-0.49,-2.47,-0.33,-0.05,0.02,-0.1,4443,2019-04-29 17:27:30:374
-0.19,-2.11,9.61,-0.49,-2.47,-0.33,-0.05,0.02,-0.1,4447,2019-04-29 17:27:30:378
-0.19,-2.11,9.61,-0.49,-2.47,-0.33,-0.05,0.02,-0.1,4453,2019-04-29 17:27:30:384
-0.19,-2.11,9.61,-0.49,-2.47,-0.33,-0.05,0.02,-0.1,4457,2019-04-29 17:27:30:388
-0.27,-2.51,10.59,-0.57,-2.51,0.75,-0.03,0.0,-0.08,4466,2019-04-29 17:27:30:397
-0.27,-2.51,10.59,-0.57,-2.51,0.75,-0.03,0.0,-0.08,4468,2019-04-29 17:27:30:399
-0.27,-2.51,10.59,-0.57,-2.51,0.75,-0.03,0.0,-0.08,4472,2019-04-29 17:27:30:403
-0.27,-2.51,10.59,-0.57,-2.51,0.75,-0.03,0.0,-0.08,4477,2019-04-29 17:27:30:408
-0.2,-1.32,9.47,-0.53,-0.9,-0.17,0.03,0.0,-0.06,4483,2019-04-29 17:27:30:414
-0.2,-1.32,9.47,-0.53,-0.9,-0.17,0.03,0.0,-0.06,4488,2019-04-29 17:27:30:419
-0.2,-1.32,9.47,-0.53,-0.9,-0.17,0.03,0.0,-0.06,4493,2019-04-29 17:27:30:424
-0.2,-1.32,9.47,-0.53,-0.9,-0.17,0.03,0.0,-0.06,4498,2019-04-29 17:27:30:429
-0.08,-0.89,9.34,-0.38,-0.32,-0.62,0.01,0.0,-0.05,4502,2019-04-29 17:27:30:433
-0.08,-0.89,9.34,-0.38,-0.32,-0.62,0.01,0.0,-0.05,4507,2019-04-29 17:27:30:438
-0.08,-0.89,9.34,-0.38,-0.32,-0.62,0.01,0.0,-0.05,4512,2019-04-29 17:27:30:443
-0.08,-0.89,9.34,-0.38,-0.32,-0.62,0.01,0.0,-0.05,4518,2019-04-29 17:27:30:449
0.33,-1.23,10.59,0.06,-0.5,0.71,-0.03,0.0,-0.05,4523,2019-04-29 17:27:30:454
0.33,-1.23,10.59,0.06,-0.5,0.71,-0.03,0.0,-0.05,4527,2019-04-29 17:27:30:458
0.33,-1.23,10.59,0.06,-0.5,0.71,-0.03,0.0,-0.05,4533,2019-04-29 17:27:30:464
0.47,-0.32,10.46,0.22,0.52,0.59,-0.03,0.0,-0.05,4537,2019-04-29 17:27:30:468
0.47,-0.32,10.46,0.22,0.52,0.59,-0.03,0.0,-0.05,4543,2019-04-29 17:27:30:474
0.47,-0.32,10.46,0.22,0.52,0.59,-0.03,0.0,-0.05,4548,2019-04-29 17:27:30:479
0.47,-0.32,10.46,0.22,0.52,0.59,-0.03,0.0,-0.05,4553,2019-04-29 17:27:30:484
0.3,0.27,9.6,0.22,0.52,0.59,-0.03,0.0,-0.05,4558,2019-04-29 17:27:30:489
0.3,0.27,9.6,0.06,1.12,-0.32,0.01,0.0,-0.01,4562,2019-04-29 17:27:30:493
0.3,0.27,9.6,0.06,1.12,-0.32,0.01,0.0,-0.01,4568,2019-04-29 17:27:30:499
0.3,0.27,9.6,0.06,1.12,-0.32,0.01,0.01,-0.04,4573,2019-04-29 17:27:30:504
0.3,0.27,9.6,0.06,1.12,-0.32,0.01,0.01,-0.04,4577,2019-04-29 17:27:30:508
0.3,0.27,9.6,0.06,1.12,-0.32,0.01,0.01,-0.04,4582,2019-04-29 17:27:30:513
0.3,0.27,9.6,0.06,1.12,-0.32,0.01,0.01,-0.04,4587,2019-04-29 17:27:30:518
0.3,0.27,9.6,0.06,1.12,-0.32,0.01,0.01,-0.04,4592,2019-04-29 17:27:30:523
0.3,0.27,9.6,0.06,1.12,-0.32,0.01,0.01,-0.04,4598,2019-04-29 17:27:30:529
0.85,0.23,10.26,0.51,1.01,0.39,-0.01,0.0,-0.04,4603,2019-04-29 17:27:30:534
0.85,0.23,10.26,0.51,1.01,0.39,-0.01,0.0,-0.04,4607,2019-04-29 17:27:30:538
0.85,0.23,10.26,0.51,1.01,0.39,-0.01,0.0,-0.04,4612,2019-04-29 17:27:30:543
1.04,0.88,9.76,0.51,1.01,0.39,0.03,0.0,-0.07,4618,2019-04-29 17:27:30:549
1.04,0.88,9.76,0.64,1.51,-0.16,0.03,0.0,-0.07,4623,2019-04-29 17:27:30:554
1.04,0.88,9.76,0.64,1.51,-0.16,0.03,0.0,-0.07,4628,2019-04-29 17:27:30:559
1.04,0.88,9.76,0.64,1.51,-0.16,0.02,0.0,-0.1,4633,2019-04-29 17:27:30:564
-0.01,-0.29,7.83,0.91,2.22,1.04,0.02,0.0,-0.1,4642,2019-04-29 17:27:30:573
-0.01,-0.29,7.83,0.91,2.22,1.04,0.02,0.0,-0.1,4642,2019-04-29 17:27:30:573
-0.01,-0.29,7.83,0.91,2.22,1.04,0.02,0.0,-0.1,4647,2019-04-29 17:27:30:578
1.69,0.09,8.13,1.21,0.15,-1.78,-0.01,-0.01,-0.12,4652,2019-04-29 17:27:30:583
1.69,0.09,8.13,1.21,0.15,-1.78,-0.01,-0.01,-0.12,4657,2019-04-29 17:27:30:588
1.69,0.09,8.13,1.21,0.15,-1.78,-0.01,-0.01,-0.12,4662,2019-04-29 17:27:30:593
1.69,0.09,8.13,1.21,0.15,-1.78,-0.01,-0.01,-0.12,4667,2019-04-29 17:27:30:598
-0.05,-1.13,10.36,-0.44,-1.19,0.44,0.0,0.05,-0.16,4673,2019-04-29 17:27:30:604
-0.05,-1.13,10.36,-0.44,-1.19,0.44,0.0,0.05,-0.16,4679,2019-04-29 17:27:30:610
-0.05,-1.13,10.36,-0.44,-1.19,0.44,0.0,0.05,-0.16,4683,2019-04-29 17:27:30:614
1.06,-1.13,10.37,-0.44,-1.19,0.44,-0.01,-0.03,-0.16,4688,2019-04-29 17:27:30:619
1.06,-1.13,10.37,0.56,-1.18,0.41,-0.01,-0.03,-0.16,4692,2019-04-29 17:27:30:623
1.06,-1.13,10.37,0.56,-1.18,0.41,-0.01,-0.03,-0.16,4697,2019-04-29 17:27:30:628
1.06,-1.13,10.37,0.56,-1.18,0.41,-0.01,-0.03,-0.16,4703,2019-04-29 17:27:30:634
1.06,-1.13,10.37,0.56,-1.18,0.41,-0.01,-0.03,-0.16,4708,2019-04-29 17:27:30:639
1.06,-1.13,10.37,0.56,-1.18,0.41,-0.01,-0.03,-0.16,4712,2019-04-29 17:27:30:643
1.06,-1.13,10.37,0.56,-1.18,0.41,-0.01,-0.03,-0.16,4718,2019-04-29 17:27:30:649
0.06,-1.32,10.58,-0.36,-1.29,0.54,-0.03,0.04,-0.19,4722,2019-04-29 17:27:30:653
0.06,-1.32,10.58,-0.36,-1.29,0.54,-0.03,0.04,-0.19,4728,2019-04-29 17:27:30:659
0.06,-1.32,10.58,-0.57,-1.79,-0.6,-0.02,0.02,-0.18,4733,2019-04-29 17:27:30:664
0.06,-1.32,10.58,-0.57,-1.79,-0.6,-0.02,0.02,-0.18,4737,2019-04-29 17:27:30:668
0.06,-1.32,10.58,-0.57,-1.79,-0.6,-0.02,0.02,-0.18,4743,2019-04-29 17:27:30:674
0.06,-1.32,10.58,-0.57,-1.79,-0.6,-0.02,0.02,-0.18,4748,2019-04-29 17:27:30:679
0.06,-1.32,10.58,-0.57,-1.79,-0.6,-0.02,0.02,-0.18,4753,2019-04-29 17:27:30:684
-0.46,-2.4,10.07,-0.57,-1.79,-0.6,-0.02,0.02,-0.18,4757,2019-04-29 17:27:30:688
-0.46,-2.4,10.07,-0.82,-1.97,0.06,0.02,0.02,-0.18,4762,2019-04-29 17:27:30:693
0.55,-2.53,10.55,-0.82,-1.97,0.06,-0.01,0.0,-0.15,4769,2019-04-29 17:27:30:700
0.55,-2.53,10.55,-0.82,-1.97,0.06,-0.01,0.0,-0.15,4773,2019-04-29 17:27:30:704
0.55,-2.53,10.55,-0.82,-1.97,0.06,-0.01,0.0,-0.15,4778,2019-04-29 17:27:30:709
0.55,-2.53,10.55,-0.82,-1.97,0.06,-0.01,0.0,-0.15,4782,2019-04-29 17:27:30:713
0.4,-2.91,10.35,-0.82,-1.97,0.06,-0.01,0.0,-0.13,4787,2019-04-29 17:27:30:718
0.4,-2.91,10.35,0.04,-1.92,0.26,-0.01,0.0,-0.13,4792,2019-04-29 17:27:30:723
0.4,-2.91,10.35,0.04,-1.92,0.26,-0.01,0.0,-0.13,4798,2019-04-29 17:27:30:729
0.4,-2.91,10.35,0.04,-1.92,0.26,-0.01,0.0,-0.13,4803,2019-04-29 17:27:30:734
0.4,-2.91,10.35,0.04,-1.92,0.26,-0.01,0.0,-0.13,4807,2019-04-29 17:27:30:738
0.53,-2.78,9.29,0.17,-1.49,-0.69,0.06,0.0,-0.11,4813,2019-04-29 17:27:30:744
0.53,-2.78,9.29,0.17,-1.49,-0.69,0.06,0.0,-0.11,4817,2019-04-29 17:27:30:748
0.53,-2.78,9.29,0.17,-1.49,-0.69,0.06,0.0,-0.11,4822,2019-04-29 17:27:30:753
0.53,-2.78,9.29,0.17,-1.49,-0.69,0.06,0.0,-0.11,4827,2019-04-29 17:27:30:758
0.41,-1.85,9.01,0.17,-1.49,-0.69,0.0,0.0,-0.09,4832,2019-04-29 17:27:30:763
0.41,-1.85,9.01,0.09,-0.12,-0.73,0.0,0.0,-0.09,4838,2019-04-29 17:27:30:769
0.41,-1.85,9.01,0.09,-0.12,-0.73,0.0,0.0,-0.09,4842,2019-04-29 17:27:30:773
0.41,-1.85,9.01,0.09,-0.12,-0.73,0.0,0.0,-0.09,4847,2019-04-29 17:27:30:778
0.41,-1.85,9.01,0.09,-0.12,-0.73,0.0,0.0,-0.09,4852,2019-04-29 17:27:30:783
0.32,-1.47,10.12,0.09,-0.12,-0.73,0.0,0.0,-0.09,4858,2019-04-29 17:27:30:789
0.32,-1.47,10.12,0.05,0.43,0.12,-0.03,0.0,-0.04,4862,2019-04-29 17:27:30:793
0.32,-1.47,10.12,0.05,0.43,0.12,-0.03,0.0,-0.04,4868,2019-04-29 17:27:30:799
0.32,-1.47,10.12,0.05,0.43,0.12,0.0,0.0,0.0,4873,2019-04-29 17:27:30:804
0.32,-1.47,10.12,0.05,0.43,0.12,0.0,0.0,0.0,4877,2019-04-29 17:27:30:808
0.32,-1.47,10.12,0.05,0.43,0.12,0.0,0.0,0.0,4883,2019-04-29 17:27:30:814
0.39,-0.22,9.18,0.05,0.43,0.12,0.0,0.0,0.0,4887,2019-04-29 17:27:30:818
0.39,-0.22,9.18,0.17,1.74,-0.72,0.05,0.0,0.04,4892,2019-04-29 17:27:30:823
0.39,-0.22,9.18,0.17,1.74,-0.72,0.05,0.0,0.04,4897,2019-04-29 17:27:30:828
0.39,-0.22,9.18,0.17,1.74,-0.72,0.05,0.0,0.04,4902,2019-04-29 17:27:30:833
0.39,-0.22,9.18,0.17,1.74,-0.72,0.05,0.0,0.04,4908,2019-04-29 17:27:30:839
0.39,-0.22,9.18,0.17,1.74,-0.72,0.05,0.0,0.04,4914,2019-04-29 17:27:30:845
0.23,0.83,9.35,0.0,2.62,-0.45,0.0,0.0,0.07,4918,2019-04-29 17:27:30:849
0.23,0.83,9.35,0.0,2.62,-0.45,0.0,0.0,0.07,4922,2019-04-29 17:27:30:853
0.23,0.83,9.35,0.0,2.62,-0.45,0.0,0.0,0.07,4927,2019-04-29 17:27:30:858
0.23,0.83,9.35,-0.07,3.64,-0.4,0.0,0.0,0.08,4934,2019-04-29 17:27:30:865
0.23,0.83,9.35,-0.07,3.64,-0.4,0.0,0.0,0.08,4938,2019-04-29 17:27:30:869
0.23,0.83,9.35,-0.07,3.64,-0.4,0.0,0.0,0.08,4943,2019-04-29 17:27:30:874
0.23,0.83,9.35,-0.07,3.64,-0.4,0.0,0.0,0.08,4947,2019-04-29 17:27:30:878
0.49,2.57,10.1,0.2,3.58,0.26,0.01,0.0,0.07,4952,2019-04-29 17:27:30:883
0.49,2.57,10.1,0.2,3.58,0.26,0.01,0.0,0.07,4957,2019-04-29 17:27:30:888
0.49,2.57,10.1,0.2,3.58,0.26,0.01,0.0,0.07,4962,2019-04-29 17:27:30:893
0.49,2.57,10.1,0.2,3.58,0.26,0.01,0.0,0.07,4967,2019-04-29 17:27:30:898
0.7,3.1,10.05,0.37,3.6,0.21,0.0,0.0,0.03,4972,2019-04-29 17:27:30:903
0.7,3.1,10.05,0.37,3.6,0.21,0.0,0.0,0.03,4978,2019-04-29 17:27:30:909
0.7,3.1,10.05,0.37,3.6,0.21,0.0,0.0,0.03,4983,2019-04-29 17:27:30:914
0.7,3.1,10.05,0.37,3.6,0.21,0.0,0.0,0.03,4988,2019-04-29 17:27:30:919
0.7,3.1,10.05,0.37,3.6,0.21,0.0,0.0,0.03,4993,2019-04-29 17:27:30:924
0.7,3.1,10.05,0.37,3.6,0.21,0.0,0.0,0.03,4998,2019-04-29 17:27:30:929
0.53,1.49,9.9,0.18,1.53,0.09,-0.03,0.0,-0.01,5002,2019-04-29 17:27:30:933
0.53,1.49,9.9,0.18,1.53,0.09,-0.03,0.0,-0.01,5008,2019-04-29 17:27:30:939
0.53,1.49,9.9,0.18,1.53,0.09,-0.03,0.0,-0.01,5013,2019-04-29 17:27:30:944
0.27,-0.52,10.47,0.18,1.53,0.09,-0.03,0.0,-0.06,5018,2019-04-29 17:27:30:949
0.27,-0.52,10.47,-0.07,-0.75,0.56,-0.03,0.0,-0.06,5023,2019-04-29 17:27:30:954
0.27,-0.52,10.47,-0.07,-0.75,0.56,0.0,0.01,-0.11,5028,2019-04-29 17:27:30:959
0.56,-2.2,10.26,0.2,-2.57,0.33,0.0,0.01,-0.11,5032,2019-04-29 17:27:30:963
0.56,-2.2,10.26,0.2,-2.57,0.33,0.0,0.01,-0.11,5037,2019-04-29 17:27:30:968
0.56,-2.2,10.26,0.2,-2.57,0.33,0.0,0.01,-0.11,5043,2019-04-29 17:27:30:974
0.56,-2.2,10.26,0.2,-2.57,0.33,0.0,0.01,-0.11,5047,2019-04-29 17:27:30:978
0.56,-2.2,10.26,0.2,-2.57,0.33,0.0,0.01,-0.11,5052,2019-04-29 17:27:30:983
0.56,-2.2,10.26,0.2,-2.57,0.33,0.0,0.01,-0.11,5057,2019-04-29 17:27:30:988
0.44,-2.03,9.14,0.07,-2.37,-0.74,-0.02,0.0,-0.14,5063,2019-04-29 17:27:30:994
0.44,-2.03,9.14,0.07,-2.37,-0.74,-0.02,0.0,-0.14,5067,2019-04-29 17:27:30:998
0.15,-2.15,9.41,-0.25,-2.32,-0.43,-0.02,0.0,-0.12,5072,2019-04-29 17:27:31:003
0.15,-2.15,9.41,-0.25,-2.32,-0.43,-0.02,0.0,-0.12,5077,2019-04-29 17:27:31:008
0.15,-2.15,9.41,-0.25,-2.32,-0.43,-0.02,0.0,-0.12,5082,2019-04-29 17:27:31:013
0.21,-1.88,9.64,-0.25,-2.32,-0.43,-0.02,0.0,-0.12,5087,2019-04-29 17:27:31:018
0.21,-1.88,9.64,-0.18,-1.97,-0.22,0.0,0.0,-0.09,5092,2019-04-29 17:27:31:023
0.21,-1.88,9.64,-0.18,-1.97,-0.22,0.0,0.0,-0.09,5098,2019-04-29 17:27:31:029
0.21,-1.88,9.64,-0.18,-1.97,-0.22,0.0,0.0,-0.09,5102,2019-04-29 17:27:31:033
-0.02,-0.84,9.88,-0.18,-1.97,-0.22,-0.02,0.0,-0.04,5107,2019-04-29 17:27:31:038
-0.02,-0.84,9.88,-0.39,-0.77,0.0,-0.02,0.0,-0.04,5112,2019-04-29 17:27:31:043
-0.02,-0.84,9.88,-0.39,-0.77,0.0,-0.02,0.0,-0.04,5117,2019-04-29 17:27:31:048
-0.02,-0.84,9.88,-0.39,-0.77,0.0,-0.02,0.0,-0.04,5122,2019-04-29 17:27:31:053
-0.02,-0.84,9.88,-0.39,-0.77,0.0,-0.02,0.0,-0.04,5127,2019-04-29 17:27:31:058
-0.2,-0.37,10.0,-0.5,-0.1,0.07,-0.03,0.0,0.0,5133,2019-04-29 17:27:31:064
-0.2,-0.37,10.0,-0.5,-0.1,0.07,-0.03,0.0,0.0,5137,2019-04-29 17:27:31:068
-0.2,-0.37,10.0,-0.5,-0.1,0.07,-0.03,0.0,0.0,5142,2019-04-29 17:27:31:073
-0.2,-0.37,10.0,-0.5,-0.1,0.07,-0.03,0.0,0.0,5147,2019-04-29 17:27:31:078
0.42,-0.12,10.21,0.15,0.4,0.28,-0.02,-0.01,0.01,5152,2019-04-29 17:27:31:083
0.42,-0.12,10.21,0.15,0.4,0.28,-0.02,-0.01,0.01,5157,2019-04-29 17:27:31:088
0.42,-0.12,10.21,0.15,0.4,0.28,-0.02,-0.01,0.01,5163,2019-04-29 17:27:31:094
0.61,1.05,10.74,0.15,0.4,0.28,-0.02,-0.01,0.01,5168,2019-04-29 17:27:31:099
0.61,1.05,10.74,0.37,1.8,0.81,-0.01,-0.01,0.01,5172,2019-04-29 17:27:31:103
0.61,1.05,10.74,0.37,1.8,0.81,-0.01,-0.01,0.01,5177,2019-04-29 17:27:31:108
0.61,1.05,10.74,0.37,1.8,0.81,-0.01,-0.01,0.01,5183,2019-04-29 17:27:31:114
0.61,1.05,10.74,0.37,1.8,0.81,-0.01,-0.01,0.01,5188,2019-04-29 17:27:31:119
0.61,1.05,10.74,0.37,1.8,0.81,-0.01,-0.01,0.01,5193,2019-04-29 17:27:31:124
0.61,1.05,10.74,0.37,1.8,0.81,-0.01,-0.01,0.01,5198,2019-04-29 17:27:31:129
1.46,0.81,10.43,1.18,1.66,0.48,-0.01,0.0,0.0,5203,2019-04-29 17:27:31:134
1.46,0.81,10.43,1.18,1.66,0.48,-0.01,0.0,0.0,5207,2019-04-29 17:27:31:138
1.46,0.81,10.43,1.18,1.66,0.48,-0.01,0.0,0.0,5213,2019-04-29 17:27:31:144
1.46,0.81,10.43,1.18,1.66,0.48,-0.01,0.0,0.0,5218,2019-04-29 17:27:31:149
1.46,0.81,10.43,1.18,1.66,0.48,-0.01,0.0,0.0,5223,2019-04-29 17:27:31:154
1.46,0.81,10.43,1.18,1.66,0.48,-0.01,0.0,0.0,5228,2019-04-29 17:27:31:159
1.46,0.81,10.43,1.18,1.66,0.48,-0.01,0.0,0.0,5232,2019-04-29 17:27:31:163
1.46,0.81,10.43,1.18,1.66,0.48,-0.01,0.0,0.0,5237,2019-04-29 17:27:31:168
1.03,0.84,10.53,0.62,1.48,0.55,-0.05,0.01,-0.07,5243,2019-04-29 17:27:31:174
1.03,0.84,10.53,0.62,1.48,0.55,-0.05,0.01,-0.07,5248,2019-04-29 17:27:31:179
1.03,0.84,10.53,0.62,1.48,0.55,-0.05,0.01,-0.07,5253,2019-04-29 17:27:31:184
1.03,0.84,10.53,0.62,1.48,0.55,-0.05,0.01,-0.07,5257,2019-04-29 17:27:31:188
0.34,-0.27,11.46,-0.03,0.13,1.32,-0.04,0.03,-0.1,5262,2019-04-29 17:27:31:193
0.34,-0.27,11.46,-0.03,0.13,1.32,-0.04,0.03,-0.1,5268,2019-04-29 17:27:31:199
0.34,-0.27,11.46,-0.03,0.13,1.32,-0.04,0.03,-0.1,5272,2019-04-29 17:27:31:203
0.34,-0.27,11.46,-0.03,0.13,1.32,-0.04,0.03,-0.1,5277,2019-04-29 17:27:31:208
-0.74,0.39,9.55,-1.05,0.49,-0.59,0.02,0.02,-0.1,5282,2019-04-29 17:27:31:213
-0.74,0.39,9.55,-1.05,0.49,-0.59,0.02,0.02,-0.1,5289,2019-04-29 17:27:31:220
-0.74,0.39,9.55,-1.05,0.49,-0.59,0.02,0.02,-0.1,5293,2019-04-29 17:27:31:224
-0.74,0.39,9.55,-1.05,0.49,-0.59,0.02,0.02,-0.1,5298,2019-04-29 17:27:31:229
-0.51,-0.12,9.77,-0.82,-0.21,-0.44,-0.03,0.0,-0.07,5304,2019-04-29 17:27:31:235
-0.51,-0.12,9.77,-0.82,-0.21,-0.44,-0.03,0.0,-0.07,5307,2019-04-29 17:27:31:238
-0.51,-0.12,9.77,-0.82,-0.21,-0.44,-0.03,0.0,-0.07,5312,2019-04-29 17:27:31:243
-0.51,-0.12,9.77,-0.82,-0.21,-0.44,-0.03,0.0,-0.07,5317,2019-04-29 17:27:31:248
-0.51,-0.12,9.77,-0.82,-0.21,-0.44,-0.03,0.0,-0.07,5322,2019-04-29 17:27:31:253
0.17,0.25,9.31,-0.82,-0.21,-0.44,-0.03,0.0,-0.07,5328,2019-04-29 17:27:31:259
0.17,0.25,9.31,-0.25,-0.08,-0.87,0.01,0.0,-0.04,5333,2019-04-29 17:27:31:264
0.17,0.25,9.31,-0.25,-0.08,-0.87,0.01,0.0,-0.04,5338,2019-04-29 17:27:31:269
0.17,0.25,9.31,-0.25,-0.08,-0.87,0.01,0.0,-0.04,5343,2019-04-29 17:27:31:274
0.17,0.25,9.31,-0.25,-0.08,-0.87,0.01,0.0,-0.04,5347,2019-04-29 17:27:31:278
0.17,0.25,9.31,-0.25,-0.08,-0.87,0.01,0.0,-0.04,5352,2019-04-29 17:27:31:283
0.63,0.43,9.84,-0.25,-0.08,-0.87,0.0,0.0,-0.05,5358,2019-04-29 17:27:31:289
0.63,0.43,9.84,0.15,0.05,-0.36,0.0,0.0,-0.05,5362,2019-04-29 17:27:31:293
0.63,0.43,9.84,0.15,0.05,-0.36,0.0,0.0,-0.05,5367,2019-04-29 17:27:31:298
0.63,0.43,9.84,0.15,0.05,-0.36,0.0,0.0,-0.05,5372,2019-04-29 17:27:31:303
0.63,0.43,9.84,0.15,0.05,-0.36,0.0,0.0,-0.05,5377,2019-04-29 17:27:31:308
0.77,-0.04,9.88,0.28,-0.38,-0.24,-0.01,0.01,-0.09,5382,2019-04-29 17:27:31:313
0.77,-0.04,9.88,0.28,-0.38,-0.24,-0.01,0.01,-0.09,5387,2019-04-29 17:27:31:318
0.77,-0.04,9.88,0.28,-0.38,-0.24,-0.01,0.01,-0.09,5393,2019-04-29 17:27:31:324
0.77,-0.04,9.88,0.28,-0.38,-0.24,-0.01,0.01,-0.09,5398,2019-04-29 17:27:31:329
0.77,-0.04,9.88,0.28,-0.38,-0.24,-0.01,0.01,-0.09,5402,2019-04-29 17:27:31:333
0.77,-0.04,9.88,0.28,-0.38,-0.24,-0.01,0.01,-0.09,5407,2019-04-29 17:27:31:338
0.7,-0.13,9.73,0.28,-0.37,-0.31,0.0,0.01,-0.11,5414,2019-04-29 17:27:31:345
0.7,-0.13,9.73,0.28,-0.37,-0.31,0.0,0.01,-0.11,5417,2019-04-29 17:27:31:348
0.7,-0.13,9.73,0.28,-0.37,-0.31,0.0,0.01,-0.11,5422,2019-04-29 17:27:31:353
0.7,-0.13,9.73,0.28,-0.37,-0.31,0.0,0.01,-0.11,5427,2019-04-29 17:27:31:358
0.63,-0.86,9.96,0.37,-0.84,-0.07,-0.02,0.01,-0.12,5433,2019-04-29 17:27:31:364
0.63,-0.86,9.96,0.37,-0.84,-0.07,-0.02,0.01,-0.12,5437,2019-04-29 17:27:31:368
0.63,-0.86,9.96,0.37,-0.84,-0.07,-0.02,0.01,-0.12,5443,2019-04-29 17:27:31:374
0.63,-1.54,10.5,0.52,-1.36,0.57,0.0,0.01,-0.13,5449,2019-04-29 17:27:31:380
0.8,-1.54,10.5,0.52,-1.36,0.57,0.0,0.01,-0.13,5452,2019-04-29 17:27:31:383
0.8,-1.54,10.5,0.52,-1.36,0.57,0.0,0.01,-0.13,5457,2019-04-29 17:27:31:388
0.8,-1.54,10.5,0.52,-1.36,0.57,0.0,0.01,-0.13,5463,2019-04-29 17:27:31:394
0.8,-1.54,10.5,0.52,-1.36,0.57,0.0,0.01,-0.13,5467,2019-04-29 17:27:31:398
0.32,-1.2,9.8,0.0,-0.86,-0.11,0.01,0.01,-0.12,5472,2019-04-29 17:27:31:403
0.32,-1.2,9.8,0.0,-0.86,-0.11,0.01,0.01,-0.12,5477,2019-04-29 17:27:31:408
0.32,-1.2,9.8,0.0,-0.86,-0.11,0.01,0.01,-0.12,5483,2019-04-29 17:27:31:414
0.32,-1.2,9.8,0.0,-0.86,-0.11,0.01,0.01,-0.12,5488,2019-04-29 17:27:31:419
0.32,-1.2,9.8,0.0,-0.86,-0.11,0.01,0.01,-0.12,5492,2019-04-29 17:27:31:423
0.32,-1.2,9.8,0.0,-0.86,-0.11,0.01,0.01,-0.12,5497,2019-04-29 17:27:31:428
0.19,-0.89,9.6,-0.13,-0.45,-0.27,-0.02,0.0,-0.11,5502,2019-04-29 17:27:31:433
0.19,-0.89,9.6,-0.13,-0.45,-0.27,-0.02,0.0,-0.11,5507,2019-04-29 17:27:31:438
0.49,-0.69,9.45,-0.13,-0.45,-0.27,0.0,0.0,-0.08,5513,2019-04-29 17:27:31:444
0.49,-0.69,9.45,-0.13,-0.45,-0.27,0.0,0.0,-0.08,5519,2019-04-29 17:27:31:450
0.49,-0.69,9.45,-0.13,-0.45,-0.27,0.0,0.0,-0.08,5523,2019-04-29 17:27:31:454
0.49,-0.69,9.45,-0.13,-0.45,-0.27,0.0,0.0,-0.08,5528,2019-04-29 17:27:31:459
-0.07,-0.88,9.83,-0.39,-0.2,-0.04,0.0,0.0,-0.07,5532,2019-04-29 17:27:31:463
-0.07,-0.88,9.83,-0.39,-0.2,-0.04,0.0,0.0,-0.07,5537,2019-04-29 17:27:31:468
-0.07,-0.88,9.83,-0.39,-0.2,-0.04,0.0,0.0,-0.07,5542,2019-04-29 17:27:31:473
-0.07,-0.88,9.83,-0.39,-0.2,-0.04,0.0,0.0,-0.07,5547,2019-04-29 17:27:31:478
-0.07,-0.88,9.83,-0.39,-0.2,-0.04,0.0,0.0,-0.07,5553,2019-04-29 17:27:31:484
0.24,-0.37,9.84,-0.39,-0.2,-0.04,0.0,0.0,-0.07,5557,2019-04-29 17:27:31:488
0.24,-0.37,9.84,-0.05,0.37,-0.02,0.0,0.0,-0.06,5563,2019-04-29 17:27:31:494
0.24,-0.37,9.84,-0.05,0.37,-0.02,0.0,0.0,-0.06,5567,2019-04-29 17:27:31:498
0.68,-0.27,9.77,0.05,0.43,0.03,-0.01,0.0,-0.06,5572,2019-04-29 17:27:31:503
0.68,-0.27,9.77,0.05,0.43,0.03,-0.01,0.0,-0.06,5577,2019-04-29 17:27:31:508
0.68,-0.27,9.77,0.05,0.43,0.03,-0.01,0.0,-0.06,5583,2019-04-29 17:27:31:514
0.68,-0.27,9.77,0.05,0.43,0.03,-0.01,0.0,-0.06,5587,2019-04-29 17:27:31:518
0.68,-0.27,9.77,0.05,0.43,0.03,-0.01,0.0,-0.06,5592,2019-04-29 17:27:31:523
0.68,-0.27,9.77,0.05,0.43,0.03,-0.01,0.0,-0.06,5597,2019-04-29 17:27:31:528
0.68,-0.27,9.77,0.05,0.43,0.03,-0.01,0.0,-0.06,5603,2019-04-29 17:27:31:534
0.29,-0.57,9.9,0.05,0.43,0.03,-0.01,0.0,-0.06,5608,2019-04-29 17:27:31:539
0.29,-0.57,9.9,-0.02,0.25,-0.03,0.0,0.0,-0.06,5612,2019-04-29 17:27:31:543
0.29,-0.57,9.9,-0.02,0.25,-0.03,0.0,0.0,-0.06,5618,2019-04-29 17:27:31:549
0.29,-0.57,9.9,-0.02,0.25,-0.03,0.0,0.0,-0.06,5623,2019-04-29 17:27:31:554
0.51,-0.35,9.58,-0.02,0.25,-0.03,-0.01,0.0,-0.07,5627,2019-04-29 17:27:31:558
0.51,-0.35,9.58,0.14,0.41,-0.32,-0.01,0.0,-0.07,5632,2019-04-29 17:27:31:563
0.51,-0.35,9.58,0.14,0.41,-0.32,-0.01,0.0,-0.07,5637,2019-04-29 17:27:31:568
0.51,-0.35,9.58,0.14,0.41,-0.32,-0.01,0.0,-0.07,5642,2019-04-29 17:27:31:573
0.51,-0.35,9.58,0.14,0.41,-0.32,-0.01,0.0,-0.07,5647,2019-04-29 17:27:31:578
0.49,-0.47,9.94,0.13,0.22,0.05,-0.02,0.0,-0.08,5653,2019-04-29 17:27:31:584
0.49,-0.47,9.94,0.13,0.22,0.05,-0.02,0.0,-0.08,5657,2019-04-29 17:27:31:588
0.49,-0.47,9.94,0.13,0.22,0.05,-0.02,0.0,-0.08,5663,2019-04-29 17:27:31:594
0.54,-0.43,10.3,0.13,0.22,0.05,0.0,0.01,-0.07,5668,2019-04-29 17:27:31:599
0.54,-0.43,10.3,0.17,0.19,0.37,0.0,0.01,-0.07,5672,2019-04-29 17:27:31:603
0.54,-0.43,10.3,0.17,0.19,0.37,0.0,0.01,-0.07,5678,2019-04-29 17:27:31:609
0.54,-0.43,10.3,0.17,0.19,0.37,0.0,0.01,-0.07,5683,2019-04-29 17:27:31:614
0.56,-0.04,9.66,0.19,0.48,-0.24,0.0,0.01,-0.07,5687,2019-04-29 17:27:31:618
0.56,-0.04,9.66,0.19,0.48,-0.24,0.0,0.01,-0.07,5693,2019-04-29 17:27:31:624
0.56,-0.04,9.66,0.19,0.48,-0.24,0.0,0.01,-0.07,5698,2019-04-29 17:27:31:629
0.56,-0.04,9.66,0.19,0.48,-0.24,0.0,0.01,-0.07,5702,2019-04-29 17:27:31:633
0.19,0.2,10.06,-0.16,0.62,0.14,-0.02,0.0,-0.07,5708,2019-04-29 17:27:31:639
0.19,0.2,10.06,-0.16,0.62,0.14,-0.02,0.0,-0.07,5712,2019-04-29 17:27:31:643
0.19,0.2,10.06,-0.16,0.62,0.14,-0.02,0.0,-0.07,5718,2019-04-29 17:27:31:649
0.19,0.2,10.06,-0.16,0.62,0.14,-0.02,0.0,-0.07,5722,2019-04-29 17:27:31:653
0.19,0.2,10.06,-0.16,0.62,0.14,-0.02,0.0,-0.07,5728,2019-04-29 17:27:31:659
0.19,0.2,10.06,-0.16,0.62,0.14,-0.02,0.0,-0.07,5732,2019-04-29 17:27:31:663
0.19,0.2,10.06,-0.16,0.62,0.14,-0.02,0.0,-0.07,5738,2019-04-29 17:27:31:669
0.53,-0.41,9.83,0.16,-0.05,-0.09,-0.01,0.0,-0.07,5742,2019-04-29 17:27:31:673
0.53,-0.41,9.83,0.16,-0.05,-0.09,-0.01,0.0,-0.07,5747,2019-04-29 17:27:31:678
0.53,-0.41,9.83,0.16,-0.05,-0.09,-0.01,0.0,-0.07,5752,2019-04-29 17:27:31:683
0.53,-0.41,9.83,0.16,-0.05,-0.09,-0.01,0.0,-0.07,5757,2019-04-29 17:27:31:688
0.67,-0.1,10.2,0.32,0.22,0.28,0.01,0.01,-0.07,5763,2019-04-29 17:27:31:694
0.67,-0.1,10.2,0.32,0.22,0.28,0.01,0.01,-0.07,5767,2019-04-29 17:27:31:698
0.67,-0.1,10.2,0.32,0.22,0.28,0.01,0.01,-0.07,5772,2019-04-29 17:27:31:703
0.67,-0.1,10.2,0.32,0.22,0.28,0.01,0.01,-0.07,5777,2019-04-29 17:27:31:708
0.78,0.37,9.56,0.43,0.65,-0.32,0.0,0.0,-0.07,5783,2019-04-29 17:27:31:714
0.78,0.37,9.56,0.43,0.65,-0.32,0.0,0.0,-0.07,5788,2019-04-29 17:27:31:719
0.17,0.25,9.82,-0.12,0.47,-0.09,-0.02,0.0,-0.07,5792,2019-04-29 17:27:31:723
0.17,0.25,9.82,-0.12,0.47,-0.09,-0.02,0.0,-0.07,5797,2019-04-29 17:27:31:728
0.17,0.25,9.82,-0.12,0.47,-0.09,-0.02,0.0,-0.07,5802,2019-04-29 17:27:31:733
0.17,0.25,9.82,-0.12,0.47,-0.09,-0.02,0.0,-0.07,5807,2019-04-29 17:27:31:738
0.18,-0.21,10.76,-0.11,0.0,0.8,0.0,0.0,-0.06,5813,2019-04-29 17:27:31:744
0.18,-0.21,10.76,-0.11,0.0,0.8,0.0,0.0,-0.06,5817,2019-04-29 17:27:31:748
0.18,-0.21,10.76,-0.11,0.0,0.8,0.0,0.0,-0.06,5823,2019-04-29 17:27:31:754
0.18,-0.21,10.76,-0.11,0.0,0.8,0.0,0.0,-0.06,5828,2019-04-29 17:27:31:759
0.18,-0.21,10.76,-0.11,0.0,0.8,0.0,0.0,-0.06,5834,2019-04-29 17:27:31:765
0.18,-0.21,10.76,-0.11,0.0,0.8,0.0,0.0,-0.06,5837,2019-04-29 17:27:31:768
-0.02,-0.78,8.87,-0.3,-0.58,-1.02,0.0,0.0,-0.06,5842,2019-04-29 17:27:31:773
-0.02,-0.78,8.87,-0.3,-0.58,-1.02,0.0,0.0,-0.06,5847,2019-04-29 17:27:31:778
-0.02,-0.78,8.87,-0.3,-0.58,-1.02,-0.02,0.01,-0.07,5852,2019-04-29 17:27:31:783
-0.02,-0.78,8.87,-0.3,-0.58,-1.02,-0.02,0.01,-0.07,5858,2019-04-29 17:27:31:789
-0.02,-0.78,8.87,-0.3,-0.58,-1.02,-0.02,0.01,-0.07,5862,2019-04-29 17:27:31:793
-0.11,-1.11,10.58,-0.38,-0.75,0.66,-0.02,-0.01,-0.03,5868,2019-04-29 17:27:31:799
-0.11,-1.11,10.58,-0.38,-0.75,0.66,-0.02,-0.01,-0.03,5873,2019-04-29 17:27:31:804
-0.11,-1.11,10.58,-0.38,-0.75,0.66,-0.02,-0.01,-0.03,5878,2019-04-29 17:27:31:809
-0.11,-1.11,10.58,-0.38,-0.75,0.66,-0.02,-0.01,-0.03,5883,2019-04-29 17:27:31:814
-0.11,-1.11,10.58,-0.38,-0.75,0.66,-0.02,-0.01,-0.03,5887,2019-04-29 17:27:31:818
0.78,-0.12,9.66,0.47,0.22,-0.26,0.0,0.0,-0.05,5892,2019-04-29 17:27:31:823
0.78,-0.12,9.66,0.47,0.22,-0.26,0.0,0.0,-0.05,5897,2019-04-29 17:27:31:828
0.78,-0.12,9.66,0.47,0.22,-0.26,0.0,0.0,-0.05,5902,2019-04-29 17:27:31:833
1.04,-0.47,9.78,0.47,0.22,-0.26,-0.01,0.0,-0.07,5908,2019-04-29 17:27:31:839
1.04,-0.47,9.78,0.69,-0.04,-0.1,-0.01,0.0,-0.07,5912,2019-04-29 17:27:31:843
1.04,-0.47,9.78,0.69,-0.04,-0.1,-0.01,0.0,-0.07,5918,2019-04-29 17:27:31:849
1.04,-0.47,9.78,0.69,-0.04,-0.1,-0.01,0.0,-0.07,5922,2019-04-29 17:27:31:853
1.04,-0.47,9.78,0.69,-0.04,-0.1,-0.01,0.0,-0.07,5927,2019-04-29 17:27:31:858
1.19,-0.24,10.42,0.84,0.2,0.52,-0.01,0.02,-0.07,5933,2019-04-29 17:27:31:864
1.19,-0.24,10.42,0.84,0.2,0.52,-0.01,0.02,-0.07,5938,2019-04-29 17:27:31:869
1.19,-0.24,10.42,0.84,0.2,0.52,-0.01,0.02,-0.07,5942,2019-04-29 17:27:31:873
1.19,-0.24,10.42,0.84,0.2,0.52,-0.01,0.02,-0.07,5947,2019-04-29 17:27:31:878
1.23,-0.31,10.01,0.86,0.16,0.1,-0.01,0.02,-0.07,5952,2019-04-29 17:27:31:883
1.23,-0.31,10.01,0.86,0.16,0.1,-0.01,0.02,-0.07,5957,2019-04-29 17:27:31:888
1.23,-0.31,10.01,0.86,0.16,0.1,-0.01,0.02,-0.07,5963,2019-04-29 17:27:31:894
1.23,-0.31,10.01,0.86,0.16,0.1,-0.01,0.02,-0.07,5967,2019-04-29 17:27:31:898
1.32,-0.17,10.29,0.94,0.35,0.34,-0.01,0.01,-0.09,5972,2019-04-29 17:27:31:903
1.32,-0.17,10.29,0.94,0.35,0.34,-0.01,0.01,-0.09,5977,2019-04-29 17:27:31:908
1.32,-0.17,10.29,0.94,0.35,0.34,-0.01,0.01,-0.09,5983,2019-04-29 17:27:31:914
0.79,-0.37,9.98,0.94,0.35,0.34,-0.01,0.01,-0.09,5987,2019-04-29 17:27:31:918
0.79,-0.37,9.98,0.41,0.19,0.07,0.0,0.02,-0.1,5992,2019-04-29 17:27:31:923
0.79,-0.37,9.98,0.41,0.19,0.07,0.0,0.02,-0.1,5997,2019-04-29 17:27:31:928
0.79,-0.37,9.98,0.41,0.19,0.07,0.0,0.02,-0.1,6002,2019-04-29 17:27:31:933
0.79,-0.37,9.98,0.41,0.19,0.07,0.0,0.02,-0.1,6007,2019-04-29 17:27:31:938
0.04,-0.57,9.66,-0.31,0.04,-0.2,0.0,0.01,-0.09,6013,2019-04-29 17:27:31:944
0.04,-0.57,9.66,-0.31,0.04,-0.2,0.0,0.01,-0.09,6019,2019-04-29 17:27:31:950
0.04,-0.57,9.66,-0.31,0.04,-0.2,0.0,0.01,-0.09,6022,2019-04-29 17:27:31:953
0.04,-0.57,9.66,-0.31,0.04,-0.2,0.0,0.01,-0.09,6027,2019-04-29 17:27:31:958
0.04,-0.57,9.66,-0.31,0.04,-0.2,0.0,0.01,-0.09,6033,2019-04-29 17:27:31:964
0.04,-0.57,9.66,-0.31,0.04,-0.2,0.0,0.01,-0.09,6037,2019-04-29 17:27:31:968
-0.63,-0.97,9.78,-0.99,-0.33,-0.14,-0.01,0.0,-0.06,6042,2019-04-29 17:27:31:973
-0.63,-0.97,9.78,-0.99,-0.33,-0.14,-0.01,0.0,-0.06,6047,2019-04-29 17:27:31:978
-0.66,-1.05,9.88,0.96,0.01,0.45,-0.01,0.0,-0.03,6053,2019-04-29 17:27:31:984
-0.66,-1.05,9.88,0.96,0.01,0.45,-0.01,0.0,-0.03,6057,2019-04-29 17:27:31:988
-0.66,-1.05,9.88,0.96,0.01,0.45,-0.01,0.0,-0.03,6063,2019-04-29 17:27:31:994
-0.66,-1.06,9.96,0.96,0.01,0.45,-0.01,0.0,-0.03,6067,2019-04-29 17:27:31:998
-0.47,-1.06,9.96,-0.84,-0.5,0.02,0.0,-0.01,-0.02,6072,2019-04-29 17:27:32:003
-0.47,-1.06,9.96,-0.84,-0.5,0.02,0.0,-0.01,-0.02,6077,2019-04-29 17:27:32:008
-0.47,-1.06,9.96,-0.84,-0.5,0.02,0.0,-0.01,-0.02,6083,2019-04-29 17:27:32:014
-0.36,-1.17,9.99,-0.84,-0.5,0.02,0.01,0.0,-0.02,6088,2019-04-29 17:27:32:019
-0.36,-1.17,9.99,-0.69,-0.55,0.07,0.01,0.0,-0.02,6092,2019-04-29 17:27:32:023
-0.36,-1.17,9.99,-0.69,-0.55,0.07,0.01,0.0,-0.02,6097,2019-04-29 17:27:32:028
-0.36,-1.17,9.99,-0.69,-0.55,0.07,0.01,0.0,-0.02,6102,2019-04-29 17:27:32:033
-0.36,-1.17,9.99,-0.69,-0.55,0.07,0.01,0.0,-0.02,6107,2019-04-29 17:27:32:038
0.13,-0.57,9.59,-0.18,0.03,-0.33,0.0,0.0,-0.02,6112,2019-04-29 17:27:32:043
0.13,-0.57,9.59,-0.18,0.03,-0.33,0.0,0.0,-0.02,6117,2019-04-29 17:27:32:048
0.13,-0.57,9.59,-0.18,0.03,-0.33,0.0,0.0,-0.02,6123,2019-04-29 17:27:32:054
0.13,-0.57,9.59,-0.18,0.03,-0.33,0.0,0.0,-0.02,6127,2019-04-29 17:27:32:058
0.13,-0.57,9.59,-0.18,0.03,-0.33,0.0,0.0,-0.02,6132,2019-04-29 17:27:32:063
0.13,-0.57,9.59,-0.18,0.03,-0.33,0.0,0.0,-0.02,6137,2019-04-29 17:27:32:068
0.54,-0.14,9.76,0.22,0.46,-0.16,-0.02,0.0,-0.02,6142,2019-04-29 17:27:32:073
0.54,-0.14,9.76,0.22,0.46,-0.16,-0.02,0.0,-0.02,6147,2019-04-29 17:27:32:078
0.93,-0.56,10.55,-0.55,0.08,-0.63,0.0,0.0,-0.02,6153,2019-04-29 17:27:32:084
0.93,-0.56,10.55,-0.55,0.08,-0.63,0.0,0.0,-0.02,6157,2019-04-29 17:27:32:088
0.93,-0.56,10.55,-0.55,0.08,-0.63,0.0,0.0,-0.02,6163,2019-04-29 17:27:32:094
0.93,-0.56,10.55,-0.55,0.08,-0.63,0.0,0.0,-0.02,6167,2019-04-29 17:27:32:098
0.9,-0.34,9.86,0.61,0.26,-0.04,0.01,0.01,-0.01,6173,2019-04-29 17:27:32:104
0.9,-0.34,9.86,0.61,0.26,-0.04,0.01,0.01,-0.01,6178,2019-04-29 17:27:32:109
0.9,-0.34,9.86,0.61,0.26,-0.04,0.01,0.01,-0.01,6182,2019-04-29 17:27:32:113
0.9,-0.34,9.86,0.61,0.26,-0.04,0.01,0.01,-0.01,6187,2019-04-29 17:27:32:118
0.83,-0.35,9.83,0.55,0.29,-0.09,-0.03,0.01,0.0,6193,2019-04-29 17:27:32:124
0.83,-0.35,9.83,0.55,0.29,-0.09,-0.03,0.01,0.0,6198,2019-04-29 17:27:32:129
0.83,-0.35,9.83,0.55,0.29,-0.09,-0.03,0.01,0.0,6202,2019-04-29 17:27:32:133
0.83,-0.35,9.83,0.55,0.29,-0.09,-0.03,0.01,0.0,6208,2019-04-29 17:27:32:139
0.83,-0.35,9.83,0.55,0.29,-0.09,-0.03,0.01,0.0,6213,2019-04-29 17:27:32:144
0.83,-1.06,10.13,0.55,0.29,-0.09,-0.01,0.0,0.0,6219,2019-04-29 17:27:32:150
0.83,-1.06,10.13,0.53,-0.35,0.18,-0.01,0.0,0.0,6222,2019-04-29 17:27:32:153
0.83,-1.06,10.13,0.53,-0.35,0.18,-0.01,0.0,0.0,6227,2019-04-29 17:27:32:158
0.04,-1.67,9.9,0.53,-0.35,0.18,0.01,0.0,0.01,6232,2019-04-29 17:27:32:163
0.04,-1.67,9.9,0.53,-0.35,0.18,0.01,0.0,0.01,6238,2019-04-29 17:27:32:169
0.04,-1.67,9.9,0.53,-0.35,0.18,0.01,0.0,0.01,6243,2019-04-29 17:27:32:174
0.04,-1.53,10.03,0.16,-0.65,0.11,0.0,0.0,0.01,6247,2019-04-29 17:27:32:178
0.48,-1.53,10.03,0.16,-0.65,0.11,0.0,0.0,0.01,6253,2019-04-29 17:27:32:184
0.48,-1.53,10.03,0.16,-0.65,0.11,0.0,0.0,0.01,6258,2019-04-29 17:27:32:189
0.48,-1.53,10.03,0.16,-0.65,0.11,0.0,0.0,0.01,6265,2019-04-29 17:27:32:196
0.23,-1.26,9.61,0.16,-0.65,0.11,0.0,0.0,0.02,6269,2019-04-29 17:27:32:200
0.23,-1.26,9.61,-0.07,-0.33,-0.27,0.0,0.0,0.02,6273,2019-04-29 17:27:32:204
0.23,-1.26,9.61,-0.07,-0.33,-0.27,0.0,0.0,0.02,6277,2019-04-29 17:27:32:208
0.23,-1.26,9.61,-0.07,-0.33,-0.27,0.0,0.0,0.02,6283,2019-04-29 17:27:32:214
0.08,-1.16,9.91,-0.23,-0.19,0.0,0.0,0.0,0.01,6288,2019-04-29 17:27:32:219
0.08,-1.16,9.91,-0.23,-0.19,0.0,0.0,0.0,0.01,6292,2019-04-29 17:27:32:223
0.08,-1.16,9.91,-0.23,-0.19,0.0,0.0,0.0,0.01,6297,2019-04-29 17:27:32:228
0.08,-1.16,9.91,-0.23,-0.19,0.0,0.0,0.0,0.01,6303,2019-04-29 17:27:32:234
0.08,-1.16,9.91,-0.23,-0.19,0.0,0.0,0.0,0.01,6307,2019-04-29 17:27:32:238
-0.04,-1.02,9.94,-0.34,-0.02,0.03,0.01,0.0,0.01,6314,2019-04-29 17:27:32:245
-0.04,-1.02,9.94,-0.34,-0.02,0.03,0.01,0.0,0.01,6317,2019-04-29 17:27:32:248
-0.04,-1.02,9.94,-0.34,-0.02,0.03,0.01,0.0,0.01,6322,2019-04-29 17:27:32:253
-0.04,-0.71,9.69,-0.34,-0.02,0.03,0.01,0.0,0.01,6327,2019-04-29 17:27:32:258
-0.01,-0.71,9.69,-0.32,0.29,-0.2,-0.01,0.0,0.01,6333,2019-04-29 17:27:32:264
-0.01,-0.71,9.69,-0.32,0.29,-0.2,-0.01,0.0,0.01,6338,2019-04-29 17:27:32:269
-0.01,-0.71,9.69,-0.32,0.29,-0.2,-0.01,0.0,0.01,6342,2019-04-29 17:27:32:273
-0.01,-0.71,9.69,-0.32,0.29,-0.2,-0.01,0.0,0.01,6347,2019-04-29 17:27:32:278
-0.01,-0.71,9.69,-0.32,0.29,-0.2,-0.01,0.0,0.01,6352,2019-04-29 17:27:32:283
0.04,-1.03,9.85,-0.32,0.29,-0.2,-0.01,0.0,0.01,6359,2019-04-29 17:27:32:290
0.04,-1.03,9.85,-0.25,0.03,-0.03,-0.01,0.0,0.0,6363,2019-04-29 17:27:32:294
0.04,-1.03,9.85,-0.25,0.03,-0.03,-0.01,0.0,0.0,6367,2019-04-29 17:27:32:298
0.25,-1.22,10.19,-0.25,0.03,-0.03,-0.01,0.0,0.0,6372,2019-04-29 17:27:32:303
0.25,-1.22,10.19,-0.25,0.03,-0.03,-0.01,0.0,0.0,6378,2019-04-29 17:27:32:309
0.25,-1.22,10.19,-0.25,0.03,-0.03,-0.01,0.0,0.0,6382,2019-04-29 17:27:32:313
0.25,-1.22,10.19,-0.25,0.03,-0.03,-0.01,0.0,0.0,6387,2019-04-29 17:27:32:318
0.42,-0.97,9.73,0.1,0.17,-0.17,0.0,0.0,0.01,6393,2019-04-29 17:27:32:324
0.42,-0.97,9.73,0.1,0.17,-0.17,0.0,0.0,0.01,6398,2019-04-29 17:27:32:329
0.42,-0.97,9.73,0.1,0.17,-0.17,0.0,0.0,0.01,6402,2019-04-29 17:27:32:333
0.42,-0.97,9.73,0.1,0.17,-0.17,0.0,0.0,0.01,6408,2019-04-29 17:27:32:339
0.62,-0.9,9.86,0.29,0.24,-0.02,-0.01,0.0,0.01,6412,2019-04-29 17:27:32:343
0.62,-0.9,9.86,0.29,0.24,-0.02,-0.01,0.0,0.01,6418,2019-04-29 17:27:32:349
0.62,-0.9,9.86,0.29,0.24,-0.02,-0.01,0.0,0.01,6422,2019-04-29 17:27:32:353
0.56,-1.11,10.19,0.29,0.24,-0.02,0.0,0.0,0.01,6428,2019-04-29 17:27:32:359
0.56,-1.11,10.19,0.22,0.0,0.26,0.0,0.0,0.01,6433,2019-04-29 17:27:32:364
0.56,-1.11,10.19,0.22,0.0,0.26,0.0,0.0,0.01,6437,2019-04-29 17:27:32:368
0.56,-1.11,10.19,0.22,0.0,0.26,0.0,0.0,0.01,6442,2019-04-29 17:27:32:373
0.56,-1.11,10.19,0.22,0.0,0.26,0.0,0.0,0.01,6447,2019-04-29 17:27:32:378
0.56,-1.11,10.19,0.22,0.0,0.26,0.0,0.0,0.01,6453,2019-04-29 17:27:32:384
0.56,-1.11,10.19,0.22,0.0,0.26,0.0,0.0,0.01,6457,2019-04-29 17:27:32:388
0.42,-1.0,10.04,0.09,0.04,0.12,0.01,0.0,0.01,6462,2019-04-29 17:27:32:393
0.42,-1.0,10.04,0.09,0.04,0.12,0.01,0.0,0.01,6467,2019-04-29 17:27:32:398
0.42,-1.0,10.04,0.09,0.04,0.12,0.01,0.0,0.01,6473,2019-04-29 17:27:32:404
0.37,-0.82,9.79,0.09,0.04,0.12,0.0,0.0,0.03,6477,2019-04-29 17:27:32:408
0.37,-0.82,9.79,0.05,0.18,-0.13,0.0,0.0,0.03,6482,2019-04-29 17:27:32:413
0.37,-0.82,9.79,0.05,0.18,-0.13,0.0,0.0,0.03,6487,2019-04-29 17:27:32:418
0.37,-0.82,9.79,0.05,0.18,-0.13,0.0,0.0,0.03,6493,2019-04-29 17:27:32:424
0.37,-0.82,9.79,0.05,0.18,-0.13,0.0,0.0,0.03,6497,2019-04-29 17:27:32:428
0.29,-0.96,9.8,0.05,0.18,-0.13,0.0,0.0,0.03,6502,2019-04-29 17:27:32:433
0.29,-0.96,9.8,-0.01,0.02,-0.11,0.0,0.0,0.04,6507,2019-04-29 17:27:32:438
0.29,-0.96,9.8,-0.01,0.02,-0.11,0.0,0.0,0.04,6514,2019-04-29 17:27:32:445
0.29,-0.96,9.8,-0.01,0.02,-0.11,0.0,0.0,0.04,6517,2019-04-29 17:27:32:448
0.29,-0.96,9.8,-0.01,0.02,-0.11,0.0,0.0,0.04,6523,2019-04-29 17:27:32:454
0.29,-0.96,9.8,-0.01,0.02,-0.11,0.0,0.0,0.04,6528,2019-04-29 17:27:32:459
0.1,-1.07,9.71,-0.19,-0.03,-0.19,0.0,0.0,0.07,6532,2019-04-29 17:27:32:463
0.1,-1.07,9.71,-0.19,-0.03,-0.19,0.0,0.0,0.07,6537,2019-04-29 17:27:32:468
0.1,-1.07,9.71,-0.19,-0.03,-0.19,0.0,0.0,0.07,6542,2019-04-29 17:27:32:473
0.1,-1.07,9.71,-0.19,-0.03,-0.19,0.0,0.0,0.07,6547,2019-04-29 17:27:32:478
0.24,-1.43,9.29,-0.06,-0.36,-0.58,-0.01,0.0,0.07,6553,2019-04-29 17:27:32:484
0.24,-1.43,9.29,-0.06,-0.36,-0.58,-0.01,0.0,0.07,6557,2019-04-29 17:27:32:488
0.24,-1.43,9.29,-0.06,-0.36,-0.58,-0.01,0.0,0.07,6562,2019-04-29 17:27:32:493
0.24,-1.43,9.29,-0.06,-0.36,-0.58,-0.01,0.0,0.07,6567,2019-04-29 17:27:32:498
0.24,-1.43,9.29,-0.06,-0.36,-0.58,-0.01,0.0,0.07,6572,2019-04-29 17:27:32:503
0.36,-1.03,10.1,-0.06,-0.36,-0.58,-0.01,0.0,0.07,6579,2019-04-29 17:27:32:510
0.36,-1.03,10.1,0.05,0.04,0.23,0.0,0.0,0.07,6583,2019-04-29 17:27:32:514
0.36,-1.03,10.1,0.05,0.04,0.23,0.0,0.0,0.07,6587,2019-04-29 17:27:32:518
0.48,-1.15,9.65,0.05,0.04,0.23,-0.01,0.0,0.06,6592,2019-04-29 17:27:32:523
0.48,-1.15,9.65,0.05,0.04,0.23,-0.01,0.0,0.06,6598,2019-04-29 17:27:32:529
0.48,-1.15,9.65,0.05,0.04,0.23,-0.01,0.0,0.06,6603,2019-04-29 17:27:32:534
0.48,-1.15,9.65,0.05,0.04,0.23,-0.01,0.0,0.06,6607,2019-04-29 17:27:32:538
0.38,-0.83,9.68,0.05,0.23,-0.16,0.0,0.0,0.06,6612,2019-04-29 17:27:32:543
0.38,-0.83,9.68,0.05,0.23,-0.16,0.0,0.0,0.06,6617,2019-04-29 17:27:32:548
0.38,-0.83,9.68,0.05,0.23,-0.16,0.0,0.0,0.06,6623,2019-04-29 17:27:32:554
0.38,-0.83,9.68,0.05,0.23,-0.16,0.0,0.0,0.06,6628,2019-04-29 17:27:32:559
0.31,-0.75,9.97,0.0,0.3,0.13,-0.01,0.0,0.06,6632,2019-04-29 17:27:32:563
0.31,-0.75,9.97,0.0,0.3,0.13,-0.01,0.0,0.06,6637,2019-04-29 17:27:32:568
0.31,-0.75,9.97,0.0,0.3,0.13,-0.01,0.0,0.06,6642,2019-04-29 17:27:32:573
0.31,-0.75,9.97,0.0,0.3,0.13,-0.01,0.0,0.06,6647,2019-04-29 17:27:32:578
0.4,-0.99,10.24,0.09,0.04,0.37,0.01,0.0,0.06,6653,2019-04-29 17:27:32:584
0.4,-0.99,10.24,0.09,0.04,0.37,0.01,0.0,0.06,6657,2019-04-29 17:27:32:588
0.4,-0.99,10.24,0.09,0.04,0.37,0.01,0.0,0.06,6664,2019-04-29 17:27:32:595
0.4,-0.99,10.24,0.09,0.04,0.37,0.01,0.0,0.06,6667,2019-04-29 17:27:32:598
0.35,-0.89,9.97,0.04,0.13,0.1,0.01,0.0,0.07,6672,2019-04-29 17:27:32:603
0.35,-0.89,9.97,0.04,0.13,0.1,0.01,0.0,0.07,6677,2019-04-29 17:27:32:608
0.35,-0.89,9.97,0.04,0.13,0.1,0.01,0.0,0.07,6683,2019-04-29 17:27:32:614
0.35,-0.89,9.97,0.04,0.13,0.1,0.01,0.0,0.07,6687,2019-04-29 17:27:32:618
0.35,-0.89,9.97,0.04,0.13,0.1,0.01,0.0,0.07,6692,2019-04-29 17:27:32:623
0.23,-0.73,9.67,0.04,0.13,0.1,-0.01,0.0,0.07,6699,2019-04-29 17:27:32:630
0.23,-0.73,9.67,-0.07,0.28,-0.18,-0.01,0.0,0.07,6702,2019-04-29 17:27:32:633
0.23,-0.73,9.67,-0.07,0.28,-0.18,-0.01,0.0,0.07,6707,2019-04-29 17:27:32:638
0.23,-0.73,9.67,-0.07,0.28,-0.18,-0.01,-0.01,0.07,6712,2019-04-29 17:27:32:643
0.23,-0.73,9.67,-0.07,0.28,-0.18,-0.01,-0.01,0.07,6717,2019-04-29 17:27:32:648
0.23,-0.73,9.67,-0.07,0.28,-0.18,-0.01,-0.01,0.07,6723,2019-04-29 17:27:32:654
0.23,-0.73,9.67,-0.07,0.28,-0.18,-0.01,-0.01,0.07,6727,2019-04-29 17:27:32:658
0.23,-1.54,10.64,-0.08,-0.5,0.72,0.02,-0.01,0.07,6732,2019-04-29 17:27:32:663
0.23,-1.54,10.64,-0.08,-0.5,0.72,0.02,-0.01,0.07,6738,2019-04-29 17:27:32:669
0.23,-1.54,10.64,-0.08,-0.5,0.72,0.02,-0.01,0.07,6743,2019-04-29 17:27:32:674
0.23,-1.54,10.64,-0.08,-0.5,0.72,0.02,-0.01,0.07,6747,2019-04-29 17:27:32:678
0.04,-0.9,9.6,0.01,0.14,-0.28,0.01,0.0,0.07,6752,2019-04-29 17:27:32:683
0.04,-0.9,9.6,0.01,0.14,-0.28,0.01,0.0,0.07,6757,2019-04-29 17:27:32:688
0.04,-0.9,9.6,0.01,0.14,-0.28,0.01,0.0,0.07,6763,2019-04-29 17:27:32:694
0.04,-0.9,9.6,0.01,0.14,-0.28,0.01,0.0,0.07,6767,2019-04-29 17:27:32:698
0.38,-1.36,10.52,0.07,-0.35,0.57,0.02,-0.01,0.07,6773,2019-04-29 17:27:32:704
0.38,-1.36,10.52,0.07,-0.35,0.57,0.02,-0.01,0.07,6777,2019-04-29 17:27:32:708
0.38,-1.36,10.52,0.07,-0.35,0.57,0.02,-0.01,0.07,6785,2019-04-29 17:27:32:716
0.42,-0.91,9.65,0.07,-0.35,0.57,0.0,0.0,0.07,6788,2019-04-29 17:27:32:719
0.42,-0.91,9.65,0.13,0.1,-0.28,0.0,0.0,0.07,6793,2019-04-29 17:27:32:724
0.42,-0.91,9.65,0.13,0.1,-0.28,0.0,0.0,0.07,6798,2019-04-29 17:27:32:729
0.45,-1.01,9.66,0.18,0.02,-0.3,0.01,-0.01,0.08,6802,2019-04-29 17:27:32:733
0.45,-1.01,9.66,0.18,0.02,-0.3,0.01,-0.01,0.08,6807,2019-04-29 17:27:32:738
0.45,-1.01,9.66,0.18,0.02,-0.3,0.01,-0.01,0.08,6814,2019-04-29 17:27:32:745
0.33,-1.26,10.37,0.18,0.02,-0.3,0.01,-0.02,0.08,6818,2019-04-29 17:27:32:749
0.33,-1.26,10.37,0.06,-0.18,0.4,0.01,-0.02,0.08,6822,2019-04-29 17:27:32:753
0.33,-1.26,10.37,0.06,-0.18,0.4,0.01,-0.02,0.08,6827,2019-04-29 17:27:32:758
0.33,-1.26,10.37,0.06,-0.18,0.4,0.01,-0.02,0.08,6833,2019-04-29 17:27:32:764
0.33,-1.26,10.37,0.06,-0.18,0.4,0.01,-0.02,0.08,6838,2019-04-29 17:27:32:769
0.33,-1.26,10.37,0.06,-0.18,0.4,0.01,-0.02,0.08,6843,2019-04-29 17:27:32:774
0.33,-1.26,10.37,0.06,-0.18,0.4,0.01,-0.02,0.08,6847,2019-04-29 17:27:32:778
0.13,-0.95,9.39,-0.13,0.14,-0.49,0.01,-0.01,0.1,6852,2019-04-29 17:27:32:783
0.13,-0.95,9.39,-0.13,0.14,-0.49,0.01,-0.01,0.1,6857,2019-04-29 17:27:32:788
0.13,-0.95,9.39,-0.13,0.14,-0.49,0.0,-0.01,0.12,6865,2019-04-29 17:27:32:796
0.13,-0.95,9.39,-0.13,0.14,-0.49,0.0,-0.01,0.12,6867,2019-04-29 17:27:32:798
0.13,-0.95,9.39,-0.13,0.14,-0.49,0.0,-0.01,0.12,6872,2019-04-29 17:27:32:803
0.13,-0.95,9.39,-0.13,0.14,-0.49,0.0,-0.01,0.12,6877,2019-04-29 17:27:32:808
0.69,-1.83,10.32,0.35,-0.62,0.43,0.0,-0.02,0.12,6883,2019-04-29 17:27:32:814
0.69,-1.83,10.32,0.35,-0.62,0.43,0.0,-0.02,0.12,6887,2019-04-29 17:27:32:818
0.69,-1.83,10.32,0.35,-0.62,0.43,0.0,-0.02,0.12,6892,2019-04-29 17:27:32:823
0.69,-1.83,10.32,0.35,-0.62,0.43,0.0,-0.02,0.12,6897,2019-04-29 17:27:32:828
0.69,-1.83,10.32,0.35,-0.62,0.43,0.0,-0.02,0.12,6902,2019-04-29 17:27:32:833
0.69,-1.83,10.32,0.35,-0.62,0.43,0.0,-0.02,0.12,6907,2019-04-29 17:27:32:838
0.51,-0.96,9.27,0.15,0.25,-0.55,0.0,-0.02,0.12,6913,2019-04-29 17:27:32:844
0.51,-0.96,9.27,0.15,0.25,-0.55,0.0,-0.02,0.12,6917,2019-04-29 17:27:32:848
0.51,-0.96,9.27,0.15,0.25,-0.55,0.0,-0.02,0.12,6923,2019-04-29 17:27:32:854
0.51,-0.96,9.27,0.15,0.25,-0.55,0.0,-0.02,0.12,6928,2019-04-29 17:27:32:859
1.01,-1.53,11.08,0.63,-0.32,1.24,0.0,0.0,0.11,6933,2019-04-29 17:27:32:864
1.01,-1.53,11.08,0.63,-0.32,1.24,0.0,0.0,0.11,6937,2019-04-29 17:27:32:868
1.01,-1.53,11.08,0.63,-0.32,1.24,0.0,0.0,0.09,6942,2019-04-29 17:27:32:873
1.01,-1.53,11.08,0.63,-0.32,1.24,0.0,0.0,0.09,6947,2019-04-29 17:27:32:878
1.01,-1.53,11.08,0.63,-0.32,1.24,0.0,0.0,0.09,6952,2019-04-29 17:27:32:883
1.15,-0.61,8.82,0.63,-0.32,1.24,0.0,0.0,0.1,6957,2019-04-29 17:27:32:888
1.15,-0.61,8.82,0.72,0.55,-0.89,0.0,0.0,0.1,6963,2019-04-29 17:27:32:894
1.15,-0.61,8.82,0.72,0.55,-0.89,0.0,0.0,0.1,6967,2019-04-29 17:27:32:898
1.15,-0.61,8.82,0.72,0.55,-0.89,0.0,0.0,0.1,6973,2019-04-29 17:27:32:904
1.15,-0.61,8.82,0.02,-0.78,1.89,-0.01,0.0,0.08,6978,2019-04-29 17:27:32:909
0.42,-1.97,11.69,0.02,-0.78,1.89,-0.01,0.0,0.08,6982,2019-04-29 17:27:32:913
0.42,-1.97,11.69,0.02,-0.78,1.89,-0.01,0.0,0.08,6987,2019-04-29 17:27:32:918
0.42,-1.97,11.69,0.02,-0.78,1.89,-0.01,0.0,0.08,6992,2019-04-29 17:27:32:923
0.42,-1.97,11.69,0.02,-0.78,1.89,-0.01,0.0,0.08,6998,2019-04-29 17:27:32:929
0.42,-1.97,11.69,0.02,-0.78,1.89,-0.01,0.0,0.08,7002,2019-04-29 17:27:32:933
0.42,-1.97,11.69,0.02,-0.78,1.89,-0.01,0.0,0.08,7007,2019-04-29 17:27:32:938
0.8,-0.5,9.73,0.4,0.62,-0.03,0.0,-0.01,0.06,7014,2019-04-29 17:27:32:945
0.8,-0.5,9.73,0.4,0.62,-0.03,0.0,-0.01,0.06,7017,2019-04-29 17:27:32:948
0.02,-1.31,9.33,0.4,0.62,-0.03,0.0,0.0,0.07,7023,2019-04-29 17:27:32:954
0.02,-1.31,9.33,0.4,0.62,-0.03,0.0,0.0,0.07,7027,2019-04-29 17:27:32:958
0.02,-1.31,9.33,0.4,0.62,-0.03,0.0,0.0,0.07,7033,2019-04-29 17:27:32:964
0.02,-1.31,9.33,0.4,0.62,-0.03,0.0,0.0,0.07,7037,2019-04-29 17:27:32:968
-0.22,-2.12,10.62,-0.62,-0.91,0.74,0.0,0.01,0.09,7042,2019-04-29 17:27:32:973
-0.22,-2.12,10.62,-0.62,-0.91,0.74,0.0,0.01,0.09,7047,2019-04-29 17:27:32:978
-0.22,-2.12,10.62,-0.62,-0.91,0.74,0.0,0.01,0.09,7052,2019-04-29 17:27:32:983
-0.22,-2.12,10.62,-0.62,-0.91,0.74,0.0,0.01,0.09,7057,2019-04-29 17:27:32:988
-0.22,-2.12,10.62,-0.62,-0.91,0.74,0.0,0.01,0.09,7063,2019-04-29 17:27:32:994
-1.13,-1.75,9.11,-0.62,-0.91,0.74,0.0,0.01,0.09,7068,2019-04-29 17:27:32:999
-1.13,-1.75,9.11,-1.51,-0.56,-0.73,0.0,-0.01,0.09,7072,2019-04-29 17:27:33:003
-1.13,-1.75,9.11,-1.51,-0.56,-0.73,0.0,-0.01,0.09,7077,2019-04-29 17:27:33:008
-1.13,-1.75,9.11,-1.51,-0.56,-0.73,0.0,-0.01,0.09,7082,2019-04-29 17:27:33:013
-1.13,-1.75,9.11,-1.51,-0.56,-0.73,0.0,-0.01,0.09,7087,2019-04-29 17:27:33:018
-0.59,-1.72,10.11,-0.95,-0.53,0.2,0.01,0.0,0.12,7093,2019-04-29 17:27:33:024
-0.59,-1.72,10.11,-0.95,-0.53,0.2,0.01,0.0,0.12,7098,2019-04-29 17:27:33:029
-0.32,-2.25,8.75,0.41,-0.44,-1.04,0.0,-0.02,0.15,7102,2019-04-29 17:27:33:033
-0.32,-2.25,8.75,0.41,-0.44,-1.04,0.0,-0.02,0.15,7107,2019-04-29 17:27:33:038
-0.32,-2.25,8.75,0.41,-0.44,-1.04,0.0,-0.02,0.15,7113,2019-04-29 17:27:33:044
1.18,-2.19,11.24,0.8,-0.84,1.36,0.01,-0.01,0.16,7118,2019-04-29 17:27:33:049
1.18,-2.19,11.24,0.8,-0.84,1.36,0.01,-0.01,0.16,7122,2019-04-29 17:27:33:053
1.18,-2.19,11.24,0.8,-0.84,1.36,0.01,-0.01,0.16,7127,2019-04-29 17:27:33:058
1.18,-2.19,11.24,0.8,-0.84,1.36,0.01,-0.01,0.16,7132,2019-04-29 17:27:33:063
1.18,-2.19,11.24,0.8,-0.84,1.36,0.01,-0.01,0.16,7138,2019-04-29 17:27:33:069
1.18,-2.19,11.24,0.8,-0.84,1.36,0.01,-0.01,0.16,7143,2019-04-29 17:27:33:074
1.18,-2.19,11.24,0.8,-0.84,1.36,0.01,-0.01,0.16,7147,2019-04-29 17:27:33:078
1.38,-0.57,8.51,1.03,0.86,-1.34,0.02,-0.04,0.15,7153,2019-04-29 17:27:33:084
1.38,-0.57,8.51,1.03,0.86,-1.34,0.02,-0.04,0.15,7157,2019-04-29 17:27:33:088
1.38,-0.57,8.51,1.03,0.86,-1.34,0.02,-0.04,0.15,7162,2019-04-29 17:27:33:093
1.38,-0.57,8.51,1.03,0.86,-1.34,0.02,-0.04,0.15,7167,2019-04-29 17:27:33:098
1.21,-1.65,9.2,0.88,-0.09,-0.7,-0.01,-0.01,0.19,7173,2019-04-29 17:27:33:104
1.21,-1.65,9.2,0.88,-0.09,-0.7,-0.01,-0.01,0.19,7177,2019-04-29 17:27:33:108
1.21,-1.65,9.2,0.88,-0.09,-0.7,-0.02,-0.01,0.2,7182,2019-04-29 17:27:33:113
1.21,-1.65,9.2,0.88,-0.09,-0.7,-0.02,-0.01,0.2,7187,2019-04-29 17:27:33:118
1.21,-1.65,9.2,0.88,-0.09,-0.7,-0.02,-0.01,0.2,7193,2019-04-29 17:27:33:124
1.21,-1.65,9.2,0.88,-0.09,-0.7,-0.02,-0.01,0.2,7197,2019-04-29 17:27:33:128
1.21,-1.65,9.2,0.88,-0.09,-0.7,-0.02,-0.01,0.2,7202,2019-04-29 17:27:33:133
0.75,-1.96,7.64,0.42,-0.14,-2.1,0.0,-0.02,0.15,7211,2019-04-29 17:27:33:142
0.75,-1.96,7.64,0.42,-0.14,-2.1,0.0,-0.02,0.15,7212,2019-04-29 17:27:33:143
0.75,-1.96,7.64,0.42,-0.14,-2.1,0.0,-0.02,0.15,7218,2019-04-29 17:27:33:149
0.75,-1.96,7.64,0.42,-0.14,-2.1,0.0,-0.02,0.15,7222,2019-04-29 17:27:33:153
0.75,-1.98,10.34,0.42,-0.14,-2.1,-0.03,-0.02,0.14,7228,2019-04-29 17:27:33:159
0.24,-1.98,10.34,-0.11,-0.06,0.54,-0.03,-0.02,0.14,7233,2019-04-29 17:27:33:164
0.24,-1.98,10.34,-0.11,-0.06,0.54,-0.03,-0.02,0.14,7237,2019-04-29 17:27:33:168
0.24,-1.98,10.34,-0.11,-0.06,0.54,-0.03,-0.01,0.12,7242,2019-04-29 17:27:33:173
0.24,-1.98,10.34,-0.11,-0.06,0.54,-0.03,-0.01,0.12,7248,2019-04-29 17:27:33:179
0.24,-1.98,10.34,-0.11,-0.06,0.54,-0.03,-0.01,0.12,7253,2019-04-29 17:27:33:184
0.24,-1.98,10.34,-0.11,-0.06,0.54,-0.03,-0.01,0.12,7257,2019-04-29 17:27:33:188
0.24,-1.98,10.34,-0.11,-0.06,0.54,-0.03,-0.01,0.12,7263,2019-04-29 17:27:33:194
0.06,-3.09,8.28,-0.34,-1.01,-1.54,0.0,-0.01,0.09,7267,2019-04-29 17:27:33:198
0.06,-3.09,8.28,-0.34,-1.01,-1.54,0.0,-0.01,0.09,7272,2019-04-29 17:27:33:203
0.06,-3.09,8.28,-0.34,-1.01,-1.54,0.0,-0.01,0.09,7277,2019-04-29 17:27:33:208
0.06,-3.09,8.28,-0.34,-1.01,-1.54,0.0,-0.01,0.09,7282,2019-04-29 17:27:33:213
-0.05,-1.91,10.51,-0.34,-1.01,-1.54,0.0,-0.01,0.09,7288,2019-04-29 17:27:33:219
-0.05,-1.91,10.51,-0.56,0.25,0.7,0.03,-0.01,0.04,7293,2019-04-29 17:27:33:224
-0.05,-1.91,10.51,-0.56,0.25,0.7,0.03,-0.01,0.04,7297,2019-04-29 17:27:33:228
-0.01,-2.55,8.91,-0.61,-0.33,-0.88,0.02,0.0,0.01,7306,2019-04-29 17:27:33:237
-0.01,-2.55,8.91,-0.61,-0.33,-0.88,0.02,0.0,0.01,7308,2019-04-29 17:27:33:239
-0.01,-2.55,8.91,-0.61,-0.33,-0.88,0.02,0.0,0.01,7313,2019-04-29 17:27:33:244
1.01,-4.23,9.24,0.39,-1.97,-0.48,0.03,0.0,-0.03,7321,2019-04-29 17:27:33:252
1.01,-4.23,9.24,0.39,-1.97,-0.48,0.03,0.0,-0.03,7322,2019-04-29 17:27:33:253
1.01,-4.23,9.24,0.39,-1.97,-0.48,0.03,0.0,-0.03,7327,2019-04-29 17:27:33:258
1.01,-4.23,9.24,0.39,-1.97,-0.48,0.03,0.0,-0.03,7332,2019-04-29 17:27:33:263
1.01,-4.23,9.24,0.39,-1.97,-0.48,0.03,0.0,-0.03,7337,2019-04-29 17:27:33:268
1.64,-1.99,4.1,0.98,0.48,-5.15,0.15,-0.01,-0.04,7343,2019-04-29 17:27:33:274
1.64,-1.99,4.1,0.98,0.48,-5.15,0.15,-0.01,-0.04,7347,2019-04-29 17:27:33:278
1.64,-1.99,4.1,0.98,0.48,-5.15,0.15,-0.01,-0.04,7352,2019-04-29 17:27:33:283
1.64,-1.99,4.1,0.98,0.48,-5.15,0.15,-0.01,-0.04,7357,2019-04-29 17:27:33:288
0.75,0.85,11.78,0.17,3.15,2.4,0.03,0.0,-0.06,7363,2019-04-29 17:27:33:294
0.75,0.85,11.78,0.17,3.15,2.4,0.03,0.0,-0.06,7368,2019-04-29 17:27:33:299
0.75,0.85,11.78,0.17,3.15,2.4,0.03,0.0,-0.06,7372,2019-04-29 17:27:33:303
0.75,0.85,11.78,0.17,3.15,2.4,0.03,0.0,-0.06,7377,2019-04-29 17:27:33:308
1.37,-1.51,11.33,0.85,0.63,2.06,0.01,0.0,-0.08,7382,2019-04-29 17:27:33:313
1.37,-1.51,11.33,0.85,0.63,2.06,0.01,0.0,-0.08,7388,2019-04-29 17:27:33:319
1.37,-1.51,11.33,0.85,0.63,2.06,0.01,0.0,-0.08,7393,2019-04-29 17:27:33:324
1.37,-1.51,11.33,0.85,0.63,2.06,0.01,0.0,-0.08,7398,2019-04-29 17:27:33:329
0.97,1.27,7.41,0.49,3.16,-1.87,0.11,0.0,-0.1,7403,2019-04-29 17:27:33:334
0.97,1.27,7.41,0.49,3.16,-1.87,0.11,0.0,-0.1,7407,2019-04-29 17:27:33:338
0.97,1.27,7.41,0.49,3.16,-1.87,0.11,0.0,-0.1,7413,2019-04-29 17:27:33:344
1.32,-1.07,9.49,0.82,0.73,0.19,-0.02,0.05,-0.1,7418,2019-04-29 17:27:33:349
1.32,-1.07,9.49,0.82,0.73,0.19,-0.02,0.05,-0.1,7422,2019-04-29 17:27:33:353
1.32,-1.07,9.49,0.82,0.73,0.19,-0.02,0.05,-0.1,7428,2019-04-29 17:27:33:359
1.32,-1.07,9.49,0.82,0.73,0.19,-0.02,0.05,-0.1,7433,2019-04-29 17:27:33:364
0.45,-1.37,13.94,0.82,0.73,0.19,-0.11,0.01,-0.15,7438,2019-04-29 17:27:33:369
0.45,-1.37,13.94,-0.1,0.34,4.59,-0.11,0.01,-0.15,7442,2019-04-29 17:27:33:373
0.45,-1.37,13.94,-0.1,0.34,4.59,-0.11,0.01,-0.15,7447,2019-04-29 17:27:33:378
0.45,-1.37,13.94,-0.1,0.34,4.59,-0.11,0.01,-0.15,7454,2019-04-29 17:27:33:385
-0.53,1.99,12.09,-0.1,0.34,4.59,0.0,0.01,-0.17,7458,2019-04-29 17:27:33:389
-0.53,1.99,12.09,-1.03,3.24,2.38,0.0,0.01,-0.17,7462,2019-04-29 17:27:33:393
-0.53,1.99,12.09,-1.03,3.24,2.38,0.0,0.01,-0.17,7467,2019-04-29 17:27:33:398
-0.53,1.99,12.09,-1.03,3.24,2.38,0.0,0.01,-0.17,7472,2019-04-29 17:27:33:403
-0.53,1.99,12.09,-1.03,3.24,2.38,0.0,0.01,-0.17,7478,2019-04-29 17:27:33:409
-2.59,0.11,11.13,-2.93,1.11,1.14,0.05,0.07,-0.12,7483,2019-04-29 17:27:33:414
-2.59,0.11,11.13,-2.93,1.11,1.14,0.05,0.07,-0.12,7487,2019-04-29 17:27:33:418
-2.59,0.11,11.13,-2.93,1.11,1.14,0.05,0.07,-0.12,7493,2019-04-29 17:27:33:424
-2.59,0.11,11.13,-2.93,1.11,1.14,0.05,0.07,-0.12,7498,2019-04-29 17:27:33:429
-2.25,-0.59,13.29,-2.47,0.08,2.95,-0.04,0.0,-0.11,7503,2019-04-29 17:27:33:434
-2.25,-0.59,13.29,-2.47,0.08,2.95,-0.04,0.0,-0.11,7508,2019-04-29 17:27:33:439
-2.25,-0.59,13.29,-2.47,0.08,2.95,-0.04,0.0,-0.11,7514,2019-04-29 17:27:33:445
-2.25,-0.59,13.29,-2.47,0.08,2.95,-0.04,0.0,-0.11,7517,2019-04-29 17:27:33:448
-0.97,0.13,8.56,-1.11,0.54,-1.76,-0.03,-0.06,-0.07,7522,2019-04-29 17:27:33:453
-0.97,0.13,8.56,-1.11,0.54,-1.76,-0.03,-0.06,-0.07,7527,2019-04-29 17:27:33:458
-0.97,0.13,8.56,-1.11,0.54,-1.76,-0.03,-0.06,-0.07,7532,2019-04-29 17:27:33:463
-0.97,0.13,8.56,-1.11,0.54,-1.76,-0.03,-0.06,-0.07,7537,2019-04-29 17:27:33:468
-0.97,0.13,8.56,-1.11,0.54,-1.76,-0.03,-0.06,-0.07,7542,2019-04-29 17:27:33:473
-0.97,0.13,8.56,-1.11,0.54,-1.76,-0.03,-0.06,-0.07,7548,2019-04-29 17:27:33:479
3.21,-3.01,9.49,3.09,-2.8,-1.41,0.03,-0.03,-0.02,7553,2019-04-29 17:27:33:484
3.21,-3.01,9.49,3.09,-2.8,-1.41,0.03,-0.03,-0.02,7558,2019-04-29 17:27:33:489
3.21,-3.01,9.49,3.09,-2.8,-1.41,0.03,-0.03,-0.02,7564,2019-04-29 17:27:33:495
4.18,-1.85,4.31,4.0,-1.33,-5.8,0.0,-0.02,-0.08,7568,2019-04-29 17:27:33:499
4.18,-1.85,4.31,4.0,-1.33,-5.8,0.0,-0.02,-0.08,7573,2019-04-29 17:27:33:504
4.18,-1.85,4.31,4.0,-1.33,-5.8,0.0,-0.02,-0.08,7577,2019-04-29 17:27:33:508
2.14,2.8,14.33,1.97,3.21,3.79,-0.04,0.05,-0.1,7584,2019-04-29 17:27:33:515
2.14,2.8,14.33,1.97,3.21,3.79,-0.04,0.05,-0.1,7587,2019-04-29 17:27:33:518
2.14,2.8,14.33,1.97,3.21,3.79,-0.04,0.05,-0.1,7594,2019-04-29 17:27:33:525
2.14,2.8,14.33,1.97,3.21,3.79,-0.04,0.05,-0.1,7598,2019-04-29 17:27:33:529
-0.79,0.21,12.6,-0.92,0.55,1.73,-0.05,0.04,-0.14,7603,2019-04-29 17:27:33:534
-0.79,0.21,12.6,-0.92,0.55,1.73,-0.05,0.04,-0.14,7610,2019-04-29 17:27:33:541
-0.79,0.21,12.6,-0.92,0.55,1.73,-0.05,0.04,-0.14,7612,2019-04-29 17:27:33:543
-0.79,0.21,12.6,-0.92,0.55,1.73,-0.05,0.04,-0.14,7618,2019-04-29 17:27:33:549
-2.02,-0.63,9.47,-2.03,-0.49,-1.46,-0.08,0.04,-0.12,7622,2019-04-29 17:27:33:553
-2.02,-0.63,9.47,-2.03,-0.49,-1.46,-0.08,0.04,-0.12,7627,2019-04-29 17:27:33:558
-2.02,-0.63,9.47,-2.03,-0.49,-1.46,-0.08,0.04,-0.12,7632,2019-04-29 17:27:33:563
-3.7,-0.16,12.52,-2.03,-0.49,-1.46,-0.08,0.04,-0.12,7638,2019-04-29 17:27:33:569
-3.7,-0.16,12.52,-3.62,-0.12,1.57,0.0,0.03,-0.09,7643,2019-04-29 17:27:33:574
-3.7,-0.16,12.52,-3.62,-0.12,1.57,0.0,0.03,-0.09,7648,2019-04-29 17:27:33:579
-3.7,-0.16,12.52,-3.62,-0.12,1.57,0.0,0.03,-0.09,7653,2019-04-29 17:27:33:584
-3.7,-0.16,12.52,-3.62,-0.12,1.57,0.0,0.03,-0.09,7658,2019-04-29 17:27:33:589
-3.7,-0.16,12.52,-3.62,-0.12,1.57,0.0,0.03,-0.09,7663,2019-04-29 17:27:33:594
-3.7,-0.16,12.52,-3.62,-0.12,1.57,0.0,0.03,-0.09,7667,2019-04-29 17:27:33:598
-3.47,-1.86,5.35,-3.39,-1.53,-5.19,-0.08,0.0,-0.05,7672,2019-04-29 17:27:33:603
-3.47,-1.86,5.35,-3.39,-1.53,-5.19,-0.08,0.0,-0.05,7677,2019-04-29 17:27:33:608
3.39,4.42,11.32,-3.39,-1.53,-5.19,-0.07,0.0,-0.18,7683,2019-04-29 17:27:33:614
3.39,4.42,11.32,-3.39,-1.53,-5.19,-0.07,0.0,-0.18,7688,2019-04-29 17:27:33:619
3.39,4.42,11.32,-3.39,-1.53,-5.19,-0.07,0.0,-0.18,7692,2019-04-29 17:27:33:623
3.39,4.42,11.32,-3.39,-1.53,-5.19,-0.07,0.0,-0.18,7698,2019-04-29 17:27:33:629
3.39,4.42,11.32,-3.39,-1.53,-5.19,-0.07,0.0,-0.18,7703,2019-04-29 17:27:33:634
-1.05,-0.56,12.73,-1.21,-0.2,2.62,-0.03,-0.01,0.0,7708,2019-04-29 17:27:33:639
-1.05,-0.56,12.73,-1.21,-0.2,2.62,-0.03,-0.01,0.0,7712,2019-04-29 17:27:33:643
-1.05,-0.56,12.73,-1.21,-0.2,2.62,-0.03,-0.01,0.0,7717,2019-04-29 17:27:33:648
-1.05,-0.56,12.73,-1.21,-0.2,2.62,-0.03,-0.01,0.0,7723,2019-04-29 17:27:33:654
3.76,0.58,8.22,3.47,1.03,-1.74,0.0,-0.08,-0.05,7727,2019-04-29 17:27:33:658
3.76,0.58,8.22,3.47,1.03,-1.74,0.0,-0.08,-0.05,7733,2019-04-29 17:27:33:664
3.76,0.58,8.22,3.47,1.03,-1.74,0.0,-0.08,-0.05,7741,2019-04-29 17:27:33:672
3.76,0.58,8.22,3.47,1.03,-1.74,0.0,-0.08,-0.05,7742,2019-04-29 17:27:33:673
4.56,3.54,10.73,4.31,3.86,0.77,-0.14,-0.03,-0.1,7747,2019-04-29 17:27:33:678
4.56,3.54,10.73,4.31,3.86,0.77,-0.14,-0.03,-0.1,7753,2019-04-29 17:27:33:684
4.56,3.54,10.73,4.31,3.86,0.77,-0.14,-0.03,-0.1,7757,2019-04-29 17:27:33:688
3.61,0.82,12.45,3.42,0.75,1.73,-0.11,0.02,-0.1,7762,2019-04-29 17:27:33:693
3.61,0.82,12.45,3.42,0.75,1.73,-0.11,0.02,-0.1,7768,2019-04-29 17:27:33:699
3.61,0.82,12.45,3.42,0.75,1.73,-0.11,0.02,-0.1,7772,2019-04-29 17:27:33:703
3.61,0.82,12.45,3.42,0.75,1.73,-0.11,0.02,-0.1,7778,2019-04-29 17:27:33:709
1.4,2.2,14.42,1.23,1.98,3.97,0.01,0.08,-0.16,7782,2019-04-29 17:27:33:713
1.4,2.2,14.42,1.23,1.98,3.97,0.01,0.08,-0.16,7789,2019-04-29 17:27:33:720
1.4,2.2,14.42,1.23,1.98,3.97,0.01,0.08,-0.16,7793,2019-04-29 17:27:33:724
1.4,2.2,14.42,1.23,1.98,3.97,0.01,0.08,-0.16,7798,2019-04-29 17:27:33:729
1.4,2.2,14.42,1.23,1.98,3.97,0.01,0.08,-0.16,7802,2019-04-29 17:27:33:733
1.09,2.23,8.95,0.92,2.07,-1.46,-0.05,0.01,-0.23,7808,2019-04-29 17:27:33:739
1.09,2.23,8.95,0.92,2.07,-1.46,-0.05,0.01,-0.23,7813,2019-04-29 17:27:33:744
1.09,2.23,8.95,0.92,2.07,-1.46,-0.05,0.01,-0.23,7817,2019-04-29 17:27:33:748
1.09,2.23,8.95,0.32,-0.64,-0.14,-0.13,0.06,-0.24,7822,2019-04-29 17:27:33:753
1.88,3.06,7.13,0.32,-0.64,-0.14,-0.13,0.06,-0.24,7827,2019-04-29 17:27:33:758
1.88,3.06,7.13,0.32,-0.64,-0.14,-0.13,0.06,-0.24,7832,2019-04-29 17:27:33:763
1.88,3.06,7.13,0.32,-0.64,-0.14,-0.13,0.06,-0.24,7838,2019-04-29 17:27:33:769
1.88,3.06,7.13,0.32,-0.64,-0.14,-0.13,0.06,-0.24,7842,2019-04-29 17:27:33:773
1.88,3.06,7.13,0.32,-0.64,-0.14,-0.13,0.06,-0.24,7848,2019-04-29 17:27:33:779
-1.01,-3.22,11.39,-1.27,-3.22,1.27,-0.01,0.09,-0.22,7852,2019-04-29 17:27:33:783
-1.01,-3.22,11.39,-1.27,-3.22,1.27,-0.01,0.09,-0.22,7857,2019-04-29 17:27:33:788
-1.01,-3.22,11.39,-1.27,-3.22,1.27,-0.01,0.09,-0.22,7863,2019-04-29 17:27:33:794
-1.01,-3.22,11.39,-1.27,-3.22,1.27,-0.01,0.09,-0.22,7867,2019-04-29 17:27:33:798
-1.01,-3.22,11.39,-1.27,-3.22,1.27,-0.01,0.09,-0.22,7873,2019-04-29 17:27:33:804
-1.01,-3.22,11.39,-1.27,-3.22,1.27,-0.01,0.09,-0.22,7877,2019-04-29 17:27:33:808
-0.48,2.17,10.14,-0.72,1.96,0.04,-0.15,0.0,-0.28,7883,2019-04-29 17:27:33:814
-0.48,2.17,10.14,-0.72,1.96,0.04,-0.15,0.0,-0.28,7887,2019-04-29 17:27:33:818
-0.48,2.17,10.14,-0.72,1.96,0.04,-0.15,0.0,-0.28,7892,2019-04-29 17:27:33:823
-0.48,2.17,10.14,-0.72,1.96,0.04,-0.15,0.0,-0.28,7897,2019-04-29 17:27:33:828
-0.48,2.17,10.14,-0.72,1.96,0.04,-0.15,0.0,-0.28,7902,2019-04-29 17:27:33:833
-1.11,-1.09,13.0,-0.72,1.96,0.04,-0.07,-0.01,-0.26,7907,2019-04-29 17:27:33:838
-1.11,-1.09,13.0,-1.22,-1.15,2.96,-0.07,-0.01,-0.26,7912,2019-04-29 17:27:33:843
-1.11,-1.09,13.0,-1.22,-1.15,2.96,-0.07,-0.01,-0.26,7917,2019-04-29 17:27:33:848
-1.11,-1.09,13.0,-1.22,-1.15,2.96,-0.07,-0.01,-0.26,7922,2019-04-29 17:27:33:853
-1.11,-1.09,13.0,-1.22,-1.15,2.96,-0.07,-0.01,-0.26,7928,2019-04-29 17:27:33:859
-2.16,0.43,7.93,-1.22,-1.15,2.96,0.14,0.01,-0.22,7932,2019-04-29 17:27:33:863
-2.16,0.43,7.93,-2.1,0.24,-2.08,0.14,0.01,-0.22,7937,2019-04-29 17:27:33:868
-0.75,0.64,9.63,-2.1,0.24,-2.08,-0.03,0.0,-0.19,7942,2019-04-29 17:27:33:873
-0.75,0.64,9.63,-2.1,0.24,-2.08,-0.03,0.0,-0.19,7947,2019-04-29 17:27:33:878
-0.75,0.64,9.63,-2.1,0.24,-2.08,-0.03,0.0,-0.19,7954,2019-04-29 17:27:33:885
-0.75,0.64,9.63,-2.1,0.24,-2.08,-0.03,0.0,-0.19,7957,2019-04-29 17:27:33:888
-0.75,0.64,9.63,-2.1,0.24,-2.08,-0.03,0.0,-0.19,7962,2019-04-29 17:27:33:893
1.29,-2.94,11.66,-2.1,0.24,-2.08,-0.03,0.0,-0.19,7968,2019-04-29 17:27:33:899
1.29,-2.94,11.66,1.27,-3.12,1.6,-0.15,-0.03,-0.23,7973,2019-04-29 17:27:33:904
1.29,-2.94,11.66,1.27,-3.12,1.6,-0.15,-0.03,-0.23,7977,2019-04-29 17:27:33:908
1.29,-2.94,11.66,-3.11,-2.47,1.44,-0.15,-0.06,-0.13,7982,2019-04-29 17:27:33:913
1.29,-2.94,11.66,-3.11,-2.47,1.44,-0.15,-0.06,-0.13,7987,2019-04-29 17:27:33:918
1.29,-2.94,11.66,-3.11,-2.47,1.44,-0.15,-0.06,-0.13,7992,2019-04-29 17:27:33:923
1.29,-2.94,11.66,-3.11,-2.47,1.44,-0.15,-0.06,-0.13,7998,2019-04-29 17:27:33:929
2.67,0.18,8.8,2.55,0.34,-0.83,0.0,0.05,-0.17,8002,2019-04-29 17:27:33:933
2.67,0.18,8.8,2.55,0.34,-0.83,0.0,0.05,-0.17,8007,2019-04-29 17:27:33:938
2.67,0.18,8.8,2.55,0.34,-0.83,0.0,0.05,-0.17,8014,2019-04-29 17:27:33:945
2.67,0.18,8.8,2.55,0.34,-0.83,0.0,0.05,-0.17,8018,2019-04-29 17:27:33:949
2.15,-0.24,9.36,2.0,-0.01,-0.09,-0.1,0.0,-0.12,8023,2019-04-29 17:27:33:954
2.15,-0.24,9.36,2.0,-0.01,-0.09,-0.1,0.0,-0.12,8027,2019-04-29 17:27:33:958
2.15,-0.24,9.36,2.0,-0.01,-0.09,-0.1,0.0,-0.12,8033,2019-04-29 17:27:33:964
2.15,-0.24,9.36,2.0,-0.01,-0.09,-0.1,0.0,-0.12,8038,2019-04-29 17:27:33:969
-0.79,-1.33,10.53,-0.81,-1.0,0.95,0.0,0.02,-0.02,8043,2019-04-29 17:27:33:974
-0.79,-1.33,10.53,-0.81,-1.0,0.95,0.0,0.02,-0.02,8048,2019-04-29 17:27:33:979
