ACCELEROMETER X (m/s²),ACCELEROMETER Y (m/s²),ACCELEROMETER Z (m/s²),GYROSCOPE X (rad/s),GYROSCOPE Y (rad/s),GYROSCOPE Z (rad/s),Time since start in ms ,YYYY-MO-DD HH-MI-SS_SSS
8.972133483886719,-4.7368555297851564,0.497986328125,0.7321209600001405,-0.503459119197279,-0.7097259057614463,0.0,2019-06-03 16:31:17:946
9.045155517578126,-4.651862670898438,0.349548095703125,0.7319878019456366,-0.4865480462752758,-0.700005367782657,0.0048639774322509766,2019-06-03 16:31:17:951
9.006848876953125,-4.638694763183594,0.42376721191406247,0.7269277958744861,-0.46444380922761813,-0.6877548267682926,0.009984016418457031,2019-06-03 16:31:17:956
9.009243041992187,-4.554898986816406,0.38546057128906247,0.7048235588268283,-0.45578853568486066,-0.679232711280039,0.014847993850708008,2019-06-03 16:31:17:961
8.933826843261718,-4.586023132324218,0.23582525634765625,0.688445118122841,-0.4450027332700397,-0.668713224974226,0.01996779441833496,2019-06-03 16:31:17:966
9.084659240722656,-4.534548583984375,0.29089105224609374,0.692173543648952,-0.4287574506205564,-0.6567290000688695,0.025087833404541016,2019-06-03 16:31:17:971
9.173243347167968,-4.551307739257813,0.30765020751953126,0.6925730178124639,-0.41331111629809675,-0.6464758298720644,0.029951810836791992,2019-06-03 16:31:17:976
9.052338012695312,-4.399278259277343,0.4776359252929687,0.6831187959426827,-0.405721107191371,-0.6344916049667078,0.03507184982299805,2019-06-03 16:31:17:981
8.976921813964843,-4.2412633666992186,0.5542492065429687,0.6672729874567112,-0.3993295205751808,-0.6238389606063909,0.03993582725524902,2019-06-03 16:31:17:986
9.046352600097656,-4.1083872070312495,0.9660455932617187,0.6607482427860171,-0.3854810829067688,-0.612520525973554,0.04505586624145508,2019-06-03 16:31:17:991
8.968542236328124,-4.03177392578125,1.08216259765625,0.6540903400608189,-0.3750947546554597,-0.5996041946866698,0.049919843673706055,2019-06-03 16:31:17:996
8.875169799804688,-3.8498173828124997,1.048644287109375,0.6430382215369901,-0.37030106469331714,-0.5876199697813131,0.05503988265991211,2019-06-03 16:31:18:001
8.900308532714844,-3.8330582275390626,1.0342792968749999,0.629189783868578,-0.360181052551016,-0.5733720579493893,0.059903860092163086,2019-06-03 16:31:18:006
9.071491333007812,-3.6702550048828124,1.3251703491210938,0.6138766076006225,-0.35085998873573865,-0.5596567783354812,0.06502389907836914,2019-06-03 16:31:18:011
9.04994384765625,-3.578079650878906,1.3969953002929687,0.5903076319534212,-0.3464657729371079,-0.5459414987215732,0.06988787651062012,2019-06-03 16:31:18:016
9.051140930175782,-3.551743835449219,1.2102504272460937,0.5712660301593546,-0.3296878580696087,-0.5306283224536175,0.07500791549682617,2019-06-03 16:31:18:021
9.14690753173828,-3.534984680175781,1.0199143066406249,0.5571513096714483,-0.3117115207115739,-0.5131846173135984,0.07987189292907715,2019-06-03 16:31:18:026
9.133739624023438,-3.5505467529296872,0.9133739624023437,0.5389086562044055,-0.30678467269492726,-0.4980045991001468,0.0849919319152832,2019-06-03 16:31:18:031
9.157681274414061,-3.55294091796875,0.8295781860351562,0.5170707352657558,-0.300792560242249,-0.4802945778511199,0.08985590934753418,2019-06-03 16:31:18:036
9.096630065917969,-3.5038605346679685,0.7469794921874999,0.49922755596222484,-0.28188411650268635,-0.4639161371471326,0.09497594833374023,2019-06-03 16:31:18:041
9.213944152832031,-3.5840650634765625,0.56502294921875,0.48284911525823754,-0.27083199797885754,-0.4471382222796334,0.09983992576599121,2019-06-03 16:31:18:046
9.134936706542968,-3.7516566162109375,0.421373046875,0.46500593595470663,-0.2621767244361,-0.4330234685022134,0.10495996475219727,2019-06-03 16:31:18:051
9.0978271484375,-3.8366494750976563,0.3698984985351562,0.4520896046678224,-0.2531219767298306,-0.4179766083432658,0.11008000373840332,2019-06-03 16:31:18:056
9.079870910644532,-3.898897766113281,0.4201759643554687,0.4410374861439935,-0.24007248738844236,-0.4033292223478299,0.1149439811706543,2019-06-03 16:31:18:061
9.054732177734374,-4.011423522949219,0.48840966796874996,0.4345127414732993,-0.23474616520828387,-0.3928097360420169,0.12006402015686035,2019-06-03 16:31:18:066
9.042761352539062,-4.0521243286132815,0.60332958984375,0.42945273540214884,-0.22848773664659766,-0.3830891980632277,0.12492799758911133,2019-06-03 16:31:18:071
8.946994750976563,-4.068883483886719,0.7385999145507812,0.4257243098760379,-0.22089772753987183,-0.37243655370291073,0.13004779815673828,2019-06-03 16:31:18:076
8.94579766845703,-4.128737609863281,0.7098699340820313,0.42199588434992696,-0.22116404364887973,-0.36404759626916117,0.13491201400756836,2019-06-03 16:31:18:081
8.858410644531249,-4.115569702148437,0.8211986083984375,0.42505851960351804,-0.2186340406133045,-0.3551260066173957,0.1400318145751953,2019-06-03 16:31:18:086
8.853622314453125,-4.162255920410156,1.000760986328125,0.4249253615490141,-0.21690298590475296,-0.34766915556517386,0.1448957920074463,2019-06-03 16:31:18:091
8.82010400390625,-4.187394653320313,0.9971697387695312,0.41919956520534374,-0.21796825034078465,-0.3415438850579916,0.15001583099365234,2019-06-03 16:31:18:096
8.686030761718749,-4.1179638671875,0.9708339233398438,0.41640324606076057,-0.2186340406133045,-0.33701651120485693,0.15487980842590332,2019-06-03 16:31:18:101
8.902702697753906,-4.161058837890625,1.0857538452148436,0.41680272022427245,-0.22076456948536788,-0.33515229844180144,0.15999984741210938,2019-06-03 16:31:18:106
8.98171014404297,-4.228095458984375,1.0749801025390624,0.41533798162472885,-0.21743561812276882,-0.32663018295354784,0.16486382484436035,2019-06-03 16:31:18:111
9.043958435058594,-4.1095842895507815,0.85232275390625,0.4128079785891536,-0.21357403454215396,-0.3214370188278934,0.1699838638305664,2019-06-03 16:31:18:116
8.923053100585937,-4.0066351928710935,0.9037973022460938,0.41174271415312186,-0.2115766637245945,-0.3174422771927745,0.17484784126281738,2019-06-03 16:31:18:121
8.858410644531249,-3.956357727050781,1.0941334228515625,0.407614814463499,-0.2150387731416975,-0.31224911306712,0.17996788024902344,2019-06-03 16:31:18:126
8.81052734375,-3.854605712890625,1.1288488159179688,0.39909269897524546,-0.21557140535971336,-0.3047922620148981,0.18483185768127441,2019-06-03 16:31:18:131
8.909885192871094,-4.029379760742187,0.8678848266601562,0.39456532512211084,-0.2115766637245945,-0.3002648881617634,0.18995189666748047,2019-06-03 16:31:18:136
9.078673828125,-4.0509272460937495,0.8200015258789062,0.4002911214657812,-0.2094461348525311,-0.2926748790550376,0.19507193565368652,2019-06-03 16:31:18:141
9.163666687011718,-3.9755110473632813,0.8726731567382813,0.397361644266694,-0.20611718348993205,-0.2881475052019029,0.1999359130859375,2019-06-03 16:31:18:146
9.17563751220703,-3.9012919311523437,0.9851989135742187,0.38564373547034536,-0.20292139018183697,-0.28242170885823253,0.20505595207214355,2019-06-03 16:31:18:151
9.140922119140624,-3.7672186889648436,0.8930235595703124,0.3769884619275878,-0.19786138411068643,-0.27563066472328723,0.20991992950439453,2019-06-03 16:31:18:156
9.081067993164062,-3.777992431640625,0.8678848266601562,0.3739258266739967,-0.19000505889495267,-0.269638552270609,0.21503996849060059,2019-06-03 16:31:18:161
9.151695861816407,-3.8821386108398435,0.7409940795898438,0.3654037111857431,-0.1837466303332665,-0.26178222705487525,0.21990394592285156,2019-06-03 16:31:18:166
9.206761657714843,-3.745671203613281,0.7050816040039062,0.3543515926619143,-0.17828715009860402,-0.25472485016616525,0.22502398490905762,2019-06-03 16:31:18:171
9.263024536132813,-3.7480653686523437,0.6943078613281249,0.341302103320526,-0.17296082791844555,-0.24820010549547109,0.2298879623413086,2019-06-03 16:31:18:176
9.369564880371094,-3.7420799560546874,0.8032423706054688,0.33517683281334376,-0.16417239632118408,-0.24114272860676114,0.23500800132751465,2019-06-03 16:31:18:181
9.37674737548828,-3.76362744140625,0.7050816040039062,0.3233257659624912,-0.1532534358518592,-0.2331532453365234,0.23987197875976562,2019-06-03 16:31:18:186
9.380338623046875,-3.769612854003906,0.6392420654296875,0.309876802457591,-0.143399739818566,-0.22582955233880553,0.24499201774597168,2019-06-03 16:31:18:191
9.350411560058594,-3.704970397949219,0.5829791870117187,0.30015626447880184,-0.13660867071648555,-0.21770691101406384,0.24985599517822266,2019-06-03 16:31:18:196
9.33724365234375,-3.596035888671875,0.8295781860351562,0.2922999392630681,-0.1270212907922003,-0.20985058579833007,0.2549757957458496,2019-06-03 16:31:18:201
9.304922424316405,-3.5182255249023435,0.96724267578125,0.2760546566135847,-0.11903180752196256,-0.20292636696412408,0.2598400115966797,2019-06-03 16:31:18:206
9.254644958496094,-3.4739334716796875,0.991184326171875,0.25661358065600626,-0.10824600510714166,-0.192673196767319,0.26495981216430664,2019-06-03 16:31:18:211
9.23309747314453,-3.578079650878906,0.9732280883789062,0.2397025077340031,-0.1014549443274396,-0.1832189748975377,0.2700798511505127,2019-06-03 16:31:18:216
9.187608337402343,-3.6678608398437498,1.0642063598632812,0.229582495591702,-0.09852546712835243,-0.17602843995432377,0.27494382858276367,2019-06-03 16:31:18:221
9.0978271484375,-3.730109130859375,1.1192721557617187,0.22079406399444051,-0.09493019965674547,-0.1685715889021019,0.2800638675689697,2019-06-03 16:31:18:226
9.0978271484375,-3.730109130859375,1.1192721557617187,0.22079406399444051,-0.09493019965674547,-0.1685715889021019,0.2828798294067383,2019-06-03 16:31:18:229
9.057126342773437,-3.76362744140625,1.0857538452148436,0.20641299410801262,-0.08600861000498002,-0.15538894150620966,0.29004788398742676,2019-06-03 16:31:18:236
9.057126342773437,-3.76362744140625,1.0857538452148436,0.20641299410801262,-0.08600861000498002,-0.15538894150620966,0.2928638458251953,2019-06-03 16:31:18:239
9.01163720703125,-3.777992431640625,1.077374267578125,0.18630612787791437,-0.07735333646222249,-0.14952998710803533,0.3000319004058838,2019-06-03 16:31:18:246
9.01163720703125,-3.777992431640625,1.077374267578125,0.18630612787791437,-0.07735333646222249,-0.14952998710803533,0.30284786224365234,2019-06-03 16:31:18:249
9.023608032226562,-3.8366494750976563,0.9851989135742187,0.163136626394225,-0.07056227568252044,-0.14313840049184517,0.3100159168243408,2019-06-03 16:31:18:256
9.023608032226562,-3.8366494750976563,0.9851989135742187,0.163136626394225,-0.07056227568252044,-0.14313840049184517,0.3128318786621094,2019-06-03 16:31:18:259
9.055929260253906,-3.8569998779296872,1.0151259765625,0.14675818569023769,-0.06044226354021934,-0.1391436505343479,0.31999993324279785,2019-06-03 16:31:18:266
9.026002197265624,-3.8210874023437498,0.8798556518554688,0.13490711051700666,-0.05937699910418764,-0.1374125958257964,0.32486391067504883,2019-06-03 16:31:18:271
9.005651794433593,-3.732503295898437,0.8559140014648438,0.12585236281073725,-0.053651202760517276,-0.1356815411172449,0.3299839496612549,2019-06-03 16:31:18:276
9.057126342773437,-3.692999572753906,0.8630964965820312,0.11653129899545991,-0.0465938258718073,-0.13275206391815775,0.33484792709350586,2019-06-03 16:31:18:281
9.154090026855469,-3.6798316650390626,0.8726731567382813,0.10521286436262316,-0.0416669778551607,-0.12902363839204678,0.3399679660797119,2019-06-03 16:31:18:286
9.199579162597656,-3.6511016845703126,0.8259869384765625,0.09096495253069924,-0.03487591915605325,-0.12489573870242397,0.3448319435119629,2019-06-03 16:31:18:291
9.254644958496094,-3.5278021850585937,0.8463373413085937,0.08324178536946945,-0.028750648648871,-0.11916994235875362,0.34995198249816895,2019-06-03 16:31:18:296
9.322878662109375,-3.4787218017578123,0.8128190307617187,0.07298861517266438,-0.02369064257772045,-0.11437625239661098,0.355072021484375,2019-06-03 16:31:18:301
9.322878662109375,-3.4787218017578123,0.8128190307617187,0.06127070637631574,-0.015701159307482733,-0.10478887247232574,0.359935998916626,2019-06-03 16:31:18:306
9.324075744628907,-3.3626047973632813,0.8176073608398438,0.04902016536195124,-0.011040627399844067,-0.0965330730930801,0.36505579948425293,2019-06-03 16:31:18:311
9.36477655029297,-3.290779846191406,0.81401611328125,0.037169098511098626,-0.0023853538570865426,-0.0870788512232988,0.369920015335083,2019-06-03 16:31:18:316
9.435404418945312,-3.256064453125,0.8128190307617187,0.023853295141297037,0.006003603576663057,-0.07349672966389469,0.37503981590270996,2019-06-03 16:31:18:321
9.50124395751953,-3.2524732055664063,0.7840890502929687,0.011469596072428579,0.012528348247357192,-0.061778825028735246,0.37990379333496094,2019-06-03 16:31:18:326
9.458148986816406,-3.2117723999023435,0.7481765747070312,0.0008169517121116274,0.01891993486354736,-0.0489956517963549,0.385023832321167,2019-06-03 16:31:18:331
9.410265686035157,-3.1806482543945314,0.7385999145507812,-0.009169902375685516,0.027841524515312813,-0.0378103752180221,0.38988780975341797,2019-06-03 16:31:18:336
9.401886108398438,-3.1626920166015626,0.7888773803710938,-0.022352549771577745,0.03463258529501487,-0.025293518094649674,0.395007848739624,2019-06-03 16:31:18:341
9.465331481933594,-3.2381082153320313,0.8451402587890625,-0.035402041193560614,0.040891015937295674,-0.01237718576746807,0.399871826171875,2019-06-03 16:31:18:346
9.485681884765624,-3.2644440307617186,0.8774614868164062,-0.04552205333586171,0.044353125354398684,0.000272829410408309,0.40499186515808105,2019-06-03 16:31:18:351
9.446178161621093,-3.2548673706054685,0.8918264770507812,-0.054310484933123196,0.050078921698069045,0.012390212370268843,0.40985584259033203,2019-06-03 16:31:18:356
9.622149291992187,-3.2740206909179688,0.8092277832031249,-0.06363154874840055,0.05979945967685827,0.02690443927090339,0.4149758815765381,2019-06-03 16:31:18:361
9.230703308105468,-3.2440936279296873,0.8211986083984375,-0.07787946058032447,0.059932617731362235,0.0320976033965579,0.41983985900878906,2019-06-03 16:31:18:366
9.389915283203125,-3.3111302490234373,0.7445853271484375,-0.08480367941453049,0.06419367547548901,0.047277621610009556,0.4249598979949951,2019-06-03 16:31:18:371
9.228309143066406,-3.3398602294921873,0.981607666015625,-0.09332579490278403,0.07031894598267126,0.054601314607727464,0.43007993698120117,2019-06-03 16:31:18:376
9.446178161621093,-3.324298156738281,0.919359375,-0.0990515912464544,0.0729821070727505,0.06645238145858008,0.43494391441345215,2019-06-03 16:31:18:381
9.219929565429688,-3.398517272949219,0.8511256713867187,-0.11037002587929118,0.07737632287138124,0.07484134305351887,0.4400639533996582,2019-06-03 16:31:18:386
9.105009643554688,-3.55294091796875,0.6787457885742187,-0.11582950611395361,0.08230317088802783,0.08163240383322093,0.4449279308319092,2019-06-03 16:31:18:391
9.096630065917969,-3.702576232910156,0.7457824096679687,-0.11489739973242587,0.08203685477901991,0.08655925184986753,0.45004796981811523,2019-06-03 16:31:18:396
8.9062939453125,-3.9479781494140624,0.7529649047851562,-0.1046442295356208,0.08097159034298822,0.08749135823139526,0.4549119472503662,2019-06-03 16:31:18:401
9.006848876953125,-4.07008056640625,0.8439431762695312,-0.10384528120859703,0.08656422863215461,0.08655925184986753,0.46003198623657227,2019-06-03 16:31:18:406
8.911082275390624,-4.4459644775390625,0.7960598754882813,-0.10917160338875552,0.08882791555872196,0.0807002974516932,0.46489596366882324,2019-06-03 16:31:18:411
8.91587060546875,-4.523774841308594,0.8930235595703124,-0.11396529335089814,0.08829528334070612,0.07404239472649511,0.4700160026550293,2019-06-03 16:31:18:416
8.566322509765625,-4.538139831542969,0.8259869384765625,-0.10637528424417231,0.0841673836510833,0.0628571139869731,0.4748799800872803,2019-06-03 16:31:18:421
8.275431457519531,-4.602782287597656,0.99597265625,-0.1018479103910376,0.08123790645199613,0.052204469626656154,0.48000001907348633,2019-06-03 16:31:18:426
8.206000671386718,-4.7500234374999994,1.0809655151367188,-0.10091580400950988,0.07657737454435747,0.04035340277580354,0.4848639965057373,2019-06-03 16:31:18:431
8.267051879882812,-4.90325,0.9732280883789062,-0.09199421435774442,0.06938683960114353,0.025706016780367734,0.48998379707336426,2019-06-03 16:31:18:436
8.460979248046876,-4.983454528808593,0.6811399536132813,-0.06949050314657487,0.0673894687835841,0.013189160697292614,0.49484801292419434,2019-06-03 16:31:18:441
8.554351684570312,-4.908038330078125,0.7158553466796875,-0.05950364905877772,0.06485946574800883,-0.0007924350256233863,0.4999678134918213,2019-06-03 16:31:18:446
8.669271606445312,-4.7691767578125,0.94808935546875,-0.06602839372947185,0.05873419524082658,-0.011445079385940339,0.5048317909240723,2019-06-03 16:31:18:451
8.611811645507812,-4.540533996582031,0.8164102783203124,-0.06789260649252732,0.061929988548921656,-0.0199671959144912,0.5099518299102783,2019-06-03 16:31:18:456
8.653709533691407,-4.4292053222656245,0.7086728515625,-0.05937049100427375,0.06419367547548901,-0.0283561533482408,0.5150718688964844,2019-06-03 16:31:18:461
8.765038208007812,-4.365759948730469,0.6919136962890625,-0.058438384622746024,0.05487261166021168,-0.032350894983359656,0.5199358463287354,2019-06-03 16:31:18:466
8.744687805175781,-4.247248779296875,0.727826171875,-0.06256628431236885,0.05433997944219583,-0.035813004400462665,0.5250558853149414,2019-06-03 16:31:18:471
8.782994445800782,-4.24246044921875,0.7062786865234375,-0.057639436295722254,0.05939998551334639,-0.03701142689099833,0.5299198627471924,2019-06-03 16:31:18:476
9.004454711914063,-4.135920104980468,0.7912715454101562,-0.05044890135250831,0.05593787609624337,-0.03914195576306172,0.5350399017333984,2019-06-03 16:31:18:481
9.14690753173828,-4.0940222167968745,0.7541619873046875,-0.049916269134492465,0.05274208278814829,-0.04047353630810134,0.5399038791656494,2019-06-03 16:31:18:486
9.093038818359375,-4.078460144042968,0.6571983032226563,-0.053911010769611314,0.05953314356785035,-0.03834300743603795,0.5450239181518555,2019-06-03 16:31:18:491
9.08944757080078,-3.994664367675781,0.636847900390625,-0.054843117151139056,0.06432683352999297,-0.036878268836494366,0.5498878955841064,2019-06-03 16:31:18:496
9.169652099609374,-3.874956115722656,0.713461181640625,-0.051913639952051886,0.06033209189487412,-0.032750369146871544,0.5550079345703125,2019-06-03 16:31:18:501
9.122965881347657,-3.758839111328125,0.7888773803710938,-0.05178048189754793,0.06379420131197712,-0.02689141474869722,0.5598719120025635,2019-06-03 16:31:18:506
9.133739624023438,-3.70616748046875,0.7254320068359374,-0.056441013805186596,0.07364789734527032,-0.021565092568538745,0.5649919509887695,2019-06-03 16:31:18:511
9.265418701171875,-3.800736999511719,0.6021325073242187,-0.05950364905877772,0.07657737454435747,-0.016505085457090892,0.5698559284210205,2019-06-03 16:31:18:516
9.231900390625,-3.7420799560546874,0.6476216430664062,-0.05910417489526583,0.07071842014618314,-0.01091244716792449,0.5749759674072266,2019-06-03 16:31:18:521
9.152892944335937,-3.692999572753906,0.7840890502929687,-0.058837858786257906,0.07830842925290897,-0.005985599151277901,0.5798399448394775,2019-06-03 16:31:18:526
9.150498779296875,-3.731306213378906,0.9409068603515625,-0.06323207458488865,0.08789580917719424,-0.0001266447531035767,0.5849599838256836,2019-06-03 16:31:18:531
9.242674133300781,-3.745671203613281,0.828381103515625,-0.06922418703756694,0.09095844443078535,0.0025365163369756613,0.5900797843933105,2019-06-03 16:31:18:536
9.16486376953125,-3.7672186889648436,0.5925558471679687,-0.07441735116322144,0.09215686692132101,0.007463364353622252,0.5949440002441406,2019-06-03 16:31:18:541
9.157681274414061,-3.827072814941406,0.5614317016601562,-0.08174104416093936,0.09961371797354289,0.012123896261260918,0.6000638008117676,2019-06-03 16:31:18:546
9.245068298339843,-3.8079194946289063,0.627271240234375,-0.09292632073927215,0.10707056902576474,0.013721792915308461,0.6049280166625977,2019-06-03 16:31:18:551
9.26063037109375,-3.902489013671875,0.49439508056640624,-0.0983858009739346,0.11093215260637963,0.015319689569356004,0.6100478172302246,2019-06-03 16:31:18:556
9.091841735839843,-3.9012919311523437,0.45369427490234376,-0.10104896206401383,0.11759005533157774,0.017583375455626056,0.6149117946624756,2019-06-03 16:31:18:561
8.962556823730468,-3.903686096191406,0.665577880859375,-0.10344580704508514,0.11785637144058567,0.021178642927233027,0.6200318336486816,2019-06-03 16:31:18:566
8.986498474121094,-3.970722717285156,0.7888773803710938,-0.10091580400950988,0.11519321035050643,0.025972332889375657,0.6248958110809326,2019-06-03 16:31:18:571
9.100221313476561,-3.845029052734375,0.8750673217773437,-0.09598895599286329,0.11825584560409755,0.027170755379911312,0.6300158500671387,2019-06-03 16:31:18:576
9.149301696777343,-3.8246786499023435,0.90978271484375,-0.10078264595500591,0.12198427113020847,0.030233390633502437,0.6348798274993896,2019-06-03 16:31:18:581
9.131345458984375,-3.7899632568359376,0.94808935546875,-0.11489739973242587,0.12304953556624017,0.03302970977808564,0.6399998664855957,2019-06-03 16:31:18:586
9.01163720703125,-3.7672186889648436,0.9385126953125,-0.11889214136754472,0.12131848085768866,0.03649181919518865,0.6448638439178467,2019-06-03 16:31:18:591
8.888337707519531,-3.8665765380859374,1.086950927734375,-0.11090265809730702,0.11665794895005001,0.03862234806725204,0.6499838829040527,2019-06-03 16:31:18:596
8.939812255859374,-3.927627746582031,1.2796812133789062,-0.107440548680204,0.11292952342393908,0.042617089702370894,0.6548478603363037,2019-06-03 16:31:18:601
9.008045959472655,-4.001846862792969,1.192294189453125,-0.10837265506173173,0.10800267540729247,0.04554656690145806,0.6599678993225098,2019-06-03 16:31:18:606
9.102615478515625,-4.0413505859375,0.89062939453125,-0.10531001980814061,0.10227687906362212,0.04834288604604125,0.6648318767547607,2019-06-03 16:31:18:611
9.079870910644532,-4.100007629394531,0.7721182250976563,-0.09851895902843856,0.09615160855643987,0.048742360209553144,0.6699519157409668,2019-06-03 16:31:18:616
8.933826843261718,-4.157467590332031,1.1001188354492186,-0.09385842712079988,0.08976002194024969,0.049541308536576914,0.6750719547271729,2019-06-03 16:31:18:621
8.823695251464844,-4.170635498046875,1.1515933837890624,-0.08600210190506614,0.08483317392360311,0.050606572972608614,0.6799359321594238,2019-06-03 16:31:18:626
8.806936096191405,-4.202956726074219,0.9241477050781249,-0.07068892563711052,0.07897421952542878,0.05047341491810465,0.6850559711456299,2019-06-03 16:31:18:631
8.840454406738282,-4.2400662841796875,0.7110670166015625,-0.05897101684076187,0.06778894294709599,0.04834288604604125,0.6899199485778809,2019-06-03 16:31:18:636
8.767432373046875,-4.278372924804687,0.799651123046875,-0.058038910459234136,0.05979945967685827,0.04594604106496994,0.6950399875640869,2019-06-03 16:31:18:641
8.639344543457032,-4.320270812988281,0.9588630981445312,-0.05204679800655585,0.05673682442326714,0.044081828301914476,0.6999039649963379,2019-06-03 16:31:18:646
8.548366271972656,-4.404066589355469,0.9995639038085937,-0.03460309078594224,0.04674997033547,0.038755506121755996,0.705024003982544,2019-06-03 16:31:18:651
8.496891723632812,-4.4459644775390625,0.9421039428710938,-0.01782517591844304,0.035032061539121355,0.0331628678325896,0.7098879814147949,2019-06-03 16:31:18:656
8.47654132080078,-4.534548583984375,0.9037973022460938,-0.010235166811717211,0.029705737278368276,0.026504965107391504,0.715008020401001,2019-06-03 16:31:18:661
8.520833374023438,-4.603979370117187,0.8164102783203124,-0.00038147077842402973,0.022914676498666218,0.020512852654713216,0.719871997833252,2019-06-03 16:31:18:666
8.466964660644532,-4.516592346191406,0.8702789916992187,0.014931705489531589,0.011329925756821534,0.012789686533780728,0.7249917984008789,2019-06-03 16:31:18:671
8.45619091796875,-4.473497375488281,1.0833596801757812,0.028780143157943625,0.0048051810861274,0.0070638901901103664,0.729856014251709,2019-06-03 16:31:18:676
8.449008422851563,-4.496241943359375,1.0905421752929687,0.03743541462010655,0.002275178050552124,0.0006723035739201948,0.7349758148193359,2019-06-03 16:31:18:681
8.488512145996093,-4.450752807617188,0.8822498168945312,0.04475910761782445,-0.006513253546709362,-0.005319808878758091,0.7398397922515869,2019-06-03 16:31:18:686
8.530410034179686,-4.399278259277343,0.7840890502929687,0.0536806972695899,-0.01769853012504216,-0.012510343821972036,0.744959831237793,2019-06-03 16:31:18:691
8.553154602050782,-4.375336608886719,0.9265418701171875,0.06087123221280384,-0.02275853619619271,-0.01703771767510674,0.750079870223999,2019-06-03 16:31:18:696
8.656103698730469,-4.264007934570312,1.1025130004882813,0.06712966077449005,-0.02302485230520064,-0.02063298618701101,0.75494384765625,2019-06-03 16:31:18:701
8.772220703124999,-4.1969713134765625,1.0091405639648436,0.07352124739068022,-0.027818542267343267,-0.02196456673205063,0.760063886642456,2019-06-03 16:31:18:706
8.799753601074219,-4.133525939941406,0.8319723510742187,0.07964651789786248,-0.03381065472002155,-0.022896673113578365,0.764927864074707,2019-06-03 16:31:18:711
8.80933026123047,-4.029379760742187,0.8547169189453124,0.07471966988121588,-0.03367749666551759,-0.024627727822129866,0.7700479030609131,2019-06-03 16:31:18:716
8.909885192871094,-3.994664367675781,0.952877685546875,0.07285545711816041,-0.03314486444750174,-0.021698250623042706,0.7749118804931641,2019-06-03 16:31:18:721
9.002060546875,-3.925233581542969,0.8798556518554688,0.07938020178885455,-0.034343286938037405,-0.020366670078003087,0.7800319194793701,2019-06-03 16:31:18:726
9.028396362304687,-3.9575548095703126,0.8367606811523437,0.08310862731496549,-0.03554170734797846,-0.019168247587467428,0.7848958969116211,2019-06-03 16:31:18:731
8.979315979003905,-3.9814964599609373,0.866687744140625,0.0764507245897674,-0.03540854929347449,-0.01570613713006712,0.7900159358978271,2019-06-03 16:31:18:736
8.9829072265625,-3.927627746582031,0.8032423706054688,0.0760512504262555,-0.03620749762049827,-0.012110869658460147,0.7948799133300781,2019-06-03 16:31:18:741
9.03917010498047,-3.9348102416992186,0.7409940795898438,0.08750284311359623,-0.037672236220041844,-0.010246656895404683,0.7999999523162842,2019-06-03 16:31:18:746
9.051140930175782,-3.9898760375976563,0.7972569580078125,0.09282916529375469,-0.03820486843805769,-0.00798296996883733,0.8048639297485352,2019-06-03 16:31:18:751
9.006848876953125,-3.970722717285156,0.9109797973632813,0.08590494645954869,-0.039536448983097314,-0.0051866508242541295,0.8099839687347412,2019-06-03 16:31:18:756
8.93622100830078,-3.9479781494140624,0.8391548461914062,0.08697021089558038,-0.04046855536462505,-0.0013250672436392339,0.8148479461669922,2019-06-03 16:31:18:761
8.93622100830078,-3.9635402221679685,0.7673298950195312,0.09868811969192903,-0.0427322422911924,-0.0019908575161590434,0.8199679851531982,2019-06-03 16:31:18:766
8.927841430664062,-4.048533081054687,0.8738702392578125,0.10388128381758353,-0.04672698392631126,-0.00039296086211150055,0.8248319625854492,2019-06-03 16:31:18:771
8.919461853027343,-4.096416381835938,0.9217535400390625,0.10055233245498449,-0.046327509762799375,0.0014712519009439664,0.8299520015716553,2019-06-03 16:31:18:776
8.909885192871094,-4.114372619628906,0.8176073608398438,0.10428075798109543,-0.04845803863486276,0.0004059874649122709,0.8350718021392822,2019-06-03 16:31:18:781
8.937418090820312,-4.115569702148437,0.7314174194335937,0.11373497985087673,-0.0539175188695252,-0.0009255930801273482,0.8399360179901123,2019-06-03 16:31:18:786
8.929038513183594,-4.131131774902344,0.8355635986328125,0.11719708926797973,-0.05618120579609255,-0.00105875113463131,0.8450558185577393,2019-06-03 16:31:18:791
8.856016479492187,-4.218518798828125,0.8451402587890625,0.11706393121347577,-0.05658067995960443,-0.0009255930801273482,0.8499197959899902,2019-06-03 16:31:18:796
8.846439819335938,-4.2257012939453125,0.7888773803710938,0.12385499199317783,-0.061374369921747066,-0.0029229638976867767,0.8550398349761963,2019-06-03 16:31:18:801
8.832074829101563,-4.218518798828125,0.7350086669921875,0.1347739524625027,-0.06590174377488177,-0.00385507027921451,0.8599038124084473,2019-06-03 16:31:18:806
8.790176940917968,-4.222110046386718,0.8032423706054688,0.1401002829650396,-0.06683385015640951,-0.005319808878758091,0.8650238513946533,2019-06-03 16:31:18:811
8.818906921386718,-4.216124633789063,0.895417724609375,0.1411655474010713,-0.06963016930099271,-0.006651389423797711,0.8698878288269043,2019-06-03 16:31:18:816
8.881155212402344,-4.222110046386718,0.7601473999023437,0.1466250276357337,-0.07229333039107194,-0.00931455051387695,0.8750078678131104,2019-06-03 16:31:18:821
8.869184387207032,-4.220912963867187,0.75655615234375,0.15421503674245954,-0.07575543980817495,-0.011178763276932416,0.8798718452453613,2019-06-03 16:31:18:826
8.863198974609375,-4.208942138671875,0.7302203369140625,0.15781030421406653,-0.07442385926313534,-0.013176134094491844,0.8849918842315674,2019-06-03 16:31:18:831
8.842848571777344,-4.218518798828125,0.7026874389648438,0.16007399114063386,-0.07482333342664722,-0.015306662966555234,0.8898558616638184,2019-06-03 16:31:18:836
8.860804809570313,-4.181409240722656,0.5973441772460938,0.16713136802934386,-0.07775281062573437,-0.016904559620602777,0.8949759006500244,2019-06-03 16:31:18:841
8.89552020263672,-4.149088012695312,0.6548041381835937,0.17125926771896666,-0.07895123311627003,-0.01850245731494762,0.8998398780822754,2019-06-03 16:31:18:846
8.9062939453125,-4.177817993164062,0.7350086669921875,0.17312348048202214,-0.07881807506176607,-0.020233512023499125,0.9049599170684814,2019-06-03 16:31:18:851
8.933826843261718,-4.140708435058594,0.6931107788085937,0.177118222117141,-0.07855175895275815,-0.020100353968995163,0.9100799560546875,2019-06-03 16:31:18:856
8.948191833496093,-4.096416381835938,0.5757966918945312,0.18364296678783512,-0.07921754922527796,-0.021431934514034783,0.9149439334869385,2019-06-03 16:31:18:861
9.01044012451172,-4.054518493652344,0.608117919921875,0.18537402149638665,-0.07761965257123042,-0.02116561840502686,0.9200639724731445,2019-06-03 16:31:18:866
8.985301391601562,-3.9719197998046876,0.665577880859375,0.18244454429729945,-0.07548912369916704,-0.021698250623042706,0.9249279499053955,2019-06-03 16:31:18:871
9.052338012695312,-3.91685400390625,0.6871253662109374,0.1835098087333312,-0.07482333342664722,-0.019301405641971393,0.9300479888916016,2019-06-03 16:31:18:876
9.057126342773437,-3.9192481689453125,0.6787457885742187,0.1835098087333312,-0.07482333342664722,-0.019301405641971393,0.9349119663238525,2019-06-03 16:31:18:881
9.057126342773437,-3.873759033203125,0.7062786865234375,0.1879040245319619,-0.07375806899061553,-0.019035089532963467,0.9400320053100586,2019-06-03 16:31:18:886
9.099024230957031,-3.8953065185546873,0.6907166137695312,0.18697191815043418,-0.07242648844557589,-0.014774030748539387,0.9448959827423096,2019-06-03 16:31:18:891
9.131345458984375,-3.8366494750976563,0.6823370361328125,0.18470823122386681,-0.07216017233656798,-0.0115782374404443,0.9500160217285156,2019-06-03 16:31:18:896
9.100221313476561,-3.8210874023437498,0.6452274780273437,0.18524086344188267,-0.07322543677259968,-0.00864876024135714,0.9548799991607666,2019-06-03 16:31:18:901
9.157681274414061,-3.806722412109375,0.7290232543945312,0.18923560507700152,-0.07042911762801647,-0.005452966933262054,0.9599997997283936,2019-06-03 16:31:18:906
9.160075439453125,-3.80193408203125,0.69909619140625,0.1903008695130332,-0.06936385319198478,-0.0013250672436392339,0.9648640155792236,2019-06-03 16:31:18:911
9.121768798828125,-3.787569091796875,0.6380449829101562,0.19056718562204114,-0.07056227568252044,0.003601780773007357,0.9699838161468506,2019-06-03 16:31:18:916
9.071491333007812,-3.7648245239257814,0.6117091674804688,0.1938961369846402,-0.06816543070144912,0.0077296804626301755,0.9748477935791016,2019-06-03 16:31:18:921
9.114586303710936,-3.758839111328125,0.627271240234375,0.19615982391120754,-0.06643437599289762,0.012523370424772804,0.9799678325653076,2019-06-03 16:31:18:926
9.128951293945311,-3.7732041015625,0.6835341186523437,0.19602666585670359,-0.06550226961136989,0.017450218441419394,0.9848318099975586,2019-06-03 16:31:18:931
9.112192138671874,-3.7229266357421875,0.7026874389648438,0.19762456251075114,-0.06630121793839366,0.02264338152677661,0.9899518489837646,2019-06-03 16:31:18:936
9.103812561035156,-3.6989849853515624,0.7924686279296875,0.2009535138733502,-0.06536911155686592,0.028369177870446967,0.9950718879699707,2019-06-03 16:31:18:941
9.121768798828125,-3.7181383056640622,0.7649357299804688,0.2018856202548779,-0.06656753404740158,0.03342918394159752,0.9999358654022217,2019-06-03 16:31:18:946
9.11698046875,-3.7289120483398435,0.713461181640625,0.2018856202548779,-0.06736648237442536,0.039820770557787696,1.0050559043884277,2019-06-03 16:31:18:951
9.152892944335937,-3.7672186889648436,0.675154541015625,0.20215193636388584,-0.06749964042892932,0.045280250792450134,1.0099198818206787,2019-06-03 16:31:18:956
9.128951293945311,-3.7755982666015626,0.7697240600585937,0.20561404578098882,-0.06749964042892932,0.049807624645584844,1.0150399208068848,2019-06-03 16:31:18:961
9.090644653320313,-3.8905181884765625,0.6404391479492187,0.20428246523594923,-0.06710016626541743,0.05326973406268785,1.0199038982391357,2019-06-03 16:31:18:966
9.075082580566406,-3.9336131591796875,0.6164974975585937,0.20787773270755622,-0.06736648237442536,0.05806342402483048,1.0250239372253418,2019-06-03 16:31:18:971
9.018819702148438,-3.9192481689453125,0.6631837158203124,0.21320405488771468,-0.0678991145924412,0.05926184651536613,1.0298879146575928,2019-06-03 16:31:18:976
9.020016784667968,-3.959948974609375,0.7194465942382813,0.21919616734039296,-0.0717606981730561,0.06245763982346121,1.0350079536437988,2019-06-03 16:31:18:981
9.012834289550781,-4.017408935546875,0.6392420654296875,0.2218593284304722,-0.07002964346450459,0.0639223784230048,1.0398719310760498,2019-06-03 16:31:18:986
9.03079052734375,-3.969525634765625,0.7194465942382813,0.22731880866513465,-0.06883122097396893,0.066718697567588,1.0449919700622559,2019-06-03 16:31:18:991
8.996075134277344,-4.0353651733398435,0.6943078613281249,0.22878354726467823,-0.07429070120863138,0.06645238145858008,1.0498559474945068,2019-06-03 16:31:18:996
8.909885192871094,-3.997058532714844,0.7433882446289062,0.23397671139033274,-0.07575543980817495,0.06911554254865931,1.054975986480713,2019-06-03 16:31:19:001
9.018819702148438,-3.9958614501953122,0.7266290893554688,0.23837092718896347,-0.07415754315412741,0.0705802853093921,1.0598399639129639,2019-06-03 16:31:19:006
8.979315979003905,-4.030576843261719,0.7972569580078125,0.24502882991416158,-0.07775281062573437,0.07151239169091983,1.06496000289917,2019-06-03 16:31:19:011
9.020016784667968,-4.053321411132813,0.6931107788085937,0.24769199100424083,-0.082546500587877,0.07084660141840002,1.0700798034667969,2019-06-03 16:31:19:016
9.006848876953125,-4.016211853027344,0.7062786865234375,0.25355094540241513,-0.08201386836986116,0.07350976250847926,1.074944019317627,2019-06-03 16:31:19:021
9.124162963867187,-4.016211853027344,0.6117091674804688,0.2612741125636449,-0.08427755529642851,0.07457502694451096,1.080063819885254,2019-06-03 16:31:19:026
9.10740380859375,-3.9144598388671876,0.6452274780273437,0.2666004347438034,-0.0874733486045236,0.07723818803459019,1.0849277973175049,2019-06-03 16:31:19:031
9.035578857421875,-3.9072773437499997,0.7074757690429687,0.2666004347438034,-0.08907124525857113,0.08003450717917339,1.090047836303711,2019-06-03 16:31:19:036
8.968542236328124,-3.9384014892578123,0.7541619873046875,0.26966306999739453,-0.09040282580361075,0.08362977465078036,1.094911813735962,2019-06-03 16:31:19:041
9.041564270019531,-3.998255615234375,0.7146582641601562,0.2756551824500728,-0.09279967078468208,0.08655925184986753,1.100031852722168,2019-06-03 16:31:19:046
8.997272216796874,-4.029379760742187,0.6775487060546875,0.2840441398838224,-0.0947970416022415,0.0901545193214745,1.104895830154419,2019-06-03 16:31:19:051
9.10740380859375,-3.9635402221679685,0.6883224487304688,0.2908352006635245,-0.09572914798376925,0.09215189013903392,1.110015869140625,2019-06-03 16:31:19:056
9.180425842285157,-3.7396857910156247,0.7397969970703124,0.29443046813513146,-0.09719388658331282,0.0974782123191924,1.114879846572876,2019-06-03 16:31:19:061
9.181622924804687,-3.8426348876953123,0.675154541015625,0.2922999392630681,-0.09746020269232074,0.10040768951827955,1.119999885559082,2019-06-03 16:31:19:066
9.137330871582032,-3.945583984375,0.6236799926757812,0.29682731311620275,-0.09772651880132867,0.10533453753492616,1.124863862991333,2019-06-03 16:31:19:071
9.053535095214844,-3.9384014892578123,0.5195338134765625,0.30281942556888103,-0.0986586251828564,0.11159296609661236,1.129983901977539,2019-06-03 16:31:19:076
9.090644653320313,-4.010226440429688,0.56502294921875,0.3074799574765197,-0.10025652183690394,0.11305770469615593,1.13484787940979,2019-06-03 16:31:19:081
8.999666381835937,-3.9755110473632813,0.6069208374023437,0.3124068054931663,-0.1031859990359911,0.11705244633127482,1.139967918395996,2019-06-03 16:31:19:086
8.99368096923828,-4.0210001831054685,0.64163623046875,0.31640154712828517,-0.10411810541751883,0.11904981714883424,1.144831895828247,2019-06-03 16:31:19:091
8.929038513183594,-4.170635498046875,0.5865704345703124,0.31879839210935645,-0.1031859990359911,0.11971560742135405,1.1499519348144531,2019-06-03 16:31:19:096
8.890731872558593,-4.200562561035156,0.5877675170898438,0.32465734650753075,-0.10451757958103071,0.1209140299118897,1.1550719738006592,2019-06-03 16:31:19:101
8.815315673828124,-4.243657531738281,0.6332566528320313,0.33078261701471307,-0.10651495039859016,0.11944929131234612,1.1599359512329102,2019-06-03 16:31:19:106
8.750673217773437,-4.3094970703125,0.703884521484375,0.3374405197399111,-0.11130864036073278,0.11838402687631443,1.1650559902191162,2019-06-03 16:31:19:111
8.72433740234375,-4.275978759765625,0.7481765747070312,0.34622895133717263,-0.11303969506928428,0.1157208657862352,1.1699199676513672,2019-06-03 16:31:19:116
8.663286193847656,-4.411249084472656,0.7661328125,0.35328632822588263,-0.1182328591949388,0.11106033387859651,1.1750400066375732,2019-06-03 16:31:19:121
8.674059936523438,-4.492650695800781,0.8846439819335937,0.3596779148420728,-0.12169496861204182,0.10653296002546181,1.1799039840698242,2019-06-03 16:31:19:126
8.613008728027344,-4.52018359375,0.9157681274414062,0.36393897258619956,-0.12222760083005767,0.10107347979079938,1.1850237846374512,2019-06-03 16:31:19:131
8.511256713867187,-4.544125244140625,0.8583081665039062,0.3717952978019333,-0.12968445188227953,0.09521452539262505,1.1898880004882812,2019-06-03 16:31:19:136
8.463373413085938,-4.601585205078125,0.8822498168945312,0.38258110021675423,-0.13314656129938252,0.08669240990437149,1.1950078010559082,2019-06-03 16:31:19:141
8.577096252441406,-4.603979370117187,0.933724365234375,0.3896384771054642,-0.1343449837899182,0.07883608468863773,1.1998720169067383,2019-06-03 16:31:19:146
8.563928344726563,-4.516592346191406,0.8223956909179687,0.39323374457707116,-0.13967131429245508,0.06978133282117913,1.2049918174743652,2019-06-03 16:31:19:151
8.59026416015625,-4.438781982421875,0.7481765747070312,0.4014895439563168,-0.14579658479963734,0.06312343009598104,1.2098557949066162,2019-06-03 16:31:19:156
8.696804504394532,-4.4627236328125,0.790074462890625,0.40881323695403476,-0.1472613233991809,0.05699815958879879,1.2149758338928223,2019-06-03 16:31:19:161
8.761446960449218,-4.493847778320313,0.876264404296875,0.4104111336080823,-0.150457116707276,0.051006047136120496,1.2198398113250732,2019-06-03 16:31:19:166
8.721943237304687,-4.413643249511718,0.8056365356445312,0.4120090302621298,-0.15445185834239483,0.044880776628938246,1.2249598503112793,2019-06-03 16:31:19:171
8.712366577148437,-4.418431579589844,0.7194465942382813,0.42439272933099825,-0.15724817748697803,0.040619718884811466,1.2300798892974854,2019-06-03 16:31:19:176
8.793768188476562,-4.389701599121094,0.7457824096679687,0.43784169283589847,-0.1556502808329305,0.03729076752221242,1.2349438667297363,2019-06-03 16:31:19:181
8.794965270996094,-4.2987233276367185,0.6787457885742187,0.44263538279804104,-0.15884607414102558,0.034094974214117335,1.2400639057159424,2019-06-03 16:31:19:186
8.858410644531249,-4.236475036621093,0.6356508178710938,0.4438338052885767,-0.16150923523110483,0.031431813124038095,1.2449278831481934,2019-06-03 16:31:19:191
8.994878051757812,-4.091628051757812,0.6452274780273437,0.45315486910385405,-0.1567155452689622,0.030233390633502437,1.2500479221343994,2019-06-03 16:31:19:196
9.109797973632812,-3.9575548095703126,0.67994287109375,0.4608780362650838,-0.15538396472392257,0.0320976033965579,1.2549118995666504,2019-06-03 16:31:19:201
9.201973327636718,-3.868970703125,0.5626287841796875,0.460345404047068,-0.15511764861491464,0.03382865810510941,1.2600319385528564,2019-06-03 16:31:19:206
9.286966186523438,-3.6546929321289063,0.5207308959960938,0.460345404047068,-0.15138922308880373,0.0415518252663392,1.2648959159851074,2019-06-03 16:31:19:211
9.427024841308594,-3.4583713989257814,0.5398842163085937,0.4615438265376037,-0.14899237810773241,0.05233762768116011,1.2700159549713135,2019-06-03 16:31:19:216
9.525185607910156,-3.3590135498046876,0.6931107788085937,0.46047856210157195,-0.14672869118116505,0.0639223784230048,1.2748799324035645,2019-06-03 16:31:19:221
9.478499389648437,-3.287188598632812,0.7721182250976563,0.4522227627223263,-0.14353289787306997,0.07737134608909416,1.2799999713897705,2019-06-03 16:31:19:226
9.438995666503907,-3.2488819580078125,0.8200015258789062,0.4448990697246084,-0.14193500121902242,0.09228504819353789,1.2848639488220215,2019-06-03 16:31:19:231
9.349214477539062,-3.3518310546875,0.8223956909179687,0.43690958645437067,-0.14113605289199865,0.10506822142591823,1.2899839878082275,2019-06-03 16:31:19:236
9.373156127929688,-3.318312744140625,0.8068336181640625,0.4313169481652043,-0.1378070932070212,0.11931613325784216,1.2948479652404785,2019-06-03 16:31:19:241
9.485681884765624,-3.338663146972656,0.6955049438476563,0.4230611487859587,-0.1328802451903746,0.13356404508976608,1.2999680042266846,2019-06-03 16:31:19:246
9.418645263671875,-3.332677734375,0.7385999145507812,0.4166695621697685,-0.12635550051968047,0.14621405194526405,1.3048319816589355,2019-06-03 16:31:19:251
9.308513671875,-3.179451171875,0.7098699340820313,0.4082806047360189,-0.1231597072115854,0.15926354128665232,1.3099520206451416,2019-06-03 16:31:19:256
9.306119506835937,-3.202195739746094,0.7601473999023437,0.39722848621219004,-0.11690127864989917,0.17244618868254455,1.3150718212127686,2019-06-03 16:31:19:261
9.440192749023437,-3.2369111328124998,0.7002932739257812,0.38417899687080176,-0.11303969506928428,0.1856288360784368,1.3199357986450195,2019-06-03 16:31:19:266
9.474908142089843,-3.2955681762695312,0.5877675170898438,0.37219477196544515,-0.10451757958103071,0.19881148347432903,1.3250558376312256,2019-06-03 16:31:19:271
9.448572326660155,-3.4320355834960936,0.47524176025390624,0.35901212456955295,-0.09559598992926528,0.21226044697922913,1.3299198150634766,2019-06-03 16:31:19:276
9.358791137695313,-3.4068968505859374,0.5422783813476563,0.3452968449556449,-0.08667440027749983,0.2257094104841293,1.3350398540496826,2019-06-03 16:31:19:281
9.269009948730469,-3.562517578125,0.665577880859375,0.3337120942138002,-0.0801496556068057,0.23716100317147004,1.3399038314819336,2019-06-03 16:31:19:286
9.234294555664063,-3.576882568359375,0.7457824096679687,0.3306494589602091,-0.07895123311627003,0.24794680558629095,1.3450238704681396,2019-06-03 16:31:19:291
9.271404113769531,-3.4978751220703126,0.6763516235351562,0.32918472036066554,-0.07429070120863138,0.25740102745607224,1.3498878479003906,2019-06-03 16:31:19:296
9.274995361328125,-3.5278021850585937,0.7146582641601562,0.32212734347195554,-0.06443700517533818,0.268719462088909,1.3550078868865967,2019-06-03 16:31:19:301
9.219929565429688,-3.485904296875,0.8391548461914062,0.3068141672039999,-0.06190700213976291,0.2771084195226586,1.3598718643188477,2019-06-03 16:31:19:306
9.14571044921875,-3.6259629516601564,0.9265418701171875,0.2879057234644373,-0.06084173770373122,0.28536423554666107,1.3649919033050537,2019-06-03 16:31:19:311
9.14690753173828,-3.701379150390625,1.0223084716796875,0.27898413381267184,-0.054050676924029165,0.2958837218524741,1.3698558807373047,2019-06-03 16:31:19:316
9.237885803222657,-3.731306213378906,1.010337646484375,0.278451501594656,-0.051254357779445966,0.3049384695587435,1.3749759197235107,2019-06-03 16:31:19:321
9.17563751220703,-3.797145751953125,0.89062939453125,0.27552202439556883,-0.05192014805196577,0.313593743101501,1.3798398971557617,2019-06-03 16:31:19:326
9.209155822753907,-3.659481262207031,0.9373156127929687,0.2685978055613628,-0.049523303070894455,0.3231811230257862,1.3849599361419678,2019-06-03 16:31:19:331
9.273798278808593,-3.51463427734375,0.9756222534179687,0.26020884812761325,-0.047126458089823145,0.33543166404015073,1.3900799751281738,2019-06-03 16:31:19:336
9.264221618652343,-3.5122401123046876,1.02470263671875,0.25608094843799045,-0.04765909030783899,0.3459511503459637,1.3949439525604248,2019-06-03 16:31:19:341
9.259433288574218,-3.5218167724609373,0.8200015258789062,0.250488310148824,-0.041001187582640895,0.3576690591423124,1.4000639915466309,2019-06-03 16:31:19:346
9.254644958496094,-3.51463427734375,0.68951953125,0.24502882991416158,-0.03500907512996261,0.3719169709742363,1.4049279689788818,2019-06-03 16:31:19:351
9.27020703125,-3.604415466308594,0.6548041381835937,0.2378382949709476,-0.035275391238970534,0.38363487977058497,1.410048007965088,2019-06-03 16:31:19:356
9.282177856445312,-3.621174621582031,0.8271840209960938,0.233044605008805,-0.03221275806597401,0.39668436911197325,1.4149119853973389,2019-06-03 16:31:19:361
9.324075744628907,-3.5864592285156247,0.8726731567382813,0.2278514408831505,-0.02448959090474422,0.41053280678038523,1.4200317859649658,2019-06-03 16:31:19:366
9.236688720703125,-3.5876563110351563,0.8391548461914062,0.22412301535703955,-0.02116063954214517,0.4231828219582616,1.424896001815796,2019-06-03 16:31:19:371
9.124162963867187,-3.647510437011719,0.67994287109375,0.2162666901413058,-0.02116063954214517,0.43530020491812216,1.4300158023834229,2019-06-03 16:31:19:376
9.160075439453125,-3.7432770385742185,0.7146582641601562,0.20627983605350866,-0.01623379152549858,0.4476839039869906,1.434880018234253,2019-06-03 16:31:19:381
9.130148376464843,-3.8115107421875,0.790074462890625,0.19962193332831057,-0.016100633470994618,0.4611328674918908,1.4399998188018799,2019-06-03 16:31:19:386
9.099024230957031,-3.8881240234375,0.7553590698242187,0.19722508834723923,-0.015834317361986695,0.4695218249256404,1.4448637962341309,2019-06-03 16:31:19:391
9.048746765136718,-3.9527664794921873,0.7493736572265625,0.19762456251075114,-0.00784483409174898,0.4796418370679415,1.449983835220337,2019-06-03 16:31:19:396
9.043958435058594,-3.922839416503906,0.684731201171875,0.19056718562204114,-0.006779569655717285,0.4886965847742109,1.454847812652588,2019-06-03 16:31:19:401
9.016425537109376,-3.979102294921875,0.7397969970703124,0.1820450701337876,-0.006779569655717285,0.4966860680444486,1.459967851638794,2019-06-03 16:31:19:406
9.084659240722656,-4.071277648925781,0.84274609375,0.17512085129958155,0.00027780723299269543,0.5060071318597259,1.465087890625,2019-06-03 16:31:19:411
9.148104614257813,-4.046138916015625,0.9588630981445312,0.1711261096644627,0.0034736005410877808,0.5155945117840112,1.469951868057251,2019-06-03 16:31:19:416
8.979315979003905,-4.091628051757812,0.866687744140625,0.16699820997483988,0.003340442486583819,0.5227850467272251,1.475071907043457,2019-06-03 16:31:19:421
8.887140625,-4.128737609863281,0.8271840209960938,0.16526715526628838,0.0036067585955917433,0.5327719008150223,1.479935884475708,2019-06-03 16:31:19:426
8.834468994140625,-4.158664672851563,0.9552718505859374,0.15914188475910612,0.009465712993766067,0.5410277001942679,1.485055923461914,2019-06-03 16:31:19:431
8.670468688964844,-4.303511657714844,1.0175201416015625,0.1512855595433724,0.006669393849182867,0.547419286810458,1.489919900894165,2019-06-03 16:31:19:436
8.720746154785155,-4.322664978027344,0.8391548461914062,0.14822292428978126,0.005737287467655134,0.5507482381730572,1.495039939880371,2019-06-03 16:31:19:441
8.689622009277343,-4.3298474731445316,0.9061914672851562,0.1502202951073407,0.012128874083845304,0.5587377214432949,1.499903917312622,2019-06-03 16:31:19:446
8.811724426269532,-4.369351196289062,1.058220947265625,0.14502713098168618,0.010664135484301724,0.5608682503153583,1.5050239562988281,2019-06-03 16:31:19:451
8.65730078125,-4.4160374145507815,1.067797607421875,0.1323771074814314,0.0073351841217026755,0.5660614144410128,1.509887933731079,2019-06-03 16:31:19:456
8.554351684570312,-4.514198181152343,0.9851989135742187,0.12585236281073725,0.012661506301861154,0.5689908916400999,1.5150079727172852,2019-06-03 16:31:19:461
8.616599975585938,-4.521380676269531,0.9983668212890625,0.12891499806432838,0.01678940599148397,0.5717872107846832,1.5198719501495361,2019-06-03 16:31:19:466
8.522030456542968,-4.623132690429688,1.0067463989257812,0.1257192047562333,0.014658877119420582,0.5737845816022425,1.5249919891357422,2019-06-03 16:31:19:471
8.579490417480468,-4.6937605590820315,0.9564689331054688,0.11786287954049954,0.014792035173924543,0.5767140588013298,1.5298559665679932,2019-06-03 16:31:19:476
8.568716674804687,-4.6650305786132815,0.933724365234375,0.11466708623240446,0.019053092918051323,0.579377219891409,1.5349760055541992,2019-06-03 16:31:19:481
8.516045043945311,-4.718899291992187,1.0881480102539063,0.11972709230355501,0.019585725136067173,0.5812414326544645,1.5400958061218262,2019-06-03 16:31:19:486
8.460979248046876,-4.746432189941406,1.15877587890625,0.11639814094095596,0.01785467042751567,0.5819072229269843,1.5449600219726562,2019-06-03 16:31:19:491
8.355635986328124,-4.75960009765625,1.077374267578125,0.1078760254527024,0.02238204428065037,0.5833719615265278,1.5500798225402832,2019-06-03 16:31:19:496
8.290993530273438,-4.8386075439453125,1.110892578125,0.10361496770857562,0.02224888622614641,0.5841709098535516,1.5549437999725342,2019-06-03 16:31:19:501
8.219168579101563,-4.869731689453125,1.2521483154296875,0.10454707409010335,0.015857299609956237,0.5821735390359921,1.5600638389587402,2019-06-03 16:31:19:506
8.213183166503907,-4.954724548339843,1.3610828247070312,0.10148443883651223,0.017188880154995857,0.5819072229269843,1.5649278163909912,2019-06-03 16:31:19:511
8.257475219726562,-4.98943994140625,1.335944091796875,0.0960249586018498,0.016922564045987933,0.5823066970904962,1.5700478553771973,2019-06-03 16:31:19:516
8.275431457519531,-4.9571187133789065,1.3335499267578124,0.09589180054734583,0.015058351282932467,0.5804424843274406,1.5749118328094482,2019-06-03 16:31:19:521
8.232336486816406,-5.006199096679687,1.36946240234375,0.09229653307573885,0.016389931827972087,0.5783119554553773,1.5800318717956543,2019-06-03 16:31:19:526
8.259869384765624,-4.975074951171875,1.3096082763671875,0.0861712625685566,0.016922564045987933,0.5771135329648416,1.5848958492279053,2019-06-03 16:31:19:531
8.274234374999999,-4.945147888183594,1.3036228637695313,0.08324178536946945,0.020784147626602828,0.575648794365298,1.5900158882141113,2019-06-03 16:31:19:536
8.295781860351562,-4.908038330078125,1.3515061645507813,0.08004599206137436,0.018387302645531515,0.5765809007468258,1.5948798656463623,2019-06-03 16:31:19:541
8.28261395263672,-4.892476257324218,1.2629220581054688,0.0715238765731208,0.020384673463090943,0.5772466910193456,1.5999999046325684,2019-06-03 16:31:19:546
8.256278137207032,-4.9714837036132815,1.0378705444335938,0.06180333859433158,0.028240998678824698,0.5780456393463693,1.6048638820648193,2019-06-03 16:31:19:551
8.185650268554687,-5.022958251953125,0.8930235595703124,0.05354753921508593,0.031037317823407892,0.5776461651828575,1.6099839210510254,2019-06-03 16:31:19:556
8.17966485595703,-5.136681091308594,0.857111083984375,0.045025423726832374,0.035032061539121355,0.5752493202017861,1.6148478984832764,2019-06-03 16:31:19:561
8.23712481689453,-5.251601013183594,0.8092277832031249,0.03530488574804316,0.041157332046303605,0.5743172138202584,1.6199679374694824,2019-06-03 16:31:19:566
8.32211767578125,-5.237236022949219,0.8654906616210938,0.029712249539471363,0.044619441463406614,0.5737845816022425,1.6248319149017334,2019-06-03 16:31:19:571
8.40950469970703,-5.327017211914062,0.8750673217773437,0.02611698206786439,0.047815234771501694,0.5727193171662108,1.6299519538879395,2019-06-03 16:31:19:576
8.403519287109376,-5.265966003417969,0.85232275390625,0.0211901340512178,0.052342608624636404,0.5727193171662108,1.6350719928741455,2019-06-03 16:31:19:581
9.482090637207031,-4.097613464355469,0.3244093627929687,0.011469596072428579,0.06938683960114353,0.5775130071283534,1.6399359703063965,2019-06-03 16:31:19:586
8.960162658691406,-4.843395874023438,-0.10534326171875,0.00800748665532557,0.05860103718632262,0.5944240800503566,1.6450560092926025,2019-06-03 16:31:19:591
9.877127868652343,-3.9060802612304686,0.493197998046875,0.021056975996713835,0.0729821070727505,0.6137319979534311,1.6499199867248535,2019-06-03 16:31:19:596
8.851228149414062,-5.5389008178710935,0.0790074462890625,-0.015162014828363803,0.08483317392360311,0.6326404416929937,1.6550397872924805,2019-06-03 16:31:19:601
9.113389221191406,-4.542928161621093,1.671127197265625,-0.03833151839264777,0.10387477571766966,0.6462225632523979,1.6599040031433105,2019-06-03 16:31:19:606
8.082701171875,-3.453583068847656,0.646424560546875,-0.09159474019423253,0.15048008647167793,0.6486194082334691,1.6650238037109375,2019-06-03 16:31:19:611
7.520072387695312,-6.574377197265624,-1.3539003295898437,-0.06589523567496788,0.08896107361322593,0.6827078701864834,1.6698880195617676,2019-06-03 16:31:19:616
9.110995056152344,-5.5389008178710935,1.8231566772460936,0.006675906110285951,0.13117217689098185,0.666862061700512,1.6750078201293945,2019-06-03 16:31:19:621
7.596685668945312,-5.465878784179687,2.771246032714844,-0.07614840587177295,0.17205169130131975,0.6793789188238843,1.6798717975616455,2019-06-03 16:31:19:626
8.34007391357422,-5.8800693359375,0.21667193603515625,-0.12009056385808038,0.06925368154663956,0.6655304811554723,1.6849918365478516,2019-06-03 16:31:19:631
7.567955688476562,-5.325820129394531,-0.0502774658203125,-0.01995570479050643,0.12704427720135905,0.6728541741531902,1.6898558139801025,2019-06-03 16:31:19:636
8.2933876953125,-6.093150024414062,2.475566650390625,0.008140644709829533,0.18350328398866048,0.6598046848118019,1.6949758529663086,2019-06-03 16:31:19:641
7.849270080566406,-6.038084228515625,1.6795067749023438,-0.10051632984599798,0.088694757504218,0.6639325845014248,1.6998398303985596,2019-06-03 16:31:19:646
7.207633850097656,-5.213294372558594,0.15202947998046876,-0.12235425078464773,0.11079899455187567,0.6547446787406515,1.7049598693847656,2019-06-03 16:31:19:651
7.69005810546875,-6.076390869140625,1.3886157226562499,-0.03140729747784715,0.1564721989243562,0.6538125723591237,1.7100799083709717,2019-06-03 16:31:19:656
7.851664245605469,-6.017733825683593,1.6663388671875,-0.012765169847292486,0.11745689727707377,0.6476873018519413,1.7149438858032227,2019-06-03 16:31:19:661
7.5272548828125,-5.779514404296875,0.703884521484375,-0.09319263684828007,0.10174424684560628,0.6419615055082711,1.7200639247894287,2019-06-03 16:31:19:666
7.579926513671875,-5.67895947265625,0.6260741577148438,-0.0973205365379029,0.1229163775117362,0.6432930860533107,1.7249279022216797,2019-06-03 16:31:19:671
8.091080749511718,-5.434754638671875,1.6663388671875,-0.042992050300286445,0.1233158516752481,0.6363688672191047,1.7300479412078857,2019-06-03 16:31:19:676
7.673298950195313,-6.072799621582031,1.508323974609375,-0.06176733598534507,0.11386162980546681,0.634904128619561,1.7349119186401367,2019-06-03 16:31:19:681
7.8325109252929686,-5.817821044921875,0.3818693237304687,-0.10384528120859703,0.12278321945723225,0.6396978185817037,1.7400319576263428,2019-06-03 16:31:19:686
8.137766967773437,-5.383280090332031,0.6332566528320313,-0.08240683443345917,0.13117217689098185,0.6419615055082711,1.7448959350585938,2019-06-03 16:31:19:691
8.131781555175781,-5.637061584472656,1.6747184448242187,-0.06323207458488865,0.1177232133860817,0.6392983444181919,1.7500159740447998,2019-06-03 16:31:19:696
8.130584472656249,-5.403630493164062,1.0019580688476561,-0.0923936885212563,0.11905479393112131,0.6483530921244612,1.7548799514770508,2019-06-03 16:31:19:701
8.171285278320312,-5.147454833984375,0.3639130859375,-0.10331264899058118,0.1474174512180868,0.6619352136838653,1.7599999904632568,2019-06-03 16:31:19:706
8.423869689941405,-5.186958557128906,0.8870381469726563,-0.09092894992171273,0.14475429012800756,0.666862061700512,1.7648639678955078,2019-06-03 16:31:19:711
8.206000671386718,-5.188155639648437,1.1707467041015625,-0.11023686782478721,0.1327700735450294,0.6785799704968606,1.7699840068817139,2019-06-03 16:31:19:716
8.414293029785156,-5.269557250976562,0.5686141967773437,-0.14246110869236758,0.15620588281534828,0.6964231498003914,1.7748479843139648,2019-06-03 16:31:19:721
8.50527130126953,-5.151046081542969,0.684731201171875,-0.13047689210938943,0.17125274297429596,0.7108042196868194,1.7799677848815918,2019-06-03 16:31:19:726
8.28381103515625,-5.311455139160156,1.1946883544921876,-0.1235526732751834,0.15953483417794734,0.7211905479381283,1.7848320007324219,2019-06-03 16:31:19:731
8.277825622558593,-5.301878479003906,1.048644287109375,-0.15404585943421226,0.17271748157383954,0.7375689886421156,1.7899518013000488,2019-06-03 16:31:19:736
8.306555603027343,-5.129498596191406,0.6260741577148438,-0.17162272262873524,0.1872317095147714,0.7556784840546545,1.7950718402862549,2019-06-03 16:31:19:741
8.32331475830078,-5.220476867675782,1.0318851318359374,-0.15724165274230736,0.1848348645337001,0.7681953411780269,1.7999358177185059,2019-06-03 16:31:19:746
8.210789001464844,-5.340185119628906,1.1910971069335938,-0.16429902963101733,0.1896285544958427,0.7839079916094944,1.805055856704712,2019-06-03 16:31:19:751
8.222759826660155,-5.240827270507812,0.895417724609375,-0.18893326971425028,0.20161277940119932,0.8048138061666166,1.809919834136963,2019-06-03 16:31:19:756
8.36162139892578,-5.31504638671875,0.7864832153320312,-0.19425959189440875,0.20667278547234985,0.8191948760530443,1.815039873123169,2019-06-03 16:31:19:761
8.075518676757813,-5.493411682128906,1.1671554565429687,-0.18706905695119483,0.20867015628990926,0.8353070006480238,1.81990385055542,2019-06-03 16:31:19:766
7.89116796875,-5.637061584472656,0.9971697387695312,-0.20690960707228515,0.21719227177816286,0.8512859671884991,1.825023889541626,2019-06-03 16:31:19:771
7.836102172851563,-5.6430469970703125,0.7290232543945312,-0.22155699306772098,0.22757860002947186,0.8650012468024073,1.829887866973877,2019-06-03 16:31:19:776
7.553590698242187,-5.887251831054687,0.828381103515625,-0.21356750979748323,0.2233175422853451,0.8751212589447083,1.835007905960083,2019-06-03 16:31:19:781
7.405152465820312,-6.126668334960938,1.0857538452148436,-0.21077119065290006,0.21799122010518662,0.8825781099969302,1.839871883392334,2019-06-03 16:31:19:786
7.267487976074219,-6.254756164550781,0.857111083984375,-0.2231548897217685,0.23090755139207092,0.890168119103656,1.84499192237854,2019-06-03 16:31:19:791
7.207633850097656,-6.4151652221679685,0.7924686279296875,-0.22022541252268132,0.22877702252000753,0.8918991738122075,1.849855899810791,2019-06-03 16:31:19:796
6.909560302734375,-6.689297119140625,0.9624543457031249,-0.20637697485426929,0.22038806508625794,0.8897686449401442,1.854975938796997,2019-06-03 16:31:19:801
6.753939575195313,-6.866465332031249,1.0450530395507813,-0.20744223929030098,0.22251859395832133,0.8867060096865531,1.859839916229248,2019-06-03 16:31:19:806
6.7611220703125,-6.998144409179687,0.919359375,-0.20704276512678912,0.21998859092274603,0.8817791616699063,1.864959955215454,2019-06-03 16:31:19:811
6.597121765136719,-7.060392700195313,1.0642063598632812,-0.18760168916921066,0.20494173076379832,0.8727244139636371,1.8700799942016602,2019-06-03 16:31:19:816
6.510931823730469,-7.1322176513671875,1.2485570678710938,-0.17362009344629467,0.19508803473050515,0.8638028243118716,1.8749439716339111,2019-06-03 16:31:19:821
6.627048828125,-7.024480224609375,1.1707467041015625,-0.17228851290125505,0.19269118974943386,0.8567454474231616,1.8800640106201172,2019-06-03 16:31:19:826
6.4606543579101565,-6.903574890136719,1.1575787963867188,-0.16443218768552129,0.18217170344362085,0.8466254352808604,1.8849279880523682,2019-06-03 16:31:19:831
6.31101904296875,-6.938290283203125,1.3096082763671875,-0.15204848861665282,0.16912221410223258,0.8389022681196308,1.8900477886199951,2019-06-03 16:31:19:836
6.3014423828125,-6.993356079101562,1.3371411743164061,-0.15085006612611718,0.16845642382971276,0.8321112073399287,1.8949120044708252,2019-06-03 16:31:19:841
6.556420959472656,-7.0723635253906245,1.2258125,-0.1541790174887162,0.16073325666848298,0.8233227757426672,1.9000318050384521,2019-06-03 16:31:19:846
6.568391784667969,-7.0879255981445315,1.2353891601562499,-0.14712164060000624,0.14981429619915812,0.8146675021999097,1.9048960208892822,2019-06-03 16:31:19:851
6.625851745605469,-6.986173583984375,1.2868637084960937,-0.13593637234405184,0.13982744211136097,0.809873812237767,1.9100158214569092,2019-06-03 16:31:19:856
6.718027099609375,-6.949064025878906,1.211447509765625,-0.13167531459992507,0.14129218071090455,0.8081427575292155,1.9148797988891602,2019-06-03 16:31:19:861
6.916742797851563,-6.870056579589844,1.2413745727539063,-0.13420531763550034,0.1372974473981641,0.8052132803301283,1.9199998378753662,2019-06-03 16:31:19:866
6.872450744628906,-6.801822875976562,1.1096954956054688,-0.13806690121611526,0.13130533494548582,0.802949593403561,1.9248638153076172,2019-06-03 16:31:19:871
7.066378112792969,-6.807808288574218,0.8559140014648438,-0.14179531841984777,0.13569955074411655,0.8045474900576085,1.9299838542938232,2019-06-03 16:31:19:876
7.330933349609375,-6.762319152832031,0.6967020263671875,-0.14073005398381608,0.14262376125594417,0.810140128346775,1.9348478317260742,2019-06-03 16:31:19:881
7.503313232421875,-6.743165832519531,0.6440303955078125,-0.13939848176115488,0.14169165487441643,0.816664873017469,1.9399678707122803,2019-06-03 16:31:19:886
7.643371887207031,-6.645005065917968,0.6631837158203124,-0.14299374091038344,0.14928166398114226,0.8265185690507623,1.9450879096984863,2019-06-03 16:31:19:891
7.741532653808593,-6.463048522949219,0.627271240234375,-0.14738795670901417,0.16046694055947508,0.8408996389371901,1.9499518871307373,2019-06-03 16:31:19:896
7.863635070800781,-6.491778503417969,0.5710083618164062,-0.14845322114504586,0.16792379161169693,0.8542154443875863,1.9550719261169434,2019-06-03 16:31:19:901
7.842087585449218,-6.563603454589844,0.6057237548828125,-0.15364638527070038,0.17897591013552577,0.8705938850915736,1.9599359035491943,2019-06-03 16:31:19:906
7.8899708862304685,-6.515720153808593,0.6093150024414062,-0.15990481383238658,0.188563290059811,0.8893691707766322,1.9650559425354004,2019-06-03 16:31:19:911
7.844481750488281,-6.551632629394531,0.6440303955078125,-0.16523113601254508,0.20081383107417553,0.907611824243675,1.9699199199676514,2019-06-03 16:31:19:916
7.69005810546875,-6.519311401367188,0.6967020263671875,-0.16816061321163223,0.20946910461693308,0.9247892132746862,1.9750399589538574,2019-06-03 16:31:19:921
7.589503173828125,-6.630640075683593,0.67994287109375,-0.17801430924492542,0.22265175201282525,0.9414339700876814,1.9799039363861084,2019-06-03 16:31:19:926
7.589503173828125,-6.929910705566406,0.6727603759765625,-0.1888001116597463,0.23636703162673334,0.9564808302466291,1.9850239753723145,2019-06-03 16:31:19:931
7.366845825195313,-7.168130126953125,0.7326145019531249,-0.19226222107684934,0.24475598906048293,0.9681987390429777,1.9898879528045654,2019-06-03 16:31:19:936
7.158553466796874,-7.447050354003906,0.8020452880859374,-0.19119695664081762,0.25447652703927215,0.977786118967263,1.9950079917907715,2019-06-03 16:31:19:941
6.92392529296875,-7.528451965332031,0.9037973022460938,-0.18946590193226615,0.2618002200369901,0.9855092861284928,1.9998719692230225,2019-06-03 16:31:19:946
6.571983032226562,-7.521269470214843,0.8774614868164062,-0.18800116333272254,0.2624660103095099,0.9903029760906354,2.0049920082092285,2019-06-03 16:31:19:951
6.320595703125,-7.629006896972656,0.895417724609375,-0.18493852807913144,0.25953653311042274,0.9909687663631552,2.0098559856414795,2019-06-03 16:31:19:956
6.005763000488281,-7.7187880859375,0.9804105834960938,-0.1857374764061552,0.26259916836401387,0.9912350824721631,2.0149757862091064,2019-06-03 16:31:19:961
5.641849914550781,-7.7738538818359375,0.9768193359374999,-0.18760168916921066,0.26126758781897425,0.984976653910477,2.0198400020599365,2019-06-03 16:31:19:966
5.384477172851563,-8.188044433593749,0.9540747680664062,-0.18760168916921066,0.2588707428379029,0.974057693441152,2.0249598026275635,2019-06-03 16:31:19:971
5.134286926269531,-8.395139709472655,0.9696368408203124,-0.17921273173546107,0.2527454723307207,0.9614076782632757,2.0300798416137695,2019-06-03 16:31:19:976
5.019367004394531,-8.472950073242187,0.9373156127929687,-0.16829377126613618,0.2396959829893324,0.9451623956137923,2.0349438190460205,2019-06-03 16:31:19:981
5.081615295410156,-8.535198364257813,0.933724365234375,-0.1543121755432202,0.22638017753893622,0.9282513226917891,2.0400638580322266,2019-06-03 16:31:19:986
4.843395874023438,-8.219168579101563,1.1049071655273437,-0.14392584729191116,0.2155943751241153,0.9117397239332978,2.0449278354644775,2019-06-03 16:31:19:991
4.9116295776367185,-8.35084765625,0.9840018310546875,-0.14685532449099833,0.20840384018090133,0.8876381160680807,2.0500478744506836,2019-06-03 16:31:19:996
4.801497985839844,-8.386760131835937,0.9947755737304688,-0.14046373787480815,0.20640646936334192,0.8705938850915736,2.0549118518829346,2019-06-03 16:31:20:001
4.699745971679687,-8.378380554199218,0.8343665161132813,-0.13420531763550034,0.19269118974943386,0.8522180735700269,2.0600318908691406,2019-06-03 16:31:20:006
4.7356584472656245,-8.568716674804687,0.8654906616210938,-0.1298111018368696,0.1813727551165971,0.8314454170674088,2.0648958683013916,2019-06-03 16:31:20:011
4.667424743652344,-8.587869995117188,0.857111083984375,-0.12688162463778244,0.1775111715359822,0.8129364474913582,2.0700159072875977,2019-06-03 16:31:20:016
4.79790673828125,-8.555548767089844,0.8930235595703124,-0.12115582829411208,0.17085326881078408,0.7928295812612599,2.0748798847198486,2019-06-03 16:31:20:021
4.705731384277343,-8.680045349121093,0.8451402587890625,-0.11489739973242587,0.1659264207941375,0.7741874536307053,2.0799999237060547,2019-06-03 16:31:20:026
4.7224905395507815,-8.56273126220703,0.7924686279296875,-0.1113021322608189,0.16073325666848298,0.7548795357276308,2.0848639011383057,2019-06-03 16:31:20:031
4.767979675292969,-8.644132873535156,0.6907166137695312,-0.10877212922524361,0.16086641472298696,0.7358379339335641,2.0899839401245117,2019-06-03 16:31:20:036
4.757205932617188,-8.693213256835937,0.5817821044921875,-0.10171475233653364,0.1547411442158047,0.7170626482485056,2.0948479175567627,2019-06-03 16:31:20:041
4.734461364746093,-8.681242431640625,0.6356508178710938,-0.08866526299514538,0.1484827156541185,0.7002847333810064,2.0999679565429688,2019-06-03 16:31:20:046
4.761994262695312,-8.692016174316405,0.6967020263671875,-0.08107525388841955,0.14302323541945605,0.6820420799139636,2.1048319339752197,2019-06-03 16:31:20:051
4.728475952148437,-8.62857080078125,0.7362057495117187,-0.08067577972490766,0.13516691852610072,0.6652641650464644,2.109951972961426,2019-06-03 16:31:20:056
4.767979675292969,-8.644132873535156,0.7637386474609374,-0.07854525085284428,0.13117217689098185,0.6495515146149968,2.115072011947632,2019-06-03 16:31:20:061
4.8098775634765625,-8.802147766113281,0.7960598754882813,-0.07202050618215014,0.12957428023693432,0.6347709705650572,2.119935989379883,2019-06-03 16:31:20:066
4.7524176025390625,-8.812921508789062,0.790074462890625,-0.06602839372947185,0.12411480000227186,0.6189251620790857,2.1250557899475098,2019-06-03 16:31:20:071
4.630315185546875,-8.816512756347656,0.7385999145507812,-0.060036281276793564,0.11479373618699454,0.6038783019201379,2.12992000579834,2019-06-03 16:31:20:076
4.686578063964844,-8.840454406738282,0.8080307006835937,-0.05164732384304396,0.10906793984332416,0.5885651256521823,2.135039806365967,2019-06-03 16:31:20:081
4.7356584472656245,-8.787782775878906,0.8223956909179687,-0.044589946954333985,0.10360845960866173,0.5727193171662108,2.139904022216797,2019-06-03 16:31:20:086
4.728475952148437,-8.815315673828124,0.7254320068359374,-0.0413941536462389,0.10014635019155874,0.5574061408982552,2.145023822784424,2019-06-03 16:31:20:091
4.7212934570312495,-8.790176940917968,0.6045266723632813,-0.03833151839264777,0.10254319517263004,0.5412940163032759,2.149887800216675,2019-06-03 16:31:20:096
4.75960009765625,-8.786585693359374,0.5674171142578125,-0.036200989520584384,0.1009452985185825,0.5253150497628004,2.155007839202881,2019-06-03 16:31:20:101
4.711716796875,-8.862001892089843,0.5973441772460938,-0.032738878022886775,0.0998800340825508,0.5104013476583567,2.159871816635132,2019-06-03 16:31:20:106
4.6925634765624995,-8.844045654296874,0.531504638671875,-0.02794518806074414,0.09828213742850327,0.4964197519354407,2.164991855621338,2019-06-03 16:31:20:111
4.662636413574218,-8.872775634765624,0.5614317016601562,-0.019689388681498506,0.10041266630056665,0.48283763037603655,2.169855833053589,2019-06-03 16:31:20:116
4.607570617675782,-8.858410644531249,0.6739574584960938,-0.017425701754931154,0.09801582131949535,0.46792392827159285,2.174975872039795,2019-06-03 16:31:20:121
4.554898986816406,-8.852425231933594,0.6931107788085937,-0.016893069536915307,0.09868161159201515,0.4510128553495897,2.179839849472046,2019-06-03 16:31:20:126
4.533351501464844,-8.89552020263672,0.6691691284179687,-0.015561488991875688,0.1009452985185825,0.43556652102713006,2.184959888458252,2019-06-03 16:31:20:131
4.468709045410156,-8.937418090820312,0.6978991088867187,-0.009036744321181553,0.10280951128163797,0.41825597394161507,2.190079927444458,2019-06-03 16:31:20:136
4.339424133300781,-8.891928955078125,0.73740283203125,-0.005441476849574582,0.10121161462759043,0.40041279463808416,2.194943904876709,2019-06-03 16:31:20:141
4.254431274414062,-8.887140625,0.8223956909179687,-0.007438847667134011,0.09881476964651911,0.38256961533455325,2.200063943862915,2019-06-03 16:31:20:146
4.2113363037109375,-8.929038513183594,0.9373156127929687,-0.006240425176598353,0.09521950217491212,0.3649927521400303,2.204927921295166,2019-06-03 16:31:20:151
4.114372619628906,-8.948191833496093,1.0091405639648436,-0.0005146288329279916,0.09029265415826554,0.3474158889455073,2.210047960281372,2019-06-03 16:31:20:156
4.040153503417969,-8.929038513183594,0.9780164184570312,0.0020153742026472843,0.08549896419612292,0.3286406032604487,2.214911937713623,2019-06-03 16:31:20:161
4.056912658691406,-8.930235595703126,0.9385126953125,0.004412219183718599,0.07950685174344464,0.309998475629894,2.220031976699829,2019-06-03 16:31:20:166
4.001846862792969,-8.990089721679688,0.9851989135742187,0.006010115837766141,0.07218315874572673,0.28776108052773236,2.22489595413208,2019-06-03 16:31:20:171
3.970722717285156,-9.009243041992187,1.0414617919921876,0.009472225254869151,0.06139735633090581,0.26818682987089315,2.230015993118286,2019-06-03 16:31:20:176
3.940795654296875,-9.034381774902343,0.9313302001953124,0.013200650780980084,0.05354103111517206,0.2491452280768266,2.234879970550537,2019-06-03 16:31:20:181
3.9467810668945313,-9.043958435058594,0.8822498168945312,0.01985855350617818,0.04635049617195812,0.22997046822825612,2.240000009536743,2019-06-03 16:31:20:186
3.9743139648437498,-9.018819702148438,0.8487315063476563,0.023720137086793075,0.03676311624767286,0.20946412783464596,2.244863986968994,2019-06-03 16:31:20:191
4.019803100585937,-9.065505920410157,0.8535198364257812,0.024519085413816845,0.028773630896840544,0.18988989382256358,2.249983787536621,2019-06-03 16:31:20:196
4.0796572265624995,-9.020016784667968,0.8499285888671875,0.030111723702983248,0.02424625704370584,0.17071513397399304,2.254848003387451,2019-06-03 16:31:20:201
4.0652922363281245,-8.996075134277344,0.8164102783203124,0.03597067602056297,0.017188880154995857,0.15154037412542254,2.259967803955078,2019-06-03 16:31:20:206
4.096416381835938,-9.006848876953125,0.7709211425781249,0.0396991015466739,0.012794664356365115,0.13249878065373438,2.264832019805908,2019-06-03 16:31:20:211
4.131131774902344,-8.960162658691406,0.7864832153320312,0.043294369018280876,0.006003603576663057,0.11532139162272331,2.269951820373535,2019-06-03 16:31:20:216
4.1538763427734375,-8.970936401367187,0.8164102783203124,0.046756478435383886,0.0005441233420006192,0.0981440025917122,2.275071859359741,2019-06-03 16:31:20:221
4.21373046875,-8.948191833496093,0.8750673217773437,0.0508843781250067,-0.004782198838157857,0.08189871994222886,2.279935836791992,2019-06-03 16:31:20:226
4.297526245117187,-8.91587060546875,0.81401611328125,0.054879119760125564,-0.008910098527780675,0.06711817173109988,2.2850558757781982,2019-06-03 16:31:20:231
4.369351196289062,-8.918264770507813,0.8104248657226563,0.057142806686692915,-0.012638524053891608,0.05087288908161654,2.289919853210449,2019-06-03 16:31:20:236
4.404066589355469,-8.827286499023437,0.8642935791015625,0.05847438723173253,-0.01543484319847481,0.037557083631220345,2.2950398921966553,2019-06-03 16:31:20:241
4.469906127929687,-8.799753601074219,0.8618994140625,0.060338599994787995,-0.018497478452065935,0.024108120126320187,2.2999038696289062,2019-06-03 16:31:20:246
4.530957336425781,-8.767432373046875,0.8702789916992187,0.06300176108486724,-0.020894323433137248,0.01145810598874111,2.3050239086151123,2019-06-03 16:31:20:251
4.597993957519531,-8.700395751953124,0.8319723510742187,0.06539860606593854,-0.023424326468712526,0.0009386196829281185,2.3098878860473633,2019-06-03 16:31:20:256
4.637497680664063,-8.70638116455078,0.8355635986328125,0.06459965773891478,-0.02448959090474422,-0.008249286077845253,2.3150079250335693,2019-06-03 16:31:20:261
4.712913879394531,-8.663286193847656,0.9014031372070312,0.06446649968441082,-0.025554855340775912,-0.0171708757296107,2.3198719024658203,2019-06-03 16:31:20:266
4.7500234374999994,-8.617797058105468,0.8894323120117187,0.06539860606593854,-0.025954329504287797,-0.026625098639689298,2.3249919414520264,2019-06-03 16:31:20:271
4.7811475830078125,-8.596249572753907,0.8690819091796875,0.06619755439296232,-0.02608748755879176,-0.03408194969191117,2.3298559188842773,2019-06-03 16:31:20:276
4.846987121582031,-8.595052490234375,0.8642935791015625,0.06686334466548213,-0.025954329504287797,-0.04100616852611719,2.3349759578704834,2019-06-03 16:31:20:281
4.90325,-8.563928344726563,0.8559140014648438,0.06619755439296232,-0.024356432850240257,-0.0489956517963549,2.3398399353027344,2019-06-03 16:31:20:286
4.961907043457031,-8.500482971191406,0.895417724609375,0.06433334162990685,-0.024090116741232334,-0.055653554521552996,2.3449599742889404,2019-06-03 16:31:20:291
4.987045776367188,-8.524424621582032,0.8403519287109374,0.06273544497585931,-0.020494849269625363,-0.0601809283746877,2.3500800132751465,2019-06-03 16:31:20:296
5.003804931640625,-8.4849208984375,0.8247898559570312,0.062469128866851395,-0.01636694958000254,-0.06444198611881448,2.3549439907073975,2019-06-03 16:31:20:301
5.0133815917968745,-8.450205505371093,0.8235927734374999,0.060338599994787995,-0.013037998217403497,-0.06896935997194918,2.3600637912750244,2019-06-03 16:31:20:306
5.022958251953125,-8.42626385498047,0.8475344238281249,0.05687649057768499,-0.01064115323633218,-0.07296409744587884,2.3649280071258545,2019-06-03 16:31:20:311
5.050491149902344,-8.39753387451172,0.904994384765625,0.054879119760125564,-0.005980621328693514,-0.07775778740802147,2.3700478076934814,2019-06-03 16:31:20:316
5.032534912109375,-8.393942626953125,0.9277389526367187,0.05328122310607801,-0.0018527216390706951,-0.08295095153367597,2.3749117851257324,2019-06-03 16:31:20:321
5.0289436645507815,-8.393942626953125,0.9373156127929687,0.05008542979798293,0.002275178050552124,-0.0870788512232988,2.3800318241119385,2019-06-03 16:31:20:326
5.005002014160156,-8.411898864746094,0.9325272827148438,0.04649016232637596,0.006269919685670981,-0.089875170367882,2.3848958015441895,2019-06-03 16:31:20:331
4.990637023925781,-8.438234680175782,0.9002060546874999,0.045025423726832374,0.00826729050323041,-0.09493517643903256,2.3900158405303955,2019-06-03 16:31:20:336
4.947542053222656,-8.47654132080078,0.9325272827148438,0.044093317345304646,0.010131503266285877,-0.0993293922376633,2.3948798179626465,2019-06-03 16:31:20:341
4.923600402832031,-8.488512145996093,0.943301025390625,0.04302805290927295,0.009465712993766067,-0.10225886943675047,2.3999998569488525,2019-06-03 16:31:20:346
4.917614990234375,-8.492103393554688,0.9133739624023437,0.04316121096377691,0.009865187157277952,-0.1087836141074446,2.4048638343811035,2019-06-03 16:31:20:351
4.90325,-8.4849208984375,0.9732280883789062,0.04382700123629672,0.008799922721246257,-0.11410993628760306,2.4099838733673096,2019-06-03 16:31:20:356
4.920009155273437,-8.511256713867187,0.9971697387695312,0.04236226263675314,0.00906623883025418,-0.1206346809582972,2.4148478507995605,2019-06-03 16:31:20:361
4.9571187133789065,-8.510059631347657,0.9552718505859374,0.04276173680026503,0.008134132448726447,-0.1258278450839517,2.4199678897857666,2019-06-03 16:31:20:366
4.978666198730469,-8.460979248046876,0.9253447875976563,0.0435606851272888,0.006136761631167019,-0.1307546931005983,2.4248318672180176,2019-06-03 16:31:20:371
5.012184509277343,-8.439431762695312,0.9744251708984375,0.04289489485476899,0.0036067585955917433,-0.13621417333526076,2.4299519062042236,2019-06-03 16:31:20:376
5.153440246582031,-8.273037292480469,1.0462501220703124,0.04156331430972937,0.0026746522140640096,-0.13980944912924612,2.4350719451904297,2019-06-03 16:31:20:381
5.185761474609375,-8.359227233886719,1.0031551513671875,0.038367521001634285,0.004139390813607591,-0.14114102967428574,2.4399359226226807,2019-06-03 16:31:20:386
5.2037177124023435,-8.480132568359375,0.9624543457031249,0.03770173072911447,0.004672023031623438,-0.1464673518544442,2.4450559616088867,2019-06-03 16:31:20:391
5.222871032714844,-8.353241821289062,0.8738702392578125,0.039965417655681824,0.005337813304143248,-0.1464673518544442,2.4499199390411377,2019-06-03 16:31:20:396
5.281528076171875,-8.249095642089843,0.991184326171875,0.0396991015466739,0.004272548868111552,-0.1464673518544442,2.4550399780273438,2019-06-03 16:31:20:401
5.312652221679687,-8.227548156738282,0.8678848266601562,0.03503856963903524,0.002408336105056086,-0.14846472267200364,2.4599039554595947,2019-06-03 16:31:20:406
5.325820129394531,-8.239518981933594,0.8678848266601562,0.03543804380254712,0.007068868012694752,-0.14779893239948383,2.465023994445801,2019-06-03 16:31:20:411
5.4084188232421875,-8.328103088378906,0.8200015258789062,0.03597067602056297,0.011729399920333419,-0.14846472267200364,2.4698879718780518,2019-06-03 16:31:20:416
5.389265502929687,-8.261066467285156,0.7254320068359374,0.03503856963903524,0.010264661320789839,-0.14846472267200364,2.475008010864258,2019-06-03 16:31:20:421
5.359338439941406,-8.261066467285156,0.7936657104492187,0.032908042847566446,0.013593612683388885,-0.14766577434497988,2.479871988296509,2019-06-03 16:31:20:426
5.447922546386718,-8.217971496582031,0.914571044921875,0.033174358956574376,0.01745519626400378,-0.14873103878101157,2.4849917888641357,2019-06-03 16:31:20:431
5.404827575683593,-8.232336486816406,0.9301331176757812,0.03184277841153475,0.017055722100491895,-0.14753261629047593,2.489856004714966,2019-06-03 16:31:20:436
5.404827575683593,-8.246701477050781,0.8152131958007812,0.03024488175748721,0.020517831517594905,-0.147266300181468,2.4949758052825928,2019-06-03 16:31:20:441
5.4203896484375,-8.227548156738282,0.8235927734374999,0.031443304248022864,0.02304783455317018,-0.1462010357454363,2.499840021133423,2019-06-03 16:31:20:446
5.386871337890625,-8.251489807128905,0.9133739624023437,0.030511197866495133,0.022914676498666218,-0.1464673518544442,2.50495982170105,2019-06-03 16:31:20:451
5.3940538330078125,-8.238321899414062,0.943301025390625,0.028114352885423816,0.023447308716682064,-0.1462010357454363,2.510079860687256,2019-06-03 16:31:20:456
5.400039245605469,-8.177270690917968,0.9014031372070312,0.027448562612904008,0.027841524515312813,-0.1454020874184125,2.514943838119507,2019-06-03 16:31:20:461
5.455105041503906,-8.164102783203125,0.9492864379882813,0.029179617321455513,0.028773630896840544,-0.14526892936390856,2.520063877105713,2019-06-03 16:31:20:466
5.413207153320313,-8.170088195800782,0.9002060546874999,0.027049088449392123,0.029439421169360352,-0.1455352454729165,2.524927854537964,2019-06-03 16:31:20:471
5.446725463867187,-8.166496948242187,0.9444981079101562,0.02491855957732873,0.03183626615043167,-0.14606787769093232,2.53004789352417,2019-06-03 16:31:20:476
5.4527108764648435,-8.174876525878906,0.9768193359374999,0.02598382401336043,0.03143679198691978,-0.14460313909138875,2.534911870956421,2019-06-03 16:31:20:481
5.446725463867187,-8.2550810546875,0.9373156127929687,0.0285138270489357,0.030238369496384122,-0.14407050687337292,2.540031909942627,2019-06-03 16:31:20:486
5.463484619140625,-8.198818176269532,0.8654906616210938,0.028114352885423816,0.03130363393241582,-0.14287208438283724,2.544895887374878,2019-06-03 16:31:20:491
5.48742626953125,-8.16889111328125,0.8451402587890625,0.02758172066740797,0.028906788951344506,-0.14247261021932536,2.550015926361084,2019-06-03 16:31:20:496
5.462287536621093,-8.198818176269532,0.9444981079101562,0.028646985103439663,0.02584415369775338,-0.1423394521648214,2.554879903793335,2019-06-03 16:31:20:501
5.4814408569335935,-8.195226928710937,0.9253447875976563,0.02838066899443174,0.027175734242792998,-0.1410078716197818,2.559999942779541,2019-06-03 16:31:20:506
5.488623352050781,-8.162905700683593,0.8463373413085937,0.03037803981199117,0.028240998678824698,-0.13927680858885186,2.564863920211792,2019-06-03 16:31:20:511
5.4670758666992185,-8.189241516113281,0.8343665161132813,0.03117698813901494,0.02504520537072961,-0.13861101831633205,2.569983959197998,2019-06-03 16:31:20:516
5.498200012207031,-8.148540710449218,0.8690819091796875,0.030511197866495133,0.024512573152713765,-0.1367468055532766,2.574847936630249,2019-06-03 16:31:20:521
5.507776672363281,-8.144949462890624,0.9373156127929687,0.03037803981199117,0.02584415369775338,-0.13594785722625283,2.579967975616455,2019-06-03 16:31:20:526
5.536506652832031,-8.134175720214843,0.9133739624023437,0.03170962035703079,0.024512573152713765,-0.13581469917174885,2.584831953048706,2019-06-03 16:31:20:531
5.523338745117187,-8.14973779296875,0.8439431762695312,0.03277488479306248,0.024379415098209803,-0.13554838306274095,2.589951992034912,2019-06-03 16:31:20:536
5.522141662597656,-8.123401977539062,0.799651123046875,0.03157646230252683,0.02411309898920188,-0.13594785722625283,2.595071792602539,2019-06-03 16:31:20:541
5.549674560546875,-8.132978637695313,0.87147607421875,0.03184277841153475,0.021849412062634525,-0.13474943473571716,2.599936008453369,2019-06-03 16:31:20:546
5.528127075195313,-8.087489501953124,0.9935784912109374,0.033973307283598146,0.02011835735408302,-0.13195311559113396,2.605055809020996,2019-06-03 16:31:20:551
5.581995788574218,-8.081504089355468,0.943301025390625,0.0334406750655823,0.021183621790114713,-0.13022206088258245,2.609919786453247,2019-06-03 16:31:20:556
5.622696594238281,-8.079109924316406,0.9026002197265625,0.0334406750655823,0.02238204428065037,-0.1292899545010547,2.615039825439453,2019-06-03 16:31:20:561
5.591572448730469,-8.080307006835938,0.9109797973632813,0.034106465338102104,0.02105046373561075,-0.12675995146547944,2.619903802871704,2019-06-03 16:31:20:566
5.590375366210937,-8.085095336914062,0.9456951904296875,0.03357383312008626,0.019319409027059246,-0.12462942259341606,2.62502384185791,2019-06-03 16:31:20:571
5.631076171875,-8.077912841796875,0.9421039428710938,0.03450593950161399,0.018387302645531515,-0.12356415815738436,2.629887819290161,2019-06-03 16:31:20:576
5.6131199340820315,-8.080307006835938,0.9504835205078125,0.037568572674610515,0.01798782848201963,-0.1206346809582972,2.635007858276367,2019-06-03 16:31:20:581
5.614317016601563,-8.030029541015624,0.9229506225585937,0.038234362947130326,0.017322038209499818,-0.11837099403172985,2.639871835708618,2019-06-03 16:31:20:586
5.617908264160156,-8.04439453125,0.92893603515625,0.03597067602056297,0.016256773773468125,-0.11624046515966646,2.644991874694824,2019-06-03 16:31:20:591
5.6502294921875,-8.026438293457032,0.914571044921875,0.038234362947130326,0.014792035173924543,-0.11450941045111494,2.649855852127075,2019-06-03 16:31:20:596
5.666988647460937,-8.042000366210937,0.9373156127929687,0.04049804987369767,0.014392561010412658,-0.11091414297950798,2.6549758911132812,2019-06-03 16:31:20:601
5.646638244628906,-8.046788696289063,0.9157681274414062,0.03929962738316202,0.014792035173924543,-0.1083841399439327,2.6598398685455322,2019-06-03 16:31:20:606
5.652623657226562,-7.988131652832031,0.9265418701171875,0.037968046838122396,0.013460454628884923,-0.10705255939889309,2.6649599075317383,2019-06-03 16:31:20:611
5.655017822265624,-7.990525817871093,0.8882352294921875,0.03810120489262636,0.011463083811325495,-0.10359044998179008,2.6700799465179443,2019-06-03 16:31:20:616
5.674171142578125,-8.027635375976562,0.957666015625,0.0396991015466739,0.010264661320789839,-0.10052781472819894,2.6749439239501953,2019-06-03 16:31:20:621
5.705295288085938,-7.9929199829101565,0.9002060546874999,0.04049804987369767,0.009865187157277952,-0.09853044391063952,2.6800639629364014,2019-06-03 16:31:20:626
5.694521545410156,-8.000102478027344,0.8882352294921875,0.040764365982705594,0.008400448557734372,-0.09639991503857613,2.6849279403686523,2019-06-03 16:31:20:631
5.710083618164062,-7.983343322753906,0.8630964965820312,0.04009857571018579,0.008000974394222485,-0.09413622811200878,2.6900479793548584,2019-06-03 16:31:20:636
5.719660278320313,-8.000102478027344,0.904994384765625,0.039965417655681824,0.008933080775750219,-0.09067411869490577,2.6949119567871094,2019-06-03 16:31:20:641
5.712477783203125,-7.9929199829101565,0.9002060546874999,0.041829630418737294,0.008134132448726447,-0.08801095760482654,2.7000319957733154,2019-06-03 16:31:20:646
5.725645690917968,-8.004890808105468,0.8678848266601562,0.04289489485476899,0.006003603576663057,-0.08454884818772353,2.7048959732055664,2019-06-03 16:31:20:651
5.768740661621093,-8.008482055664063,0.8511256713867187,0.04236226263675314,0.006136761631167019,-0.08108673877062052,2.7100160121917725,2019-06-03 16:31:20:656
5.747193176269531,-7.983343322753906,0.9037973022460938,0.043294369018280876,0.005737287467655134,-0.07948884211657298,2.7148799896240234,2019-06-03 16:31:20:661
5.737616516113281,-7.9917229003906245,0.9456951904296875,0.04369384318179276,0.004006232759103629,-0.07589357464496599,2.7199997901916504,2019-06-03 16:31:20:666
5.749587341308594,-7.957007507324218,0.9397097778320312,0.04382700123629672,0.0034736005410877808,-0.0737630457729026,2.7248640060424805,2019-06-03 16:31:20:671
5.785499816894531,-7.954613342285156,0.9373156127929687,0.04369384318179276,0.002408336105056086,-0.07109988468282337,2.7299838066101074,2019-06-03 16:31:20:676
5.781908569335937,-7.93905126953125,0.9409068603515625,0.04462594956332049,0.0018757038870402384,-0.06936883413546108,2.7348480224609375,2019-06-03 16:31:20:681
5.779514404296875,-7.941445434570312,0.9361185302734375,0.044226475399808604,0.002408336105056086,-0.06550725055484617,2.7399678230285645,2019-06-03 16:31:20:686
5.815426879882812,-7.921095031738281,0.9169652099609374,0.04222910458224918,0.0026746522140640096,-0.06257777335575901,2.7448318004608154,2019-06-03 16:31:20:691
5.821412292480469,-7.927080444335937,0.9061914672851562,0.041829630418737294,0.0032072844320798575,-0.05871618977514411,2.7499518394470215,2019-06-03 16:31:20:696
5.81303271484375,-7.928277526855468,0.9109797973632813,0.04222910458224918,0.0034736005410877808,-0.056585660903080724,2.7550718784332275,2019-06-03 16:31:20:701
5.864507263183594,-7.911518371582031,0.8750673217773437,0.041430156255225406,0.005204655249639286,-0.052990393431473756,2.7599358558654785,2019-06-03 16:31:20:706
5.895631408691406,-7.8756058959960935,0.919359375,0.041696472364233336,0.006802551903686829,-0.048063545414827165,2.7650558948516846,2019-06-03 16:31:20:711
5.878872253417969,-7.893562133789063,0.919359375,0.04116384014621748,0.006003603576663057,-0.04433511988871623,2.7699198722839355,2019-06-03 16:31:20:716
5.874083923339843,-7.9187008666992185,0.8487315063476563,0.040631207928201636,0.008134132448726447,-0.040340378253597375,2.7750399112701416,2019-06-03 16:31:20:721
5.83218603515625,-7.860043823242187,0.9277389526367187,0.041696472364233336,0.00973202910277399,-0.03714458494550229,2.7799038887023926,2019-06-03 16:31:20:726
5.8333831176757815,-7.8468759155273435,1.0953305053710938,0.03890015321965013,0.008000974394222485,-0.033416159419391356,2.7850239276885986,2019-06-03 16:31:20:731
5.838171447753906,-7.883985473632812,1.039067626953125,0.03503856963903524,0.007468342176206639,-0.02848931140274476,2.7898879051208496,2019-06-03 16:31:20:736
5.869295593261719,-7.907927124023438,0.8930235595703124,0.03610383407506693,0.009465712993766067,-0.024361411713121943,2.7950079441070557,2019-06-03 16:31:20:741
5.850142272949219,-7.886379638671875,0.8654906616210938,0.03810120489262636,0.009332554939262105,-0.021698250623042706,2.7998719215393066,2019-06-03 16:31:20:746
5.825003540039062,-7.905532958984375,0.943301025390625,0.03583751796605901,0.00826729050323041,-0.01850245731494762,2.8049919605255127,2019-06-03 16:31:20:751
5.850142272949219,-7.879197143554688,0.9983668212890625,0.03157646230252683,0.009199396884758144,-0.014774030748539387,2.8098559379577637,2019-06-03 16:31:20:756
5.848945190429688,-7.844481750488281,0.9624543457031249,0.033307517011078334,0.008533606612238334,-0.01091244716792449,2.8149759769439697,2019-06-03 16:31:20:761
5.829791870117187,-7.90074462890625,0.895417724609375,0.0351717276935392,0.00973202910277399,-0.007184021641813558,2.8198399543762207,2019-06-03 16:31:20:766
5.868098510742187,-7.895956298828125,0.8511256713867187,0.03384014922909418,0.011729399920333419,-0.004387702497230358,2.8249599933624268,2019-06-03 16:31:20:771
5.856127685546875,-7.8720146484375,0.8846439819335937,0.029978565648479286,0.012128874083845304,-0.0015913833526471576,2.8300797939300537,2019-06-03 16:31:20:776
5.874083923339843,-7.888773803710937,0.9073885498046875,0.03104383008451098,0.012661506301861154,0.0025365163369756613,2.834944009780884,2019-06-03 16:31:20:781
5.8465510253906245,-7.8468759155273435,0.904994384765625,0.03197593646603871,0.016922564045987933,0.006930732135606404,2.8400638103485107,2019-06-03 16:31:20:786
5.836974365234375,-7.894759216308594,0.8463373413085937,0.03157646230252683,0.018520460700035477,0.011191789879733186,2.8449277877807617,2019-06-03 16:31:20:791
5.821412292480469,-7.895956298828125,0.8607023315429687,0.030111723702983248,0.017055722100491895,0.014787057351340158,2.8500478267669678,2019-06-03 16:31:20:796
5.842959777832031,-7.898350463867187,0.914571044921875,0.028646985103439663,0.01785467042751567,0.016118637896379774,2.8549118041992188,2019-06-03 16:31:20:801
5.8333831176757815,-7.863635070800781,0.9564689331054688,0.02691593039488816,0.02011835735408302,0.018914956000665676,2.860031843185425,2019-06-03 16:31:20:806
5.783105651855468,-7.874408813476562,0.9516806030273437,0.029179617321455513,0.021982570117138486,0.02144495903624095,2.864895820617676,2019-06-03 16:31:20:811
5.757966918945312,-7.936657104492188,0.9037973022460938,0.027981194830919855,0.022914676498666218,0.024773910398839995,2.870015859603882,2019-06-03 16:31:20:816
5.777120239257813,-7.953416259765625,0.8547169189453124,0.026383298176872315,0.021849412062634525,0.028502335924950932,2.874879837036133,2019-06-03 16:31:20:821
5.760361083984375,-7.980949157714844,0.8942206420898438,0.02598382401336043,0.021982570117138486,0.03049970674251036,2.879999876022339,2019-06-03 16:31:20:826
5.751981506347656,-7.946233764648437,0.9923814086914062,0.0267827723403842,0.021716254008130563,0.032630235614573753,2.88486385345459,2019-06-03 16:31:20:831
5.749587341308594,-7.952219177246094,0.9421039428710938,0.02598382401336043,0.022648360389658295,0.03276339366907772,2.889983892440796,2019-06-03 16:31:20:836
5.768740661621093,-7.952219177246094,0.933724365234375,0.02505171763183269,0.024512573152713765,0.03396181615961337,2.894847869873047,2019-06-03 16:31:20:841
5.767543579101562,-7.968978332519531,0.8942206420898438,0.02345382097778515,0.023314150662178103,0.035959186977172805,2.899967908859253,2019-06-03 16:31:20:846
5.747193176269531,-7.9773579101562495,0.9205564575195312,0.02411961125030496,0.02424625704370584,0.03822287390374015,2.904831886291504,2019-06-03 16:31:20:851
5.734025268554688,-7.945036682128906,0.9504835205078125,0.023586979032289113,0.02491204731622565,0.041818141375347125,2.90995192527771,2019-06-03 16:31:20:856
5.6885361328125,-7.968978332519531,0.9361185302734375,0.02318750486877723,0.02571099564324942,0.043682354138402595,2.915071964263916,2019-06-03 16:31:20:861
5.708886535644531,-7.989328735351562,0.8822498168945312,0.022921188759769305,0.025977311752257343,0.0443481444109224,2.919935941696167,2019-06-03 16:31:20:866
5.728039855957031,-8.04439453125,0.83316943359375,0.02345382097778515,0.026376785915769228,0.04594604106496994,2.925055980682373,2019-06-03 16:31:20:871
5.718463195800781,-8.026438293457032,0.85232275390625,0.02332066292328119,0.026776260079281113,0.04754393771901748,2.929919958114624,2019-06-03 16:31:20:876
5.661003234863281,-8.009679138183593,0.8798556518554688,0.023853295141297037,0.027175734242792998,0.04820972799153729,2.93503999710083,2019-06-03 16:31:20:881
5.665791564941406,-8.001299560546874,0.9253447875976563,0.02332066292328119,0.027042576188289036,0.04900867631856107,2.939903974533081,2019-06-03 16:31:20:886
5.695718627929687,-8.040803283691407,0.8834468994140625,0.02411961125030496,0.026243627861265266,0.04967446659108088,2.945024013519287,2019-06-03 16:31:20:891
5.639455749511718,-8.056365356445312,0.8642935791015625,0.022788030705265343,0.02504520537072961,0.05034025686360069,2.949887990951538,2019-06-03 16:31:20:896
5.622696594238281,-8.049182861328125,0.9109797973632813,0.022921188759769305,0.026376785915769228,0.049408150482072956,2.955007791519165,2019-06-03 16:31:20:901
5.647835327148437,-8.047985778808593,0.943301025390625,0.02345382097778515,0.02571099564324942,0.05073973102711257,2.959872007369995,2019-06-03 16:31:20:906
5.59276953125,-8.065942016601563,0.9349214477539062,0.024519085413816845,0.025178363425233573,0.050207098809096726,2.964991807937622,2019-06-03 16:31:20:911
5.6131199340820315,-8.076715759277343,0.9002060546874999,0.024652243468320807,0.02491204731622565,0.04900867631856107,2.969855785369873,2019-06-03 16:31:20:916
5.62149951171875,-8.086292419433594,0.8583081665039062,0.024785401522824768,0.024778889261721688,0.05007394075459277,2.974975824356079,2019-06-03 16:31:20:921
5.60234619140625,-8.085095336914062,0.8642935791015625,0.02491855957732873,0.023314150662178103,0.04834288604604125,2.97983980178833,2019-06-03 16:31:20:926
5.577207458496094,-8.109036987304687,0.92893603515625,0.023853295141297037,0.02224888622614641,0.0478102538280254,2.984959840774536,2019-06-03 16:31:20:931
5.603543273925781,-8.086292419433594,0.9002060546874999,0.025318033740840615,0.02397994093469791,0.04701130550100163,2.990079879760742,2019-06-03 16:31:20:936
5.604740356445312,-8.100657409667969,0.9373156127929687,0.025584349849848538,0.022515202335154333,0.04701130550100163,2.994943857192993,2019-06-03 16:31:20:941
5.566433715820312,-8.100657409667969,0.914571044921875,0.026516456231376277,0.021183621790114713,0.04661183133748975,3.000063896179199,2019-06-03 16:31:20:946
5.572419128417969,-8.112628234863282,0.914571044921875,0.025318033740840615,0.02224888622614641,0.04541340884695409,3.00492787361145,2019-06-03 16:31:20:951
5.585587036132813,-8.094671997070312,0.9229506225585937,0.02691593039488816,0.02091730568110679,0.044880776628938246,3.0100479125976562,2019-06-03 16:31:20:956
5.5975578613281245,-8.076715759277343,0.9444981079101562,0.027848036776415893,0.02011835735408302,0.04341603802939467,3.0149118900299072,2019-06-03 16:31:20:961
5.599952026367188,-8.065942016601563,0.919359375,0.027848036776415893,0.02105046373561075,0.04288340581137882,3.0200319290161133,2019-06-03 16:31:20:966
5.587981201171875,-8.100657409667969,0.8367606811523437,0.027848036776415893,0.021183621790114713,0.042217615538859006,3.0248959064483643,2019-06-03 16:31:20:971
5.586784118652344,-8.09227783203125,0.8630964965820312,0.02758172066740797,0.019718883190571135,0.04168498332084316,3.0300159454345703,2019-06-03 16:31:20:976
5.5975578613281245,-8.094671997070312,0.8822498168945312,0.027848036776415893,0.019585725136067173,0.041418667211835236,3.0348799228668213,2019-06-03 16:31:20:981
5.580798706054687,-8.103051574707031,0.8858410644531249,0.02838066899443174,0.019319409027059246,0.03968761250328374,3.0399999618530273,2019-06-03 16:31:20:986
5.576010375976562,-8.115022399902344,0.85232275390625,0.029712249539471363,0.0187867768090434,0.038755506121755996,3.0448639392852783,2019-06-03 16:31:20:991
5.586784118652344,-8.098263244628907,0.85232275390625,0.030511197866495133,0.019186250972555285,0.03782339974022827,3.0499839782714844,2019-06-03 16:31:20:996
5.610725769042968,-8.079109924316406,0.857111083984375,0.030644355920999095,0.02105046373561075,0.0376902416857243,3.0551040172576904,2019-06-03 16:31:21:001
5.5831928710937495,-8.117416564941406,0.9061914672851562,0.030777513975503056,0.02011835735408302,0.03649181919518865,3.0599679946899414,2019-06-03 16:31:21:006
5.578404541015625,-8.104248657226563,0.8834468994140625,0.029978565648479286,0.020517831517594905,0.035692870868164875,3.0648319721221924,2019-06-03 16:31:21:011
5.5544628906249995,-8.089883666992188,0.8690819091796875,0.030910672030007018,0.02224888622614641,0.03516023865014903,3.0699520111083984,2019-06-03 16:31:21:016
5.5736162109375,-8.091080749511718,0.8726731567382813,0.03024488175748721,0.02224888622614641,0.03449444837762922,3.0750718116760254,2019-06-03 16:31:21:021
5.593966613769531,-8.074321594238281,0.8966148071289062,0.030777513975503056,0.02091730568110679,0.03369550005060545,3.0799357891082764,2019-06-03 16:31:21:026
5.5831928710937495,-8.047985778808593,0.881052734375,0.029712249539471363,0.020784147626602828,0.033296025887093565,3.0850558280944824,2019-06-03 16:31:21:031
5.591572448730469,-8.038409118652343,0.9181622924804688,0.030511197866495133,0.022515202335154333,0.03289655172358168,3.0899198055267334,2019-06-03 16:31:21:036
5.6274849243164065,-8.06474493408203,0.866687744140625,0.030910672030007018,0.022515202335154333,0.03196444534205394,3.0950398445129395,2019-06-03 16:31:21:041
5.586784118652344,-8.083898254394532,0.8295781860351562,0.029179617321455513,0.02224888622614641,0.03116549701503017,3.0999038219451904,2019-06-03 16:31:21:046
5.5987549438476565,-8.089883666992188,0.8678848266601562,0.028247510939927778,0.02384678288019395,0.030632864797014322,3.1050238609313965,2019-06-03 16:31:21:051
5.577207458496094,-8.087489501953124,0.8930235595703124,0.03024488175748721,0.023580466771186026,0.030766022851518283,3.1098878383636475,2019-06-03 16:31:21:056
5.596360778808593,-8.055168273925782,0.9002060546874999,0.030910672030007018,0.022781518444162256,0.03129865506953413,3.1150078773498535,2019-06-03 16:31:21:061
5.6131199340820315,-8.057562438964844,0.8798556518554688,0.030511197866495133,0.02304783455317018,0.030632864797014322,3.1198718547821045,2019-06-03 16:31:21:066
5.6274849243164065,-8.047985778808593,0.92893603515625,0.030644355920999095,0.023314150662178103,0.03049970674251036,3.1249918937683105,2019-06-03 16:31:21:071
5.6131199340820315,-8.065942016601563,0.919359375,0.029978565648479286,0.02411309898920188,0.029434442306478667,3.1298558712005615,2019-06-03 16:31:21:076
5.603543273925781,-8.052774108886718,0.9421039428710938,0.030111723702983248,0.025577837588745458,0.031032338960526207,3.1349759101867676,2019-06-03 16:31:21:081
5.6131199340820315,-8.051577026367188,0.9444981079101562,0.029712249539471363,0.025444679534241496,0.03116549701503017,3.1398398876190186,2019-06-03 16:31:21:086
5.625090759277343,-8.088686584472656,0.8882352294921875,0.030111723702983248,0.02504520537072961,0.03169812923304602,3.1449599266052246,2019-06-03 16:31:21:091
5.652623657226562,-8.050379943847656,0.904994384765625,0.0295790914849674,0.02504520537072961,0.032630235614573753,3.1500799655914307,2019-06-03 16:31:21:096
5.6274849243164065,-8.05397119140625,0.876264404296875,0.029046459266951548,0.02571099564324942,0.03169812923304602,3.1549439430236816,2019-06-03 16:31:21:101
5.610725769042968,-8.058759521484374,0.9085856323242187,0.02944593343046344,0.02571099564324942,0.03116549701503017,3.1600639820098877,2019-06-03 16:31:21:106
5.6274849243164065,-8.062350769042968,0.9037973022460938,0.02944593343046344,0.025977311752257343,0.03169812923304602,3.1649279594421387,2019-06-03 16:31:21:111
5.593966613769531,-8.086292419433594,0.8798556518554688,0.02838066899443174,0.026376785915769228,0.03356234199610149,3.1700479984283447,2019-06-03 16:31:21:116
5.571222045898438,-8.09347491455078,0.89062939453125,0.027981194830919855,0.027175734242792998,0.032230761451061865,3.1749119758605957,2019-06-03 16:31:21:121
5.546083312988281,-8.109036987304687,0.9253447875976563,0.028913301212447586,0.02744205035180092,0.030899180906022245,3.1800320148468018,2019-06-03 16:31:21:126
5.548477478027344,-8.09347491455078,0.9217535400390625,0.029046459266951548,0.027175734242792998,0.031032338960526207,3.1848959922790527,2019-06-03 16:31:21:131
5.54488623046875,-8.094671997070312,0.9361185302734375,0.029978565648479286,0.02664310202477715,0.02970075841548659,3.1900157928466797,2019-06-03 16:31:21:136
5.508973754882812,-8.129387390136719,0.9313302001953124,0.029845407593975325,0.024379415098209803,0.029434442306478667,3.1948800086975098,2019-06-03 16:31:21:141
5.548477478027344,-8.12220489501953,0.9349214477539062,0.030111723702983248,0.02384678288019395,0.028102861761439044,3.1999998092651367,2019-06-03 16:31:21:146
5.5412949829101565,-8.089883666992188,0.933724365234375,0.029845407593975325,0.023314150662178103,0.027969703706935082,3.2048637866973877,2019-06-03 16:31:21:151
5.529324157714844,-8.080307006835938,0.9456951904296875,0.03024488175748721,0.02224888622614641,0.027170755379911312,3.2099838256835938,2019-06-03 16:31:21:156
5.532915405273437,-8.080307006835938,0.991184326171875,0.029845407593975325,0.022115728171642448,0.026504965107391504,3.2148478031158447,2019-06-03 16:31:21:161
5.586784118652344,-8.09227783203125,0.9456951904296875,0.0295790914849674,0.020384673463090943,0.025839174834871696,3.219967842102051,2019-06-03 16:31:21:166
5.558054138183594,-8.07312451171875,0.9732280883789062,0.02944593343046344,0.02025151540858698,0.02543970067135981,3.2248318195343018,2019-06-03 16:31:21:171
5.5831928710937495,-8.07312451171875,0.9444981079101562,0.0267827723403842,0.019319409027059246,0.02424127818082415,3.229951858520508,2019-06-03 16:31:21:176
5.572419128417969,-8.089883666992188,0.94808935546875,0.028247510939927778,0.019985199299579058,0.02437443623532811,3.235071897506714,2019-06-03 16:31:21:181
5.571222045898438,-8.101854492187499,0.9468922729492187,0.027049088449392123,0.019585725136067173,0.02264338152677661,3.239935874938965,2019-06-03 16:31:21:186
5.579601623535156,-8.085095336914062,0.9600601806640625,0.025184875686336653,0.018653618754539438,0.022243907363264724,3.245055913925171,2019-06-03 16:31:21:191
5.546083312988281,-8.09347491455078,0.9037973022460938,0.024652243468320807,0.02011835735408302,0.022510223472272647,3.249919891357422,2019-06-03 16:31:21:196
5.579601623535156,-8.110234069824218,0.89062939453125,0.026383298176872315,0.019452567081563208,0.02131180098173699,3.255039930343628,2019-06-03 16:31:21:201
5.5700249633789065,-8.131781555175781,0.9301331176757812,0.026250140122368353,0.020384673463090943,0.02064601070921718,3.259903907775879,2019-06-03 16:31:21:206
5.567630798339843,-8.116219482421874,0.9121768798828125,0.025584349849848538,0.020650989572098866,0.019847062382193408,3.265023946762085,2019-06-03 16:31:21:211
5.5556599731445315,-8.113825317382812,0.8822498168945312,0.02691593039488816,0.021183621790114713,0.01864863989165775,3.269887924194336,2019-06-03 16:31:21:216
5.52573291015625,-8.099460327148437,0.9301331176757812,0.027448562612904008,0.02011835735408302,0.017583375455626056,3.275007963180542,2019-06-03 16:31:21:221
5.507776672363281,-8.119810729980468,0.8918264770507812,0.026250140122368353,0.020384673463090943,0.016784428168899586,3.279871940612793,2019-06-03 16:31:21:226
5.5101708374023435,-8.107839904785155,0.881052734375,0.025184875686336653,0.019852041245075096,0.01571916373286789,3.284991979598999,2019-06-03 16:31:21:231
5.5245358276367185,-8.110234069824218,0.92893603515625,0.026516456231376277,0.019718883190571135,0.016118637896379774,3.28985595703125,2019-06-03 16:31:21:236
5.517353332519531,-8.126993225097657,0.9085856323242187,0.02758172066740797,0.019585725136067173,0.0135886348608045,3.294975996017456,2019-06-03 16:31:21:241
5.528127075195313,-8.134175720214843,0.8343665161132813,0.02771487872191193,0.019585725136067173,0.012922844588284691,3.299839973449707,2019-06-03 16:31:21:246
5.511367919921875,-8.118613647460938,0.8750673217773437,0.027848036776415893,0.01891993486354736,0.011324947934237148,3.304960012435913,2019-06-03 16:31:21:251
5.530521240234375,-8.132978637695313,0.9157681274414062,0.029179617321455513,0.01891993486354736,0.009593893225685641,3.31007981300354,2019-06-03 16:31:21:256
5.559251220703125,-8.105445739746093,0.8858410644531249,0.0285138270489357,0.018520460700035477,0.007596522408126214,3.314943790435791,2019-06-03 16:31:21:261
5.577207458496094,-8.104248657226563,0.8307752685546875,0.0285138270489357,0.018387302645531515,0.006797574081102442,3.320063829421997,2019-06-03 16:31:21:266
5.558054138183594,-8.125796142578125,0.8295781860351562,0.028780143157943625,0.01798782848201963,0.0053328354815588615,3.324927806854248,2019-06-03 16:31:21:271
5.576010375976562,-8.11143115234375,0.8403519287109374,0.029046459266951548,0.01785467042751567,0.005066519372550938,3.330047845840454,2019-06-03 16:31:21:276
5.572419128417969,-8.091080749511718,0.8618994140625,0.02944593343046344,0.01812098653652359,0.004134412991023204,3.334911823272705,2019-06-03 16:31:21:281
5.578404541015625,-8.124599060058594,0.87147607421875,0.030111723702983248,0.01758835431850774,0.005599151590566786,3.340031862258911,2019-06-03 16:31:21:286
5.565236633300781,-8.12220489501953,0.89062939453125,0.030910672030007018,0.0187867768090434,0.0038680968820152804,3.344895839691162,2019-06-03 16:31:21:291
5.556857055664063,-8.094671997070312,0.9026002197265625,0.030644355920999095,0.019452567081563208,0.0026696743914796234,3.350015878677368,2019-06-03 16:31:21:296
5.565236633300781,-8.118613647460938,0.8822498168945312,0.031310146193518906,0.020650989572098866,0.0010717777374320806,3.354879856109619,2019-06-03 16:31:21:301
5.571222045898438,-8.112628234863282,0.904994384765625,0.031310146193518906,0.019452567081563208,0.0004059874649122709,3.359999895095825,2019-06-03 16:31:21:306
5.561645385742187,-8.11143115234375,0.919359375,0.03264172673855852,0.019452567081563208,-0.00039296086211150055,3.364863872528076,2019-06-03 16:31:21:311
5.586784118652344,-8.11143115234375,0.9181622924804688,0.03277488479306248,0.019319409027059246,-0.00025980280760753863,3.3699839115142822,2019-06-03 16:31:21:316
5.581995788574218,-8.115022399902344,0.8822498168945312,0.0334406750655823,0.02011835735408302,-0.0013250672436392339,3.374847888946533,2019-06-03 16:31:21:321
5.596360778808593,-8.105445739746093,0.8834468994140625,0.03264172673855852,0.020517831517594905,-0.0017245414071511197,3.3799679279327393,2019-06-03 16:31:21:326
5.572419128417969,-8.103051574707031,0.9037973022460938,0.03264172673855852,0.020384673463090943,-0.0019908575161590434,3.3848319053649902,2019-06-03 16:31:21:331
5.59276953125,-8.117416564941406,0.8834468994140625,0.032908042847566446,0.020784147626602828,-0.0037219122247105483,3.3899519443511963,2019-06-03 16:31:21:336
5.604740356445312,-8.104248657226563,0.8774614868164062,0.03157646230252683,0.02025151540858698,-0.003988228333718472,3.3950719833374023,2019-06-03 16:31:21:341
5.599952026367188,-8.085095336914062,0.9014031372070312,0.0323754106295506,0.020517831517594905,-0.003988228333718472,3.3999359607696533,2019-06-03 16:31:21:346
5.608331604003906,-8.077912841796875,0.876264404296875,0.0334406750655823,0.02105046373561075,-0.004787176660742244,3.4050559997558594,2019-06-03 16:31:21:351
5.622696594238281,-8.061153686523438,0.8738702392578125,0.03370699117459022,0.020784147626602828,-0.005452966933262054,3.4099199771881104,2019-06-03 16:31:21:356
5.616711181640625,-8.052774108886718,0.876264404296875,0.03370699117459022,0.021982570117138486,-0.003988228333718472,3.4150400161743164,2019-06-03 16:31:21:361
5.647835327148437,-8.067139099121093,0.8607023315429687,0.03384014922909418,0.02091730568110679,-0.0030561219521907383,3.4199039936065674,2019-06-03 16:31:21:366
5.638258666992187,-8.038409118652343,0.87147607421875,0.03384014922909418,0.020650989572098866,-0.002656647788678853,3.4250237941741943,2019-06-03 16:31:21:371
5.647835327148437,-8.038409118652343,0.8738702392578125,0.03597067602056297,0.019985199299579058,-0.002523489734174891,3.4298880100250244,2019-06-03 16:31:21:376
5.644244079589844,-8.057562438964844,0.9026002197265625,0.034905413665125874,0.019718883190571135,-0.0030561219521907383,3.4350078105926514,2019-06-03 16:31:21:381
5.674171142578125,-8.027635375976562,0.919359375,0.03503856963903524,0.020650989572098866,-0.0013250672436392339,3.4398717880249023,2019-06-03 16:31:21:386
5.666988647460937,-7.995314147949219,0.89062939453125,0.03423962339260607,0.020384673463090943,-0.0011919091891352718,3.4449918270111084,2019-06-03 16:31:21:391
5.652623657226562,-7.994117065429688,0.904994384765625,0.0334406750655823,0.020384673463090943,6.513301400385199e-06,3.4498558044433594,2019-06-03 16:31:21:396
5.6406528320312495,-8.006087890625,0.9121768798828125,0.03384014922909418,0.019585725136067173,0.0018707260644558518,3.4549758434295654,2019-06-03 16:31:21:401
5.646638244628906,-8.003693725585938,0.9277389526367187,0.033973307283598146,0.02011835735408302,0.002935990500487547,3.4598398208618164,2019-06-03 16:31:21:406
5.641849914550781,-8.026438293457032,0.9421039428710938,0.03384014922909418,0.019585725136067173,0.004267571045527167,3.4649598598480225,2019-06-03 16:31:21:411
5.638258666992187,-8.012073303222657,0.9708339233398438,0.03384014922909418,0.02011835735408302,0.005865467699574709,3.4700798988342285,2019-06-03 16:31:21:416
5.637061584472656,-7.980949157714844,0.9397097778320312,0.032908042847566446,0.02011835735408302,0.006930732135606404,3.4749438762664795,2019-06-03 16:31:21:421
5.625090759277343,-8.010876220703125,0.9492864379882813,0.032109094520542676,0.019452567081563208,0.006664416026598481,3.4800639152526855,2019-06-03 16:31:21:426
5.608331604003906,-8.006087890625,0.9492864379882813,0.03197593646603871,0.01785467042751567,0.006264941863086595,3.4849278926849365,2019-06-03 16:31:21:431
5.6131199340820315,-8.020452880859375,0.9552718505859374,0.031443304248022864,0.017322038209499818,0.006664416026598481,3.4900479316711426,2019-06-03 16:31:21:436
5.639455749511718,-8.01566455078125,0.9229506225585937,0.03184277841153475,0.01745519626400378,0.007330206299118291,3.4949119091033936,2019-06-03 16:31:21:441
5.637061584472656,-8.009679138183593,0.9277389526367187,0.03264172673855852,0.01758835431850774,0.008262312680646023,3.5000319480895996,2019-06-03 16:31:21:446
5.661003234863281,-8.03601495361328,0.9241477050781249,0.03184277841153475,0.016389931827972087,0.010659157661717338,3.5048959255218506,2019-06-03 16:31:21:451
5.6119228515624995,-8.021649963378906,0.9564689331054688,0.030511197866495133,0.015590983500948313,0.011591264043245071,3.5100159645080566,2019-06-03 16:31:21:456
5.6430469970703125,-8.010876220703125,0.9349214477539062,0.029845407593975325,0.0159904576644602,0.011724422097749033,3.5148799419403076,2019-06-03 16:31:21:461
5.652623657226562,-8.043197448730469,0.9504835205078125,0.029978565648479286,0.015857299609956237,0.0135886348608045,3.5199999809265137,2019-06-03 16:31:21:466
5.6574119873046875,-8.030029541015624,0.9516806030273437,0.029312775375959478,0.015457825446444352,0.013455476806300538,3.5248639583587646,2019-06-03 16:31:21:471
5.653820739746093,-8.020452880859375,0.9229506225585937,0.029845407593975325,0.015857299609956237,0.012922844588284691,3.5299839973449707,2019-06-03 16:31:21:476
5.6502294921875,-8.006087890625,0.9121768798828125,0.0285138270489357,0.0159904576644602,0.013455476806300538,3.5348479747772217,2019-06-03 16:31:21:481
5.672974060058594,-8.012073303222657,0.8942206420898438,0.0285138270489357,0.01532466739194039,0.01585232178737185,3.5399680137634277,2019-06-03 16:31:21:486
5.662200317382812,-8.022847045898438,0.9229506225585937,0.029046459266951548,0.016389931827972087,0.01784969156463398,3.5448319911956787,2019-06-03 16:31:21:491
5.662200317382812,-7.989328735351562,0.895417724609375,0.028114352885423816,0.016389931827972087,0.018116007673641903,3.5499517917633057,2019-06-03 16:31:21:496
5.6430469970703125,-8.012073303222657,0.914571044921875,0.027848036776415893,0.017322038209499818,0.01931443016417756,3.5550718307495117,2019-06-03 16:31:21:501
5.662200317382812,-8.055168273925782,0.9002060546874999,0.028646985103439663,0.017322038209499818,0.018781797946161714,3.5599358081817627,2019-06-03 16:31:21:506
5.690930297851563,-8.040803283691407,0.952877685546875,0.02771487872191193,0.016922564045987933,0.019847062382193408,3.5650558471679688,2019-06-03 16:31:21:511
5.655017822265624,-8.019255798339843,0.9169652099609374,0.02758172066740797,0.017188880154995857,0.02144495903624095,3.5699198246002197,2019-06-03 16:31:21:516
5.67895947265625,-8.003693725585938,0.9217535400390625,0.027981194830919855,0.016922564045987933,0.022377065417768686,3.575039863586426,2019-06-03 16:31:21:521
5.682550720214843,-8.055168273925782,0.8451402587890625,0.027448562612904008,0.016922564045987933,0.021578117090744912,3.5799038410186768,2019-06-03 16:31:21:526
5.6502294921875,-8.037212036132813,0.8870381469726563,0.026383298176872315,0.01785467042751567,0.02264338152677661,3.585023880004883,2019-06-03 16:31:21:531
5.632273254394531,-8.04439453125,0.8822498168945312,0.02598382401336043,0.01812098653652359,0.023708645962808302,3.589887857437134,2019-06-03 16:31:21:536
5.595163696289062,-8.051577026367188,0.8678848266601562,0.02691593039488816,0.01785467042751567,0.023841804017312264,3.59500789642334,2019-06-03 16:31:21:541
5.589178283691406,-8.080307006835938,0.919359375,0.027848036776415893,0.017055722100491895,0.02357548790830434,3.599871873855591,2019-06-03 16:31:21:546
5.6502294921875,-8.095869079589843,0.8702789916992187,0.02771487872191193,0.01745519626400378,0.024507594289832072,3.604991912841797,2019-06-03 16:31:21:551
5.585587036132813,-8.055168273925782,0.8966148071289062,0.027448562612904008,0.017322038209499818,0.025040226507847922,3.609855890274048,2019-06-03 16:31:21:556
5.614317016601563,-8.071927429199219,0.8678848266601562,0.027848036776415893,0.016922564045987933,0.024907068453343957,3.614975929260254,2019-06-03 16:31:21:561
5.595163696289062,-8.039606201171875,0.9169652099609374,0.027848036776415893,0.019186250972555285,0.024640752344336034,3.619839906692505,2019-06-03 16:31:21:566
5.629879089355469,-8.0635478515625,0.8894323120117187,0.02691593039488816,0.019852041245075096,0.024907068453343957,3.624959945678711,2019-06-03 16:31:21:571
5.6274849243164065,-8.074321594238281,0.8942206420898438,0.027848036776415893,0.02025151540858698,0.024640752344336034,3.630079984664917,2019-06-03 16:31:21:576
5.607134521484375,-8.051577026367188,0.8978118896484375,0.02771487872191193,0.020517831517594905,0.025173384562351887,3.634943962097168,2019-06-03 16:31:21:581
5.614317016601563,-8.087489501953124,0.8930235595703124,0.027049088449392123,0.02105046373561075,0.024907068453343957,3.640064001083374,2019-06-03 16:31:21:586
5.578404541015625,-8.088686584472656,0.876264404296875,0.028114352885423816,0.020784147626602828,0.02344232985380038,3.644927978515625,2019-06-03 16:31:21:591
5.607134521484375,-8.09227783203125,0.8930235595703124,0.027315404558400046,0.019186250972555285,0.02277653958128057,3.650048017501831,2019-06-03 16:31:21:596
5.586784118652344,-8.086292419433594,0.8858410644531249,0.02838066899443174,0.019452567081563208,0.023176013744792456,3.654911994934082,2019-06-03 16:31:21:601
5.585587036132813,-8.087489501953124,0.87147607421875,0.027981194830919855,0.019452567081563208,0.02264338152677661,3.660031795501709,2019-06-03 16:31:21:606
5.5987549438476565,-8.110234069824218,0.8858410644531249,0.028646985103439663,0.02011835735408302,0.022243907363264724,3.664896011352539,2019-06-03 16:31:21:611
5.585587036132813,-8.088686584472656,0.8463373413085937,0.029312775375959478,0.02025151540858698,0.022377065417768686,3.670015811920166,2019-06-03 16:31:21:616
5.593966613769531,-8.091080749511718,0.83316943359375,0.029312775375959478,0.019319409027059246,0.021578117090744912,3.674879789352417,2019-06-03 16:31:21:621
5.590375366210937,-8.056365356445312,0.828381103515625,0.029712249539471363,0.019718883190571135,0.02144495903624095,3.679999828338623,2019-06-03 16:31:21:626
5.591572448730469,-8.081504089355468,0.8343665161132813,0.029845407593975325,0.022115728171642448,0.021178642927233027,3.684863805770874,2019-06-03 16:31:21:631
5.620302429199219,-8.117416564941406,0.8559140014648438,0.030511197866495133,0.0215830959536266,0.02064601070921718,3.68998384475708,2019-06-03 16:31:21:636
5.572419128417969,-8.09227783203125,0.876264404296875,0.03104383008451098,0.02105046373561075,0.021578117090744912,3.694847822189331,2019-06-03 16:31:21:641
5.608331604003906,-8.082701171875,0.9217535400390625,0.030777513975503056,0.02238204428065037,0.019580746273185484,3.699967861175537,2019-06-03 16:31:21:646
5.608331604003906,-8.061153686523438,0.8918264770507812,0.030511197866495133,0.021849412062634525,0.018382323782649826,3.704831838607788,2019-06-03 16:31:21:651
5.6131199340820315,-8.110234069824218,0.8583081665039062,0.03117698813901494,0.022115728171642448,0.01784969156463398,3.709951877593994,2019-06-03 16:31:21:656
5.623893676757812,-8.103051574707031,0.881052734375,0.03157646230252683,0.02238204428065037,0.018781797946161714,3.7150719165802,2019-06-03 16:31:21:661
5.59276953125,-8.058759521484374,0.8822498168945312,0.03264172673855852,0.023314150662178103,0.018116007673641903,3.719935894012451,2019-06-03 16:31:21:666
5.599952026367188,-8.104248657226563,0.9121768798828125,0.0334406750655823,0.022648360389658295,0.01718390233241147,3.7250559329986572,2019-06-03 16:31:21:671
5.604740356445312,-8.058759521484374,0.87147607421875,0.032109094520542676,0.02144993789912264,0.01798284961913794,3.729919910430908,2019-06-03 16:31:21:676
