ACCELEROMETER X (m/s²),ACCELEROMETER Y (m/s²),ACCELEROMETER Z (m/s²),GYROSCOPE X (rad/s),GYROSCOPE Y (rad/s),GYROSCOPE Z (rad/s),Pitch (Deg),Roll (Deg),Heading (Deg),Time since start in ms ,YYYY-MO-DD HH-MI-SS_SSS
0.4119209051132202,-0.04828054830431938,9.629098892211914,-0.010109163922048236,-0.03123079231541295,0.007928834977897663,-3.5510090229176083,-3.5942543980491743,0,0.0,2019-07-24 11:19:02:156
0.33289414644241333,-0.01954355277121067,9.605152130126953,-0.007978115421483089,-0.026435930978509607,0.00419949867149987,-7.036929432474159,-7.119023617134144,0,0.002263784408569336,2019-07-24 11:19:02:159
0.5292636156082153,0.07145693898200989,9.595572471618652,-0.010109163922048236,-0.019776403308927642,0.005265023181856767,-10.427947483873847,-3.3825684622508003,0,0.006858348846435547,2019-07-24 11:19:02:163
-0.2610037624835968,-0.14646528661251068,9.787153244018555,0.005607323125864665,-0.012584111303572627,-0.007521271462574662,-6.6476063051300915,-6.898809800323713,0,0.010161876678466797,2019-07-24 11:19:02:167
0.40473663806915283,-0.14646528661251068,9.832653045654297,-0.027423938775793782,-0.014448779716845848,0.008461597233076112,-10.06562417497123,-10.34018235238771,0,0.012488842010498047,2019-07-24 11:19:02:169
1.0561085939407349,0.2869844138622284,9.597967147827148,0.018127236642706872,0.0023332323615725993,-0.005922984697039315,-13.339261158005037,-6.5717855773457075,0,0.01656961441040039,2019-07-24 11:19:02:173
-0.23945102095603943,-0.4050982594490051,10.191865921020508,-0.018100598790022276,-0.035759270964281116,0.0034003552887321956,-9.492470314303734,-9.991322507179785,0,0.020017623901367188,2019-07-24 11:19:02:176
0.5556058883666992,-0.25901851058006287,9.959574699401855,-0.051398243379715894,-0.06319652970671451,0.02098151074991832,-12.830706794269677,-13.355150469979174,0,0.022287368774414062,2019-07-24 11:19:02:179
0.36402589082717896,0.27740541100502014,9.494993209838867,0.030647150159549077,-0.03336184133612675,-0.0069885092073962134,-16.122151433964078,-9.528893371797723,0,0.026573896408081055,2019-07-24 11:19:02:183
-0.23705627024173737,-0.2805712819099426,9.700942039489746,-0.014371263003773128,-0.043750705832255155,0.008994359488254562,-12.219259137791468,-12.902408223115437,0,0.030011892318725586,2019-07-24 11:19:02:186
-0.7399536967277527,-0.498493492603302,9.720099449157715,-0.0005194432313082785,-0.029366123902139725,-0.0043246979315039675,-8.458198750054546,-16.185577252122425,0,0.032280921936035156,2019-07-24 11:19:02:189
1.4919530153274536,0.27740541100502014,9.166913032531738,0.013065994698362955,0.015652289261182478,0.0012693061379812365,-11.707922537911006,-12.2996787628187,0,0.03656959533691406,2019-07-24 11:19:02:193
-1.3721675872802734,-0.3931244909763336,9.851811408996582,0.013865138601279277,0.002599613489161824,-0.005922984697039315,-8.032849511711653,-15.61065871370517,0,0.040006399154663086,2019-07-24 11:19:02:196
0.8190283179283142,-0.5415989756584167,9.94041633605957,-0.07217596821078351,-0.024038501350355235,0.02444446488842959,-11.374931197244964,-18.826891393821988,0,0.04227185249328613,2019-07-24 11:19:02:199
-0.01194980088621378,0.047509439289569855,9.341729164123535,0.04023687283335576,0.03349982637010648,-0.03069643112328315,-7.557001328619338,-14.865913794765754,0,0.046579599380493164,2019-07-24 11:19:02:203
-0.526820957660675,-0.32607150077819824,9.882943153381348,-0.0346162297408515,0.0036651382595930477,0.013256457529682155,-3.867597057374747,-18.124102982624834,0,0.05002593994140625,2019-07-24 11:19:02:206
-0.14845053851604462,-0.35001900792121887,9.945206642150879,-0.014637643611213703,0.024975630287251287,-0.0024600297783050704,-0.21144089486911932,-21.318909042744117,0,0.05294394493103027,2019-07-24 11:19:02:209
1.2931888103485107,0.0642726868391037,9.483019828796387,0.032511818572822294,0.02204543736362117,-0.023770520765666013,-3.6563996908780796,-17.30692914074095,0,0.05657672882080078,2019-07-24 11:19:02:213
-0.6441637277603149,-0.452993243932724,10.273286819458008,-0.035415373643767824,-0.0306980290199372,0.013789219784860604,-0.04909559673266228,-20.503448765583578,0,0.060019493103027344,2019-07-24 11:19:02:216
0.8597390651702881,-0.23986051976680756,9.842231750488281,-0.019698886595854923,-0.027501455488866504,0.0023348307783752974,-3.5447710997499557,-23.66295320219834,0,0.06228470802307129,2019-07-24 11:19:02:219
-0.18437178432941437,-0.2230972796678543,9.684178352355957,-0.002650492349549947,-0.0064573453690204615,-0.0016608863955373968,0.10586634391752536,-26.76266139481914,0,0.06657576560974121,2019-07-24 11:19:02:223
0.7232383489608765,0.07864118367433548,9.411176681518555,-0.014637643611213703,-0.0011297224271244826,0.013789219784860604,-3.408142442084295,-22.634146323986652,0,0.07002758979797363,2019-07-24 11:19:02:226
-1.4272469282150269,-0.6134414672851562,9.890127182006836,0.04636363720746198,0.02204543736362117,-0.03629043428250822,0.09297605402720555,-25.716389524088065,0,0.07229828834533691,2019-07-24 11:19:02:229
1.5542165040969849,-0.3883350193500519,9.775178909301758,-0.029022226581626433,0.017783339322193576,0.008994359488254562,-3.3324605906985934,-28.749608453100645,0,0.07656550407409668,2019-07-24 11:19:02:233
-0.9387179613113403,0.16485217213630676,9.674599647521973,0.05675250378418499,0.03829468770700982,-0.02883176271000993,0.2158769322919607,-24.605213116265876,0,0.08004021644592285,2019-07-24 11:19:02:236
0.8597390651702881,-0.5823097229003906,10.211023330688477,-0.06365177628911753,-0.005658201986252788,0.019649605632120846,-3.2914643757291615,-27.639726302987327,0,0.08230781555175781,2019-07-24 11:19:02:239
0.29936766624450684,-0.21830777823925018,9.81828498840332,0.019991905055980093,0.025774772109573012,-0.022172235040427965,-6.795562243244381,-30.665223445789827,0,0.0856633186340332,2019-07-24 11:19:02:242
0.8190283179283142,0.18401017785072327,9.72728443145752,-0.002117730094371498,-0.005658201986252788,0.00419949867149987,-10.161977827163732,-26.47306390461741,0,0.0901176929473877,2019-07-24 11:19:02:246
-1.0824029445648193,-0.6349942088127136,10.280470848083496,1.3319057395376562e-05,-0.013116873558751076,-0.004857460186682417,-6.477277915054341,-29.472914317777267,0,0.09238219261169434,2019-07-24 11:19:02:249
1.5614007711410522,0.028351441025733948,9.571625709533691,0.019991905055980093,0.0010013267236264765,-0.016045468585727148,-9.762669422633902,-25.291560366867788,0,0.09657812118530273,2019-07-24 11:19:02:253
-0.7950329780578613,-0.06983329355716705,9.930837631225586,0.01279961409092238,-0.001662484682302932,-0.0011281241403589474,-6.058637061913243,-28.380152583394015,0,0.10003066062927246,2019-07-24 11:19:02:256
0.9746870994567871,-0.25422900915145874,9.89970588684082,-0.03861194509424392,-0.02430488195779581,0.02284617916319154,-9.421904476048883,-31.378203806684894,0,0.10230207443237305,2019-07-24 11:19:02:259
1.1135826110839844,-0.02672780118882656,9.612336158752441,0.009603040559851684,0.009525522806481663,-0.00565660356945009,-12.703584354495492,-34.34975435987654,0,0.10656929016113281,2019-07-24 11:19:02:263
0.8022651076316833,0.061877936124801636,9.614730834960938,-0.006646209783536966,-0.009920300027680382,0.01352283917742003,-15.952196673568345,-30.068847425786736,0,0.1100168228149414,2019-07-24 11:19:02:266
-0.9985866546630859,-0.4721512496471405,10.098470687866211,0.00880389665693536,-0.009387537772501934,-0.0037919356763255183,-12.144906967309492,-33.01505074304841,0,0.11227893829345703,2019-07-24 11:19:02:269
1.5853482484817505,0.04990419000387192,9.588388442993164,0.005607323125864665,0.013787621888206557,-0.0021936486507158457,-15.317565804987108,-28.762065779200693,0,0.11657309532165527,2019-07-24 11:19:02:273
-0.3663727641105652,0.13850992918014526,9.69854736328125,0.037306679909725644,0.027639440522846233,-0.0069885092073962134,-11.459832845693171,-24.610411029558946,0,0.12002086639404297,2019-07-24 11:19:02:276
0.7902913689613342,-0.39791399240493774,10.084101676940918,-0.04021023290007656,-0.013649635813929526,0.02977208952080868,-14.73927817818268,-27.667895632383356,0,0.12228560447692871,2019-07-24 11:19:02:279
0.7831071019172668,-0.017148802056908607,9.88773250579834,0.02452038370484826,-0.002461628195107768,-0.020041186019714167,-17.953333442923544,-30.718445825307228,0,0.12656760215759277,2019-07-24 11:19:02:283
0.7519753575325012,0.15048368275165558,9.945206642150879,-0.011707451727880885,-0.022440213544522587,0.022579798555750964,-21.10344560740337,-26.5191500090922,0,0.13001275062561035,2019-07-24 11:19:02:286
0.06468218564987183,-0.09617554396390915,9.815889358520508,-0.0002530620874644087,-0.013649635813929526,0.015653888198133827,-24.272091458601704,-29.577507596784656,0,0.13227558135986328,2019-07-24 11:19:02:289
0.8932656049728394,-0.25901851058006287,9.676994323730469,0.004808179743096991,-0.001662484682302932,-0.004058316803914743,-27.280769651398522,-32.55645396842839,0,0.13657689094543457,2019-07-24 11:19:02:293
0.2227356731891632,0.08103593438863754,9.655441284179688,0.0029435115898980946,0.0031323757443402728,0.017784937218847625,-30.309381512272918,-28.31555947569052,0,0.14031243324279785,2019-07-24 11:19:02:297
0.4574211537837982,0.13850992918014526,9.76799488067627,0.00267713046230887,-0.0019288658098921565,0.01991598623956142,-33.24931984038877,-24.16584550538573,0,0.14263582229614258,2019-07-24 11:19:02:299
0.7831071019172668,-0.3811507523059845,9.890127182006836,-0.0005194432313082785,-0.005391820858663564,0.00419949867149987,-36.09258550063387,-27.238272716598406,0,0.1466076374053955,2019-07-24 11:19:02:303
0.4598158895969391,-0.09138604253530502,9.964364051818848,-0.009310021059429211,-0.013916017461667402,0.016719412708490724,-38.9152031916008,-30.281199306113983,0,0.15004849433898926,2019-07-24 11:19:02:306
0.11976142972707748,0.07385168224573135,9.91646957397461,-0.002650492349549947,-0.011252206185775155,0.019116842336645096,-41.7216319274788,-26.083772710114204,0,0.15230965614318848,2019-07-24 11:19:02:309
0.847765326499939,-0.00517505407333374,9.827863693237305,0.006406466508632338,-0.003260771577875442,0.010859026861230484,-44.38798430353504,-29.162693868015904,0,0.15564560890197754,2019-07-24 11:19:02:312
0.26105165481567383,-0.165623277425766,9.844626426696777,-0.005580684753031417,-0.010453062282858831,0.017784937218847625,-47.067211122768704,-32.15875690850565,0,0.16013360023498535,2019-07-24 11:19:02:316
0.5005266070365906,-0.0003855547111015767,9.94041633605957,-0.003449635732317621,-0.016846210385297523,0.020715130142477743,-49.66607071858009,-35.11509809800903,0,0.1624011993408203,2019-07-24 11:19:02:319
0.7232383489608765,-0.10335978865623474,9.902100563049316,0.008271134401756912,-0.022173832937082014,0.012190933019325256,-52.18401746553193,-38.002768938206685,0,0.1665647029876709,2019-07-24 11:19:02:323
0.3089466691017151,-0.2374657690525055,9.873363494873047,-0.005314303625442193,-0.0317635535302941,0.017784937218847625,-54.69836499986487,-40.81413317488744,0,0.1700000762939453,2019-07-24 11:19:02:326
0.23470941185951233,-0.08899129182100296,9.715310096740723,-0.0007858243914067938,-0.02190745232964144,0.01645303106075285,-57.17393543275088,-43.58725447451655,0,0.17226314544677734,2019-07-24 11:19:02:329
0.4789738953113556,-0.06743854284286499,9.569231033325195,0.004541798615507767,-0.009387537772501934,0.010059883998611461,-59.57086985556702,-46.308535663620205,0,0.17658400535583496,2019-07-24 11:19:02:333
0.09820868819952011,-0.18238653242588043,9.772784233093262,-0.002650492349549947,-0.007789251006966585,0.017252174963669174,-61.96642645275425,-48.96046744744078,0,0.1800384521484375,2019-07-24 11:19:02:336
0.3233151435852051,-0.09138604253530502,9.799126625061035,-0.002650492349549947,-0.007256488751788136,0.016186650453312277,-64.28837981477889,-51.57023448002342,0,0.18230414390563965,2019-07-24 11:19:02:339
0.4837633967399597,-0.11772829294204712,9.69854736328125,0.003209892717487319,-0.008854775517323483,0.011391789116408934,-66.54337314325409,-54.125691949879354,0,0.18658447265625,2019-07-24 11:19:02:343
0.17484067380428314,-0.18238653242588043,9.791942596435547,-0.006379828135799091,-0.014715160324286424,0.014854744295217503,-68.78920602766733,-56.6206048765524,0,0.19002270698547363,2019-07-24 11:19:02:346
0.26105165481567383,-0.09138604253530502,9.744047164916992,-0.0029168734771391714,-0.01551430422720275,0.007928834977897663,-70.98075482901488,-59.077074752005224,0,0.19228911399841309,2019-07-24 11:19:02:349
0.3736048936843872,-0.05307004973292351,9.621914863586426,0.0069392287638107885,-0.009121157165061358,0.008461597233076112,-73.11447774305611,-61.49087917270681,0,0.1965653896331787,2019-07-24 11:19:02:353
0.22513042390346527,-0.14886003732681274,9.736863136291504,-0.002117730094371498,-0.014448779716845848,0.010059883998611461,-75.22290457023581,-63.84313447825634,0,0.20000815391540527,2019-07-24 11:19:02:356
0.33289414644241333,-0.07462279498577118,9.782362937927246,1.3319057395376562e-05,-0.014981541972024299,0.006330547692213666,-77.27756165279148,-66.15753226383943,0,0.2022719383239746,2019-07-24 11:19:02:359
0.4143156409263611,-0.12491253763437271,9.732073783874512,0.002410749334719645,-0.01151858679321573,0.003933117543910645,-79.2804747095044,-68.42025648375895,0,0.2065718173980713,2019-07-24 11:19:02:363
0.20597241818904877,-0.165623277425766,9.734468460083008,0.0013452248243627468,-0.009387537772501934,0.004732260926678319,-81.26881023782782,-70.63261617406593,0,0.21000957489013672,2019-07-24 11:19:02:366
0.23470941185951233,-0.12491253763437271,9.657835960388184,-0.0029168734771391714,-0.010719443930596706,0.0055314043094459924,-83.21422577315664,-72.80477216151166,0,0.21227765083312988,2019-07-24 11:19:02:369
0.3209204077720642,-0.09138604253530502,9.758416175842285,0.006672847636221563,-0.002461628195107768,0.000470162722704272,-85.11167858458374,-74.93954794430817,0,0.2165539264678955,2019-07-24 11:19:02:373
0.24428841471672058,-0.09138604253530502,9.662626266479492,-0.0015849678391930489,-0.0005969601719460336,0.0007365438828027872,-86.98036477973594,-77.02961263955328,0,0.2200031280517578,2019-07-24 11:19:02:376
0.23470941185951233,-0.13449153304100037,9.72728443145752,1.3319057395376562e-05,-0.00033057901184751836,0.0012693061379812365,-88.81307103170239,-79.07317941413666,0,0.22226834297180176,2019-07-24 11:19:02:379
0.35205215215682983,-0.158439040184021,9.753625869750977,0.0005460813765764917,-0.0019288658098921565,-0.000328980725081983,-90.59499922494541,-81.07323531525407,0,0.22658109664916992,2019-07-24 11:19:02:383
0.34486791491508484,-0.112938791513443,9.777573585510254,-0.002650492349549947,-0.00512543973107434,-0.0043246979315039675,-92.34169172512529,-83.03801456868615,0,0.23007774353027344,2019-07-24 11:19:02:386
0.2945781648159027,-0.12970203161239624,9.782362937927246,0.0021443682071304202,-0.003793533833053891,-0.0016608863955373968,-94.05987695899617,-84.96233543707743,0,0.23235082626342773,2019-07-24 11:19:02:389
0.36402589082717896,-0.12730729579925537,9.760810852050781,-0.0005194432313082785,-0.0005969601719460336,-0.005390222441860866,-95.73585113321221,-86.84804665620726,0,0.23567962646484375,2019-07-24 11:19:02:392
0.2754201591014862,-0.08180704712867737,9.717704772949219,0.0008124625041657164,0.000734945596037252,-0.006455746952217765,-97.38884878057618,-88.70164223198645,0,0.2401294708251953,2019-07-24 11:19:02:396
0.39036813378334045,-0.10335978865623474,9.794337272644043,-0.002117730094371498,-0.0008633412995352583,-0.0069885092073962134,-98.99531438399075,-90.51524866343482,0,0.2423858642578125,2019-07-24 11:19:02:399
0.35923638939857483,-0.13688628375530243,9.722494125366211,-0.003449635732317621,0.001267707851215701,-0.0061893658246285396,-100.57338442094859,-92.28800147232812,0,0.2465653419494629,2019-07-24 11:19:02:403
0.3544468879699707,-0.10814929008483887,9.80870532989502,0.0005460813765764917,0.004464281382286396,-0.005390222441860866,-102.1213886883302,-94.02971279103046,0,0.25000691413879395,2019-07-24 11:19:02:406
0.4143156409263611,-0.12730729579925537,9.703336715698242,-0.0015849678391930489,0.004197900514771496,-0.007521271462574662,-103.63059729537378,-95.73388293843487,0,0.25227785110473633,2019-07-24 11:19:02:409
0.4191051423549652,-0.10814929008483887,9.717704772949219,0.0010788436317549408,0.006595330923148843,-0.0069885092073962134,-105.11018409510592,-97.40671275259011,0,0.25656914710998535,2019-07-24 11:19:02:413
0.42389464378356934,-0.16801802814006805,9.825469017028809,0.0013452248243627468,0.007927236561094966,-0.006455746952217765,-106.56010779429084,-99.03924532871238,0,0.26001620292663574,2019-07-24 11:19:02:416
0.4334736466407776,-0.12012303620576859,9.811100006103516,-0.0018513489667822737,0.006062568667970394,-0.00565660356945009,-107.97908060795075,-100.64419560676671,0,0.2622807025909424,2019-07-24 11:19:02:419
0.4981318712234497,-0.10335978865623474,9.794337272644043,0.00027970021647797646,0.0004685644359387367,-0.006722128079806988,-109.3613820184199,-102.21928683166391,0,0.26658201217651367,2019-07-24 11:19:02:423
0.5340531468391418,-0.09138604253530502,9.703336715698242,-0.0002530620874644087,0.0018004701063941502,-0.005390222441860866,-110.71149734840677,-103.76406020858425,0,0.27002835273742676,2019-07-24 11:19:02:426
0.5029214024543762,-0.1392810344696045,9.791942596435547,0.00027970021647797646,-6.419785581266445e-05,-0.0043246979315039675,-112.03845548533756,-105.27251764780532,0,0.27239060401916504,2019-07-24 11:19:02:429
0.4909476339817047,-0.11533354222774506,9.813494682312012,0.0016116059519519711,0.001267707851215701,-0.004857460186682417,-113.3407039183972,-106.75397861051553,0,0.276569128036499,2019-07-24 11:19:02:433
0.5268688797950745,-0.11054404079914093,9.724889755249023,-0.0007858243914067938,0.004197900514771496,-0.005390222441860866,-114.61268052574538,-108.20572169340211,0,0.2800171375274658,2019-07-24 11:19:02:436
0.5771586298942566,-0.14646528661251068,9.693758010864258,-0.002117730094371498,0.0018004701063941502,-0.006455746952217765,-115.85250975609557,-109.62402496922152,0,0.282285213470459,2019-07-24 11:19:02:439
0.5412373542785645,-0.09138604253530502,9.684178352355957,-0.0023841112219607223,0.00473066250987562,-0.0043246979315039675,-117.07261914495469,-111.02015824019516,0,0.28656530380249023,2019-07-24 11:19:02:443
0.5388426184654236,-0.09857029467821121,9.801521301269531,-0.002117730094371498,0.002599613489161824,-0.0013945052679481718,-118.26873442629127,-112.38782288277632,0,0.29000091552734375,2019-07-24 11:19:02:446
0.5795533657073975,-0.1320967823266983,9.71052074432373,-0.0010522055189960183,0.0015340889788049254,-0.0069885092073962134,-119.43524408864663,-113.72434518241022,0,0.2922651767730713,2019-07-24 11:19:02:449
-0.35679376125335693,-0.2973345220088959,9.902100563049316,0.00027970021647797646,0.006595330923148843,-0.012316131759180705,-113.48940569805247,-115.01552735098022,0,0.2965710163116455,2019-07-24 11:19:02:453
0.9794765710830688,0.05708843842148781,9.633889198303223,-0.020498028418176644,0.014054002495647132,0.004732260926678319,-114.70622425438272,-109.11805045714583,0,0.30000877380371094,2019-07-24 11:19:02:456
0.8214231133460999,0.21035242080688477,9.518940925598145,0.02452038370484826,0.03669639990117717,-0.010451464386204784,-115.91813189131996,-103.36413051018909,0,0.302276611328125,2019-07-24 11:19:02:459
0.04552419111132622,-0.4314405024051666,10.00747013092041,-0.03674727876156529,-0.00858839438973426,0.0055314043094459924,-117.1924794846706,-104.83858900350403,0,0.3065836429595947,2019-07-24 11:19:02:463
1.0225820541381836,0.021167192608118057,9.758416175842285,-0.006113447008209866,-0.0019288658098921565,-0.0037919356763255183,-118.32861235455722,-99.14311753574955,0,0.31003665924072266,2019-07-24 11:19:02:466
0.5268688797950745,0.25106316804885864,9.588388442993164,0.032511818572822294,0.010058286101957413,-0.014447181820191802,-119.50041915627548,-93.59439788332361,0,0.31230711936950684,2019-07-24 11:19:02:469
0.19878816604614258,-0.27338701486587524,9.904495239257812,-0.009043639411691338,-0.010453062282858831,-0.00565660356945009,-120.68490037565087,-95.28871266649817,0,0.3165910243988037,2019-07-24 11:19:02:473
0.43586838245391846,-0.2374657690525055,9.892521858215332,-0.01144107008014301,0.007394474305916517,-0.0021936486507158457,-121.82217672624797,-96.95322204087701,0,0.3200380802154541,2019-07-24 11:19:02:476
1.8607444763183594,0.4953276216983795,9.38962459564209,0.0021443682071304202,0.016451433164098802,0.001535687265570461,-122.76364688485448,-91.47482485562949,0,0.32230663299560547,2019-07-24 11:19:02:479
-0.7543222308158875,-0.25183427333831787,10.055364608764648,-0.011174689472702434,-0.02030916452380879,0.0034003552887321956,-116.78931908917241,-93.2139626077208,0,0.3265659809112549,2019-07-24 11:19:02:483
1.4632160663604736,-0.3404400050640106,9.938021659851074,-0.03994385437323059,-0.02776783609630708,0.007928834977897663,-117.88064457654934,-94.90271372188423,0,0.33001255989074707,2019-07-24 11:19:02:486
0.13652467727661133,0.21035242080688477,9.502177238464355,0.05195764036668704,0.009525522806481663,-0.029897287220366827,-119.1077815851144,-89.4366389885783,0,0.33228039741516113,2019-07-24 11:19:02:489
-0.03589729964733124,-0.19196553528308868,9.748836517333984,-0.02609203365799631,-0.012051349048394177,0.0169857933159313,-113.1269409540384,-91.2190563390148,0,0.33657264709472656,2019-07-24 11:19:02:493
1.0776612758636475,-0.15604428946971893,9.545283317565918,-0.0018513489667822737,0.014586764750825579,-0.001927267523126621,-114.33839741507185,-92.97558533652744,0,0.34001994132995605,2019-07-24 11:19:02:496
0.9507395625114441,0.1361151784658432,9.624309539794922,0.032778199180262875,0.029237728328678884,-0.022172235040427965,-115.54251911505781,-87.53645299866591,0,0.3422877788543701,2019-07-24 11:19:02:499
-0.3711622655391693,-0.3667822480201721,10.177496910095215,-0.04873442898293175,-0.0296325045095803,0.03296866305187938,-109.66631666257335,-89.332728576443,0,0.346569299697876,2019-07-24 11:19:02:503
0.9986345767974854,-0.10096504539251328,9.770389556884766,0.023987622489967112,-0.009920300027680382,-0.021639471744952215,-110.95435343103455,-91.13887017438061,0,0.35001230239868164,2019-07-24 11:19:02:506
0.37839439511299133,-0.10335978865623474,9.765600204467773,0.01226685183574393,-0.00858839438973426,-0.003525554548736294,-112.28979461713962,-92.90552501320971,0,0.3522775173187256,2019-07-24 11:19:02:509
1.1518985033035278,0.23190516233444214,9.624309539794922,0.02238933468413446,-0.011784968440953605,0.0031339741611429712,-113.50464782897704,-87.48043491126643,0,0.3565840721130371,2019-07-24 11:19:02:513
-0.4166625142097473,-0.6493627429008484,9.995495796203613,0.002410749334719645,-0.01791173489565442,-0.006455746952217765,-107.67844065240811,-89.25700438598673,0,0.3604161739349365,2019-07-24 11:19:02:517
1.956534504890442,-0.07701754570007324,9.705731391906738,-0.029821368403948157,-0.01737897264047597,0.02231341586771579,-108.89449110919851,-91.05859187236923,0,0.3629121780395508,2019-07-24 11:19:02:519
-0.670505940914154,0.19837866723537445,9.667415618896484,0.03011438894466793,-0.011252206185775155,-0.0021936486507158457,-103.19364530932903,-85.6671042928494,0,0.3665628433227539,2019-07-24 11:19:02:523
1.17345130443573,-0.6397837400436401,10.050575256347656,-0.056992246538940965,-0.03549288827624594,0.024710847576464762,-104.5897166371601,-87.46988770507005,0,0.3700089454650879,2019-07-24 11:19:02:526
0.560395359992981,0.02356194145977497,9.528519630432129,0.02665143272556206,-0.0005969601719460336,-0.010717844993645358,-106.03052993796874,-82.12670909790307,0,0.3722712993621826,2019-07-24 11:19:02:529
0.7136593461036682,0.10498343408107758,9.593177795410156,0.00267713046230887,-0.017112590992738094,0.012190933019325256,-107.4206993558951,-76.89736080312831,0,0.3765687942504883,2019-07-24 11:19:02:533
0.007208196446299553,-0.48173025250434875,9.88773250579834,-0.025026509147639413,-0.021108308426725113,0.017784937218847625,-108.86736161678509,-78.89878142391362,0,0.3800182342529297,2019-07-24 11:19:02:536
1.4823739528656006,0.08582543581724167,9.44230842590332,0.013865138601279277,0.004997043637464845,-0.0037919356763255183,-110.11220757289338,-73.73298905364221,0,0.38228893280029297,2019-07-24 11:19:02:539
-0.16760852932929993,-0.18957078456878662,10.06015396118164,-0.02609203365799631,-0.020042783916368215,0.031103994638606153,-104.3242335705528,-75.83046405933122,0,0.38657164573669434,2019-07-24 11:19:02:543
0.8956603407859802,-0.18238653242588043,9.851811408996582,0.00027970021647797646,-0.013383255206488951,0.01059264625378991,-105.73127292915562,-77.89269684744438,0,0.39000844955444336,2019-07-24 11:19:02:546
1.250083327293396,-0.009964553639292717,9.612336158752441,0.017860856035266295,-0.010719443930596706,0.0007365438828027872,-107.06708972211383,-79.93592651655645,0,0.3922734260559082,2019-07-24 11:19:02:549
-0.2993197739124298,-0.11772829294204712,10.002679824829102,0.004009036100254992,-0.037091176082078584,0.017252174963669174,-101.35105246464373,-81.9246916872139,0,0.39658308029174805,2019-07-24 11:19:02:553
-0.14605578780174255,-0.49609872698783875,9.966758728027344,-0.010641926177226684,-0.04055413022058986,0.014321982040039054,-95.73296478661388,-83.82714451758781,0,0.40003395080566406,2019-07-24 11:19:02:556
1.3746103048324585,-0.029122551903128624,9.473440170288086,-0.005580684753031417,-0.016047066482381196,0.013789219784860604,-97.2511415017967,-85.7463686850646,0,0.4023005962371826,2019-07-24 11:19:02:559
0.043129440397024155,-0.2685975134372711,9.87096881866455,-0.023960984637282516,-0.01791173489565442,0.032435899756403624,-98.89576289078539,-87.59311224765784,0,0.40761899948120117,2019-07-24 11:19:02:564
0.6992908716201782,-0.4577827453613281,9.878152847290039,-0.025292889755079987,-0.016047066482381196,0.018317698433728772,-100.43471794611892,-89.38480430892973,0,0.40999794006347656,2019-07-24 11:19:02:566
0.6058956384658813,-0.08899129182100296,9.715310096740723,0.018926380545623196,-0.0019288658098921565,-0.013115275662097027,-101.95440652797258,-91.18901044832604,0,0.41225481033325195,2019-07-24 11:19:02:569
0.19639341533184052,-0.0003855547111015767,9.839837074279785,-0.02023164781073607,-0.01737897264047597,0.02870656292985718,-103.48824112539371,-92.96028549061681,0,0.4165680408477783,2019-07-24 11:19:02:573
0.24428841471672058,-0.16801802814006805,9.796731948852539,-0.0018513489667822737,-0.005924583113842013,0.008195216105486888,-104.98876351786242,-94.68107114049317,0,0.42000842094421387,2019-07-24 11:19:02:576
0.7639490962028503,-0.23986051976680756,9.770389556884766,0.0016116059519519711,-0.0011297224271244826,-0.0021936486507158457,-106.39942735784909,-96.35952801053429,0,0.4222691059112549,2019-07-24 11:19:02:579
0.24668316543102264,0.16485217213630676,9.882943153381348,-0.006379828135799091,-0.013383255206488951,0.025509989398786483,-107.83960803877864,-90.84990839548001,0,0.4265727996826172,2019-07-24 11:19:02:583
0.5005266070365906,-0.043491050601005554,9.988311767578125,0.004009036100254992,-0.026968694273985357,0.010859026861230484,-109.22021898750519,-92.628696944082,0,0.4300210475921631,2019-07-24 11:19:02:586
0.8142388463020325,-0.31888726353645325,10.086496353149414,-0.004515160242674519,-0.04241880071445769,0.004732260926678319,-110.53811355210273,-94.33933223142633,0,0.43228673934936523,2019-07-24 11:19:02:589
0.043129440397024155,0.09300968050956726,9.926048278808594,-0.00398239798749607,-0.047213659970766424,0.01645303106075285,-111.91102868846353,-88.86232599357022,0,0.436565637588501,2019-07-24 11:19:02:593
0.30655190348625183,0.13850992918014526,9.686573028564453,0.008004753274167687,-0.035759270964281116,0.0159202688055744,-113.22962830118387,-83.50301461556381,0,0.4400155544281006,2019-07-24 11:19:02:596
0.5340531468391418,-0.0794122964143753,9.516546249389648,0.010135802815030133,-0.02030916452380879,0.010059883998611461,-114.49820787039546,-85.42468404095798,0,0.44228529930114746,2019-07-24 11:19:02:599
-0.009555051103234291,-0.10335978865623474,9.650651931762695,-0.011174689472702434,-0.014715160324286424,0.01991598623956142,-108.60583572694092,-87.30122770685179,0,0.44657278060913086,2019-07-24 11:19:02:603
0.3281046450138092,0.011588193476200104,9.722494125366211,0.006140085381043115,-0.00512543973107434,0.013789219784860604,-109.99405839828687,-81.95777185425783,0,0.4500617980957031,2019-07-24 11:19:02:606
0.4837633967399597,-0.10335978865623474,9.708126068115234,0.004808179743096991,-0.005924583113842013,0.011658170764146809,-111.33636908982763,-83.90702812048957,0,0.45232677459716797,2019-07-24 11:19:02:609
0.0790506899356842,-0.22070252895355225,9.847021102905273,-0.016502312024486928,-0.012584111303572627,0.019116842336645096,-112.69806272021022,-85.80008737995874,0,0.45569491386413574,2019-07-24 11:19:02:612
0.10060343146324158,-0.0003855547111015767,9.69854736328125,0.00027970021647797646,-0.003260771577875442,0.0169857933159313,-114.0315705149597,-87.68409538249733,0,0.4592163562774658,2019-07-24 11:19:02:616
0.14610368013381958,0.011588193476200104,9.679388999938965,0.006406466508632338,-6.419785581266445e-05,0.0169857933159313,-115.33363136050845,-82.33300828321805,0,0.462615966796875,2019-07-24 11:19:02:619
-0.07181854546070099,-0.13449153304100037,9.820679664611816,-0.002650492349549947,-0.005924583113842013,0.019383222944085673,-109.4340211797313,-84.27006669524697,0,0.46657633781433105,2019-07-24 11:19:02:623
0.3137361705303192,-0.07222804427146912,9.741652488708496,0.004541798615507767,-0.0021952470675185437,0.012190933019325256,-110.80805696342419,-86.17697947947842,0,0.4697532653808594,2019-07-24 11:19:02:626
0.35923638939857483,-0.04588579759001732,9.66981029510498,0.006140085381043115,-0.0011297224271244826,0.013256457529682155,-112.14919729241939,-88.04880114528147,0,0.47207045555114746,2019-07-24 11:19:02:628
-0.004765552002936602,-0.10096504539251328,9.708126068115234,-0.006912590911126191,-0.0011297224271244826,0.013789219784860604,-106.30649092461886,-89.87416451255766,0,0.4765622615814209,2019-07-24 11:19:02:633
0.22752517461776733,-0.06743854284286499,9.504571914672852,0.00267713046230887,0.017250576026717826,0.010326264606052035,-107.75601669264172,-91.66902892714575,0,0.47974395751953125,2019-07-24 11:19:02:636
0.12934042513370514,-0.1057545393705368,9.528519630432129,0.004275417227844217,0.027639440522846233,0.008994359488254562,-109.18894433516557,-93.42348778699991,0,0.48206472396850586,2019-07-24 11:19:02:638
-0.01673929952085018,-0.17280752956867218,9.756021499633789,-0.007978115421483089,0.03776192649212867,0.008727977840516687,-103.41669765521358,-95.13270159450595,0,0.4865763187408447,2019-07-24 11:19:02:643
0.2035776674747467,-0.07701754570007324,9.813494682312012,-0.0015849678391930489,0.04362230817819971,0.00206844952074891,-104.93238634294583,-96.82077138449537,0,0.48975706100463867,2019-07-24 11:19:02:646
0.2299199253320694,-0.0602542981505394,9.68896770477295,0.0016116059519519711,0.03909383160992614,0.0028675930335537465,-106.41174483922114,-98.47744387300074,0,0.4921231269836426,2019-07-24 11:19:02:648
0.13412992656230927,-0.12970203161239624,9.87096881866455,-0.0029168734771391714,0.032167921252309,0.00419949867149987,-107.87594796202033,-100.09211267189531,0,0.49655675888061523,2019-07-24 11:19:02:653
0.26584115624427795,-0.08899129182100296,9.794337272644043,0.00267713046230887,0.024709247599216114,-0.0024600297783050704,-109.29172865060872,-101.68033508217938,0,0.4997243881225586,2019-07-24 11:19:02:656
0.3855786621570587,-0.13449153304100037,9.849416732788086,0.007205609891400012,0.026840296619929913,-0.0005953618851804982,-110.66453521848712,-103.23201580035331,0,0.5020320415496826,2019-07-24 11:19:02:658
0.34486791491508484,-0.06504379957914352,9.801521301269531,0.005873704253453889,0.018316100537074723,-0.0016608863955373968,-112.0156495472755,-104.76128085557896,0,0.5066094398498535,2019-07-24 11:19:02:663
0.32570990920066833,-0.19196553528308868,9.892521858215332,0.008271134401756912,0.02097991285326427,-0.008320414845342336,-113.34136214659833,-106.24529628870734,0,0.5097851753234863,2019-07-24 11:19:02:666
0.45502638816833496,-0.19914977252483368,9.85899543762207,0.005873704253453889,0.014054002495647132,-0.00858679597293156,-114.62350683780129,-107.6980078727407,0,0.5120944976806641,2019-07-24 11:19:02:668
0.2754201591014862,-0.18957078456878662,9.815889358520508,-0.0010522055189960183,0.02257819857850232,-0.00858679597293156,-115.90456482196561,-109.12165545233053,0,0.5165688991546631,2019-07-24 11:19:02:673
0.45023688673973083,-0.18238653242588043,9.787153244018555,0.0021443682071304202,0.024709247599216114,-0.011516988896561683,-117.13819740071565,-110.51825236750953,0,0.5197417736053467,2019-07-24 11:19:02:676
0.4717896282672882,-0.1057545393705368,9.80870532989502,0.0034762738450765432,0.026307535405048762,-0.012848894014359152,-118.34378058871513,-111.89598508288434,0,0.5220584869384766,2019-07-24 11:19:02:678
0.7088698744773865,-0.14407053589820862,9.77996826171875,0.005607323125864665,0.023110961873978066,-0.011516988896561683,-119.49985765960785,-113.2426090858767,0,0.5265786647796631,2019-07-24 11:19:02:683
0.8166335821151733,-0.27338701486587524,10.009864807128906,0.004275417227844217,0.017783339322193576,-0.017643754310965196,-120.61976464300946,-114.54723335459204,0,0.5297679901123047,2019-07-24 11:19:02:686
0.809449315071106,-0.2829660177230835,10.017048835754395,-0.0023841112219607223,0.004197900514771496,-0.01711099309608405,-121.71551856154278,-115.82361651229766,0,0.5320870876312256,2019-07-24 11:19:02:688
0.8357915878295898,-0.16083379089832306,10.062548637390137,0.001877987079541196,-0.01098582453803728,-0.022704996255309112,-122.78339869866079,-117.08931698777508,0,0.5367043018341064,2019-07-24 11:19:02:693
0.8190283179283142,-0.15364953875541687,10.064943313598633,0.003742654972665768,-0.011784968440953605,-0.01844289821388152,-123.83223446135105,-118.33081773432458,0,0.5404114723205566,2019-07-24 11:19:02:697
0.7088698744773865,-0.16322852671146393,9.89970588684082,0.001877987079541196,-0.020841927819284543,-0.017377373703524622,-124.87058660088769,-119.54558736897572,0,0.5430514812469482,2019-07-24 11:19:02:699
0.7543700933456421,-0.08420179039239883,9.787153244018555,0.005340941998275441,-0.018444496110535568,-0.016045468585727148,-125.88112639015074,-120.74594605578314,0,0.5468156337738037,2019-07-24 11:19:02:703
0.7088698744773865,-0.014754053205251694,9.772784233093262,0.009603040559851684,-0.01098582453803728,-0.012848894014359152,-126.87802857695787,-121.93148377299973,0,0.5508708953857422,2019-07-24 11:19:02:707
0.5340531468391418,-0.0865965411067009,9.585993766784668,0.006140085381043115,-0.007789251006966585,-0.014713562427632377,-127.87557557345824,-123.08338333088929,0,0.5534255504608154,2019-07-24 11:19:02:710
0.5891323685646057,-0.12970203161239624,9.645862579345703,0.004275417227844217,0.002066851233983375,-0.013381656269537603,-128.84864298302043,-124.2073015482162,0,0.5575635433197021,2019-07-24 11:19:02:714
0.6561853885650635,-0.05307004973292351,9.720099449157715,0.0016116059519519711,0.011123810612314312,-0.01204975115174013,-129.79677447243208,-125.31723892686091,0,0.56131911277771,2019-07-24 11:19:02:718
0.7112646102905273,-0.04588579759001732,9.71052074432373,0.004009036100254992,0.013521240240468682,-0.008853177620669435,-130.71971137742233,-126.40626723830529,0,0.5648193359375,2019-07-24 11:19:02:721
0.8262125849723816,-0.09378079324960709,9.80870532989502,-0.0023841112219607223,0.010857428964576437,-0.011250607248823808,-131.61116073613474,-127.46671631339821,0,0.5683290958404541,2019-07-24 11:19:02:725
0.7926861047744751,-0.12491253763437271,9.981127738952637,0.0010788436317549408,-0.0005969601719460336,-0.011250607248823808,-132.48804184463282,-128.5031852509589,0,0.5706980228424072,2019-07-24 11:19:02:727
0.756764829158783,-0.112938791513443,9.923653602600098,0.0010788436317549408,-0.012850492951310502,-0.011516988896561683,-133.3493725472053,-129.5202226962,0,0.5730419158935547,2019-07-24 11:19:02:729
0.7208436131477356,-0.16801802814006805,9.77996826171875,0.0008124625041657164,-0.02190745232964144,-0.008320414845342336,-134.19377385013868,-130.510293133144,0,0.5765397548675537,2019-07-24 11:19:02:733
0.5196846127510071,-0.17280752956867218,9.801521301269531,0.005340941998275441,-0.026435930978509607,-0.012848894014359152,-135.0444332497302,-131.4808486930859,0,0.579749584197998,2019-07-24 11:19:02:736
-0.47413650155067444,-0.3140977621078491,9.844626426696777,0.009869421167292258,-0.024571262565236385,-0.017377373703524622,-128.7949777833823,-132.4161747795119,0,0.5824413299560547,2019-07-24 11:19:02:739
0.7328173518180847,-0.029122551903128624,9.449493408203125,-0.0031832546047283966,0.005529806412791945,0.0028675930335537465,-129.73166031723403,-133.36358776993825,0,0.586536169052124,2019-07-24 11:19:02:743
0.19878816604614258,0.11456242948770523,9.36088752746582,0.032511818572822294,0.026840296619929913,-0.013115275662097027,-130.71748466006684,-127.11613996573249,0,0.5897135734558105,2019-07-24 11:19:02:746
-0.22987201809883118,-0.39791399240493774,9.638678550720215,-0.012772976238237782,0.00526342476505407,0.001002925010392012,-124.53114331279657,-128.12487558107838,0,0.5920302867889404,2019-07-24 11:19:02:748
0.7328173518180847,-0.036306798458099365,9.494993209838867,0.009603040559851684,0.027639440522846233,-0.010717844993645358,-125.55929133613904,-129.16044126504516,0,0.596564531326294,2019-07-24 11:19:02:753
0.20836716890335083,-0.04828054830431938,9.533308982849121,0.013865138601279277,0.040425736727723614,-0.004591079059093192,-126.63027697527026,-130.173903169482,0,0.5997424125671387,2019-07-24 11:19:02:756
0.035945191979408264,-0.3069135248661041,9.72728443145752,-0.012240213983059332,0.02657391601248934,0.00020378157886040212,-127.69690800650397,-131.13268257475823,0,0.6020686626434326,2019-07-24 11:19:02:758
-0.11492403596639633,-0.4649669826030731,9.890127182006836,-0.0178342181825817,0.031635157956833256,-0.0037919356763255183,-121.56424423199428,-132.05170828780416,0,0.6065495014190674,2019-07-24 11:19:02:763
0.6968961358070374,0.0834306851029396,9.775178909301758,0.029315245041751606,0.043355929651353736,-0.016311849193167725,-122.65913915060933,-125.82568555379973,0,0.6097276210784912,2019-07-24 11:19:02:766
-0.1173187866806984,-0.3236767649650574,9.91646957397461,0.013065994698362955,0.010591048357135861,-0.014180800172453928,-116.6208910038328,-126.8734824280327,0,0.6120452880859375,2019-07-24 11:19:02:768
1.6404274702072144,-0.5296252369880676,10.043391227722168,-0.012506594590499907,-0.029099743294699155,-0.024569664668582333,-117.69556378738044,-127.87246823536131,0,0.6165623664855957,2019-07-24 11:19:02:773
0.10060343146324158,0.3396688997745514,9.88773250579834,0.007471991018989237,-0.0442834670471363,-0.01204975115174013,-118.92208535829589,-121.7557029124003,0,0.6197428703308105,2019-07-24 11:19:02:776
-0.40947824716567993,0.028351441025733948,9.885337829589844,0.0010788436317549408,-0.04508261095005262,0.003933117543910645,-112.98519854069367,-115.72401619533402,0,0.6220676898956299,2019-07-24 11:19:02:778
0.9555290937423706,-0.029122551903128624,9.375255584716797,0.010668565070208582,0.013521240240468682,-0.010451464386204784,-114.2125178895944,-117.00866963682256,0,0.6265637874603271,2019-07-24 11:19:02:783
-0.9411126971244812,-0.33804526925086975,9.918864250183105,0.024254003097407686,0.023377342481418643,-0.020041186019714167,-108.44084076618665,-118.2337858276664,0,0.6297421455383301,2019-07-24 11:19:02:786
0.24189366400241852,-0.3883350193500519,10.033811569213867,-0.041808520705909215,-0.0064573453690204615,0.013256457529682155,-109.84355907536873,-119.41931346670657,0,0.6320717334747314,2019-07-24 11:19:02:788
0.5148951411247253,0.08582543581724167,9.775178909301758,0.039970490145320586,0.010058286101957413,-0.03282748014399695,-111.18891624039352,-113.45105093926732,0,0.6365554332733154,2019-07-24 11:19:02:793
0.49573713541030884,-0.01954355277121067,9.835047721862793,-0.03674727876156529,-0.0019288658098921565,0.025509989398786483,-112.5070832679088,-114.77321000634528,0,0.6397264003753662,2019-07-24 11:19:02:796
0.3927628993988037,0.08582543581724167,9.370466232299805,-0.014904025258951578,-0.004059914960643116,0.014321982040039054,-113.80841011127339,-108.88630075840044,0,0.6420450210571289,2019-07-24 11:19:02:798
-0.9554811716079712,-0.3691770136356354,10.096075057983398,-0.024760126459604237,-0.009653919420239807,0.010859026861230484,-108.03791908256484,-110.26041042020032,0,0.6465628147125244,2019-07-24 11:19:02:803
1.1159772872924805,0.24627366662025452,9.75123119354248,0.006672847636221563,0.009791904454219538,0.013256457529682155,-109.34832926007854,-104.48532571309599,0,0.649735689163208,2019-07-24 11:19:02:806
-0.6729007363319397,-0.2494395226240158,9.933232307434082,0.05888355280489878,0.010324666709397986,-0.02297137894334429,-103.64021823395694,-105.97453128134913,0,0.6520590782165527,2019-07-24 11:19:02:808
1.278820276260376,-0.733178973197937,10.371471405029297,-0.05379567092727567,-0.046414516067850096,0.01858408112176395,-105.01510752554111,-107.36058148539544,0,0.6565570831298828,2019-07-24 11:19:02:813
0.7352120876312256,0.5671701431274414,9.600362777709961,0.044498970874783356,-0.013383255206488951,-0.0024600297783050704,-106.42483836262272,-101.6889090898083,0,0.659726619720459,2019-07-24 11:19:02:816
-0.04308154806494713,-0.07462279498577118,9.938021659851074,0.005340941998275441,-0.03868946388791124,0.012723695274503706,-100.69627473347191,-103.24722157921511,0,0.6620440483093262,2019-07-24 11:19:02:818
-0.1819770336151123,-0.6349942088127136,9.832653045654297,-0.02289546012692562,-0.025104025860712136,0.01352283917742003,-95.0971811550702,-104.70256349407671,0,0.6665656566619873,2019-07-24 11:19:02:823
0.7831071019172668,0.11935193091630936,9.494993209838867,0.028249720531394705,0.01272209737784966,-0.00805403371775311,-96.7033563761386,-99.0282797679451,0,0.6699473857879639,2019-07-24 11:19:02:826
-0.5340052247047424,-0.21591302752494812,10.141575813293457,-0.005047922497852969,-0.006990107624198911,0.02124789135735889,-91.22867684733924,-100.62267513110193,0,0.6722276210784912,2019-07-24 11:19:02:829
1.029766321182251,-0.27338701486587524,9.923653602600098,0.00027970021647797646,-0.021108308426725113,0.01458836368777693,-92.88051022067907,-102.17872841879576,0,0.6765363216400146,2019-07-24 11:19:02:833
1.2357147932052612,0.061877936124801636,9.81828498840332,0.00027970021647797646,-0.03789031998499492,0.02391170367354844,-94.47267616765805,-96.54242554124825,0,0.6797113418579102,2019-07-24 11:19:02:836
-0.01673929952085018,0.013982943259179592,10.050575256347656,-0.0013185867116038243,-0.05200851922707516,0.03563247536806892,-88.9782766215183,-91.01299750825795,0,0.682058572769165,2019-07-24 11:19:02:838
-0.5986634492874146,-0.5080724954605103,10.069733619689941,-0.02236269683144987,-0.05840166628921655,0.03456694877711742,-83.65199043657019,-92.72931434849774,0,0.6865618228912354,2019-07-24 11:19:02:843
0.8980550765991211,0.12653617560863495,9.312992095947266,0.029315245041751606,-0.014182398069107975,0.014321982040039054,-85.46625648798083,-87.29553394770372,0,0.6897435188293457,2019-07-24 11:19:02:846
-0.5555579662322998,-0.06983329355716705,9.748836517333984,0.03597477479192817,-0.009653919420239807,0.021780654652834644,-80.2209026227541,-89.14611246712496,0,0.6920690536499023,2019-07-24 11:19:02:848
0.7304226160049438,-0.40270349383354187,9.878152847290039,-0.013838500748594681,-0.02776783609630708,0.02098151074991832,-82.12490382531546,-90.91301090713219,0,0.6965599060058594,2019-07-24 11:19:02:853
0.6825276017189026,0.10737818479537964,9.638678550720215,0.015996187621993074,-0.016846210385297523,0.011391789116408934,-83.99839838500957,-85.51036352231932,0,0.6997301578521729,2019-07-24 11:19:02:856
0.36402589082717896,0.10737818479537964,9.724889755249023,-0.018899742692938596,-0.018710878798570744,0.04362390607485375,-85.87311984836916,-80.21034764571955,0,0.7020490169525146,2019-07-24 11:19:02:858
0.42389464378356934,-0.23507101833820343,9.641073226928711,-0.004515160242674519,-0.00459267747589589,0.014854744295217503,-87.70414244339263,-82.17706158067195,0,0.7065639495849609,2019-07-24 11:19:02:863
0.7304226160049438,-0.12970203161239624,9.7392578125,-0.007711734293893865,-0.0021952470675185437,0.013789219784860604,-89.46388767786243,-84.11688565540523,0,0.7097392082214355,2019-07-24 11:19:02:866
0.20118291676044464,0.2750106453895569,9.847021102905273,-0.004781541370263744,-0.012584111303572627,0.032435899756403624,-91.24953554262072,-78.86591022993284,0,0.7120964527130127,2019-07-24 11:19:02:868
0.68971186876297,-0.1320967823266983,10.115233421325684,0.0069392287638107885,-0.04241880071445769,0.02284617916319154,-92.93592814183452,-80.87536261663287,0,0.716547966003418,2019-07-24 11:19:02:873
0.924397349357605,-0.22549203038215637,10.100865364074707,-0.008244496549072314,-0.06266376849183336,0.02124789135735889,-94.56144980167124,-82.83080713980878,0,0.7197256088256836,2019-07-24 11:19:02:876
0.27781492471694946,0.08582543581724167,9.885337829589844,-0.008244496549072314,-0.06399567360963082,0.031103994638606153,-96.22969230241726,-77.58306623100741,0,0.7220444679260254,2019-07-24 11:19:02:878
0.6250536441802979,0.12414143234491348,9.626704216003418,0.002410749334719645,-0.04348432314421998,0.026575513909143384,-97.819775016099,-72.44679246197214,0,0.7265596389770508,2019-07-24 11:19:02:883
0.4406578838825226,-0.09857029467821121,9.605152130126953,0.0050745608706862155,-0.0296325045095803,0.01352283917742003,-99.40555021226751,-74.58700408973614,0,0.7297418117523193,2019-07-24 11:19:02:886
0.13412992656230927,-0.002780304290354252,9.672204971313477,-0.012772976238237782,-0.028034218784342254,0.02870656292985718,-100.99789638423589,-76.69327032634163,0,0.7320623397827148,2019-07-24 11:19:02:888
0.3400784134864807,0.1361151784658432,9.497387886047363,0.004275417227844217,-0.012850492951310502,0.019383222944085673,-102.53368433783464,-71.57690458243191,0,0.7365515232086182,2019-07-24 11:19:02:893
0.33049941062927246,-0.08180704712867737,9.756021499633789,-0.008777258804250763,-0.013116873558751076,0.023645323066107865,-104.04186925410525,-73.73419427614243,0,0.7397241592407227,2019-07-24 11:19:02:896
-0.17239803075790405,-0.08180704712867737,9.744047164916992,-0.021297172321092968,-0.013116873558751076,0.024178084280989016,-98.3795979306488,-75.84711985866412,0,0.7420406341552734,2019-07-24 11:19:02:898
0.3472626507282257,0.13132567703723907,9.540493965148926,-0.0010522055189960183,0.0031323757443402728,0.01858408112176395,-99.97111144373902,-70.7456823532075,0,0.7465722560882568,2019-07-24 11:19:02:903
0.31134140491485596,0.128930926322937,9.665020942687988,0.0005460813765764917,0.00526342476505407,0.020715130142477743,-101.5357277533547,-65.74615172311614,0,0.7497508525848389,2019-07-24 11:19:02:906
0.25865691900253296,0.05708843842148781,9.801521301269531,-0.006113447008209866,-0.0008633412995352583,0.023645323066107865,-103.07466762286741,-60.83710637162116,0,0.7520713806152344,2019-07-24 11:19:02:908
0.6011061072349548,0.01637769304215908,9.837442398071289,-0.0002530620874644087,-0.00805563213455581,0.019383222944085673,-104.54120492415697,-56.02220802830101,0,0.7565734386444092,2019-07-24 11:19:02:913
0.5795533657073975,-0.002780304290354252,9.847021102905273,-0.003449635732317621,-0.013383255206488951,0.019649605632120846,-105.98062930187253,-58.50082542053692,0,0.7597479820251465,2019-07-24 11:19:02:916
0.27302542328834534,-0.165623277425766,9.921258926391602,-0.007178972038715416,-0.017645354288213844,0.023645323066107865,-107.42718915991034,-60.910744956650014,0,0.7620701789855957,2019-07-24 11:19:02:918
0.560395359992981,-0.06983329355716705,9.85899543762207,-0.006912590911126191,-0.013116873558751076,0.0169857933159313,-108.81027562686901,-63.282671833855474,0,0.7665572166442871,2019-07-24 11:19:02:923
0.4191051423549652,-0.04828054830431938,9.770389556884766,-0.0010522055189960183,-0.013116873558751076,0.017784937218847625,-110.18261005133976,-65.6111685230218,0,0.769728422164917,2019-07-24 11:19:02:926
0.33289414644241333,-0.10096504539251328,9.880548477172852,-0.00851087767666154,-0.02323935744743891,0.01991598623956142,-111.53734260666666,-67.88612927907842,0,0.7720441818237305,2019-07-24 11:19:02:928
0.5939218997955322,-0.06504379957914352,9.81828498840332,-0.002650492349549947,-0.029366123902139725,0.011658170764146809,-112.82992327680375,-70.12014398505451,0,0.7765555381774902,2019-07-24 11:19:02:933
0.5412373542785645,-0.050675299018621445,9.799126625061035,-0.004781541370263744,-0.0306980290199372,0.017784937218847625,-114.10461424070985,-72.31096124823087,0,0.7797360420227051,2019-07-24 11:19:02:936
0.33289414644241333,-0.2230972796678543,9.813494682312012,-0.004248779115085295,-0.03149717292285352,0.017784937218847625,-115.37950282949402,-74.43813412710047,0,0.7820894718170166,2019-07-24 11:19:02:938
0.39036813378334045,-0.165623277425766,9.741652488708496,-0.0029168734771391714,-0.021641069641606264,0.016719412708490724,-116.62060484185258,-76.52916134546072,0,0.7865443229675293,2019-07-24 11:19:02:943
0.39755240082740784,-0.09378079324960709,9.720099449157715,-0.0005194432313082785,-0.01098582453803728,0.011658170764146809,-117.83939190513044,-78.58742989218628,0,0.7897200584411621,2019-07-24 11:19:02:946
0.2634464204311371,-0.211123526096344,9.81828498840332,-0.007445353166304639,-0.012584111303572627,0.017252174963669174,-119.0502269986075,-80.59007584308995,0,0.792036771774292,2019-07-24 11:19:02:948
0.46939489245414734,-0.21591302752494812,9.815889358520508,-0.0031832546047283966,-0.020042783916368215,0.010859026861230484,-120.20936993089954,-82.55226304514231,0,0.7965655326843262,2019-07-24 11:19:02:953
0.43107888102531433,-0.17999178171157837,9.820679664611816,-0.006113447008209866,-0.02377211866232006,0.010326264606052035,-121.35009059695224,-84.47897734600747,0,0.8001797199249268,2019-07-24 11:19:02:957
0.31134140491485596,-0.14886003732681274,9.89970588684082,-0.006113447008209866,-0.02323935744743891,0.011924551371587381,-122.48400826886324,-86.37136481913855,0,0.8025200366973877,2019-07-24 11:19:02:959
0.40952613949775696,-0.15604428946971893,9.763205528259277,-0.0031832546047283966,-0.020042783916368215,0.006596928819802891,-123.58174241638612,-88.22490179825407,0,0.806560754776001,2019-07-24 11:19:02:963
0.33768364787101746,-0.12491253763437271,9.803915977478027,-0.002117730094371498,-0.020042783916368215,0.007129691074981339,-124.6670814402379,-90.04542691398332,0,0.8097348213195801,2019-07-24 11:19:02:966
0.3017624020576477,-0.1392810344696045,9.837442398071289,-0.0029168734771391714,-0.02137468903416569,0.0031339741611429712,-125.7358200883834,-91.82791593464133,0,0.8120510578155518,2019-07-24 11:19:02:968
0.28020966053009033,-0.1775970309972763,9.756021499633789,-0.0018513489667822737,-0.021108308426725113,-0.0016608863955373968,-126.78285477913168,-93.57003103809532,0,0.8165609836578369,2019-07-24 11:19:02:973
0.24189366400241852,-0.16322852671146393,9.720099449157715,-0.005580684753031417,-0.016047066482381196,-0.0029927920334835195,-127.81582256946348,-95.27839304205592,0,0.8197393417358398,2019-07-24 11:19:02:976
0.22752517461776733,-0.09617554396390915,9.655441284179688,-0.005847065880620643,-0.00805563213455581,-0.003259173161072744,-128.8314583994574,-96.96064935360573,0,0.8220603466033936,2019-07-24 11:19:02:978
0.32570990920066833,-0.07701754570007324,9.657835960388184,-0.0037160168599068453,0.0036651382595930477,-0.005390222441860866,-129.81712293105588,-98.61136049240856,0,0.8265550136566162,2019-07-24 11:19:02:983
0.2969729006290436,-0.036306798458099365,9.612336158752441,-0.002650492349549947,0.007394474305916517,-0.008853177620669435,-130.7867064641045,-100.2343327158876,0,0.8297288417816162,2019-07-24 11:19:02:986
0.3472626507282257,-0.06983329355716705,9.72728443145752,-0.0010522055189960183,0.004464281382286396,-0.008853177620669435,-131.73066104869514,-101.82128275341769,0,0.8320441246032715,2019-07-24 11:19:02:988
0.44305264949798584,-0.1320967823266983,9.832653045654297,-0.003449635732317621,-0.0021952470675185437,-0.015246324682810826,-132.64389117857854,-103.36858735461081,0,0.8365659713745117,2019-07-24 11:19:02:993
0.42149990797042847,-0.10096504539251328,9.91646957397461,-0.00398239798749607,-0.005658201986252788,-0.013914418524716053,-133.54132492626775,-104.88883756279171,0,0.8397467136383057,2019-07-24 11:19:02:996
0.5196846127510071,-0.158439040184021,9.873363494873047,-0.0031832546047283966,-0.010719443930596706,-0.015779086937989274,-134.40883759021006,-106.37225765508235,0,0.8420746326446533,2019-07-24 11:19:02:998
0.47418439388275146,-0.08420179039239883,9.756021499633789,0.0016116059519519711,-0.015780684834643323,-0.014979944075370252,-135.261031921867,-107.83532871735548,0,0.8465621471405029,2019-07-24 11:19:03:003
0.39036813378334045,-0.06983329355716705,9.720099449157715,0.0005460813765764917,-0.016313447089821773,-0.016311849193167725,-136.106911034074,-109.27048675131456,0,0.8497323989868164,2019-07-24 11:19:03:006
0.43107888102531433,-0.07701754570007324,9.621914863586426,-0.003449635732317621,-0.015780684834643323,-0.015512706330548702,-136.9314000553053,-110.67545279401394,0,0.8520662784576416,2019-07-24 11:19:03:008
0.3137361705303192,-0.0794122964143753,9.770389556884766,-0.0002530620874644087,-0.002461628195107768,-0.016578230840905598,-137.75536776446458,-112.05256631701164,0,0.856555700302124,2019-07-24 11:19:03:013
0.31134140491485596,-0.0794122964143753,9.605152130126953,-0.006646209783536966,0.00020218329209486678,-0.014979944075370252,-138.56316571058457,-113.40085743706142,0,0.8597276210784912,2019-07-24 11:19:03:016
0.3544468879699707,-0.08180704712867737,9.662626266479492,-0.005580684753031417,0.003398757132003823,-0.01897566150935727,-139.35032840996843,-114.72241315877653,0,0.8620433807373047,2019-07-24 11:19:03:018
0.29218339920043945,-0.17999178171157837,9.638678550720215,0.002410749334719645,0.01272209737784966,-0.03149557502619948,-140.13182337708184,-116.0071803019186,0,0.8665618896484375,2019-07-24 11:19:03:023
-0.2921355068683624,-0.347624272108078,9.892521858215332,-0.010641926177226684,0.023110961873978066,-0.02883176271000993,-133.76714245804976,-117.24488603009769,0,0.8697409629821777,2019-07-24 11:19:03:026
0.7471858263015747,-0.06504379957914352,9.60754680633545,-0.022096316224009295,0.035897255998260845,-0.010451464386204784,-134.60754015171995,-118.48934962914365,0,0.8720629215240479,2019-07-24 11:19:03:028
0.4598158895969391,0.19837866723537445,9.66023063659668,0.02238933468413446,0.04015935403968844,-0.0322947189291158,-135.47100584251865,-112.5487332127393,0,0.8765506744384766,2019-07-24 11:19:03:033
0.4382631480693817,-0.5631517171859741,10.215812683105469,-0.042607664608825535,-0.002461628195107768,-0.006455746952217765,-136.31201750828367,-113.82707155132302,0,0.8797197341918945,2019-07-24 11:19:03:036
0.9172130823135376,-0.1512547880411148,9.854206085205078,-0.01090830782496456,0.00020218329209486678,-0.02084032784203589,-137.07945005373546,-115.13151917528165,0,0.8820436000823975,2019-07-24 11:19:03:038
0.43107888102531433,0.05708843842148781,9.760810852050781,0.004808179743096991,-0.0021952470675185437,-0.01684461144834617,-137.88672809954437,-109.23681155024681,0,0.8865649700164795,2019-07-24 11:19:03:043
-0.5531632304191589,-0.7020472288131714,9.894916534423828,-0.0029168734771391714,-0.003793533833053891,-0.026434333081855558,-131.59225044431415,-110.57034122162806,0,0.8900272846221924,2019-07-24 11:19:03:046
1.2620570659637451,-0.11533354222774506,9.712915420532227,-0.012240213983059332,0.007927236561094966,-0.014713562427632377,-132.4133603614103,-111.94375163889953,0,0.8923211097717285,2019-07-24 11:19:03:049
0.8932656049728394,0.2869844138622284,9.494993209838867,0.04902744744305692,0.027373059915405663,-0.03602405575566225,-133.26407973449514,-106.15109865866049,0,0.8965339660644531,2019-07-24 11:19:03:053
0.33289414644241333,-0.7499421834945679,10.234971046447754,-0.050332716788764394,-0.021108308426725113,0.005797785437035217,-134.15778016142565,-107.53529658576903,0,0.8997063636779785,2019-07-24 11:19:03:056
1.4177157878875732,-0.45538800954818726,9.775178909301758,-0.032751561327578275,-0.007256488751788136,-0.010717844993645358,-134.90863632992077,-108.92698324079709,0,0.9020240306854248,2019-07-24 11:19:03:058
0.13412992656230927,0.0834306851029396,9.504571914672852,0.0005460813765764917,0.012988477985290231,-0.013115275662097027,-135.79760104588763,-103.15864117813003,0,0.9065594673156738,2019-07-24 11:19:03:063
-0.5699265003204346,-0.5008882284164429,9.923653602600098,-0.0178342181825817,0.01991438834290737,-0.003525554548736294,-129.5509441647696,-104.63449357084687,0,0.9097397327423096,2019-07-24 11:19:03:066
1.920613169670105,-0.017148802056908607,9.339334487915039,-0.0007858243914067938,0.04175764184552109,-0.016311849193167725,-130.3329609239937,-106.1395970122239,0,0.9120643138885498,2019-07-24 11:19:03:068
0.06707693636417389,-0.11054404079914093,9.926048278808594,0.017328093780087848,0.021779056756180595,-0.01711099309608405,-131.32404555641216,-107.60840979542604,0,0.9165515899658203,2019-07-24 11:19:03:073
1.1782407760620117,-0.3332557678222656,10.127206802368164,-0.049000811670966926,-0.02616955037106903,0.0180513178262882,-132.16017609976873,-109.0098121796955,0,0.9197261333465576,2019-07-24 11:19:03:076
0.637027382850647,-0.20872877538204193,9.796731948852539,0.03517563088901184,-0.0021952470675185437,-0.03282748014399695,-133.04227949569122,-110.40977584555422,0,0.9220404624938965,2019-07-24 11:19:03:078
0.8166335821151733,-0.11054404079914093,9.772784233093262,-0.04287404313567151,-0.016047066482381196,0.03323504365931995,-133.8818258176544,-111.77773146418829,0,0.926563024520874,2019-07-24 11:19:03:083
-0.3903202414512634,-0.165623277425766,9.588388442993164,0.05275678426960337,0.003398757132003823,-0.024569664668582333,-127.65141763152535,-113.13180095211476,0,0.929741621017456,2019-07-24 11:19:03:086
0.48855289816856384,-0.6852839589118958,10.024232864379883,-0.011973832335321457,-0.013383255206488951,-0.0037919356763255183,-128.640586877594,-114.38916124869824,0,0.9324002265930176,2019-07-24 11:19:03:089
1.2668465375900269,0.04271994158625603,9.533308982849121,0.04663001989549715,0.024709247599216114,-0.011250607248823808,-129.5221247248844,-108.51734361352133,0,0.9365367889404297,2019-07-24 11:19:03:093
0.17005117237567902,-0.347624272108078,9.914074897766113,-0.0010522055189960183,0.0023332323615725993,0.0023348307783752974,-130.512445332717,-109.90664531747218,0,0.9397158622741699,2019-07-24 11:19:03:096
1.0608980655670166,-0.6445732116699219,9.878152847290039,-0.05459481483019199,-0.008322013262145034,0.014321982040039054,-131.37851716924717,-111.22676165833693,0,0.9420263767242432,2019-07-24 11:19:03:098
1.147109031677246,0.23908941447734833,9.363282203674316,0.019459141760504343,0.017250576026717826,-6.259956904712911e-05,-132.2156501305773,-105.43643840814009,0,0.946563720703125,2019-07-24 11:19:03:103
-0.6896639466285706,-0.39791399240493774,10.096075057983398,0.00027970021647797646,0.004197900514771496,0.006596928819802891,-126.05024272757285,-106.88261926043508,0,0.9497430324554443,2019-07-24 11:19:03:106
1.2357147932052612,-0.4146772623062134,9.815889358520508,-0.024493745852163663,-0.005924583113842013,0.013789219784860604,-126.98496143647861,-108.29339044882964,0,0.9520664215087891,2019-07-24 11:19:03:108
0.8525548577308655,0.01637769304215908,9.76799488067627,0.04876106891621095,0.017783339322193576,-0.012848894014359152,-127.94998041334605,-102.54173175343408,0,0.9565544128417969,2019-07-24 11:19:03:113
0.7663438320159912,-0.17041277885437012,10.074522972106934,-0.04021023290007656,-0.0296325045095803,0.035898853894914894,-128.8987037713875,-104.06435399181015,0,0.9597263336181641,2019-07-24 11:19:03:116
0.8142388463020325,-0.165623277425766,9.847021102905273,0.01173408958056548,-0.018444496110535568,0.008461597233076112,-129.8237885447974,-105.56532282800386,0,0.962045431137085,2019-07-24 11:19:03:118
1.8008756637573242,-0.024333052337169647,9.69854736328125,-0.008244496549072314,-0.032829078040650994,0.021514274045394067,-130.6085984819781,-107.04904916362615,0,0.9665648937225342,2019-07-24 11:19:03:123
-0.8237699270248413,-0.3164925277233124,9.902100563049316,0.022922097979610215,-0.03655841486719744,0.006064166564624441,-124.48500124894117,-108.47555315618432,0,0.9697492122650146,2019-07-24 11:19:03:126
0.8980550765991211,-0.4338352382183075,9.890127182006836,-0.02076441110621182,-0.03815670267303009,0.020182366847001993,-125.4865556726626,-109.85309954653599,0,0.9720723628997803,2019-07-24 11:19:03:128
0.9339763522148132,0.08822018653154373,9.413572311401367,0.05488783329031716,0.023377342481418643,-0.010185082738466909,-126.46940783376483,-104.08064183805486,0,0.9765713214874268,2019-07-24 11:19:03:133
0.24428841471672058,-0.17041277885437012,9.88773250579834,-0.021297172321092968,-0.00432629608823234,0.03323504365931995,-127.51094425512882,-105.57549112920962,0,0.9797408580780029,2019-07-24 11:19:03:136
0.7304226160049438,-0.42425626516342163,9.926048278808594,-0.019698886595854923,-0.004059914960643116,0.0169857933159313,-128.4760178701259,-107.01243514221224,0,0.9820892810821533,2019-07-24 11:19:03:138
0.8645285964012146,-0.007569803856313229,9.66981029510498,-0.0029168734771391714,-0.003260771577875442,0.007928834977897663,-129.403502302893,-108.47055909560136,0,0.9865481853485107,2019-07-24 11:19:03:143
-0.0837922915816307,-0.00517505407333374,9.847021102905273,-0.009043639411691338,-0.006990107624198911,0.02897294561789236,-123.22393728067537,-109.89893389517165,0,0.9897222518920898,2019-07-24 11:19:03:146
0.6753433346748352,-0.07701754570007324,9.542888641357422,0.003742654972665768,0.002599613489161824,0.011658170764146809,-124.27883532978338,-111.29219291073346,0,0.9920339584350586,2019-07-24 11:19:03:148
0.2969729006290436,-0.07701754570007324,9.717704772949219,0.006672847636221563,0.0015340889788049254,0.00952712174343301,-125.35864021277867,-112.65896306506404,0,0.9965598583221436,2019-07-24 11:19:03:153
0.35684165358543396,0.1959839165210724,9.770389556884766,0.0029435115898980946,-0.008322013262145034,0.028173801714976035,-126.40814680718152,-106.82929262527377,0,0.9997425079345703,2019-07-24 11:19:03:156
0.5172898769378662,-0.2230972796678543,9.863784790039062,0.014397900856457728,-0.012850492951310502,0.011658170764146809,-127.41826746527123,-108.26867063191888,0,1.0020649433135986,2019-07-24 11:19:03:158
0.598711371421814,-0.25183427333831787,9.849416732788086,-0.009576401666869787,-0.021108308426725113,0.01458836368777693,-128.39500914018862,-109.67158965698972,0,1.0065555572509766,2019-07-24 11:19:03:163
-0.10295028984546661,0.025956692174077034,9.720099449157715,-0.0002530620874644087,-0.013916017461667402,0.0180513178262882,-122.23676678199624,-103.88117285142414,0,1.0097277164459229,2019-07-24 11:19:03:166
0.4837633967399597,-0.057859547436237335,9.636283874511719,0.0034762738450765432,-0.003793533833053891,0.017518556611407048,-123.33405875609611,-105.39712111909914,0,1.0120439529418945,2019-07-24 11:19:03:168
0.18681442737579346,-0.22549203038215637,9.602757453918457,0.006406466508632338,0.0175169566341584,0.0073960722025705646,-124.44954066863902,-106.86390390858679,0,1.0165715217590332,2019-07-24 11:19:03:173
0.26105165481567383,-0.09378079324960709,9.784757614135742,-0.01037554556978611,0.010058286101957413,0.02524360879134591,-125.53185128887652,-108.31371786042314,0,1.019876480102539,2019-07-24 11:19:03:176
0.5532111525535583,-0.002780304290354252,9.760810852050781,0.004009036100254992,0.017783339322193576,0.006330547692213666,-126.55863877149734,-109.74763602838098,0,1.022181749343872,2019-07-24 11:19:03:179
0.49573713541030884,-0.25901851058006287,9.902100563049316,-0.009842783314607662,-0.003793533833053891,0.013256457529682155,-127.5692150563168,-111.12030270106142,0,1.0265471935272217,2019-07-24 11:19:03:183
0.2634464204311371,-0.057859547436237335,9.835047721862793,0.0010788436317549408,-0.007522869879377361,0.011391789116408934,-128.5855683347385,-112.49138113335086,0,1.0302751064300537,2019-07-24 11:19:03:187
0.5436321496963501,-0.0339120514690876,9.813494682312012,0.0077383721465784615,-0.0035271527054646663,0.006330547692213666,-129.5499809684711,-113.83860555264049,0,1.0326039791107178,2019-07-24 11:19:03:189
0.21794617176055908,-0.14886003732681274,9.8302583694458,0.0050745608706862155,-0.007522869879377361,0.006596928819802891,-130.53188674009286,-115.14562395221186,0,1.0366113185882568,2019-07-24 11:19:03:193
0.29936766624450684,-0.09138604253530502,9.832653045654297,-0.0005194432313082785,-0.013916017461667402,0.014321982040039054,-131.48388740425804,-116.43196877911151,0,1.0397896766662598,2019-07-24 11:19:03:196
0.5771586298942566,-0.09617554396390915,9.746441841125488,0.009070278304673236,-0.010453062282858831,0.006596928819802891,-132.38507975302485,-117.693194391556,0,1.0420913696289062,2019-07-24 11:19:03:198
0.40952613949775696,-0.12251778692007065,9.794337272644043,-0.0002530620874644087,-0.006723726496609687,0.010059883998611461,-133.28779370682292,-118.92493300953922,0,1.046590805053711,2019-07-24 11:19:03:203
0.2107619196176529,-0.10335978865623474,9.667415618896484,-0.005314303625442193,-0.002728009322696993,0.007928834977897663,-134.1965736197122,-120.13323690719939,0,1.0497620105743408,2019-07-24 11:19:03:206
0.5388426184654236,-0.007569803856313229,9.56204605102539,0.004808179743096991,0.006595330923148843,0.011125408508968359,-135.04899288416422,-121.33029008086093,0,1.052077293395996,2019-07-24 11:19:03:208
0.3137361705303192,-0.09378079324960709,9.832653045654297,-0.0029168734771391714,0.011123810612314312,0.008195216105486888,-135.91429084808638,-122.49201345457044,0,1.0566062927246094,2019-07-24 11:19:03:213
0.2873938977718353,-0.165623277425766,9.791942596435547,-0.005314303625442193,0.002066851233983375,0.012457314667063131,-136.76275140115683,-123.62184297542116,0,1.0597891807556152,2019-07-24 11:19:03:216
0.5340531468391418,-0.05546479672193527,9.902100563049316,-0.0010522055189960183,-0.0011297224271244826,0.009260740095695136,-137.5656069605026,-124.74285137753711,0,1.06209397315979,2019-07-24 11:19:03:218
0.44784215092658997,-0.014754053205251694,9.942811965942383,0.001877987079541196,-0.010719443930596706,0.01352283917742003,-138.35999964369012,-125.84676975425266,0,1.0666062831878662,2019-07-24 11:19:03:223
0.34965741634368896,-0.02672780118882656,9.801521301269531,0.0029435115898980946,-0.014715160324286424,0.017252174963669174,-139.1493209530881,-126.92723302576397,0,1.0697734355926514,2019-07-24 11:19:03:226
0.5436321496963501,-0.043491050601005554,9.827863693237305,0.006140085381043115,-0.014182398069107975,0.008994359488254562,-139.90116702309513,-127.98441628675202,0,1.0720906257629395,2019-07-24 11:19:03:228
0.3424731492996216,-0.036306798458099365,9.748836517333984,0.009070278304673236,-0.00512543973107434,0.010859026861230484,-140.6616106112983,-129.02275030152325,0,1.0765869617462158,2019-07-24 11:19:03:233
0.33768364787101746,-0.10096504539251328,9.760810852050781,1.3319057395376562e-05,-0.003793533833053891,0.011658170764146809,-141.40807467973067,-130.03044483115147,0,1.079758644104004,2019-07-24 11:19:03:236
0.33768364787101746,-0.16801802814006805,9.803915977478027,-0.002650492349549947,0.002599613489161824,0.010326264606052035,-142.1407964821469,-131.00985539611438,0,1.0820696353912354,2019-07-24 11:19:03:238
0.35684165358543396,-0.12012303620576859,9.645862579345703,-0.0007858243914067938,0.006861712050738068,0.010059883998611461,-142.85706913100154,-131.97522118641695,0,1.0858631134033203,2019-07-24 11:19:03:242
0.35205215215682983,-0.11772829294204712,9.765600204467773,-0.0013185867116038243,0.010591048357135861,0.008994359488254562,-143.56086523089678,-132.9216253015138,0,1.0896131992340088,2019-07-24 11:19:03:246
0.32570990920066833,-0.12730729579925537,9.823074340820312,-0.0002530620874644087,0.009525522806481663,0.010859026861230484,-144.25294718273997,-133.8483084943077,0,1.0920085906982422,2019-07-24 11:19:03:248
0.4526316523551941,-0.10814929008483887,9.892521858215332,0.002410749334719645,0.00526342476505407,0.00952712174343301,-144.91662328686058,-134.75933265006233,0,1.0958313941955566,2019-07-24 11:19:03:252
0.4789738953113556,-0.09857029467821121,9.91646957397461,0.00027970021647797646,-0.0029943904502862176,0.007928834977897663,-145.56235935892602,-135.65281435337013,0,1.099553108215332,2019-07-24 11:19:03:256
0.47418439388275146,-0.10335978865623474,9.894916534423828,0.004009036100254992,-0.010186681675418257,0.006064166564624441,-146.19487394323164,-136.52832600588096,0,1.101940631866455,2019-07-24 11:19:03:258
0.3472626507282257,-0.17520228028297424,9.89970588684082,0.0021443682071304202,-0.01791173489565442,0.00952712174343301,-146.82690874917492,-137.37794692973634,0,1.1058061122894287,2019-07-24 11:19:03:262
0.4262893795967102,-0.17280752956867218,9.799126625061035,0.0010788436317549408,-0.012317730696132052,0.009260740095695136,-147.43795725683952,-138.21040908418266,0,1.1095569133758545,2019-07-24 11:19:03:266
0.5484216213226318,-0.08180704712867737,9.744047164916992,0.001877987079541196,-0.004859058603485115,0.00366673641632142,-148.0241241033355,-139.03683043961257,0,1.1119272708892822,2019-07-24 11:19:03:268
0.22034092247486115,-0.16801802814006805,9.78954792022705,-0.0023841112219607223,-0.007789251006966585,0.006064166564624441,-148.63617835577728,-139.83591554401613,0,1.1157584190368652,2019-07-24 11:19:03:272
0.3999471366405487,-0.043491050601005554,9.80870532989502,0.0008124625041657164,-0.001662484682302932,0.007129691074981339,-149.21642795877037,-140.63427681541174,0,1.1192755699157715,2019-07-24 11:19:03:276
0.3424731492996216,-0.06983329355716705,9.729679107666016,0.004808179743096991,0.002066851233983375,0.004998642054267543,-149.79216428608268,-141.41425802354522,0,1.1225767135620117,2019-07-24 11:19:03:279
0.27781492471694946,-0.1775970309972763,9.820679664611816,-0.004515160242674519,0.000734945596037252,0.011658170764146809,-150.36407791399307,-142.16423988252598,0,1.126570463180542,2019-07-24 11:19:03:283
0.35684165358543396,-0.0602542981505394,9.847021102905273,-0.0005194432313082785,-0.0013961035547137074,0.007129691074981339,-150.91503952552796,-142.913850742869,0,1.1297428607940674,2019-07-24 11:19:03:286
0.34486791491508484,-0.057859547436237335,9.796731948852539,0.005340941998275441,-0.00512543973107434,0.00766245385030844,-151.4557515914322,-143.64949885953865,0,1.1320531368255615,2019-07-24 11:19:03:288
0.27302542328834534,-0.13449153304100037,9.801521301269531,-0.0013185867116038243,-0.008322013262145034,0.0073960722025705646,-151.99262102693118,-144.36045285001546,0,1.1365554332733154,2019-07-24 11:19:03:293
0.3544468879699707,-0.12012303620576859,9.813494682312012,0.005340941998275441,-0.008854775517323483,0.004732260926678319,-152.5098260859872,-145.06016596511873,0,1.1397171020507812,2019-07-24 11:19:03:296
0.3400784134864807,-0.09378079324960709,9.696152687072754,0.001877987079541196,-0.010453062282858831,0.008195216105486888,-153.01809760627233,-145.74812355933008,0,1.1420292854309082,2019-07-24 11:19:03:298
0.25386741757392883,-0.08899129182100296,9.765600204467773,0.002410749334719645,-0.0013961035547137074,0.008195216105486888,-153.52759744402314,-146.42333298442608,0,1.1465654373168945,2019-07-24 11:19:03:303
0.3855786621570587,-0.158439040184021,9.748836517333984,0.0013452248243627468,0.0004685644359387367,0.0026012119059645217,-154.0118301966391,-147.07648411093842,0,1.1497385501861572,2019-07-24 11:19:03:306
0.3089466691017151,-0.13449153304100037,9.75123119354248,0.0010788436317549408,0.002066851233983375,-0.0024600297783050704,-154.4955720315636,-147.71929272104114,0,1.1520836353302002,2019-07-24 11:19:03:308
-0.3400305211544037,-0.31888726353645325,9.947601318359375,-0.0178342181825817,0.010058286101957413,0.0028675930335537465,-147.84733738499295,-148.32371314946172,0,1.1565494537353516,2019-07-24 11:19:03:313
1.0513191223144531,0.3324846625328064,9.559651374816895,0.0005460813765764917,0.030836014053916932,0.005797785437035217,-148.3703542303155,-141.79717483203277,0,1.159714937210083,2019-07-24 11:19:03:316
0.44305264949798584,0.14090467989444733,9.511756896972656,0.02904886443431103,0.034032587584987624,-0.011250607248823808,-148.9540275043894,-135.38197637760425,0,1.1620268821716309,2019-07-24 11:19:03:318
-0.10295028984546661,-0.4338352382183075,10.218207359313965,-0.03941108899716024,-0.018710878798570744,0.014321982040039054,-142.38248134377147,-136.21726637187305,0,1.165844202041626,2019-07-24 11:19:03:322
0.8214231133460999,0.19358916580677032,9.705731391906738,0.024254003097407686,0.0004685644359387367,-0.00911955822811001,-143.03817712264353,-129.92078883749025,0,1.1695263385772705,2019-07-24 11:19:03:326
0.19160392880439758,0.061877936124801636,9.827863693237305,0.005340941998275441,-0.010186681675418257,0.0031339741611429712,-143.753046180641,-123.7306519134429,0,1.17307448387146,2019-07-24 11:19:03:329
-0.6657164692878723,-0.565546452999115,9.842231750488281,0.0010788436317549408,-0.007522869879377361,-0.010451464386204784,-137.35374460523389,-124.79049942925566,0,1.1769359111785889,2019-07-24 11:19:03:333
1.7577701807022095,0.2750106453895569,9.33215045928955,-0.002117730094371498,0.012189335122671209,0.005797785437035217,-137.9956325172732,-118.72804859035472,0,1.1803019046783447,2019-07-24 11:19:03:337
-0.3543989956378937,0.21035242080688477,9.676994323730469,0.049560212819127265,0.023643723088859217,-0.015779086937989274,-131.68110460264563,-112.78559685773814,0,1.1828906536102295,2019-07-24 11:19:03:339
0.18920917809009552,-0.6206257343292236,10.184680938720703,-0.0660492038366773,-0.028034218784342254,0.022579798555750964,-132.6204043571422,-114.04649625349295,0,1.186570167541504,2019-07-24 11:19:03:343
0.3352889120578766,0.07145693898200989,9.59078311920166,0.031712674669905974,0.016451433164098802,-0.029630906612926253,-133.5308910286711,-108.17976943747698,0,1.1897518634796143,2019-07-24 11:19:03:346
-0.028713049367070198,0.2534579038619995,9.528519630432129,0.019459141760504343,0.011123810612314312,-0.011516988896561683,-127.26517508382463,-102.4491825632911,0,1.1920714378356934,2019-07-24 11:19:03:348
-0.6513479948043823,-0.3284662663936615,9.952390670776367,-0.014371263003773128,0.010857428964576437,0.004732260926678319,-121.19711403533191,-103.95927831388913,0,1.1959314346313477,2019-07-24 11:19:03:352
1.9110342264175415,0.25106316804885864,9.380044937133789,0.023721239801931936,0.0332334457626659,-0.020307566627154744,-122.15063021016387,-98.3163015428344,0,1.20009446144104,2019-07-24 11:19:03:356
-0.7998224496841431,-0.20633402466773987,10.172707557678223,0.025319527607764587,0.010058286101957413,-0.016045468585727148,-116.1988155600963,-99.92997335709633,0,1.202371597290039,2019-07-24 11:19:03:359
0.1508931815624237,-0.36438751220703125,10.340339660644531,-0.05193100459459704,-0.03815670267303009,0.027641038419500285,-117.45105957827438,-101.48140210251213,0,1.2056663036346436,2019-07-24 11:19:03:362
0.37599965929985046,-0.12012303620576859,9.784757614135742,0.051424879151805894,-0.005924583113842013,-0.03762233940030569,-118.6567469235232,-103.04880787303061,0,1.2095108032226562,2019-07-24 11:19:03:366
1.2979782819747925,0.08103593438863754,9.72728443145752,-0.04846805045608578,-0.02537040646815271,0.03643161510979605,-119.72652293426907,-97.38767367177604,0,1.2130765914916992,2019-07-24 11:19:03:369
-0.7327694296836853,-0.043491050601005554,9.643467903137207,0.047162781110378305,-0.003793533833053891,-0.03762233940030569,-113.81807482942979,-99.04500013884389,0,1.2169463634490967,2019-07-24 11:19:03:373
1.6021114587783813,-0.3236767649650574,9.94041633605957,-0.05539395873310832,-0.026968694273985357,0.02337894037807269,-114.95349339221403,-100.6163131054259,0,1.220318078994751,2019-07-24 11:19:03:377
0.07665593922138214,0.3588269054889679,9.564440727233887,0.04876106891621095,0.014586764750825579,-0.01897566150935727,-116.24712554424204,-95.05326221908552,0,1.2226207256317139,2019-07-24 11:19:03:379
0.031155694276094437,-0.35001900792121887,9.976338386535645,-0.05459481483019199,-0.024837643172676956,0.021514274045394067,-117.51305753648698,-96.69981673010574,0,1.2265980243682861,2019-07-24 11:19:03:383
0.4717896282672882,-0.3284662663936615,9.626704216003418,0.006140085381043115,0.0031323757443402728,-0.014180800172453928,-118.70724040269315,-98.32783159344129,0,1.2297742366790771,2019-07-24 11:19:03:386
1.290794014930725,0.42587989568710327,9.415966987609863,0.02505314700032401,0.00872637994386264,-0.010984226641383233,-119.77811243428566,-92.81631984485621,0,1.2320852279663086,2019-07-24 11:19:03:388
-0.8908229470252991,-0.34522950649261475,10.206233978271484,0.003209892717487319,-0.012051349048394177,-0.0005953618851804982,-113.87924509520587,-94.52206500528187,0,1.2366225719451904,2019-07-24 11:19:03:393
2.0164031982421875,-0.19436028599739075,9.614730834960938,-0.015969549769308478,-0.00459267747589589,0.00020378157886040212,-114.9635870678836,-96.20434310492728,0,1.2412164211273193,2019-07-24 11:19:03:398
-0.8429279327392578,-0.07462279498577118,9.88773250579834,0.025852290903240337,0.002599613489161824,-0.006722128079806988,-109.16215884274453,-97.87548644675056,0,1.2438881397247314,2019-07-24 11:19:03:400
1.0537137985229492,-0.20154452323913574,9.885337829589844,-0.02076441110621182,-0.022440213544522587,0.011391789116408934,-110.45234139893303,-99.4900951964025,0,1.2477662563323975,2019-07-24 11:19:03:404
1.058503270149231,-0.012359303422272205,9.720099449157715,0.016528949877171524,-0.011252206185775155,-0.009918702131026334,-111.716929887335,-101.1018712582628,0,1.2510364055633545,2019-07-24 11:19:03:407
1.0848455429077148,0.10498343408107758,9.712915420532227,-0.014904025258951578,-0.028833360606663975,0.021780654652834644,-112.95137222078911,-95.49027619082582,0,1.2533581256866455,2019-07-24 11:19:03:410
-1.1350873708724976,-0.4649669826030731,9.954785346984863,0.011201327325387032,-0.029898885117020876,-0.003525554548736294,-107.21654844719356,-97.12919536713436,0,1.2568705081939697,2019-07-24 11:19:03:413
1.5733745098114014,-0.2494395226240158,9.624309539794922,-0.0324851807201377,-0.02270659415196316,0.012457314667063131,-108.48258837362033,-98.7512842978425,0,1.2599594593048096,2019-07-24 11:19:03:416
0.17005117237567902,0.14569418132305145,9.420756340026855,0.041036016736272087,0.01591867090892035,-0.011250607248823808,-109.89429349369782,-93.1992358386788,0,1.2622408866882324,2019-07-24 11:19:03:419
0.651395857334137,-0.44341424107551575,9.995495796203613,-0.04580423605930163,-0.015780684834643323,0.02870656292985718,-111.21769535626605,-94.87243456180832,0,1.2669126987457275,2019-07-24 11:19:03:423
0.6035008430480957,-0.37875601649284363,9.909284591674805,0.017860856035266295,0.00020218329209486678,-0.019508422724238417,-112.5236755834011,-96.53449723437362,0,1.2701928615570068,2019-07-24 11:19:03:427
0.809449315071106,0.08822018653154373,9.696152687072754,0.003742654972665768,-0.008854775517323483,-0.000328980725081983,-113.77661067060326,-91.01471913907534,0,1.272505760192871,2019-07-24 11:19:03:429
0.10060343146324158,-0.03151730075478554,9.868574142456055,-0.002650492349549947,-0.009653919420239807,0.016719412708490724,-115.08714401058944,-92.79014648593557,0,1.2766621112823486,2019-07-24 11:19:03:433
0.9579238295555115,-0.3140977621078491,9.602757453918457,0.0008124625041657164,-0.00432629608823234,-0.010185082738466909,-116.27064160723336,-94.497030056971,0,1.2800605297088623,2019-07-24 11:19:03:436
0.37121015787124634,-0.19196553528308868,9.686573028564453,-0.0018513489667822737,0.005796187540381169,-0.000328980725081983,-117.50206190817391,-96.18415126594405,0,1.282289981842041,2019-07-24 11:19:03:439
0.3161309063434601,0.19837866723537445,9.81828498840332,-0.0002530620874644087,-0.009653919420239807,0.019383222944085673,-118.71281304648089,-90.68355742158958,0,1.2865772247314453,2019-07-24 11:19:03:443
0.728027880191803,-0.23507101833820343,9.95718002319336,0.009869421167292258,-0.014981541972024299,-0.004857460186682417,-119.8523315592748,-92.44454415025042,0,1.2896554470062256,2019-07-24 11:19:03:446
0.7831071019172668,-0.2494395226240158,9.976338386535645,-0.007445353166304639,-0.02430488195779581,0.0018020683931596856,-120.96242829762181,-94.166061091104,0,1.2919199466705322,2019-07-24 11:19:03:448
0.0335504449903965,-0.029122551903128624,9.765600204467773,-0.0010522055189960183,-0.020575545131249366,0.01352283917742003,-122.1349029050292,-95.8791006394609,0,1.2956764698028564,2019-07-24 11:19:03:452
0.7471858263015747,-0.11054404079914093,9.542888641357422,0.00267713046230887,0.0004685644359387367,0.009793502350873586,-123.20277287766326,-97.54886128306809,0,1.2997760772705078,2019-07-24 11:19:03:456
0.28499916195869446,-0.2757817804813385,9.633889198303223,0.00880389665693536,0.006595330923148843,0.0012693061379812365,-124.3056690470895,-99.16621286857857,0,1.3020479679107666,2019-07-24 11:19:03:458
0.2945781648159027,-0.14407053589820862,9.72728443145752,-0.015170405866392154,0.001267707851215701,0.020715130142477743,-125.38513328948167,-100.76269166271143,0,1.305835247039795,2019-07-24 11:19:03:462
0.560395359992981,-0.08899129182100296,9.703336715698242,0.011467707932827606,0.002599613489161824,0.0028675930335537465,-126.4118674835668,-102.33932545392094,0,1.3095574378967285,2019-07-24 11:19:03:466
0.546026885509491,-0.21830777823925018,9.823074340820312,-0.00398239798749607,-0.010453062282858831,0.0073960722025705646,-127.41838636720783,-103.86646211504822,0,1.3123042583465576,2019-07-24 11:19:03:469
0.20597241818904877,-0.036306798458099365,9.763205528259277,-0.0013185867116038243,-0.006990107624198911,0.011125408508968359,-128.4441873754434,-105.3845584546679,0,1.316532850265503,2019-07-24 11:19:03:473
0.7974755764007568,0.02356194145977497,9.657835960388184,0.0029435115898980946,-0.0019288658098921565,0.008994359488254562,-129.38056089971326,-99.68017465408661,0,1.3196289539337158,2019-07-24 11:19:03:476
0.30415716767311096,-0.13449153304100037,9.645862579345703,0.004275417227844217,0.0028659946167510484,0.009793502350873586,-130.35719240830892,-101.27113812065073,0,1.321892261505127,2019-07-24 11:19:03:478
0.40952613949775696,-0.09138604253530502,9.832653045654297,-0.0010522055189960183,-0.00858839438973426,0.015121125942955378,-131.30007316280748,-102.83478651874826,0,1.3266119956970215,2019-07-24 11:19:03:483
0.6298431158065796,-0.0865965411067009,9.765600204467773,0.006406466508632338,-0.00432629608823234,0.005265023181856767,-132.19936327664072,-104.36926765002404,0,1.330331563949585,2019-07-24 11:19:03:487
0.39036813378334045,-0.17280752956867218,9.88773250579834,-0.004248779115085295,-0.011784968440953605,0.011391789116408934,-133.10863497679375,-105.86130787332903,0,1.3326342105865479,2019-07-24 11:19:03:489
0.28020966053009033,-0.14167578518390656,9.775178909301758,-0.0037160168599068453,-0.008322013262145034,0.01059264625378991,-134.0117689454042,-107.32664670279046,0,1.3366022109985352,2019-07-24 11:19:03:493
0.5651848912239075,-0.02672780118882656,9.61952018737793,0.003209892717487319,-0.00033057901184751836,0.006596928819802891,-134.8642265258295,-108.77748599033288,0,1.3396878242492676,2019-07-24 11:19:03:496
0.2562621533870697,-0.1057545393705368,9.708126068115234,0.00267713046230887,0.0004685644359387367,0.008727977840516687,-135.73676037806052,-110.18979499615067,0,1.3419573307037354,2019-07-24 11:19:03:498
0.3999471366405487,-0.11054404079914093,9.75123119354248,-0.0029168734771391714,-0.0035271527054646663,0.012723695274503706,-136.57431001541914,-111.57239569689757,0,1.3457024097442627,2019-07-24 11:19:03:502
0.4717896282672882,-0.08899129182100296,9.827863693237305,0.0029435115898980946,-0.003260771577875442,0.0073960722025705646,-137.3872104055167,-112.93115456736095,0,1.3492283821105957,2019-07-24 11:19:03:506
0.4143156409263611,-0.12491253763437271,9.863784790039062,0.0010788436317549408,-0.005658201986252788,0.007928834977897663,-138.19041022071605,-114.25820208803809,0,1.3522233963012695,2019-07-24 11:19:03:509
0.3664206564426422,-0.1392810344696045,9.720099449157715,-0.004781541370263744,-0.008854775517323483,0.008994359488254562,-138.981271114342,-115.55545624808853,0,1.3565547466278076,2019-07-24 11:19:03:513
0.44305264949798584,-0.14407053589820862,9.782362937927246,0.001877987079541196,-0.0029943904502862176,0.003933117543910645,-139.74926171265898,-116.82779778174378,0,1.3596463203430176,2019-07-24 11:19:03:516
0.3233151435852051,-0.09378079324960709,9.763205528259277,0.0010788436317549408,-0.00512543973107434,0.004465879799089094,-140.51569086595464,-118.0803722109812,0,1.3619108200073242,2019-07-24 11:19:03:518
0.3233151435852051,-0.07222804427146912,9.705731391906738,-0.002117730094371498,-0.006723726496609687,0.007129691074981339,-141.26579325133935,-119.30978830035679,0,1.3656864166259766,2019-07-24 11:19:03:522
0.4598158895969391,-0.12251778692007065,9.863784790039062,0.0013452248243627468,-0.0064573453690204615,0.0018020683931596856,-141.9856019454584,-120.50967141514498,0,1.3698108196258545,2019-07-24 11:19:03:526
0.48855289816856384,-0.1392810344696045,9.734468460083008,-0.003449635732317621,-0.009121157165061358,0.004465879799089094,-142.68724645464778,-121.68263683812958,0,1.3721158504486084,2019-07-24 11:19:03:528
0.4143156409263611,-0.12491253763437271,9.75123119354248,-0.0010522055189960183,-0.00805563213455581,0.00366673641632142,-143.38282866071216,-122.83404276875468,0,1.376568078994751,2019-07-24 11:19:03:533
0.43586838245391846,-0.12730729579925537,9.753625869750977,1.3319057395376562e-05,-0.004059914960643116,-0.003259173161072744,-144.06329277733278,-123.96240823575694,0,1.3796601295471191,2019-07-24 11:19:03:536
0.42389464378356934,-0.07701754570007324,9.7392578125,0.0008124625041657164,-0.002461628195107768,0.0031339741611429712,-144.73186925285572,-125.07420202911719,0,1.3819313049316406,2019-07-24 11:19:03:538
0.42389464378356934,-0.08420179039239883,9.729679107666016,-0.0037160168599068453,-0.004059914960643116,0.00419949867149987,-145.3864819464929,-126.16201678825718,0,1.3856914043426514,2019-07-24 11:19:03:542
0.42389464378356934,-0.12491253763437271,9.811100006103516,-0.0018513489667822737,-0.007522869879377361,0.000470162722704272,-146.02753110858475,-127.22375902783489,0,1.389815330505371,2019-07-24 11:19:03:546
0.3472626507282257,-0.02672780118882656,9.734468460083008,1.3319057395376562e-05,-0.007256488751788136,0.0031339741611429712,-146.66518815114625,-128.27613923843145,0,1.3920998573303223,2019-07-24 11:19:03:548
0.39755240082740784,-0.09138604253530502,9.736863136291504,-0.0002530620874644087,-0.005924583113842013,0.0018020683931596856,-147.2836353840062,-129.2997981500057,0,1.3965718746185303,2019-07-24 11:19:03:553
0.41671040654182434,-0.06504379957914352,9.799126625061035,0.00027970021647797646,-0.00432629608823234,0.001535687265570461,-147.88851030533246,-130.3062446148334,0,1.3996648788452148,2019-07-24 11:19:03:556
0.4119209051132202,-0.08180704712867737,9.76799488067627,0.0013452248243627468,-0.003793533833053891,-6.259956904712911e-05,-148.48196033123907,-131.2906947328169,0,1.401939868927002,2019-07-24 11:19:03:558
0.3855786621570587,-0.12491253763437271,9.729679107666016,-0.0005194432313082785,-0.004859058603485115,0.00020378157886040212,-149.06590546849503,-132.25006016718933,0,1.4057068824768066,2019-07-24 11:19:03:562
0.44784215092658997,-0.13688628375530243,9.734468460083008,0.0010788436317549408,-0.0035271527054646663,0.001535687265570461,-149.631154713754,-133.1891758492187,0,1.409498929977417,2019-07-24 11:19:03:566
0.46939489245414734,-0.07222804427146912,9.820679664611816,1.3319057395376562e-05,-0.0064573453690204615,0.0028675930335537465,-150.1828070910122,-134.1169666844492,0,1.4122440814971924,2019-07-24 11:19:03:569
0.44305264949798584,-0.11533354222774506,9.791942596435547,0.0016116059519519711,-0.00512543973107434,0.0007365438828027872,-150.72609811438056,-135.02152059281528,0,1.4165503978729248,2019-07-24 11:19:03:573
0.33768364787101746,-0.05307004973292351,9.775178909301758,-0.0002530620874644087,0.00020218329209486678,0.0034003552887321956,-151.27204124404662,-135.91482516104762,0,1.41963529586792,2019-07-24 11:19:03:576
0.37121015787124634,-0.13449153304100037,9.801521301269531,0.0013452248243627468,-0.005391820858663564,0.003933117543910645,-151.80253787378035,-136.7809767096106,0,1.4218957424163818,2019-07-24 11:19:03:578
0.3999471366405487,-0.09617554396390915,9.813494682312012,0.0034762738450765432,-0.004859058603485115,0.001002925010392012,-152.31877858811794,-137.63486605271493,0,1.4256811141967773,2019-07-24 11:19:03:582
0.44305264949798584,-0.10335978865623474,9.832653045654297,-0.0002530620874644087,-0.003793533833053891,0.000470162722704272,-152.8200556844023,-138.470073532105,0,1.4291930198669434,2019-07-24 11:19:03:586
0.3544468879699707,-0.06743854284286499,9.815889358520508,-0.0005194432313082785,-0.0035271527054646663,0.003933117543910645,-153.3216941389336,-139.29271099435712,0,1.4322223663330078,2019-07-24 11:19:03:589
0.3807891607284546,-0.12730729579925537,9.712915420532227,0.001877987079541196,-0.00512543973107434,0.0018020683931596856,-153.80911376032458,-140.09229411170645,0,1.436546802520752,2019-07-24 11:19:03:593
0.01199769601225853,-0.263808012008667,9.705731391906738,0.010668565070208582,-0.003260771577875442,-0.013914418524716053,-154.33094997307492,-140.86115771860423,0,1.4396326541900635,2019-07-24 11:19:03:596
0.1053929328918457,-0.2302815318107605,9.736863136291504,-0.01623593037674905,0.005529806412791945,0.0031339741611429712,-154.8328489972165,-141.61413384835055,0,1.4425990581512451,2019-07-24 11:19:03:599
1.058503270149231,0.24627366662025452,9.392019271850586,0.02238933468413446,0.03643001721314199,-0.005123841314271641,-155.215721496863,-135.21689120900263,0,1.44657564163208,2019-07-24 11:19:03:603
-0.014344550669193268,-0.15364953875541687,9.645862579345703,0.003209892717487319,0.017250576026717826,-0.007521271462574662,-148.51610526964814,-136.09485869242215,0,1.4496667385101318,2019-07-24 11:19:03:606
0.2371041625738144,-0.5344147086143494,10.108049392700195,-0.04340680851174186,-0.01151858679321573,0.011924551371587381,-149.11744795013203,-136.90692952994672,0,1.4519248008728027,2019-07-24 11:19:03:608
0.6945013403892517,0.31572139263153076,9.564440727233887,0.03437648698609552,0.010591048357135861,-0.013914418524716053,-149.65483709140466,-130.61569373478417,0,1.4566340446472168,2019-07-24 11:19:03:613
0.19639341533184052,-0.23986051976680756,9.839837074279785,-0.007711734293893865,-0.00805563213455581,0.00366673641632142,-150.23747257689888,-131.57411228733645,0,1.4597280025482178,2019-07-24 11:19:03:616
-0.5292157530784607,-0.5056777596473694,9.981127738952637,-0.0023841112219607223,-0.003793533833053891,-0.012316131759180705,-143.69293875051605,-132.48431832473582,0,1.4620089530944824,2019-07-24 11:19:03:618
1.8703234195709229,0.23190516233444214,9.530914306640625,-0.006113447008209866,0.016451433164098802,0.004732260926678319,-144.201234043701,-126.26094647292095,0,1.4665601253509521,2019-07-24 11:19:03:623
-0.8285594582557678,-0.02672780118882656,10.01944351196289,0.04849468622817578,0.01165657286749276,-0.014713562427632377,-137.81377735872312,-127.34108053676415,0,1.4696485996246338,2019-07-24 11:19:03:626
0.09102443605661392,-0.656546950340271,10.280470848083496,-0.04420595241465818,-0.02723507488142593,0.015653888198133827,-138.64389340028163,-128.3155557294935,0,1.4719128608703613,2019-07-24 11:19:03:628
1.0656875371932983,-0.16083379089832306,9.827863693237305,0.02958162564919218,0.004464281382286396,-0.028299001495128782,-139.34817391782488,-129.3366722973789,0,1.475632905960083,2019-07-24 11:19:03:632
0.11976142972707748,0.10498343408107758,9.621914863586426,-0.0018513489667822737,0.00020218329209486678,0.0023348307783752974,-140.14698815030383,-123.16207609097972,0,1.4791460037231445,2019-07-24 11:19:03:635
-0.7495326995849609,-0.4194667637348175,9.921258926391602,-0.014637643611213703,0.013521240240468682,0.00419949867149987,-133.83268628016822,-124.24800018320727,0,1.4820835590362549,2019-07-24 11:19:03:638
1.920613169670105,0.18401017785072327,9.262702941894531,0.02691781541359723,0.040425736727723614,-0.022172235040427965,-134.53197038175188,-118.19260832855075,0,1.4865870475769043,2019-07-24 11:19:03:643
-0.6944534778594971,-0.3021240234375,10.191865921020508,-0.007978115421483089,0.004464281382286396,0.00366673641632142,-128.3200652458054,-119.39341313089619,0,1.4896762371063232,2019-07-24 11:19:03:646
0.953134298324585,-0.2230972796678543,10.175102233886719,-0.05006633410072922,-0.02776783609630708,0.02337894037807269,-129.24310062668468,-120.57405174059959,0,1.4919428825378418,2019-07-24 11:19:03:648
0.5699743628501892,-0.05546479672193527,9.681783676147461,0.04929383013109209,0.006328949795559618,-0.03415938526179442,-130.19218461121835,-121.76635866911953,0,1.495683193206787,2019-07-24 11:19:03:652
1.307557225227356,0.10258868336677551,9.566835403442383,-0.04393956972662301,-0.01737897264047597,0.03669799779783122,-131.0292526283553,-115.73463805071266,0,1.499201774597168,2019-07-24 11:19:03:656
-0.5483737587928772,-0.1057545393705368,9.643467903137207,0.04023687283335576,0.0015340889788049254,-0.018709278821322096,-124.87397121382342,-117.0129262745585,0,1.5016570091247559,2019-07-24 11:19:03:658
0.36402589082717896,-0.5990729928016663,10.134391784667969,-0.05299652702435934,-0.029366123902139725,0.017784937218847625,-125.92879606939087,-118.19318332806463,0,1.5056307315826416,2019-07-24 11:19:03:662
-0.6752954721450806,0.3372741639614105,9.593177795410156,0.07619832349745513,0.018848863832550473,-0.025368808571498664,-119.89508313193465,-112.28709949510103,0,1.5097229480743408,2019-07-24 11:19:03:666
-0.08139754086732864,-0.2829660177230835,9.983522415161133,-0.013572119100856806,-0.020841927819284543,0.009260740095695136,-113.9038676316294,-113.60715727138819,0,1.5119929313659668,2019-07-24 11:19:03:668
0.5915271043777466,-0.35001900792121887,9.674599647521973,0.022922097979610215,0.009259142199041089,-0.019242042116797847,-115.15818770695164,-114.89945155835848,0,1.5165596008300781,2019-07-24 11:19:03:673
1.0608980655670166,0.25585266947746277,9.497387886047363,0.004808179743096991,-0.004059914960643116,0.005265023181856767,-116.32684547265376,-109.03315817422144,0,1.5196449756622314,2019-07-24 11:19:03:676
-0.8549016714096069,-0.28536075353622437,10.100865364074707,0.0016116059519519711,-0.005391820858663564,0.0007365438828027872,-110.4963790875306,-110.42033500954273,0,1.5219080448150635,2019-07-24 11:19:03:678
1.0249768495559692,-0.39791399240493774,9.700942039489746,-0.021563552928533545,-0.0064573453690204615,0.004465879799089094,-111.76447752996341,-111.76045325569004,0,1.525623083114624,2019-07-24 11:19:03:682
-0.1556347757577896,-0.017148802056908607,9.703336715698242,0.04556449330454565,0.015385908653741905,-0.020041186019714167,-105.95060791387111,-113.1322271843501,0,1.529144048690796,2019-07-24 11:19:03:685
0.42389464378356934,-0.16083379089832306,9.930837631225586,-0.04633700143537198,-0.026435930978509607,0.035366092680033746,-107.37837106731817,-114.44341623079691,0,1.5320687294006348,2019-07-24 11:19:03:688
0.7615543603897095,-0.0794122964143753,9.801521301269531,0.028249720531394705,-0.007256488751788136,-0.012316131759180705,-108.74011877258961,-115.75238241214427,0,1.5365564823150635,2019-07-24 11:19:03:693
1.0489243268966675,-0.00517505407333374,9.851811408996582,-0.013572119100856806,-0.03416098523904307,0.021514274045394067,-110.03783930055214,-117.03437718605444,0,1.5396475791931152,2019-07-24 11:19:03:696
-0.6896639466285706,-0.25901851058006287,10.052969932556152,0.013065994698362955,-0.04002136900570871,0.00366673641632142,-104.31048562316323,-118.26583206571394,0,1.5419113636016846,2019-07-24 11:19:03:698
0.560395359992981,-0.3595980107784271,9.96915340423584,-0.024760126459604237,-0.029099743294699155,0.012190933019325256,-105.75381260046595,-119.45399522144058,0,1.545654296875,2019-07-24 11:19:03:702
-0.37595176696777344,0.1361151784658432,9.530914306640625,0.041835160639188414,0.01618505151636093,-0.0061893658246285396,-100.08763939310101,-113.49090854497507,0,1.5497534275054932,2019-07-24 11:19:03:706
0.48855289816856384,-0.3811507523059845,10.005075454711914,-0.021030791713652394,-0.006990107624198911,0.026575513909143384,-101.62908124182688,-114.77476683034452,0,1.5520315170288086,2019-07-24 11:19:03:708
0.7160540819168091,-0.35720324516296387,9.806310653686523,0.015996187621993074,0.001267707851215701,-0.014180800172453928,-103.11329527415978,-116.04161022089444,0,1.5565531253814697,2019-07-24 11:19:03:713
0.546026885509491,0.1432994306087494,9.839837074279785,-0.008244496549072314,-0.006190964241431238,0.014321982040039054,-104.58643237228887,-110.13603528567023,0,1.5596415996551514,2019-07-24 11:19:03:716
-0.05984479561448097,0.04271994158625603,9.873363494873047,-0.012240213983059332,-0.007789251006966585,0.024710847576464762,-98.90065889193627,-104.33671632207728,0,1.561906099319458,2019-07-24 11:19:03:718
0.4789738953113556,-0.28536075353622437,9.720099449157715,0.0034762738450765432,0.0028659946167510484,-0.003259173161072744,-100.46682162800329,-105.81707440202239,0,1.5656168460845947,2019-07-24 11:19:03:722
0.2873938977718353,-0.12970203161239624,9.772784233093262,0.0013452248243627468,0.00526342476505407,0.008461597233076112,-102.02483576534964,-107.28579115705719,0,1.569133996963501,2019-07-24 11:19:03:725
0.4071314036846161,0.17203642427921295,9.849416732788086,-0.0023841112219607223,-0.004859058603485115,0.020182366847001993,-103.53619997622573,-101.55969661961733,0,1.5720622539520264,2019-07-24 11:19:03:728
0.7232383489608765,-0.3356505036354065,9.921258926391602,0.0034762738450765432,-0.02297297683999834,-0.003525554548736294,-104.97628874901314,-103.09062714037798,0,1.5765585899353027,2019-07-24 11:19:03:733
0.5172898769378662,-0.20633402466773987,9.849416732788086,-0.010109163922048236,-0.026435930978509607,0.01059264625378991,-106.41204585298922,-104.60305762188139,0,1.5796501636505127,2019-07-24 11:19:03:736
-0.004765552002936602,0.04271994158625603,9.691362380981445,-0.0013185867116038243,-0.023505738054879485,0.015121125942955378,-100.68138215025353,-98.91588016300184,0,1.5819127559661865,2019-07-24 11:19:03:738
0.4981318712234497,0.028351441025733948,9.6482572555542,0.004808179743096991,-0.005924583113842013,0.003933117543910645,-102.20739731228066,-93.34194181990648,0,1.5856611728668213,2019-07-24 11:19:03:742
0.24668316543102264,-0.21591302752494812,9.662626266479492,-0.0018513489667822737,0.0010013267236264765,0.0055314043094459924,-103.73419909614762,-95.0491351784707,0,1.5891857147216797,2019-07-24 11:19:03:746
0.21315667033195496,-0.029122551903128624,9.815889358520508,-0.014371263003773128,-0.004059914960643116,0.01458836368777693,-105.23407375493743,-96.74276626000487,0,1.5916473865509033,2019-07-24 11:19:03:748
0.546026885509491,-0.014754053205251694,9.679388999938965,0.00880389665693536,0.005529806412791945,0.0028675930335537465,-106.66605233658518,-98.40812919508716,0,1.5956223011016846,2019-07-24 11:19:03:752
0.3137361705303192,-0.1967550367116928,9.92844295501709,-0.009310021059429211,-0.013649635813929526,0.012723695274503706,-108.09339870346972,-100.01512300606538,0,1.5997114181518555,2019-07-24 11:19:03:756
0.22752517461776733,-0.06743854284286499,9.842231750488281,-0.006379828135799091,-0.012584111303572627,0.007928834977897663,-109.50344226573941,-101.60615633488213,0,1.6019797325134277,2019-07-24 11:19:03:758
0.6561853885650635,-0.024333052337169647,9.66023063659668,0.00027970021647797646,-0.0029943904502862176,0.0018020683931596856,-110.8348844207622,-103.1712187394557,0,1.6065616607666016,2019-07-24 11:19:03:763
0.20836716890335083,-0.1320967823266983,9.813494682312012,-0.0018513489667822737,-0.010186681675418257,0.007928834977897663,-112.19208952747174,-104.69204876239623,0,1.6096560955047607,2019-07-24 11:19:03:766
0.34486791491508484,-0.10814929008483887,9.801521301269531,-0.004515160242674519,-0.010453062282858831,0.00952712174343301,-113.50661282106861,-106.18498885002532,0,1.6119260787963867,2019-07-24 11:19:03:768
0.6322378516197205,-0.06504379957914352,9.85899543762207,0.008271134401756912,-0.01098582453803728,0.004465879799089094,-114.76081265237451,-107.65544803918638,0,1.6156272888183594,2019-07-24 11:19:03:772
0.46221062541007996,-0.14407053589820862,9.849416732788086,-0.0023841112219607223,-0.014981541972024299,0.010859026861230484,-116.00890797020975,-109.08510872888769,0,1.6191372871398926,2019-07-24 11:19:03:775
0.2227356731891632,-0.057859547436237335,9.832653045654297,-0.007445353166304639,-0.01098582453803728,0.004998642054267543,-117.26096712465463,-110.49543750544943,0,1.622070074081421,2019-07-24 11:19:03:778
0.42389464378356934,-0.12012303620576859,9.641073226928711,0.004275417227844217,0.003398757132003823,-0.000328980725081983,-118.46625538405769,-111.8723316437731,0,1.6265676021575928,2019-07-24 11:19:03:783
0.28020966053009033,-0.13688628375530243,9.696152687072754,-0.005580684753031417,0.000734945596037252,0.00766245385030844,-119.6639513888349,-113.21773826863193,0,1.6296639442443848,2019-07-24 11:19:03:786
0.34486791491508484,-0.18238653242588043,9.782362937927246,-0.007445353166304639,0.002599613489161824,0.008994359488254562,-120.83062177658137,-114.53107345727473,0,1.6319305896759033,2019-07-24 11:19:03:788
0.5244741439819336,-0.14167578518390656,9.78954792022705,0.0010788436317549408,0.001267707851215701,0.000470162722704272,-121.95293992632637,-115.82409418705731,0,1.6356432437896729,2019-07-24 11:19:03:792
0.3233151435852051,-0.04828054830431938,9.847021102905273,-0.0018513489667822737,-0.006990107624198911,0.006863309947392116,-123.07465837106687,-117.10156704307276,0,1.6397490501403809,2019-07-24 11:19:03:796
0.3807891607284546,-0.15604428946971893,9.835047721862793,-0.0015849678391930489,-0.009653919420239807,0.004732260926678319,-124.16757300234208,-118.34115118793702,0,1.64205002784729,2019-07-24 11:19:03:798
0.44305264949798584,-0.07701754570007324,9.76799488067627,0.0013452248243627468,-0.006990107624198911,0.0023348307783752974,-125.23050104933023,-119.56563575047134,0,1.646585464477539,2019-07-24 11:19:03:803
0.4119209051132202,-0.09857029467821121,9.770389556884766,0.0013452248243627468,-0.007522869879377361,0.0055314043094459924,-126.2762966286888,-120.7629970945084,0,1.6496891975402832,2019-07-24 11:19:03:806
0.43586838245391846,-0.18238653242588043,9.799126625061035,-0.004248779115085295,-0.009653919420239807,0.0055314043094459924,-127.29860347460674,-121.9258698518201,0,1.6519584655761719,2019-07-24 11:19:03:808
0.5388426184654236,-0.09138604253530502,9.744047164916992,0.002410749334719645,-0.007256488751788136,0.0018020683931596856,-128.2874314596837,-123.07723540207938,0,1.6566109657287598,2019-07-24 11:19:03:813
0.4981318712234497,-0.0794122964143753,9.760810852050781,-0.0031832546047283966,-0.005924583113842013,0.004465879799089094,-129.2622237734071,-124.20581491354216,0,1.6597049236297607,2019-07-24 11:19:03:816
0.23231466114521027,-0.04828054830431938,9.758416175842285,-0.0010522055189960183,-0.007522869879377361,0.005265023181856767,-130.24874040819185,-125.31589436259213,0,1.6619863510131836,2019-07-24 11:19:03:818
0.5795533657073975,-0.11054404079914093,9.736863136291504,-0.0015849678391930489,0.003398757132003823,0.000470162722704272,-131.17635153690043,-126.39623513558777,0,1.6657185554504395,2019-07-24 11:19:03:822
0.3137361705303192,-0.057859547436237335,9.801521301269531,-0.002650492349549947,0.0010013267236264765,0.0023348307783752974,-132.11638752663805,-127.46093715395126,0,1.6698098182678223,2019-07-24 11:19:03:826
0.20836716890335083,-0.036306798458099365,9.973943710327148,-0.0015849678391930489,-0.00432629608823234,0.007928834977897663,-133.04957268276775,-128.5073452162344,0,1.6720783710479736,2019-07-24 11:19:03:828
0.5651848912239075,-0.1392810344696045,9.878152847290039,0.001877987079541196,-0.006190964241431238,-0.0016608863955373968,-133.92152704924618,-129.5215156844027,0,1.6765697002410889,2019-07-24 11:19:03:833
0.29218339920043945,-0.21830777823925018,9.760810852050781,-0.0018513489667822737,-0.012317730696132052,0.001535687265570461,-134.80666396398993,-130.50513866502462,0,1.6796646118164062,2019-07-24 11:19:03:836
0.43107888102531433,-0.09857029467821121,9.823074340820312,-0.007178972038715416,-0.012850492951310502,0.004465879799089094,-135.6586472731487,-131.482628058966,0,1.6819207668304443,2019-07-24 11:19:03:838
0.44305264949798584,-0.13688628375530243,9.820679664611816,0.005607323125864665,-0.008322013262145034,-0.0024600297783050704,-136.49207871763608,-132.4381721311829,0,1.6856305599212646,2019-07-24 11:19:03:842
0.3616311550140381,-0.09138604253530502,9.696152687072754,-0.0002530620874644087,-0.008854775517323483,0.008195216105486888,-137.31748312997217,-133.37855060885235,0,1.6897242069244385,2019-07-24 11:19:03:846
0.37839439511299133,-0.14646528661251068,9.787153244018555,-0.002650492349549947,-0.007256488751788136,0.003933117543910645,-138.12592905446508,-134.29349517315805,0,1.6919887065887451,2019-07-24 11:19:03:848
0.38318389654159546,-0.12491253763437271,9.665020942687988,-0.0013185867116038243,-0.003793533833053891,-0.0005953618851804982,-138.9170308371494,-135.19247824011887,0,1.6965515613555908,2019-07-24 11:19:03:853
0.3616311550140381,-0.15364953875541687,9.763205528259277,-0.004515160242674519,-0.0035271527054646663,0.00366673641632142,-139.69565280622962,-136.06981294001608,0,1.6996409893035889,2019-07-24 11:19:03:856
0.40473663806915283,-0.10335978865623474,9.77996826171875,-0.0007858243914067938,-0.0005969601719460336,0.001535687265570461,-140.4542683230511,-136.93620696051082,0,1.7018969058990479,2019-07-24 11:19:03:858
0.5316583514213562,-0.2039392739534378,9.760810852050781,-0.003449635732317621,0.0015340889788049254,0.0007365438828027872,-141.1831476777952,-137.7728252423227,0,1.7056071758270264,2019-07-24 11:19:03:862
0.39036813378334045,-0.10814929008483887,9.782362937927246,0.0021443682071304202,-0.00805563213455581,0.001002925010392012,-141.91192350305894,-138.60519496072015,0,1.7097134590148926,2019-07-24 11:19:03:866
0.47657912969589233,-0.01954355277121067,9.803915977478027,-0.0013185867116038243,-0.01151858679321573,0.0034003552887321956,-142.61656264940544,-139.43063938653287,0,1.7119739055633545,2019-07-24 11:19:03:868
0.46221062541007996,-0.15364953875541687,9.796731948852539,0.002410749334719645,-0.01551430422720275,-0.0029927920334835195,-143.30622123599667,-140.2246751667118,0,1.7165493965148926,2019-07-24 11:19:03:873
0.3736048936843872,-0.1320967823266983,9.787153244018555,-0.002650492349549947,-0.014981541972024299,0.00206844952074891,-143.9937779591354,-141.00425676536716,0,1.7196366786956787,2019-07-24 11:19:03:876
0.39036813378334045,-0.12730729579925537,9.760810852050781,-0.0005194432313082785,-0.012584111303572627,0.0055314043094459924,-144.66650405085332,-141.76916086427755,0,1.7218921184539795,2019-07-24 11:19:03:878
0.09102443605661392,-0.165623277425766,9.643467903137207,0.010668565070208582,-0.009387537772501934,-0.013648037917275478,-145.36039677823317,-142.51632775027244,0,1.7256128787994385,2019-07-24 11:19:03:882
0.07426118850708008,-0.27817651629447937,9.806310653686523,-0.025292889755079987,0.0028659946167510484,0.006330547692213666,-146.0451749441417,-143.22764617183677,0,1.7297372817993164,2019-07-24 11:19:03:886
1.1016087532043457,0.2941686511039734,9.32017707824707,0.0021443682071304202,0.03030325283903578,0.001535687265570461,-146.59331253545514,-136.79952230785796,0,1.7320048809051514,2019-07-24 11:19:03:888
-0.1628190279006958,-0.309308260679245,9.91646957397461,-0.014371263003773128,0.005529806412791945,-6.259956904712911e-05,-140.0816713866238,-137.62413130540185,0,1.7365522384643555,2019-07-24 11:19:03:893
0.5340531468391418,-0.33086100220680237,10.086496353149414,-0.028489463286150683,-0.009387537772501934,0.0073960722025705646,-140.81779379392552,-138.42913397851945,0,1.7396399974822998,2019-07-24 11:19:03:896
0.6753433346748352,0.272615909576416,9.547677993774414,0.02638505211812148,0.00819361768868419,-0.014979944075370252,-141.52155662259722,-132.09660722447572,0,1.7418980598449707,2019-07-24 11:19:03:898
0.28499916195869446,-0.009964553639292717,9.744047164916992,-0.006912590911126191,-0.007256488751788136,0.006330547692213666,-142.2561089710977,-133.0520650682049,0,1.745603322982788,2019-07-24 11:19:03:902
-0.6297951936721802,-0.5631517171859741,9.964364051818848,-0.008244496549072314,-0.0019288658098921565,-0.004857460186682417,-135.88287470774958,-133.92443507716527,0,1.7496953010559082,2019-07-24 11:19:03:906
1.8296127319335938,0.2342999130487442,9.382440567016602,-0.013838500748594681,0.005796187540381169,0.00366673641632142,-136.54526414229747,-127.67280055100287,0,1.7519550323486328,2019-07-24 11:19:03:908
-0.22029303014278412,0.25824740529060364,9.76799488067627,0.04556449330454565,0.009259142199041089,-0.013648037917275478,-130.24212178849737,-121.55910144050847,0,1.7556557655334473,2019-07-24 11:19:03:912
1.2548727989196777,-0.3667822480201721,9.837442398071289,-0.055926719947989464,-0.03442736584648365,0.012457314667063131,-131.0839789857498,-122.67236232737793,0,1.7597484588623047,2019-07-24 11:19:03:916
0.42389464378356934,0.05708843842148781,9.56204605102539,0.03757305843657162,0.007128093178327292,-0.029630906612926253,-132.01243993454898,-116.63053645796799,0,1.7620141506195068,2019-07-24 11:19:03:918
0.007208196446299553,-0.09378079324960709,9.633889198303223,-0.023694601949247343,0.001267707851215701,0.009793502350873586,-132.971658556015,-117.88070024035788,0,1.7665772438049316,2019-07-24 11:19:03:923
0.5148951411247253,-0.1967550367116928,9.514151573181152,-0.008777258804250763,0.026041154797608188,-0.006455746952217765,-133.85478964147515,-119.09786848714724,0,1.7696681022644043,2019-07-24 11:19:03:926
1.9517449140548706,0.20316816866397858,9.286649703979492,0.007205609891400012,0.036962782589212345,-0.01258251340691858,-134.54504334306873,-113.14189852566255,0,1.7719461917877197,2019-07-24 11:19:03:928
-0.8644806742668152,-0.3212819993495941,10.234971046447754,-0.032751561327578275,-0.008854775517323483,0.0159202688055744,-128.34840570931865,-114.4346107733662,0,1.7765631675720215,2019-07-24 11:19:03:933
1.2596622705459595,-0.08899129182100296,9.777573585510254,-0.009043639411691338,-0.016313447089821773,-0.006722128079806988,-129.23179174416535,-115.7339235513964,0,1.779646396636963,2019-07-24 11:19:03:936
0.19878816604614258,0.004403944592922926,9.705731391906738,0.054355072075436016,0.00526342476505407,-0.03762233940030569,-130.2243565831517,-109.82665816503817,0,1.781904935836792,2019-07-24 11:19:03:938
1.2764254808425903,0.17682592570781708,9.631494522094727,-0.04420595241465818,-0.019510020620892465,0.03643161510979605,-131.06479083686256,-104.0418831265176,0,1.7856426239013672,2019-07-24 11:19:03:942
-0.9219546914100647,-0.5296252369880676,10.043391227722168,0.03597477479192817,-0.007789251006966585,-0.03149557502619948,-124.9465994774687,-105.50895557380507,0,1.7897429466247559,2019-07-24 11:19:03:946
1.4823739528656006,-0.3955192565917969,10.026627540588379,-0.056193102636024644,-0.03256269743321042,0.018850461729204522,-125.87532646876664,-106.94644753987406,0,1.792008876800537,2019-07-24 11:19:03:948
-0.5555579662322998,0.3923533856868744,9.530914306640625,0.06900603669358661,0.010591048357135861,-0.022172235040427965,-119.82724607130767,-101.27229674534655,0,1.7965593338012695,2019-07-24 11:19:03:953
1.2357147932052612,-0.6924682259559631,10.045785903930664,-0.06551644262179615,-0.03416098523904307,0.02444446488842959,-120.88452678391765,-102.75662890117822,0,1.7996466159820557,2019-07-24 11:19:03:956
0.6202641129493713,-0.3883350193500519,9.636283874511719,-0.009842783314607662,-0.0019288658098921565,-0.010717844993645358,-121.99293343000333,-104.25409339743086,0,1.8019053936004639,2019-07-24 11:19:03:958
1.1518985033035278,0.47377488017082214,9.277070999145508,0.006406466508632338,0.004997043637464845,0.0026012119059645217,-123.01255923034977,-98.62882036196626,0,1.8056259155273438,2019-07-24 11:19:03:962
-1.1494559049606323,-0.536809504032135,10.055364608764648,-0.008244496549072314,-0.003260771577875442,0.0055314043094459924,-117.08209047200889,-100.19349820089617,0,1.8091440200805664,2019-07-24 11:19:03:965
1.9349817037582397,-0.16801802814006805,9.645862579345703,-0.019432503907819747,0.0010013267236264765,0.0007365438828027872,-118.11375108181537,-101.76647612242026,0,1.8120710849761963,2019-07-24 11:19:03:968
-0.6800849437713623,-0.10096504539251328,9.835047721862793,0.0034762738450765432,-6.419785581266445e-05,0.0023348307783752974,-112.23057294275537,-103.32026273654688,0,1.8165769577026367,2019-07-24 11:19:03:973
1.2165567874908447,-0.18238653242588043,10.014654159545898,-0.029821368403948157,-0.02270659415196316,0.020715130142477743,-113.44350877258745,-104.82783124532276,0,1.8196580410003662,2019-07-24 11:19:03:976
0.8190283179283142,-0.04828054830431938,9.815889358520508,0.032511818572822294,-0.006723726496609687,-0.014713562427632377,-114.67839081574479,-106.32977096786564,0,1.8219218254089355,2019-07-24 11:19:03:978
1.5973219871520996,0.025956692174077034,9.7392578125,-0.014904025258951578,-0.03549288827624594,0.02231341586771579,-115.79116046031747,-100.60313020495408,0,1.8256254196166992,2019-07-24 11:19:03:982
-1.0416921377182007,-0.43623000383377075,10.024232864379883,0.013332376346100827,-0.04454984973517148,-0.0043246979315039675,-109.98520938953443,-102.14385994893438,0,1.8291363716125488,2019-07-24 11:19:03:985
1.642822265625,-0.22549203038215637,9.693758010864258,-0.030354131699423907,-0.029898885117020876,0.014854744295217503,-111.18821418640962,-103.66933886502599,0,1.8320658206939697,2019-07-24 11:19:03:988
-0.49329447746276855,0.1552731692790985,9.557256698608398,0.033577343083179195,0.007128093178327292,-0.001927267523126621,-105.4253433085907,-98.0230458368863,0,1.8365626335144043,2019-07-24 11:19:03:993
0.9148183465003967,-0.5032829642295837,10.03620719909668,-0.04979995557388325,-0.01737897264047597,0.02497722818390534,-106.80965216096784,-99.5965155839034,0,1.8396573066711426,2019-07-24 11:19:03:996
0.6705538630485535,-0.4266510009765625,9.705731391906738,0.00880389665693536,0.0023332323615725993,-0.014180800172453928,-108.19471131083804,-101.15536206652102,0,1.8419175148010254,2019-07-24 11:19:03:998
0.8549495935440063,0.12174668163061142,9.741652488708496,-0.009842783314607662,-0.010453062282858831,0.008727977840516687,-109.52833425577136,-95.54453031200958,0,1.8456175327301025,2019-07-24 11:19:04:002
-0.033502548933029175,-0.12012303620576859,9.839837074279785,-0.0031832546047283966,-0.006990107624198911,0.014321982040039054,-103.74029019209796,-97.21902328919566,0,1.8491308689117432,2019-07-24 11:19:04:005
0.9675028324127197,-0.23267628252506256,9.564440727233887,0.0008124625041657164,-0.00033057901184751836,-0.0069885092073962134,-105.14990666743064,-98.84690452768872,0,1.8520495891571045,2019-07-24 11:19:04:008
0.27302542328834534,-0.05546479672193527,9.744047164916992,-0.0013185867116038243,-0.004859058603485115,0.017784937218847625,-106.61357504960436,-100.46310898550095,0,1.8565711975097656,2019-07-24 11:19:04:013
0.560395359992981,-0.009964553639292717,9.897311210632324,0.004541798615507767,-0.019510020620892465,0.015387506550395953,-108.01309790381603,-102.05348273864286,0,1.8596675395965576,2019-07-24 11:19:04:016
0.6609748601913452,-0.3332557678222656,9.897311210632324,0.008537515529346135,-0.026435930978509607,-0.0005953618851804982,-109.3730037828577,-103.57494686730463,0,1.8619699478149414,2019-07-24 11:19:04:018
0.6873171329498291,-0.165623277425766,9.801521301269531,-0.007978115421483089,-0.037091176082078584,0.011658170764146809,-110.6957718164521,-105.08203278688008,0,1.8665542602539062,2019-07-24 11:19:04:023
0.35923638939857483,-0.0339120514690876,9.756021499633789,0.001877987079541196,-0.026435930978509607,0.011658170764146809,-112.03510349270405,-106.57673407810798,0,1.8696377277374268,2019-07-24 11:19:04:026
0.9076340794563293,-0.050675299018621445,9.57880973815918,0.002410749334719645,-0.013916017461667402,0.0055314043094459924,-113.28437711479606,-108.0394432639014,0,1.871899127960205,2019-07-24 11:19:04:028
0.44784215092658997,-0.211123526096344,9.564440727233887,-0.004781541370263744,-0.007522869879377361,0.006064166564624441,-114.56350209587701,-109.45236547683598,0,1.875617504119873,2019-07-24 11:19:04:032
0.5196846127510071,-0.050675299018621445,9.765600204467773,-0.013572119100856806,-0.007522869879377361,0.016186650453312277,-115.80982208119414,-110.85468991729002,0,1.8791368007659912,2019-07-24 11:19:04:035
0.8908708095550537,-0.0794122964143753,9.784757614135742,0.0069392287638107885,-0.008322013262145034,0.0018020683931596856,-116.98821335921384,-112.22943619303857,0,1.8820626735687256,2019-07-24 11:19:04:038
0.6873171329498291,-0.20633402466773987,10.000285148620605,-0.011973832335321457,-0.03016526780505605,0.014321982040039054,-118.16216657135246,-113.5581716793628,0,1.886577844619751,2019-07-24 11:19:04:043
0.7447910904884338,-0.029122551903128624,9.839837074279785,-0.002650492349549947,-0.03309545864809157,0.011924551371587381,-119.30662454503701,-114.88315801853396,0,1.889660120010376,2019-07-24 11:19:04:046
1.1327404975891113,0.006798694375902414,9.8302583694458,-0.0002530620874644087,-0.028833360606663975,0.0073960722025705646,-120.38537881568651,-108.98625535535791,0,1.8919141292572021,2019-07-24 11:19:04:048
0.7064750790596008,-0.12012303620576859,9.854206085205078,-0.003449635732317621,-0.04614813754100412,0.012190933019325256,-121.48602077307216,-110.39184182306757,0,1.8956332206726074,2019-07-24 11:19:04:052
0.7519753575325012,-0.021938301622867584,9.878152847290039,-0.0018513489667822737,-0.05520509483874046,0.014854744295217503,-122.55650759547069,-111.78103320142723,0,1.8997392654418945,2019-07-24 11:19:04:056
0.8070545792579651,0.04990419000387192,9.734468460083008,0.008537515529346135,-0.054405950935824135,0.010326264606052035,-123.6036626577562,-105.95237411612285,0,1.9020068645477295,2019-07-24 11:19:04:058
0.5316583514213562,-0.08899129182100296,9.799126625061035,-0.007711734293893865,-0.05973357556820323,0.0180513178262882,-124.6541795003277,-107.42094517425258,0,1.9065680503845215,2019-07-24 11:19:04:063
0.5340531468391418,0.025956692174077034,9.636283874511719,-0.0010522055189960183,-0.04454984973517148,0.015387506550395953,-125.68991350922987,-101.67543015412127,0,1.9096620082855225,2019-07-24 11:19:04:066
0.5340531468391418,-0.043491050601005554,9.523730278015137,0.004275417227844217,-0.03416098523904307,0.01458836368777693,-126.70759186741141,-103.23723084538533,0,1.9119205474853516,2019-07-24 11:19:04:068
0.2969729006290436,-0.06504379957914352,9.69854736328125,-0.00851087767666154,-0.03309545864809157,0.0180513178262882,-127.73148246125264,-104.76303188165387,0,1.9156229496002197,2019-07-24 11:19:04:072
