ACCELEROMETER X (m/s²),ACCELEROMETER Y (m/s²),ACCELEROMETER Z (m/s²),GYROSCOPE X (rad/s),GYROSCOPE Y (rad/s),GYROSCOPE Z (rad/s),Pitch (Deg),Roll (Deg),Heading (Deg),Time since start in ms ,YYYY-MO-DD HH-MI-SS_SSS
0.33289414644241333,-0.07462279498577118,9.7392578125,-0.005047922497852969,-0.0035271527054646663,-0.009385939875847885,-3.5608471050878823,-3.5912200957722096,0,0.0,2019-07-24 10:50:45:422
0.30415716767311096,-0.05307004973292351,9.791942596435547,-0.006113447008209866,-0.006990107624198911,-0.00858679597293156,-7.052354183037902,-7.111704477779859,0,0.004313468933105469,2019-07-24 10:50:45:426
0.27781492471694946,0.028351441025733948,9.803915977478027,-0.006113447008209866,-0.009920300027680382,-0.010717844993645358,-10.476950420685563,-3.3716173754612613,0,0.007712602615356445,2019-07-24 10:50:45:429
0.18920917809009552,0.061877936124801636,9.674599647521973,-0.0037160168599068453,-0.007789251006966585,-0.008853177620669435,-13.844013867512519,0.2889578900918468,0,0.00997471809387207,2019-07-24 10:50:45:432
0.21555142104625702,0.040325190871953964,9.72728443145752,-0.004248779115085295,-0.009653919420239807,-0.010984226641383233,-17.139391690927237,3.8794639352705937,0,0.01431584358215332,2019-07-24 10:50:45:436
0.28499916195869446,0.028351441025733948,9.76799488067627,-0.00398239798749607,-0.008322013262145034,-0.010451464386204784,-20.36159124979908,7.399308535944037,0,0.01771402359008789,2019-07-24 10:50:45:439
0.29218339920043945,-0.01954355277121067,9.753625869750977,-0.005314303625442193,-0.00432629608823234,-0.010984226641383233,-23.51949383890141,3.6542920447649014,0,0.019971370697021484,2019-07-24 10:50:45:442
0.2562621533870697,0.08103593438863754,9.813494682312012,-0.006646209783536966,-0.0029943904502862176,-0.010451464386204784,-26.61845549345378,7.173367945366955,0,0.024323225021362305,2019-07-24 10:50:45:446
0.29218339920043945,-0.0003855547111015767,9.681783676147461,-0.006912590911126191,-0.005658201986252788,-0.008320414845342336,-29.65043352128961,3.4312670438255086,0,0.027726173400878906,2019-07-24 10:50:45:449
0.2826044261455536,0.03553568944334984,9.791942596435547,-0.004781541370263744,-0.0035271527054646663,-0.013648037917275478,-32.62391436534195,6.959089743320325,0,0.029985666275024414,2019-07-24 10:50:45:452
0.2826044261455536,-0.029122551903128624,9.787153244018555,-0.0037160168599068453,-0.006190964241431238,-0.011783369504002255,-35.53684759422806,3.2242236547097725,0,0.03432750701904297,2019-07-24 10:50:45:456
0.1772354245185852,0.03074619174003601,9.787153244018555,-0.002117730094371498,-0.001662484682302932,-0.006455746952217765,-38.40504332467557,6.756544671439615,0,0.03773641586303711,2019-07-24 10:50:45:459
0.28499916195869446,0.047509439289569855,9.813494682312012,-0.004781541370263744,-0.00432629608823234,-0.01258251340691858,-41.20312399045546,10.216472553210668,0,0.03999495506286621,2019-07-24 10:50:45:462
0.3161309063434601,0.028351441025733948,9.820679664611816,-0.004515160242674519,-0.00432629608823234,-0.008320414845342336,-43.94113657992974,13.609931067153834,0,0.044318437576293945,2019-07-24 10:50:45:466
0.31852564215660095,0.07385168224573135,9.753625869750977,-0.0002530620874644087,-0.00512543973107434,-0.007787652590163887,-46.623926283307505,16.92910437774447,0,0.04771852493286133,2019-07-24 10:50:45:469
0.30655190348625183,0.03553568944334984,9.770389556884766,-0.0029168734771391714,-0.003260771577875442,-0.008853177620669435,-49.25509140179925,20.186725171877974,0,0.04998159408569336,2019-07-24 10:50:45:472
0.2754201591014862,-0.036306798458099365,9.772784233093262,-0.004781541370263744,-0.003793533833053891,-0.011250607248823808,-51.8367797363435,16.18841219713787,0,0.05431842803955078,2019-07-24 10:50:45:476
0.29218339920043945,0.07864118367433548,9.72728443145752,-0.0007858243914067938,-0.002728009322696993,-0.010185082738466909,-54.365109203865835,19.455531070628414,0,0.057744741439819336,2019-07-24 10:50:45:479
0.33049941062927246,0.02356194145977497,9.763205528259277,-0.005580684753031417,-0.003260771577875442,-0.007521271462574662,-56.83861731465396,22.66436269367865,0,0.06000328063964844,2019-07-24 10:50:45:482
0.25386741757392883,0.004403944592922926,9.763205528259277,-0.0037160168599068453,-0.0005969601719460336,-0.0069885092073962134,-59.27191056190379,25.81145797008124,0,0.06431388854980469,2019-07-24 10:50:45:486
0.33768364787101746,0.06666743755340576,9.787153244018555,-0.003449635732317621,0.00020218329209486678,-0.007254890334985439,-61.646989425003675,28.888082357985976,0,0.06771659851074219,2019-07-24 10:50:45:489
0.3472626507282257,0.021167192608118057,9.746441841125488,-0.002117730094371498,-0.0021952470675185437,-0.006455746952217765,-63.972959895105944,31.908100593994796,0,0.06997513771057129,2019-07-24 10:50:45:492
0.28020966053009033,0.07385168224573135,9.8302583694458,-0.0015849678391930489,-0.002461628195107768,-0.0029927920334835195,-66.26024457733783,34.86171670773383,0,0.07432222366333008,2019-07-24 10:50:45:496
0.31852564215660095,0.03074619174003601,9.71052074432373,1.3319057395376562e-05,-0.0029943904502862176,-0.00565660356945009,-68.49688276624798,37.76085151187685,0,0.07778334617614746,2019-07-24 10:50:45:499
0.23470941185951233,0.04990419000387192,9.76799488067627,-0.005047922497852969,-0.005658201986252788,-0.00565660356945009,-70.69849183405495,40.600604484701876,0,0.08069181442260742,2019-07-24 10:50:45:502
0.2299199253320694,0.004403944592922926,9.801521301269531,-0.0029168734771391714,-0.0021952470675185437,-0.0043246979315039675,-72.85713123295022,43.388762200627056,0,0.08487224578857422,2019-07-24 10:50:45:506
0.28020966053009033,0.0379304401576519,9.80870532989502,-0.005047922497852969,-0.00432629608823234,-0.0043246979315039675,-74.96636084635298,46.11760673378836,0,0.08858036994934082,2019-07-24 10:50:45:510
0.42149990797042847,0.061877936124801636,9.758416175842285,-0.00398239798749607,-0.006990107624198911,-0.0037919356763255183,-77.01664375118766,48.78851519983027,0,0.09093594551086426,2019-07-24 10:50:45:513
0.30415716767311096,0.04990419000387192,9.8302583694458,-0.002117730094371498,-0.003260771577875442,-0.005390222441860866,-79.04022276611167,51.40734568589771,0,0.094451904296875,2019-07-24 10:50:45:516
0.22752517461776733,0.0642726868391037,9.748836517333984,-0.004781541370263744,-0.004059914960643116,-0.0016608863955373968,-81.03197454398415,53.97247367440848,0,0.09754204750061035,2019-07-24 10:50:45:519
0.19639341533184052,0.07864118367433548,9.811100006103516,-0.0013185867116038243,-0.004059914960643116,-0.0016608863955373968,-82.9876909949661,56.48406947644783,0,0.10065126419067383,2019-07-24 10:50:45:522
0.27781492471694946,0.061877936124801636,9.715310096740723,0.0016116059519519711,-0.0013961035547137074,-0.0005953618851804982,-84.89489150317908,58.946759017175694,0,0.10430574417114258,2019-07-24 10:50:45:526
0.2682359218597412,0.06906218826770782,9.746441841125488,-0.0023841112219607223,-0.00512543973107434,0.00020378157886040212,-86.76457625303274,61.36011727125006,0,0.1073918342590332,2019-07-24 10:50:45:529
0.2897886633872986,0.07624643296003342,9.92844295501709,-0.004515160242674519,-0.004859058603485115,0.000470162722704272,-88.59495475373753,63.72494454044839,0,0.11066412925720215,2019-07-24 10:50:45:532
0.31134140491485596,0.11216767877340317,9.80870532989502,-0.0013185867116038243,-0.004859058603485115,0.0012693061379812365,-90.38569796891768,66.0376126307608,0,0.1143183708190918,2019-07-24 10:50:45:536
0.27781492471694946,0.11456242948770523,9.729679107666016,-0.0029168734771391714,-0.005658201986252788,-0.000328980725081983,-92.14429087810835,68.30387476381745,0,0.11741018295288086,2019-07-24 10:50:45:539
0.26584115624427795,0.1097729280591011,9.825469017028809,-0.0015849678391930489,-0.006190964241431238,0.001002925010392012,-93.8692805253838,70.52528404475962,0,0.12065458297729492,2019-07-24 10:50:45:542
0.23949891328811646,0.040325190871953964,9.691362380981445,-0.0015849678391930489,-0.003793533833053891,-6.259956904712911e-05,-95.56280276432096,72.71033591880702,0,0.1243133544921875,2019-07-24 10:50:45:546
0.2826044261455536,0.040325190871953964,9.777573585510254,1.3319057395376562e-05,-0.00459267747589589,0.0018020683931596856,-97.21763784116844,74.85140086873166,0,0.12740516662597656,2019-07-24 10:50:45:549
0.2945781648159027,0.09779918193817139,9.717704772949219,-0.0005194432313082785,-0.00858839438973426,0.0018020683931596856,-98.83699391458286,76.9429353786238,0,0.13065052032470703,2019-07-24 10:50:45:552
0.23470941185951233,0.11935193091630936,9.8302583694458,-0.004515160242674519,-0.004859058603485115,0.001535687265570461,-100.43190313487104,78.99108994802157,0,0.13430094718933105,2019-07-24 10:50:45:556
0.24189366400241852,0.0642726868391037,9.775178909301758,-0.0015849678391930489,-0.0029943904502862176,0.0026012119059645217,-101.99439629555208,81.00400798329412,0,0.13738226890563965,2019-07-24 10:50:45:559
0.22034092247486115,0.07385168224573135,9.78954792022705,-0.0010522055189960183,-0.005391820858663564,0.0031339741611429712,-103.52780509687108,82.9754619601164,0,0.14040660858154297,2019-07-24 10:50:45:562
0.21555142104625702,0.1097729280591011,9.7392578125,-0.0013185867116038243,-0.00512543973107434,0.0028675930335537465,-105.03046928995666,84.90340332292693,0,0.14534831047058105,2019-07-24 10:50:45:567
0.28499916195869446,0.10498343408107758,9.741652488708496,-0.0023841112219607223,-0.0035271527054646663,0.004465879799089094,-106.49574688956258,86.79339066979625,0,0.14836764335632324,2019-07-24 10:50:45:570
0.2227356731891632,0.07624643296003342,9.775178909301758,-0.0007858243914067938,-0.006190964241431238,0.0023348307783752974,-107.93892984399005,88.64868592541023,0,0.15065741539001465,2019-07-24 10:50:45:572
0.29218339920043945,0.047509439289569855,9.6482572555542,-0.0037160168599068453,-0.004859058603485115,0.0023348307783752974,-109.3444607042833,90.47083341012767,0,0.15431809425354004,2019-07-24 10:50:45:576
0.32570990920066833,0.10258868336677551,9.794337272644043,-0.0037160168599068453,-0.00512543973107434,0.006064166564624441,-110.71849864662114,92.25012472145205,0,0.15772175788879395,2019-07-24 10:50:45:579
0.3352889120578766,0.07385168224573135,9.684178352355957,-0.002650492349549947,-0.005391820858663564,0.003933117543910645,-112.06378603028803,93.99671996729101,0,0.15998172760009766,2019-07-24 10:50:45:582
0.37121015787124634,0.10498343408107758,9.760810852050781,-0.004248779115085295,-0.0064573453690204615,0.0031339741611429712,-113.37729264844685,95.70555242355398,0,0.16455650329589844,2019-07-24 10:50:45:586
0.2706306576728821,0.033140942454338074,9.815889358520508,-0.005580684753031417,-0.003793533833053891,0.005265023181856767,-114.67743328902262,97.38864322459887,0,0.16797351837158203,2019-07-24 10:50:45:590
0.36402589082717896,0.040325190871953964,9.813494682312012,-0.0037160168599068453,-0.0029943904502862176,0.003933117543910645,-115.94099692727355,99.03665816381223,0,0.17035317420959473,2019-07-24 10:50:45:592
0.2706306576728821,0.04990419000387192,9.806310653686523,-0.003449635732317621,-0.003793533833053891,0.006596928819802891,-117.18970634385518,100.65087021696343,0,0.1743631362915039,2019-07-24 10:50:45:596
0.21794617176055908,0.033140942454338074,9.72728443145752,-0.005047922497852969,-0.00512543973107434,0.005797785437035217,-118.41926595354778,102.23490949885255,0,0.17775297164916992,2019-07-24 10:50:45:599
0.2969729006290436,0.0642726868391037,9.729679107666016,-0.0023841112219607223,-0.003260771577875442,0.004732260926678319,-119.61550277893484,103.78294339260466,0,0.180006742477417,2019-07-24 10:50:45:602
0.31852564215660095,0.04990419000387192,9.744047164916992,-0.0015849678391930489,-0.0035271527054646663,0.006064166564624441,-120.78489727928459,105.3017975641238,0,0.1842968463897705,2019-07-24 10:50:45:606
0.2634464204311371,0.11216767877340317,9.88773250579834,-0.003449635732317621,-0.005658201986252788,0.004465879799089094,-121.93769230401452,106.78336191063309,0,0.18739008903503418,2019-07-24 10:50:45:609
0.33768364787101746,0.033140942454338074,9.878152847290039,-0.00398239798749607,-0.004059914960643116,0.006064166564624441,-123.0592052872657,108.24441459541625,0,0.18991422653198242,2019-07-24 10:50:45:612
0.33049941062927246,0.07145693898200989,9.803915977478027,-0.003449635732317621,-0.003260771577875442,0.007129691074981339,-124.15860316539387,109.67202353724055,0,0.19429850578308105,2019-07-24 10:50:45:616
0.3017624020576477,0.05948318913578987,9.700942039489746,-0.0018513489667822737,-0.0029943904502862176,0.0055314043094459924,-125.23927736283031,111.07187813138245,0,0.19739007949829102,2019-07-24 10:50:45:619
0.22752517461776733,0.09540443122386932,9.674599647521973,-0.003449635732317621,-0.0019288658098921565,0.004998642054267543,-126.30722507260431,112.43971711141431,0,0.20036602020263672,2019-07-24 10:50:45:622
0.2826044261455536,0.09779918193817139,9.770389556884766,1.3319057395376562e-05,-0.002728009322696993,0.005265023181856767,-127.34733921089253,113.77944986462319,0,0.20431876182556152,2019-07-24 10:50:45:626
0.34965741634368896,0.08582543581724167,9.842231750488281,-0.00398239798749607,-0.003260771577875442,0.004998642054267543,-128.35913347820997,115.09455985675473,0,0.20741009712219238,2019-07-24 10:50:45:629
0.33768364787101746,0.10258868336677551,9.775178909301758,0.0010788436317549408,-0.00512543973107434,0.00206844952074891,-129.35152771848342,116.3804633501822,0,0.2103745937347412,2019-07-24 10:50:45:632
0.24668316543102264,0.07145693898200989,9.777573585510254,-0.0015849678391930489,-0.003260771577875442,0.005797785437035217,-130.33486941703748,117.6448310338316,0,0.2143235206604004,2019-07-24 10:50:45:636
0.2227356731891632,0.054693687707185745,9.772784233093262,-0.0029168734771391714,-0.003793533833053891,0.00766245385030844,-131.30136141459943,118.88605809144579,0,0.21760082244873047,2019-07-24 10:50:45:639
0.34965741634368896,0.02356194145977497,9.748836517333984,-0.0023841112219607223,-0.003793533833053891,0.0034003552887321956,-132.2337707426406,120.10586965535892,0,0.21985888481140137,2019-07-24 10:50:45:641
0.33289414644241333,0.05708843842148781,9.705731391906738,-0.0018513489667822737,-0.003260771577875442,0.006596928819802891,-133.149118063745,121.29740346371477,0,0.22362327575683594,2019-07-24 10:50:45:645
0.28499916195869446,0.061877936124801636,9.700942039489746,-0.0005194432313082785,-0.002461628195107768,0.007928834977897663,-134.05196670341127,122.46425454901247,0,0.22733759880065918,2019-07-24 10:50:45:649
0.3352889120578766,0.04271994158625603,9.732073783874512,-0.002650492349549947,-0.007789251006966585,0.006863309947392116,-134.93025236894366,123.6103516479292,0,0.23010778427124023,2019-07-24 10:50:45:652
0.28020966053009033,0.025956692174077034,9.77996826171875,-0.0002530620874644087,-0.003260771577875442,0.007928834977897663,-135.79821558258928,124.7351505211157,0,0.23343205451965332,2019-07-24 10:50:45:655
0.39755240082740784,0.05708843842148781,9.643467903137207,-0.0007858243914067938,-0.00432629608823234,0.00419949867149987,-136.63403857537318,125.8338453344681,0,0.23754453659057617,2019-07-24 10:50:45:659
0.3400784134864807,0.0834306851029396,9.71052074432373,-0.0018513489667822737,-0.00432629608823234,0.004732260926678319,-137.46068860672557,126.90756017509914,0,0.2398240566253662,2019-07-24 10:50:45:661
0.2897886633872986,0.047509439289569855,9.75123119354248,-0.0015849678391930489,-0.005391820858663564,0.0055314043094459924,-138.27628100833496,127.96416380364641,0,0.2436203956604004,2019-07-24 10:50:45:665
0.37121015787124634,-0.002780304290354252,9.803915977478027,-0.004781541370263744,-0.005658201986252788,0.006330547692213666,-139.06621740652625,121.80619453790582,0,0.24730420112609863,2019-07-24 10:50:45:669
0.37599965929985046,0.05708843842148781,9.71052074432373,-0.002650492349549947,-0.003260771577875442,0.004998642054267543,-139.84012811264571,122.96367221515598,0,0.24957776069641113,2019-07-24 10:50:45:671
0.3688153922557831,0.0642726868391037,9.782362937927246,-0.0005194432313082785,-0.001662484682302932,0.006863309947392116,-140.5996917897101,124.09701077130198,0,0.2544071674346924,2019-07-24 10:50:45:676
0.28499916195869446,-0.0003855547111015767,9.693758010864258,-0.0005194432313082785,-0.004859058603485115,0.007129691074981339,-141.35317347481737,118.01520635253024,0,0.25750041007995605,2019-07-24 10:50:45:679
0.3736048936843872,0.004403944592922926,9.784757614135742,-0.0023841112219607223,-0.0005969601719460336,0.004732260926678319,-142.0823009009022,119.25469245290412,0,0.25978612899780273,2019-07-24 10:50:45:681
0.20836716890335083,0.0834306851029396,9.763205528259277,0.00027970021647797646,-0.002728009322696993,0.006596928819802891,-142.81550369593515,120.45973487896316,0,0.2643473148345947,2019-07-24 10:50:45:686
0.2826044261455536,0.021167192608118057,9.693758010864258,-0.00398239798749607,-0.002461628195107768,0.006330547692213666,-143.52536756048193,121.64873099182213,0,0.26744651794433594,2019-07-24 10:50:45:689
0.3209204077720642,0.033140942454338074,9.794337272644043,1.3319057395376562e-05,-0.004059914960643116,0.008994359488254562,-144.21680886656603,122.81187727181276,0,0.2697179317474365,2019-07-24 10:50:45:691
0.28499916195869446,-0.050675299018621445,9.803915977478027,-0.0005194432313082785,-0.002461628195107768,0.005797785437035217,-144.89853067304534,116.76169776638066,0,0.27434611320495605,2019-07-24 10:50:45:696
0.2371041625738144,0.10498343408107758,9.806310653686523,-0.0013185867116038243,-0.0035271527054646663,0.006863309947392116,-145.57224548966147,118.01442568027831,0,0.27744221687316895,2019-07-24 10:50:45:699
0.19399867951869965,0.009193443693220615,9.691362380981445,0.0013452248243627468,-0.002461628195107768,0.006330547692213666,-146.23755192979132,119.25287900658677,0,0.279707670211792,2019-07-24 10:50:45:701
0.2227356731891632,0.14090467989444733,9.72728443145752,-0.0031832546047283966,-0.0021952470675185437,0.00766245385030844,-146.8859948697083,120.45205197413009,0,0.28434324264526367,2019-07-24 10:50:45:706
0.29218339920043945,0.05229893699288368,9.823074340820312,0.0008124625041657164,-0.005391820858663564,0.0073960722025705646,-147.51326287486174,121.63676879076567,0,0.28743934631347656,2019-07-24 10:50:45:709
0.22513042390346527,0.06666743755340576,9.708126068115234,-0.0007858243914067938,-0.0008633412995352583,0.008461597233076112,-148.13631904616832,122.79626415534524,0,0.2897017002105713,2019-07-24 10:50:45:711
0.2562621533870697,0.013982943259179592,9.796731948852539,0.0008124625041657164,-0.00432629608823234,0.007928834977897663,-148.7424955229417,123.9384912395336,0,0.29435014724731445,2019-07-24 10:50:45:716
0.2945781648159027,0.04990419000387192,9.770389556884766,-0.0007858243914067938,-0.0019288658098921565,0.0073960722025705646,-149.3327711583489,125.05400514082028,0,0.29744744300842285,2019-07-24 10:50:45:719
0.21315667033195496,0.03074619174003601,9.700942039489746,-0.0013185867116038243,-0.0019288658098921565,0.008994359488254562,-149.9206953441142,126.14946100116406,0,0.2997140884399414,2019-07-24 10:50:45:721
0.21794617176055908,0.05229893699288368,9.820679664611816,-0.0023841112219607223,-0.002461628195107768,0.0073960722025705646,-150.49621310819086,127.22099087100342,0,0.30435657501220703,2019-07-24 10:50:45:726
0.22752517461776733,0.04990419000387192,9.758416175842285,-0.0023841112219607223,-0.00512543973107434,0.007928834977897663,-151.05868630158847,128.27112466711998,0,0.3074471950531006,2019-07-24 10:50:45:729
0.24668316543102264,0.0906149372458458,9.633889198303223,-0.0018513489667822737,-0.0005969601719460336,0.012190933019325256,-151.6081010447294,129.2951595309648,0,0.309711217880249,2019-07-24 10:50:45:731
0.19878816604614258,0.08822018653154373,9.708126068115234,-0.0023841112219607223,-0.004859058603485115,0.011391789116408934,-152.1512142216943,130.2994634772446,0,0.3143432140350342,2019-07-24 10:50:45:736
0.27781492471694946,0.04990419000387192,9.803915977478027,-0.0037160168599068453,-0.00459267747589589,0.010859026861230484,-152.6749288530392,131.28828680029056,0,0.31743693351745605,2019-07-24 10:50:45:739
0.19160392880439758,0.04990419000387192,9.7392578125,-0.002650492349549947,-0.0008633412995352583,0.008195216105486888,-153.1987796757889,132.25698557886923,0,0.31969571113586426,2019-07-24 10:50:45:741
0.18681442737579346,0.10737818479537964,9.753625869750977,-0.002650492349549947,-0.003793533833053891,0.011391789116408934,-153.71186785545203,133.1999231967756,0,0.32434725761413574,2019-07-24 10:50:45:746
0.17484067380428314,0.04990419000387192,9.75123119354248,-0.0007858243914067938,-0.0008633412995352583,0.010326264606052035,-154.21693626207946,134.1301968650978,0,0.3274424076080322,2019-07-24 10:50:45:749
0.15568268299102783,0.12414143234491348,9.617125511169434,-0.0015849678391930489,-0.00512543973107434,0.008195216105486888,-154.7133966045927,135.0330035877037,0,0.3297092914581299,2019-07-24 10:50:45:751
0.3233151435852051,0.05229893699288368,9.782362937927246,-0.0013185867116038243,-0.00512543973107434,0.010326264606052035,-155.17993498535316,135.9265604185493,0,0.33434462547302246,2019-07-24 10:50:45:756
0.2682359218597412,0.13372042775154114,9.803915977478027,-0.0007858243914067938,-0.004059914960643116,0.012723695274503706,-155.644286018702,136.7925370751987,0,0.33744049072265625,2019-07-24 10:50:45:759
0.1772354245185852,0.1097729280591011,9.75123119354248,-0.0007858243914067938,-0.002728009322696993,0.011391789116408934,-156.11022761450914,137.64388691959667,0,0.3397068977355957,2019-07-24 10:50:45:761
0.28499916195869446,0.047509439289569855,9.770389556884766,-0.0023841112219607223,-0.004059914960643116,0.00952712174343301,-156.5537545953616,138.48593739385515,0,0.3434441089630127,2019-07-24 10:50:45:765
0.22034092247486115,-0.0003855547111015767,9.777573585510254,-0.002650492349549947,-0.005391820858663564,0.0073960722025705646,-156.99561616314816,132.1168754103432,0,0.3475534915924072,2019-07-24 10:50:45:769
0.27302542328834534,0.13132567703723907,9.734468460083008,-0.0018513489667822737,-0.003793533833053891,0.008727977840516687,-157.42308653307487,133.05931666888245,0,0.349834680557251,2019-07-24 10:50:45:771
0.17005117237567902,0.1097729280591011,9.753625869750977,-0.002650492349549947,-0.005391820858663564,0.011391789116408934,-157.85328597098314,133.98590371287736,0,0.35433411598205566,2019-07-24 10:50:45:776
0.2945781648159027,0.05708843842148781,9.715310096740723,-0.0015849678391930489,-0.0021952470675185437,0.010059883998611461,-158.26110392329915,134.89972770557392,0,0.35743021965026855,2019-07-24 10:50:45:779
0.25386741757392883,0.07145693898200989,9.756021499633789,-0.003449635732317621,-0.0064573453690204615,0.009260740095695136,-158.66524798910524,135.7937792988412,0,0.3596973419189453,2019-07-24 10:50:45:781
0.19639341533184052,0.05708843842148781,9.811100006103516,-0.0023841112219607223,-0.004059914960643116,0.010859026861230484,-159.06815847443164,136.67173470735716,0,0.36342287063598633,2019-07-24 10:50:45:785
0.2873938977718353,0.09779918193817139,9.820679664611816,-0.004515160242674519,-0.005924583113842013,0.009260740095695136,-159.45190793707445,137.52792730595624,0,0.3675191402435303,2019-07-24 10:50:45:789
0.2634464204311371,0.04271994158625603,9.791942596435547,-0.00398239798749607,-0.0035271527054646663,0.007928834977897663,-159.8315966621454,138.37287793125367,0,0.369793176651001,2019-07-24 10:50:45:791
0.21794617176055908,0.0906149372458458,9.71052074432373,-0.00398239798749607,-0.001662484682302932,0.004732260926678319,-160.2088256910107,139.19574320192294,0,0.37433576583862305,2019-07-24 10:50:45:796
0.0790506899356842,0.12174668163061142,9.799126625061035,0.0008124625041657164,-0.005391820858663564,0.005265023181856767,-160.59446743755393,139.99745064474536,0,0.37743306159973145,2019-07-24 10:50:45:799
0.11736667901277542,0.11456242948770523,9.81828498840332,-0.0007858243914067938,-0.0035271527054646663,0.00766245385030844,-160.96843215959908,140.78423129079457,0,0.379697322845459,2019-07-24 10:50:45:801
0.17005117237567902,0.061877936124801636,9.756021499633789,-0.00398239798749607,-0.004859058603485115,0.007928834977897663,-161.3280724098118,141.5621142180527,0,0.38343358039855957,2019-07-24 10:50:45:805
0.2035776674747467,0.08822018653154373,9.734468460083008,-0.0031832546047283966,-0.00512543973107434,0.005265023181856767,-161.6763645093991,142.3212233438003,0,0.38755226135253906,2019-07-24 10:50:45:809
0.13652467727661133,0.01637769304215908,9.753625869750977,-0.005314303625442193,-0.007256488751788136,0.0034003552887321956,-162.02586641768764,143.0735573490269,0,0.38983988761901855,2019-07-24 10:50:45:811
0.057497940957546234,0.11456242948770523,9.756021499633789,-0.0018513489667822737,-0.0064573453690204615,0.003933117543910645,-162.37695989334745,143.79909959999463,0,0.3943512439727783,2019-07-24 10:50:45:816
0.16765642166137695,0.061877936124801636,9.799126625061035,-0.0029168734771391714,-0.00432629608823234,0.00419949867149987,-162.7090648336966,144.51638863123938,0,0.3974466323852539,2019-07-24 10:50:45:819
0.11736667901277542,0.06666743755340576,9.765600204467773,-0.006113447008209866,-0.002728009322696993,0.00366673641632142,-163.0407658670811,145.2190141096161,0,0.3997073173522949,2019-07-24 10:50:45:821
0.1389194279909134,0.10019393265247345,9.756021499633789,-0.0031832546047283966,-0.00432629608823234,0.0034003552887321956,-163.36273128510828,145.90353035597488,0,0.4034256935119629,2019-07-24 10:50:45:825
0.12215618044137955,0.1169571802020073,9.784757614135742,-0.004248779115085295,-0.00432629608823234,-0.0005953618851804982,-163.68017691932982,146.5727399468669,0,0.4075195789337158,2019-07-24 10:50:45:829
0.17484067380428314,0.12414143234491348,9.799126625061035,-0.0031832546047283966,-0.00459267747589589,0.001002925010392012,-163.98554432343744,147.22717440292115,0,0.4097890853881836,2019-07-24 10:50:45:831
0.08144544064998627,0.15766791999340057,9.746441841125488,-0.0037160168599068453,-0.00459267747589589,-0.0013945052679481718,-164.29508363558304,147.8650452039018,0,0.41434264183044434,2019-07-24 10:50:45:836
0.07665593922138214,0.10258868336677551,9.71052074432373,-0.005047922497852969,-0.00459267747589589,0.001002925010392012,-164.59933799289726,148.4965157920818,0,0.4174377918243408,2019-07-24 10:50:45:839
0.17484067380428314,0.12174668163061142,9.712915420532227,-0.004781541370263744,-0.005924583113842013,-0.0016608863955373968,-164.88597380463335,149.11282981580587,0,0.41969895362854004,2019-07-24 10:50:45:841
0.0862349346280098,0.10019393265247345,9.823074340820312,-0.0015849678391930489,-0.004859058603485115,-0.0013945052679481718,-165.1771744486971,149.71921828132125,0,0.42343878746032715,2019-07-24 10:50:45:845
0.16286692023277283,0.08582543581724167,9.75123119354248,-0.004248779115085295,-0.006723726496609687,-0.0037919356763255183,-165.45294793829336,150.31572501774096,0,0.427532434463501,2019-07-24 10:50:45:849
0.17963017523288727,0.0834306851029396,9.708126068115234,-0.002650492349549947,-0.004059914960643116,-0.004591079059093192,-165.72217134447936,150.8999004548018,0,0.42980074882507324,2019-07-24 10:50:45:851
0.0790506899356842,0.15766791999340057,9.732073783874512,-0.0018513489667822737,-0.005658201986252788,-0.003259173161072744,-165.99697478647107,151.46381219139266,0,0.43435025215148926,2019-07-24 10:50:45:856
0.22034092247486115,0.14808893203735352,9.720099449157715,-0.005047922497852969,-0.0021952470675185437,-0.004591079059093192,-166.25068278658807,152.01795422496755,0,0.4374384880065918,2019-07-24 10:50:45:859
0.20118291676044464,0.08822018653154373,9.8302583694458,-0.0031832546047283966,-0.004859058603485115,-0.005123841314271641,-166.50160275736144,152.5677162379905,0,0.43970251083374023,2019-07-24 10:50:45:861
0.21555142104625702,0.12414143234491348,9.736863136291504,-0.005580684753031417,-0.002728009322696993,-0.006722128079806988,-166.7456360995837,153.10292048691232,0,0.44342923164367676,2019-07-24 10:50:45:865
0.09341918677091599,0.06906218826770782,9.827863693237305,-0.006113447008209866,-0.005658201986252788,-0.007787652590163887,-166.9985301191388,153.63421536619776,0,0.4475243091583252,2019-07-24 10:50:45:869
0.17244592308998108,0.0834306851029396,9.777573585510254,-0.006379828135799091,-0.004859058603485115,-0.005390222441860866,-167.23773287626858,154.15256524370494,0,0.44979071617126465,2019-07-24 10:50:45:871
0.1508931815624237,0.1432994306087494,9.734468460083008,-0.0037160168599068453,-0.002728009322696993,-0.009918702131026334,-167.47451709696787,154.65359958259228,0,0.4543592929840088,2019-07-24 10:50:45:876
0.1317351758480072,0.12174668163061142,9.736863136291504,-0.002650492349549947,-0.005658201986252788,-0.004058316803914743,-167.70853981737633,155.14666119390992,0,0.4574570655822754,2019-07-24 10:50:45:879
0.19399867951869965,0.11935193091630936,9.753625869750977,-0.0037160168599068453,-0.00432629608823234,-0.010717844993645358,-167.93102995450724,155.63017882272527,0,0.4597208499908447,2019-07-24 10:50:45:881
0.17005117237567902,0.07385168224573135,9.820679664611816,-0.0037160168599068453,-0.005391820858663564,-0.00805403371775311,-168.15144530796573,156.1097326137924,0,0.46343278884887695,2019-07-24 10:50:45:885
0.17005117237567902,0.05948318913578987,9.753625869750977,-0.003449635732317621,-0.006723726496609687,-0.010451464386204784,-168.36689706438972,156.58134109328378,0,0.46751904487609863,2019-07-24 10:50:45:889
0.18202492594718933,0.07385168224573135,9.873363494873047,-0.004248779115085295,-0.002728009322696993,-0.007254890334985439,-168.57808746089657,157.04168510885694,0,0.4697909355163574,2019-07-24 10:50:45:891
0.1580774337053299,0.1097729280591011,9.863784790039062,-0.004515160242674519,-0.005924583113842013,-0.009652320483288459,-168.78664536767653,157.48925560810477,0,0.4743523597717285,2019-07-24 10:50:45:896
0.24189366400241852,0.10258868336677551,9.799126625061035,-0.004781541370263744,-0.002461628195107768,-0.007787652590163887,-168.9822029750005,157.92830559658196,0,0.4774491786956787,2019-07-24 10:50:45:899
0.18920917809009552,0.040325190871953964,9.770389556884766,-0.005047922497852969,-0.007256488751788136,-0.00805403371775311,-169.17943420329564,158.36566123367717,0,0.47974681854248047,2019-07-24 10:50:45:901
0.2371041625738144,0.05708843842148781,9.820679664611816,-0.0018513489667822737,-0.005391820858663564,-0.010451464386204784,-169.36678974299008,158.79216573722547,0,0.48435425758361816,2019-07-24 10:50:45:906
0.24428841471672058,0.01637769304215908,9.746441841125488,-0.004515160242674519,-0.0035271527054646663,-0.011516988896561683,-169.55012545904776,159.2151813730482,0,0.48744869232177734,2019-07-24 10:50:45:909
0.20836716890335083,0.09540443122386932,9.844626426696777,-0.006646209783536966,-0.00459267747589589,-0.00858679597293156,-169.7342893821363,159.62061701385656,0,0.48971033096313477,2019-07-24 10:50:45:911
0.1317351758480072,0.040325190871953964,9.799126625061035,-0.0037160168599068453,-0.004859058603485115,-0.006455746952217765,-169.92318626018917,160.02426380786306,0,0.4934234619140625,2019-07-24 10:50:45:915
0.12934042513370514,0.054693687707185745,9.885337829589844,-0.008777258804250763,-0.003793533833053891,-0.006722128079806988,-170.10885741899256,160.4194577473789,0,0.49752068519592285,2019-07-24 10:50:45:919
0.19399867951869965,0.061877936124801636,9.837442398071289,-0.0013185867116038243,-0.002728009322696993,-0.009652320483288459,-170.2837368738263,160.80402921291636,0,0.49979496002197266,2019-07-24 10:50:45:921
0.24668316543102264,0.03553568944334984,9.863784790039062,-0.005047922497852969,-0.007256488751788136,-0.010451464386204784,-170.44755807909448,161.18510855039682,0,0.5043399333953857,2019-07-24 10:50:45:926
0.26584115624427795,0.061877936124801636,9.705731391906738,-0.006113447008209866,-0.004859058603485115,-0.005390222441860866,-170.60638352967095,161.5551632759169,0,0.5074350833892822,2019-07-24 10:50:45:929
0.26105165481567383,0.040325190871953964,9.705731391906738,-0.004781541370263744,-0.0064573453690204615,-0.006455746952217765,-170.7626204194373,161.91990737267577,0,0.5097010135650635,2019-07-24 10:50:45:931
0.11018243432044983,0.07624643296003342,9.756021499633789,-0.002650492349549947,-0.003260771577875442,-0.006722128079806988,-170.93374358497394,162.27310908372328,0,0.5134327411651611,2019-07-24 10:50:45:935
0.3017624020576477,0.021167192608118057,9.842231750488281,-0.005314303625442193,-0.004859058603485115,-0.004591079059093192,-171.07882845068866,162.62640468800706,0,0.517528772354126,2019-07-24 10:50:45:939
0.24189366400241852,0.047509439289569855,9.835047721862793,-0.004248779115085295,-0.00432629608823234,-0.0061893658246285396,-171.22852295966217,162.9688820110821,0,0.5197958946228027,2019-07-24 10:50:45:941
0.1652616709470749,0.054693687707185745,9.813494682312012,-0.004781541370263744,-0.0011297224271244826,-0.006455746952217765,-171.38436815547303,163.30433967342663,0,0.5243465900421143,2019-07-24 10:50:45:946
0.37121015787124634,-0.007569803856313229,9.81828498840332,-0.005847065880620643,-0.006190964241431238,-0.005922984697039315,-171.51230222343173,156.44015105725063,0,0.5274372100830078,2019-07-24 10:50:45:949
0.34486791491508484,-0.00517505407333374,9.803915977478027,-0.002650492349549947,-0.00512543973107434,-0.005123841314271641,-171.64111159489553,149.71228999889928,0,0.5297021865844727,2019-07-24 10:50:45:951
0.21315667033195496,0.03553568944334984,9.770389556884766,-0.0010522055189960183,-0.0019288658098921565,-0.007254890334985439,-171.7828901876306,150.3140963560835,0,0.5334246158599854,2019-07-24 10:50:45:955
0.31852564215660095,0.01637769304215908,9.69854736328125,-0.0031832546047283966,-0.005391820858663564,-0.0027264109058942948,-171.90837161995384,150.90661109022767,0,0.5375185012817383,2019-07-24 10:50:45:959
0.2514726519584656,0.03553568944334984,9.729679107666016,-0.0018513489667822737,-0.007522869879377361,-0.004058316803914743,-172.03963586930973,151.4845293357346,0,0.539785623550415,2019-07-24 10:50:45:961
0.3400784134864807,0.009193443693220615,9.72728443145752,-0.0010522055189960183,-0.006190964241431238,-0.000328980725081983,-172.15721327963507,152.05402485063408,0,0.5443408489227295,2019-07-24 10:50:45:966
0.26105165481567383,-0.029122551903128624,9.835047721862793,-0.0023841112219607223,-0.005391820858663564,-0.0029927920334835195,-172.28272262871678,145.41675204499225,0,0.5474374294281006,2019-07-24 10:50:45:969
0.3017624020576477,0.011588193476200104,9.861390113830566,-0.0037160168599068453,-0.00512543973107434,-0.0013945052679481718,-172.40136317727834,146.10754203181637,0,0.5496976375579834,2019-07-24 10:50:45:971
0.27781492471694946,0.018772443756461143,9.763205528259277,-0.004515160242674519,-0.007789251006966585,-0.001927267523126621,-172.51910802737433,146.7841323130686,0,0.5534229278564453,2019-07-24 10:50:45:975
0.3017624020576477,0.033140942454338074,9.77996826171875,-0.002117730094371498,-0.005391820858663564,-0.0021936486507158457,-172.63213282336446,147.44505629365372,0,0.5575413703918457,2019-07-24 10:50:45:979
0.2107619196176529,0.0020091950427740812,9.782362937927246,-0.004515160242674519,-0.005391820858663564,-0.0013945052679481718,-172.75411832357332,148.09649494498586,0,0.5598099231719971,2019-07-24 10:50:45:981
0.2371041625738144,0.07145693898200989,9.720099449157715,-0.002650492349549947,-0.0011297224271244826,-0.0005953618851804982,-172.87080040898735,148.72681805113538,0,0.5643589496612549,2019-07-24 10:50:45:986
0.27781492471694946,-0.002780304290354252,9.801521301269531,-0.002650492349549947,-0.003260771577875442,0.001002925010392012,-172.98033440378845,142.15307720478665,0,0.5675201416015625,2019-07-24 10:50:45:989
0.28499916195869446,0.009193443693220615,9.777573585510254,-0.0031832546047283966,-0.00432629608823234,-6.259956904712911e-05,-173.08674932773457,142.9093696790604,0,0.5699341297149658,2019-07-24 10:50:45:992
0.23231466114521027,0.05948318913578987,9.770389556884766,-0.0005194432313082785,-0.006190964241431238,-0.0005953618851804982,-173.19624160735034,143.64433436551158,0,0.5743381977081299,2019-07-24 10:50:45:996
0.2227356731891632,-0.009964553639292717,9.799126625061035,-0.0002530620874644087,-0.003793533833053891,0.0028675930335537465,-173.30561416820555,137.17265698311934,0,0.5774378776550293,2019-07-24 10:50:45:999
0.20118291676044464,0.028351441025733948,9.844626426696777,-0.004515160242674519,-0.005924583113842013,0.000470162722704272,-173.41533197029074,138.0264794824837,0,0.5797088146209717,2019-07-24 10:50:46:001
0.23949891328811646,0.009193443693220615,9.770389556884766,-0.0010522055189960183,-0.0029943904502862176,0.0031339741611429712,-173.51810988378483,138.8651638455133,0,0.5846545696258545,2019-07-24 10:50:46:006
0.20118291676044464,0.02356194145977497,9.823074340820312,-0.0023841112219607223,-0.004859058603485115,0.00366673641632142,-173.62325761186068,139.68561450122584,0,0.5884087085723877,2019-07-24 10:50:46:010
0.2514726519584656,0.07385168224573135,9.724889755249023,-0.0013185867116038243,-0.004859058603485115,0.0034003552887321956,-173.7205349392099,140.48337177189333,0,0.5907261371612549,2019-07-24 10:50:46:012
0.23470941185951233,-0.00517505407333374,9.7392578125,-0.0023841112219607223,-0.0035271527054646663,0.004998642054267543,-173.81769895622045,134.07486401345722,0,0.5948405265808105,2019-07-24 10:50:46:016
0.2562621533870697,0.006798694375902414,9.770389556884766,-0.0031832546047283966,-0.0021952470675185437,0.003933117543910645,-173.91083964593125,134.99323149995524,0,0.5985450744628906,2019-07-24 10:50:46:020
0.2897886633872986,0.018772443756461143,9.837442398071289,-0.0005194432313082785,-0.00432629608823234,0.003933117543910645,-173.99831197313574,135.89124794875232,0,0.6008691787719727,2019-07-24 10:50:46:022
0.22513042390346527,0.07864118367433548,9.746441841125488,1.3319057395376562e-05,-0.005924583113842013,0.0031339741611429712,-174.09071351417307,136.76417450808017,0,0.604379415512085,2019-07-24 10:50:46:026
0.2826044261455536,0.03074619174003601,9.732073783874512,0.0008124625041657164,-0.003793533833053891,0.005265023181856767,-174.1749566187922,137.6251259257117,0,0.6075546741485596,2019-07-24 10:50:46:029
0.2514726519584656,0.0834306851029396,9.77996826171875,-0.0031832546047283966,-0.002728009322696993,0.003933117543910645,-174.26164925635027,138.46325622070464,0,0.6098380088806152,2019-07-24 10:50:46:031
0.19878816604614258,-0.01954355277121067,9.760810852050781,-0.0029168734771391714,-0.003260771577875442,0.00419949867149987,-174.3523296633916,132.0969583469672,0,0.6139461994171143,2019-07-24 10:50:46:036
0.2562621533870697,0.040325190871953964,9.696152687072754,-0.0013185867116038243,-0.005391820858663564,0.0026012119059645217,-174.4339474664369,133.05051195589496,0,0.6174373626708984,2019-07-24 10:50:46:039
0.23949891328811646,0.03074619174003601,9.813494682312012,-0.0010522055189960183,-0.004059914960643116,0.0026012119059645217,-174.5165446279279,133.98610933964486,0,0.6207857131958008,2019-07-24 10:50:46:042
0.19878816604614258,0.07864118367433548,9.729679107666016,-0.002117730094371498,-0.005391820858663564,0.003933117543910645,-174.60173508075164,134.89754546428412,0,0.6243185997009277,2019-07-24 10:50:46:046
0.19160392880439758,0.04990419000387192,9.787153244018555,-0.0013185867116038243,-0.00459267747589589,0.005797785437035217,-174.6864526337539,135.79398618515313,0,0.6274864673614502,2019-07-24 10:50:46:049
0.2035776674747467,0.021167192608118057,9.782362937927246,-0.0015849678391930489,-0.0035271527054646663,0.005797785437035217,-174.7684274754453,136.67583014787056,0,0.629770040512085,2019-07-24 10:50:46:051
0.2107619196176529,0.009193443693220615,9.71052074432373,-0.0015849678391930489,-0.004859058603485115,0.0012693061379812365,-174.84694159232944,137.54163629342048,0,0.6343505382537842,2019-07-24 10:50:46:056
0.26584115624427795,0.05708843842148781,9.75123119354248,-0.0018513489667822737,-0.00459267747589589,0.00766245385030844,-174.91795252068675,138.38442450510277,0,0.6375212669372559,2019-07-24 10:50:46:059
0.2490779161453247,0.013982943259179592,9.760810852050781,0.0008124625041657164,-0.005658201986252788,0.008727977840516687,-174.98963507567802,139.21499059596954,0,0.6397972106933594,2019-07-24 10:50:46:061
0.30415716767311096,0.03074619174003601,9.674599647521973,0.0013452248243627468,-0.007256488751788136,0.006330547692213666,-175.05197265309536,140.02670507215552,0,0.6443510055541992,2019-07-24 10:50:46:066
0.3233151435852051,0.025956692174077034,9.844626426696777,0.00267713046230887,-0.004859058603485115,0.006330547692213666,-175.11244745625166,140.82267284699915,0,0.6475226879119873,2019-07-24 10:50:46:069
0.22513042390346527,0.04511468857526779,9.72728443145752,-0.0010522055189960183,-0.00459267747589589,0.003933117543910645,-175.18309389396833,141.6010394444798,0,0.6498029232025146,2019-07-24 10:50:46:071
0.2107619196176529,0.03553568944334984,9.832653045654297,-0.0007858243914067938,-0.0064573453690204615,0.00366673641632142,-175.25321551199022,142.36507900943684,0,0.6543748378753662,2019-07-24 10:50:46:076
0.28020966053009033,0.028351441025733948,9.756021499633789,-0.0018513489667822737,-0.0029943904502862176,0.006596928819802891,-175.31471375675895,143.11477740878968,0,0.6575498580932617,2019-07-24 10:50:46:079
0.19399867951869965,0.013982943259179592,9.734468460083008,-0.002650492349549947,-0.00432629608823234,0.004998642054267543,-175.38502590586276,143.8511786598863,0,0.659853458404541,2019-07-24 10:50:46:081
0.21794617176055908,0.03553568944334984,9.837442398071289,-0.003449635732317621,-0.00512543973107434,0.008195216105486888,-175.45064502379827,144.570888682736,0,0.6643602848052979,2019-07-24 10:50:46:086
0.3209204077720642,0.06906218826770782,9.782362937927246,0.0005460813765764917,-0.0064573453690204615,0.006330547692213666,-175.50290320258705,145.27128382349156,0,0.6675305366516113,2019-07-24 10:50:46:089
0.23949891328811646,0.040325190871953964,9.868574142456055,-0.0013185867116038243,-0.005658201986252788,0.005265023181856767,-175.5643154175506,145.96134469086795,0,0.6698129177093506,2019-07-24 10:50:46:091
0.2634464204311371,0.040325190871953964,9.748836517333984,-0.0015849678391930489,-0.008854775517323483,0.006330547692213666,-175.6198120663906,146.63778203283132,0,0.6743545532226562,2019-07-24 10:50:46:096
0.24668316543102264,0.10019393265247345,9.753625869750977,-0.0007858243914067938,-0.003793533833053891,0.006330547692213666,-175.6777629421621,147.2933956942555,0,0.6775338649749756,2019-07-24 10:50:46:099
0.33049941062927246,0.04990419000387192,9.815889358520508,-0.0013185867116038243,-0.0064573453690204615,0.006330547692213666,-175.7246145614512,147.94191125519876,0,0.6803605556488037,2019-07-24 10:50:46:102
0.22034092247486115,0.04511468857526779,9.77996826171875,-0.0023841112219607223,-0.006723726496609687,0.008195216105486888,-175.78280320001585,148.57832105357264,0,0.6843500137329102,2019-07-24 10:50:46:106
0.21794617176055908,0.0834306851029396,9.705731391906738,0.001877987079541196,-0.003793533833053891,0.005797785437035217,-175.84074361350068,149.19656998340358,0,0.6875228881835938,2019-07-24 10:50:46:109
0.27781492471694946,0.013982943259179592,9.691362380981445,-0.0005194432313082785,-0.004059914960643116,0.008461597233076112,-175.89043061802045,149.8110694193949,0,0.6904094219207764,2019-07-24 10:50:46:112
0.27302542328834534,0.01637769304215908,9.791942596435547,0.001877987079541196,-0.006190964241431238,0.00366673641632142,-175.93930048754495,150.41251321638117,0,0.6943752765655518,2019-07-24 10:50:46:116
0.24668316543102264,0.0642726868391037,9.811100006103516,-0.0002530620874644087,-0.00459267747589589,0.008727977840516687,-175.99089044778347,150.99680122095464,0,0.697547435760498,2019-07-24 10:50:46:119
0.1652616709470749,0.0642726868391037,9.746441841125488,0.001877987079541196,-0.003793533833053891,0.006330547692213666,-176.0510420331524,151.56901047084276,0,0.7003746032714844,2019-07-24 10:50:46:122
0.19878816604614258,0.10737818479537964,9.77996826171875,-0.0005194432313082785,-0.006990107624198911,0.004998642054267543,-176.1051697081811,152.12516543087983,0,0.7043561935424805,2019-07-24 10:50:46:126
0.2945781648159027,0.04990419000387192,9.700942039489746,0.0008124625041657164,-0.005391820858663564,0.009793502350873586,-176.147297531066,152.6766192102565,0,0.7076020240783691,2019-07-24 10:50:46:129
0.22513042390346527,0.07145693898200989,9.796731948852539,1.3319057395376562e-05,-0.008322013262145034,0.00766245385030844,-176.19671496349937,153.21472662223903,0,0.7104010581970215,2019-07-24 10:50:46:132
0.2514726519584656,0.11456242948770523,9.806310653686523,-0.0010522055189960183,-0.00432629608823234,0.007129691074981339,-176.24243992597644,153.73727933033345,0,0.7143585681915283,2019-07-24 10:50:46:136
0.27302542328834534,0.13372042775154114,9.770389556884766,-0.0010522055189960183,-0.007789251006966585,0.006863309947392116,-176.28419040626298,154.24703879970681,0,0.7175307273864746,2019-07-24 10:50:46:139
0.18202492594718933,0.09300968050956726,9.784757614135742,-0.0005194432313082785,-0.006990107624198911,0.007928834977897663,-176.33608747910412,154.75128782873398,0,0.720344066619873,2019-07-24 10:50:46:142
0.17484067380428314,0.09779918193817139,9.76799488067627,-0.0007858243914067938,-0.00459267747589589,0.006064166564624441,-176.38782215017923,155.24496634195182,0,0.7243561744689941,2019-07-24 10:50:46:146
0.30655190348625183,0.09300968050956726,9.832653045654297,-0.0010522055189960183,-0.006990107624198911,0.0073960722025705646,-176.4231030090938,155.72941569782904,0,0.7275362014770508,2019-07-24 10:50:46:149
0.3089466691017151,0.12174668163061142,9.78954792022705,-0.002650492349549947,-0.008322013262145034,0.008727977840516687,-176.4571719027193,156.20099660615523,0,0.7303552627563477,2019-07-24 10:50:46:152
0.22034092247486115,0.13850992918014526,9.7392578125,-0.0013185867116038243,-0.00432629608823234,0.008727977840516687,-176.50113625809607,156.66097685180353,0,0.7343542575836182,2019-07-24 10:50:46:156
0.2897886633872986,0.1097729280591011,9.835047721862793,-0.0031832546047283966,-0.005658201986252788,0.006330547692213666,-176.53634968173154,157.11553566234505,0,0.7375311851501465,2019-07-24 10:50:46:159
0.18681442737579346,0.07385168224573135,9.746441841125488,-0.002650492349549947,-0.0064573453690204615,0.008994359488254562,-176.5826403491729,157.56496115124077,0,0.7403464317321777,2019-07-24 10:50:46:162
0.2969729006290436,0.13132567703723907,9.717704772949219,0.0008124625041657164,-0.005924583113842013,0.006863309947392116,-176.61464070344817,157.99799333112583,0,0.7443702220916748,2019-07-24 10:50:46:166
0.19878816604614258,0.12414143234491348,9.832653045654297,-0.0023841112219607223,-0.006990107624198911,0.010326264606052035,-176.65793379873026,158.4239929333672,0,0.7475552558898926,2019-07-24 10:50:46:169
0.24189366400241852,0.09540443122386932,9.777573585510254,-0.0007858243914067938,-0.007522869879377361,0.006596928819802891,-176.69522939048437,158.8444577424264,0,0.7504007816314697,2019-07-24 10:50:46:172
0.27302542328834534,0.10737818479537964,9.753625869750977,-0.0029168734771391714,-0.006990107624198911,0.01352283917742003,-176.72765180956225,159.2556232584805,0,0.7544891834259033,2019-07-24 10:50:46:176
0.3161309063434601,0.06666743755340576,9.801521301269531,-0.0018513489667822737,-0.0035271527054646663,0.007129691074981339,-176.7555185486829,159.66304922043344,0,0.757688045501709,2019-07-24 10:50:46:179
0.2299199253320694,0.06666743755340576,9.77996826171875,-0.0005194432313082785,-0.004059914960643116,0.011125408508968359,-176.79280324507744,160.06206271097943,0,0.7606282234191895,2019-07-24 10:50:46:182
0.2706306576728821,0.07624643296003342,9.823074340820312,-0.003449635732317621,-0.005924583113842013,0.0073960722025705646,-176.82415485677623,160.45264310435002,0,0.7643249034881592,2019-07-24 10:50:46:186
0.26105165481567383,0.1361151784658432,9.837442398071289,0.00027970021647797646,-0.006723726496609687,0.010326264606052035,-176.8560691470994,160.82768589681154,0,0.7675063610076904,2019-07-24 10:50:46:189
0.20597241818904877,0.07624643296003342,9.708126068115234,0.0005460813765764917,-0.006990107624198911,0.008195216105486888,-176.89353094969238,161.20204591247796,0,0.7703297138214111,2019-07-24 10:50:46:192
0.18681442737579346,0.09779918193817139,9.760810852050781,-0.0002530620874644087,-0.005658201986252788,0.009260740095695136,-176.9324522213343,161.566580986554,0,0.7743549346923828,2019-07-24 10:50:46:196
0.1652616709470749,0.0642726868391037,9.854206085205078,1.3319057395376562e-05,-0.004059914960643116,0.00952712174343301,-176.97386466310292,161.9277730275747,0,0.777524471282959,2019-07-24 10:50:46:199
0.21794617176055908,0.07624643296003342,9.863784790039062,-0.002117730094371498,-0.005924583113842013,0.01059264625378991,-177.00813328937127,162.2806953588133,0,0.7803456783294678,2019-07-24 10:50:46:202
0.2035776674747467,0.06666743755340576,9.80870532989502,-0.002117730094371498,-0.004059914960643116,0.005797785437035217,-177.04327813639551,162.62776911596458,0,0.7843492031097412,2019-07-24 10:50:46:206
0.18920917809009552,0.07624643296003342,9.813494682312012,-0.0010522055189960183,-0.006723726496609687,0.005797785437035217,-177.07912215870917,162.96649834745466,0,0.7875258922576904,2019-07-24 10:50:46:209
0.15568268299102783,0.08103593438863754,9.69854736328125,-0.0002530620874644087,-0.007256488751788136,0.007129691074981339,-177.1179993086667,163.2976339583645,0,0.7903423309326172,2019-07-24 10:50:46:212
0.21555142104625702,0.1097729280591011,9.760810852050781,-0.002117730094371498,-0.004859058603485115,0.007928834977897663,-177.14923207397686,163.61927642159992,0,0.7943949699401855,2019-07-24 10:50:46:216
0.24668316543102264,0.0020091950427740812,9.81828498840332,0.00027970021647797646,-0.00858839438973426,0.004998642054267543,-177.17589701438473,163.94660541152228,0,0.7976412773132324,2019-07-24 10:50:46:219
0.22034092247486115,0.09540443122386932,9.753625869750977,0.0010788436317549408,-0.0029943904502862176,0.0034003552887321956,-177.20599259170706,164.2562834206756,0,0.8006381988525391,2019-07-24 10:50:46:222
0.2945781648159027,0.04990419000387192,9.904495239257812,0.0013452248243627468,-0.005391820858663564,0.006330547692213666,-177.22668108044383,164.56510461836874,0,0.804337739944458,2019-07-24 10:50:46:226
0.19399867951869965,0.0642726868391037,9.777573585510254,-0.0010522055189960183,-0.00459267747589589,0.005797785437035217,-177.25859399340874,164.86645787488413,0,0.8075180053710938,2019-07-24 10:50:46:229
0.2035776674747467,0.040325190871953964,9.806310653686523,-0.0029168734771391714,-0.002461628195107768,0.003933117543910645,-177.2892474544899,165.16487751693393,0,0.8103325366973877,2019-07-24 10:50:46:232
0.18202492594718933,0.028351441025733948,9.741652488708496,-0.003449635732317621,-0.005391820858663564,0.0055314043094459924,-177.32083568602536,165.4590240064003,0,0.814354419708252,2019-07-24 10:50:46:236
0.22752517461776733,0.054693687707185745,9.803915977478027,-0.0015849678391930489,-0.0019288658098921565,0.0026012119059645217,-177.3474858922898,165.74373341097686,0,0.8175299167633057,2019-07-24 10:50:46:239
0.13412992656230927,0.0834306851029396,9.72728443145752,-0.0007858243914067938,-0.005391820858663564,0.0031339741611429712,-177.38388096742116,166.01915512327088,0,0.8203544616699219,2019-07-24 10:50:46:242
0.20597241818904877,0.040325190871953964,9.734468460083008,-0.002650492349549947,-0.002461628195107768,-0.0008617430127697228,-177.41140816333348,166.2946197271353,0,0.824350118637085,2019-07-24 10:50:46:246
0.13652467727661133,0.13850992918014526,9.770389556884766,-0.002117730094371498,-0.004059914960643116,0.0028675930335537465,-177.44644491091037,166.55286094734944,0,0.8275256156921387,2019-07-24 10:50:46:249
0.16765642166137695,0.04271994158625603,9.712915420532227,-0.0023841112219607223,-0.005391820858663564,0.0034003552887321956,-177.4768855843148,166.81714069035064,0,0.8303415775299072,2019-07-24 10:50:46:252
0.1580774337053299,0.10737818479537964,9.748836517333984,-0.0018513489667822737,-0.00459267747589589,0.0012693061379812365,-177.50772842801686,167.06859599536972,0,0.8343746662139893,2019-07-24 10:50:46:256
0.2299199253320694,0.03074619174003601,9.799126625061035,-0.003449635732317621,-0.005391820858663564,0.0007365438828027872,-177.5297289961026,167.32424461617018,0,0.837554931640625,2019-07-24 10:50:46:259
0.2682359218597412,0.07145693898200989,9.835047721862793,-0.0015849678391930489,-0.003793533833053891,-0.0008617430127697228,-177.5472290646128,167.56970992622675,0,0.8406534194946289,2019-07-24 10:50:46:262
0.2371041625738144,0.08582543581724167,9.825469017028809,-0.004248779115085295,-0.005658201986252788,0.0007365438828027872,-177.567468230304,167.80918411567043,0,0.8443324565887451,2019-07-24 10:50:46:266
0.2873938977718353,0.07145693898200989,9.765600204467773,-0.0013185867116038243,-0.004059914960643116,0.0018020683931596856,-177.58167924266016,168.04485145868645,0,0.8475170135498047,2019-07-24 10:50:46:269
0.2634464204311371,0.1169571802020073,9.842231750488281,-0.002650492349549947,-0.005658201986252788,0.0028675930335537465,-177.59848279692858,168.27075836280545,0,0.8503420352935791,2019-07-24 10:50:46:272
0.30655190348625183,0.07624643296003342,9.748836517333984,-0.002650492349549947,-0.003793533833053891,0.001535687265570461,-177.6096366127452,168.4969785363785,0,0.8543565273284912,2019-07-24 10:50:46:276
0.34486791491508484,0.0020091950427740812,9.794337272644043,-0.00398239798749607,-0.005391820858663564,-0.000328980725081983,-177.6161496635199,168.7275145038568,0,0.8575344085693359,2019-07-24 10:50:46:279
0.3017624020576477,0.09300968050956726,9.741652488708496,-0.0013185867116038243,-0.003793533833053891,0.00366673641632142,-177.62773822864807,168.94223347716044,0,0.8603668212890625,2019-07-24 10:50:46:282
0.25386741757392883,0.09300968050956726,9.775178909301758,-0.0005194432313082785,-0.00512543973107434,0.0034003552887321956,-177.64428112657816,169.15260231991726,0,0.8643589019775391,2019-07-24 10:50:46:286
0.25865691900253296,0.02356194145977497,9.837442398071289,-0.0037160168599068453,-0.004859058603485115,0.0007365438828027872,-177.66040624550527,169.3674683425032,0,0.867534875869751,2019-07-24 10:50:46:289
0.3664206564426422,0.08103593438863754,9.806310653686523,-0.003449635732317621,-0.004059914960643116,0.0031339741611429712,-177.66375727919436,169.57119583273305,0,0.870354175567627,2019-07-24 10:50:46:292
0.2490779161453247,0.0906149372458458,9.875758171081543,-0.0015849678391930489,-0.004859058603485115,0.00366673641632142,-177.68048977530017,169.76961576010086,0,0.874375581741333,2019-07-24 10:50:46:296
0.3688153922557831,0.04271994158625603,9.7392578125,0.0008124625041657164,-0.005391820858663564,0.0028675930335537465,-177.68254442354646,169.96905216426316,0,0.8775520324707031,2019-07-24 10:50:46:299
0.33289414644241333,0.018772443756461143,9.68896770477295,-0.0007858243914067938,-0.005391820858663564,0.0026012119059645217,-177.68868230300086,170.16757555522872,0,0.8803770542144775,2019-07-24 10:50:46:302
0.23470941185951233,0.054693687707185745,9.794337272644043,-0.0013185867116038243,-0.003260771577875442,0.003933117543910645,-177.70672513614937,170.35811957970157,0,0.884354829788208,2019-07-24 10:50:46:306
0.3664206564426422,0.054693687707185745,9.791942596435547,-0.003449635732317621,-0.0035271527054646663,0.004465879799089094,-177.70909333701707,170.54517907608317,0,0.8875682353973389,2019-07-24 10:50:46:309
0.31852564215660095,0.03553568944334984,9.844626426696777,-0.002650492349549947,-0.005658201986252788,0.006330547692213666,-177.71695681346873,170.73055660711282,0,0.8903732299804688,2019-07-24 10:50:46:312
0.2682359218597412,0.07624643296003342,9.770389556884766,-0.0002530620874644087,-0.0019288658098921565,0.00366673641632142,-177.7307329005739,170.90705990500086,0,0.8943688869476318,2019-07-24 10:50:46:316
0.3137361705303192,0.10737818479537964,9.813494682312012,-0.0010522055189960183,-0.004059914960643116,0.005265023181856767,-177.73877106482615,171.0765685899937,0,0.8975486755371094,2019-07-24 10:50:46:319
0.2969729006290436,0.05708843842148781,9.794337272644043,-0.0005194432313082785,-0.002728009322696993,0.005265023181856767,-177.74882981408658,171.24844019928125,0,0.9003643989562988,2019-07-24 10:50:46:322
0.2682359218597412,0.02356194145977497,9.844626426696777,-0.002650492349549947,-0.006190964241431238,0.006064166564624441,-177.7612499358915,171.4213231569029,0,0.9043581485748291,2019-07-24 10:50:46:326
0.24428841471672058,0.11935193091630936,9.696152687072754,-0.0010522055189960183,-0.00512543973107434,0.006596928819802891,-177.77624654222822,171.5789797083749,0,0.9075336456298828,2019-07-24 10:50:46:329
0.23470941185951233,0.11456242948770523,9.734468460083008,-0.0005194432313082785,-0.00512543973107434,0.005797785437035217,-177.79228519620628,171.73399708787775,0,0.9103565216064453,2019-07-24 10:50:46:332
0.27302542328834534,0.03074619174003601,9.799126625061035,-0.0013185867116038243,-0.00432629608823234,0.005265023181856767,-177.8035480370413,171.89601791860667,0,0.9143576622009277,2019-07-24 10:50:46:336
0.24428841471672058,0.0379304401576519,9.811100006103516,-0.0031832546047283966,-0.002728009322696993,0.007129691074981339,-177.81846309398287,172.05423625226487,0,0.9175403118133545,2019-07-24 10:50:46:339
0.2897886633872986,0.05948318913578987,9.763205528259277,-0.0018513489667822737,-0.009387537772501934,0.006064166564624441,-177.82660575361228,172.2064629479283,0,0.9203581809997559,2019-07-24 10:50:46:342
0.2562621533870697,0.0379304401576519,9.720099449157715,-0.004781541370263744,-0.006190964241431238,0.004732260926678319,-177.83847625827156,172.3589381352365,0,0.9243662357330322,2019-07-24 10:50:46:346
0.2754201591014862,0.09540443122386932,9.820679664611816,-0.002117730094371498,-0.00512543973107434,0.0026012119059645217,-177.84864343867972,172.50101371883815,0,0.9276137351989746,2019-07-24 10:50:46:349
0.20118291676044464,0.047509439289569855,9.844626426696777,-0.0010522055189960183,-0.00805563213455581,0.0026012119059645217,-177.8669830392838,172.6456296693537,0,0.9304282665252686,2019-07-24 10:50:46:352
0.3209204077720642,0.01637769304215908,9.799126625061035,-0.002650492349549947,-0.007789251006966585,0.0034003552887321956,-177.8703312825395,172.79141329681588,0,0.9345366954803467,2019-07-24 10:50:46:356
0.22752517461776733,0.061877936124801636,9.80870532989502,-0.0023841112219607223,-0.005658201986252788,0.004732260926678319,-177.88532573875594,172.92878708779145,0,0.937755823135376,2019-07-24 10:50:46:359
0.3089466691017151,0.08822018653154373,9.803915977478027,-0.0015849678391930489,-0.005658201986252788,0.005265023181856767,-177.89060228214433,173.06015733019805,0,0.940645694732666,2019-07-24 10:50:46:362
0.3281046450138092,0.04990419000387192,9.782362937927246,-0.002117730094371498,-0.006723726496609687,-0.0013945052679481718,-177.8929726179858,173.19354857707066,0,0.9443473815917969,2019-07-24 10:50:46:366
0.24668316543102264,0.0642726868391037,9.736863136291504,-0.0015849678391930489,-0.00459267747589589,0.0023348307783752974,-177.90526210237837,173.32239846462704,0,0.9475486278533936,2019-07-24 10:50:46:369
0.24428841471672058,0.040325190871953964,9.772784233093262,-0.005847065880620643,-0.00459267747589589,0.003933117543910645,-177.9177886045454,173.45215152685552,0,0.9503793716430664,2019-07-24 10:50:46:372
0.2514726519584656,0.05708843842148781,9.794337272644043,-0.0005194432313082785,-0.003793533833053891,0.0007365438828027872,-177.92916706517914,173.5765458086879,0,0.9543721675872803,2019-07-24 10:50:46:376
0.32570990920066833,0.0834306851029396,9.8302583694458,-0.0018513489667822737,-0.005391820858663564,0.001002925010392012,-177.93165746150981,173.69562336142536,0,0.957582950592041,2019-07-24 10:50:46:379
0.1772354245185852,0.07864118367433548,9.815889358520508,-0.0023841112219607223,-0.0029943904502862176,0.000470162722704272,-177.95186472458056,173.81290562790247,0,0.9603855609893799,2019-07-24 10:50:46:382
0.30655190348625183,0.08582543581724167,9.796731948852539,-0.004248779115085295,-0.005658201986252788,0.00020378157886040212,-177.95570520826533,173.92756759693344,0,0.9644043445587158,2019-07-24 10:50:46:386
0.2035776674747467,0.06666743755340576,9.837442398071289,-0.0031832546047283966,-0.0064573453690204615,0.001002925010392012,-177.97172840108985,174.04181865479754,0,0.9675824642181396,2019-07-24 10:50:46:389
0.2371041625738144,0.10498343408107758,9.77996826171875,-0.0037160168599068453,-0.007256488751788136,0.001002925010392012,-177.98337117312997,174.14926909352732,0,0.9703967571258545,2019-07-24 10:50:46:392
0.21555142104625702,0.05229893699288368,9.741652488708496,-0.0013185867116038243,-0.0013961035547137074,-0.0011281241403589474,-177.99804153715309,174.260425481007,0,0.9743630886077881,2019-07-24 10:50:46:396
0.18202492594718933,0.0834306851029396,9.72728443145752,-0.0005194432313082785,-0.007522869879377361,0.001002925010392012,-178.01528685815836,174.36548214718508,0,0.9775662422180176,2019-07-24 10:50:46:399
0.21794617176055908,0.028351441025733948,9.641073226928711,-0.00398239798749607,-0.0029943904502862176,-0.0005953618851804982,-178.0286090989214,174.47543027528494,0,0.9803726673126221,2019-07-24 10:50:46:402
0.3089466691017151,0.033140942454338074,9.76799488067627,-0.002117730094371498,-0.006990107624198911,-6.259956904712911e-05,-178.03023595958908,174.58250930494268,0,0.9843714237213135,2019-07-24 10:50:46:406
0.22513042390346527,0.04990419000387192,9.77996826171875,-0.0007858243914067938,-0.00512543973107434,-0.0021936486507158457,-178.04234245936271,174.68515219617998,0,0.9875507354736328,2019-07-24 10:50:46:409
0.2873938977718353,0.07385168224573135,9.839837074279785,-0.002650492349549947,-0.009121157165061358,-0.0021936486507158457,-178.0465885863773,174.78326943191303,0,0.9903771877288818,2019-07-24 10:50:46:412
0.29936766624450684,0.03553568944334984,9.794337272644043,-0.0007858243914067938,-0.006990107624198911,-0.0024600297783050704,-178.0490805545753,174.88362204342496,0,0.9943563938140869,2019-07-24 10:50:46:416
0.17005117237567902,0.1169571802020073,9.775178909301758,-0.0029168734771391714,-0.00512543973107434,-0.005123841314271641,-178.06724691038272,174.97276296145228,0,0.9975512027740479,2019-07-24 10:50:46:419
0.26584115624427795,0.047509439289569855,9.741652488708496,-0.0015849678391930489,-0.004059914960643116,-0.004857460186682417,-178.07399371866282,175.0679709835586,0,1.000380516052246,2019-07-24 10:50:46:422
0.2107619196176529,0.05708843842148781,9.784757614135742,-0.004781541370263744,-0.003793533833053891,-0.0061893658246285396,-178.0869847599243,175.16099736604733,0,1.0043714046478271,2019-07-24 10:50:46:426
0.21315667033195496,0.1169571802020073,9.832653045654297,-0.0010522055189960183,-0.002728009322696993,-0.00805403371775311,-178.09991948011438,175.2443358026266,0,1.0075559616088867,2019-07-24 10:50:46:429
0.26105165481567383,-0.009964553639292717,9.76799488067627,0.0013452248243627468,-0.010186681675418257,-0.001927267523126621,-178.10569137456267,168.14040516121784,0,1.0103745460510254,2019-07-24 10:50:46:432
0.21794617176055908,0.061877936124801636,9.777573585510254,-0.005580684753031417,-0.008322013262145034,-0.0043246979315039675,-178.11617041519133,168.371598116528,0,1.0143730640411377,2019-07-24 10:50:46:436
0.2969729006290436,0.11216767877340317,9.832653045654297,-0.00398239798749607,-0.0029943904502862176,-0.003525554548736294,-178.11868622268204,168.59184130134295,0,1.0177128314971924,2019-07-24 10:50:46:439
0.20118291676044464,0.07145693898200989,9.734468460083008,1.3319057395376562e-05,-0.006723726496609687,-0.0069885092073962134,-178.13178569443807,168.8115912279311,0,1.0199575424194336,2019-07-24 10:50:46:442
0.12215618044137955,0.10737818479537964,9.758416175842285,1.3319057395376562e-05,-0.005391820858663564,-0.006455746952217765,-178.1534757478346,169.02274737316498,0,1.0243518352508545,2019-07-24 10:50:46:446
0.24189366400241852,0.05708843842148781,9.715310096740723,-0.0031832546047283966,-0.006190964241431238,-0.005922984697039315,-178.1606905008733,169.23617102863906,0,1.0277762413024902,2019-07-24 10:50:46:449
0.14610368013381958,0.08103593438863754,9.712915420532227,-0.0018513489667822737,-0.0064573453690204615,-0.006455746952217765,-178.17920423627126,169.44218454219882,0,1.0306353569030762,2019-07-24 10:50:46:452
0.22752517461776733,0.0379304401576519,9.799126625061035,-0.0031832546047283966,-0.002461628195107768,-0.006455746952217765,-178.188508795762,169.6495637491566,0,1.0343194007873535,2019-07-24 10:50:46:456
0.20597241818904877,0.05708843842148781,9.882943153381348,-0.003449635732317621,-0.00805563213455581,-0.007787652590163887,-178.19942131195867,169.85056921728946,0,1.0374996662139893,2019-07-24 10:50:46:459
0.25865691900253296,0.03074619174003601,9.760810852050781,0.0008124625041657164,-0.00459267747589589,-0.00565660356945009,-178.20434611310586,170.04981952906678,0,1.0403213500976562,2019-07-24 10:50:46:462
0.28499916195869446,0.03553568944334984,9.657835960388184,-0.005047922497852969,-0.0064573453690204615,-0.0069885092073962134,-178.2049963300402,170.24574588348986,0,1.0443401336669922,2019-07-24 10:50:46:466
0.1652616709470749,0.10019393265247345,9.720099449157715,-0.003449635732317621,-0.00512543973107434,-0.008320414845342336,-178.22050524870548,170.4296319297036,0,1.0475025177001953,2019-07-24 10:50:46:469
0.24189366400241852,0.07385168224573135,9.80870532989502,-0.0018513489667822737,-0.006723726496609687,-0.004058316803914743,-178.22677692002353,170.61270470367734,0,1.0503218173980713,2019-07-24 10:50:46:472
0.21315667033195496,0.09300968050956726,9.801521301269531,0.0005460813765764917,-0.00512543973107434,-0.00858679597293156,-178.23616424587638,170.789453344729,0,1.054354190826416,2019-07-24 10:50:46:476
0.20118291676044464,0.04990419000387192,9.753625869750977,-0.004515160242674519,-0.002461628195107768,-0.00911955822811001,-178.2473704150706,170.96860411312198,0,1.057520866394043,2019-07-24 10:50:46:479
0.20118291676044464,0.128930926322937,9.813494682312012,-0.0015849678391930489,-0.007789251006966585,-0.004058316803914743,-178.25768423347574,171.13443207817613,0,1.0603790283203125,2019-07-24 10:50:46:482
0.19399867951869965,0.10737818479537964,9.684178352355957,-0.0002530620874644087,-0.005658201986252788,-0.007787652590163887,-178.26831372169192,171.29909458893803,0,1.0643584728240967,2019-07-24 10:50:46:486
0.23231466114521027,0.03074619174003601,9.892521858215332,-0.0013185867116038243,-0.005924583113842013,-0.0061893658246285396,-178.27498651985732,171.46978605533732,0,1.067530870437622,2019-07-24 10:50:46:489
0.16286692023277283,0.06666743755340576,9.72728443145752,-0.0015849678391930489,-0.0019288658098921565,-0.00565660356945009,-178.28999635365906,171.63278803629305,0,1.0703544616699219,2019-07-24 10:50:46:492
0.22034092247486115,0.08582543581724167,9.839837074279785,-0.00398239798749607,-0.0064573453690204615,-0.007521271462574662,-178.29708962061596,171.79103238253614,0,1.0743560791015625,2019-07-24 10:50:46:496
0.29936766624450684,0.05948318913578987,9.736863136291504,-0.0010522055189960183,-0.003260771577875442,-0.004058316803914743,-178.2953468188831,171.94839850357454,0,1.077523946762085,2019-07-24 10:50:46:499
0.21794617176055908,0.11216767877340317,9.784757614135742,-0.0010522055189960183,-0.005391820858663564,-0.006455746952217765,-178.30306529650878,172.09646167153238,0,1.0803468227386475,2019-07-24 10:50:46:502
0.23949891328811646,0.054693687707185745,9.825469017028809,-0.0031832546047283966,-0.0064573453690204615,-0.0043246979315039675,-178.30762526646518,172.24886962541592,0,1.0843520164489746,2019-07-24 10:50:46:506
0.17005117237567902,0.1169571802020073,9.734468460083008,-0.0018513489667822737,-0.005658201986252788,-0.005390222441860866,-178.32044954003808,172.3904545908579,0,1.0875225067138672,2019-07-24 10:50:46:509
0.18681442737579346,0.11216767877340317,9.882943153381348,-0.0013185867116038243,-0.005924583113842013,-0.003259173161072744,-178.33144274900613,172.5298494371777,0,1.0903465747833252,2019-07-24 10:50:46:512
0.29936766624450684,0.0834306851029396,9.724889755249023,-0.0031832546047283966,-0.007522869879377361,-0.0027264109058942948,-178.32785350230162,172.6701394543017,0,1.0943617820739746,2019-07-24 10:50:46:516
0.23470941185951233,0.061877936124801636,9.827863693237305,-0.002650492349549947,-0.006990107624198911,-0.005123841314271641,-178.33269230841861,172.80999301491977,0,1.0975275039672852,2019-07-24 10:50:46:519
0.22752517461776733,0.0379304401576519,9.760810852050781,-0.005047922497852969,-0.005924583113842013,-0.0043246979315039675,-178.33839269778235,172.95014040894284,0,1.1003508567810059,2019-07-24 10:50:46:522
0.1652616709470749,0.10737818479537964,9.815889358520508,-0.005314303625442193,-0.00459267747589589,-0.001927267523126621,-178.35129813111732,173.07980115988897,0,1.1043672561645508,2019-07-24 10:50:46:526
0.2562621533870697,0.05229893699288368,9.897311210632324,-0.0023841112219607223,-0.0029943904502862176,-0.003525554548736294,-178.35406594727777,173.21258208187234,0,1.1075949668884277,2019-07-24 10:50:46:529
0.30655190348625183,0.05948318913578987,9.68896770477295,-0.003449635732317621,-0.0035271527054646663,-0.0037919356763255183,-178.350186104872,173.34183792996194,0,1.1103956699371338,2019-07-24 10:50:46:532
0.26584115624427795,0.05708843842148781,9.746441841125488,-0.0029168734771391714,-0.0035271527054646663,-0.0016608863955373968,-178.35115148615395,173.4689367109148,0,1.114349126815796,2019-07-24 10:50:46:536
0.20118291676044464,0.07385168224573135,9.815889358520508,-0.0015849678391930489,-0.003260771577875442,0.0018020683931596856,-178.36006607319678,173.59121825841217,0,1.117513656616211,2019-07-24 10:50:46:539
0.29936766624450684,0.07145693898200989,9.796731948852539,-0.0005194432313082785,-0.0029943904502862176,0.0012693061379812365,-178.3573853171867,173.71111792885463,0,1.1203300952911377,2019-07-24 10:50:46:542
0.2371041625738144,0.05948318913578987,9.760810852050781,-0.0029168734771391714,-0.0035271527054646663,0.0031339741611429712,-178.36161122620175,173.8305705568878,0,1.1243488788604736,2019-07-24 10:50:46:546
0.2035776674747467,0.061877936124801636,9.806310653686523,-0.0002530620874644087,-0.0035271527054646663,0.003933117543910645,-178.36996602113388,173.9467735109133,0,1.127516508102417,2019-07-24 10:50:46:549
0.22752517461776733,0.15048368275165558,9.827863693237305,-0.0015849678391930489,-0.004859058603485115,0.0031339741611429712,-178.37527200090386,174.0505444846009,0,1.1303398609161377,2019-07-24 10:50:46:552
0.30655190348625183,0.09300968050956726,9.741652488708496,-0.002117730094371498,-0.0021952470675185437,0.004998642054267543,-178.37122452498596,174.15906977796857,0,1.1343481540679932,2019-07-24 10:50:46:556
0.3233151435852051,0.021167192608118057,9.665020942687988,-0.002650492349549947,-0.007789251006966585,0.0007365438828027872,-178.3640979357894,174.2738493779376,0,1.1375105381011963,2019-07-24 10:50:46:559
0.23470941185951233,0.10258868336677551,9.799126625061035,-0.003449635732317621,-0.0021952470675185437,0.006863309947392116,-178.36902656537546,174.37692227534455,0,1.1403305530548096,2019-07-24 10:50:46:562
0.27302542328834534,0.12174668163061142,9.753625869750977,-0.00398239798749607,-0.006190964241431238,0.007928834977897663,-178.36817688322716,174.4759821252739,0,1.1443603038787842,2019-07-24 10:50:46:566
0.2873938977718353,0.10737818479537964,9.835047721862793,-0.0005194432313082785,-0.005658201986252788,0.00766245385030844,-178.3663313066784,174.574044356586,0,1.1475276947021484,2019-07-24 10:50:46:569
0.3281046450138092,0.07145693898200989,9.741652488708496,-0.0015849678391930489,-0.003793533833053891,0.006863309947392116,-178.35981620296138,174.67441210722822,0,1.1503818035125732,2019-07-24 10:50:46:572
0.22752517461776733,0.1696416735649109,9.784757614135742,-0.002117730094371498,-0.0035271527054646663,0.011125408508968359,-178.36519149933713,174.7615313563927,0,1.1543564796447754,2019-07-24 10:50:46:576
0.22034092247486115,0.10498343408107758,9.775178909301758,-0.0029168734771391714,-0.003793533833053891,0.011125408508968359,-178.37138785347196,174.85451275131192,0,1.1575219631195068,2019-07-24 10:50:46:579
0.27302542328834534,0.054693687707185745,9.81828498840332,-0.002117730094371498,-0.005924583113842013,0.012190933019325256,-178.37116275239072,174.9513751683001,0,1.1603479385375977,2019-07-24 10:50:46:582
0.2371041625738144,0.14090467989444733,9.794337272644043,-0.0023841112219607223,-0.0029943904502862176,0.014854744295217503,-178.37533076504457,175.03639949838802,0,1.164353609085083,2019-07-24 10:50:46:586
0.28499916195869446,0.11935193091630936,9.667415618896484,0.0016116059519519711,-0.004859058603485115,0.011658170764146809,-178.3731870680944,175.12123815066388,0,1.1675233840942383,2019-07-24 10:50:46:589
0.3209204077720642,0.09540443122386932,9.741652488708496,-0.0010522055189960183,-0.005924583113842013,0.014854744295217503,-178.36704826720455,175.2077579825889,0,1.1703450679779053,2019-07-24 10:50:46:592
0.22513042390346527,0.040325190871953964,9.803915977478027,-0.0002530620874644087,-0.005924583113842013,0.017252174963669174,-178.37206638999785,175.2989463759504,0,1.1743476390838623,2019-07-24 10:50:46:596
0.35923638939857483,0.03074619174003601,9.760810852050781,-0.0023841112219607223,-0.0029943904502862176,0.015121125942955378,-178.36193828337937,175.38978111357173,0,1.1775093078613281,2019-07-24 10:50:46:599
0.2945781648159027,0.04990419000387192,9.806310653686523,0.001877987079541196,-0.0013961035547137074,0.0159202688055744,-178.3600654663886,175.47585604659295,0,1.1803348064422607,2019-07-24 10:50:46:602
0.26584115624427795,0.10258868336677551,9.820679664611816,-0.0018513489667822737,-0.0011297224271244826,0.01645303106075285,-178.3615968962019,175.55478751658794,0,1.1843616962432861,2019-07-24 10:50:46:606
0.22752517461776733,0.0906149372458458,9.708126068115234,-0.0010522055189960183,-0.004859058603485115,0.016719412708490724,-178.366647610128,175.6331836982808,0,1.1875355243682861,2019-07-24 10:50:46:609
0.2945781648159027,0.05229893699288368,9.81828498840332,0.00027970021647797646,-0.001662484682302932,0.017784937218847625,-178.36468035585455,175.71437178408158,0,1.1903603076934814,2019-07-24 10:50:46:612
0.3089466691017151,0.05708843842148781,9.77996826171875,-0.0018513489667822737,-0.006190964241431238,0.015121125942955378,-178.35981029648605,175.79381085088886,0,1.194356918334961,2019-07-24 10:50:46:616
0.23949891328811646,0.028351441025733948,9.732073783874512,-0.0002530620874644087,-0.0013961035547137074,0.016719412708490724,-178.3641691534795,175.8746417761691,0,1.1975526809692383,2019-07-24 10:50:46:619
0.2634464204311371,0.004403944592922926,9.734468460083008,-0.002117730094371498,-6.419785581266445e-05,0.015121125942955378,-178.36587094019887,175.95696667096672,0,1.2003796100616455,2019-07-24 10:50:46:622
0.2873938977718353,0.054693687707185745,9.75123119354248,0.002410749334719645,-0.004859058603485115,0.014321982040039054,-178.36370857577003,176.03086344083874,0,1.2043440341949463,2019-07-24 10:50:46:626
0.35923638939857483,0.018772443756461143,9.820679664611816,-0.0015849678391930489,-0.003793533833053891,0.013789219784860604,-178.3538614459575,176.10833755260037,0,1.2075107097625732,2019-07-24 10:50:46:629
0.24428841471672058,0.04511468857526779,9.77996826171875,-0.0015849678391930489,-0.005658201986252788,0.0169857933159313,-178.3572712643341,176.18113567179407,0,1.2103300094604492,2019-07-24 10:50:46:632
0.3161309063434601,0.047509439289569855,9.765600204467773,-0.0002530620874644087,-0.0064573453690204615,0.013789219784860604,-178.35158724938887,176.2519952109877,0,1.214345932006836,2019-07-24 10:50:46:636
0.24668316543102264,-0.04588579759001732,9.717704772949219,0.00027970021647797646,-0.001662484682302932,0.013256457529682155,-178.35517708104047,169.13231638992855,0,1.2175135612487793,2019-07-24 10:50:46:639
0.24668316543102264,0.04271994158625603,9.782362937927246,0.0005460813765764917,-0.0064573453690204615,0.014854744295217503,-178.35815796898137,169.344579157663,0,1.2203404903411865,2019-07-24 10:50:46:642
0.2706306576728821,0.013982943259179592,9.794337272644043,0.0013452248243627468,-0.00512543973107434,0.011924551371587381,-178.35819868035114,169.55575213490584,0,1.2243051528930664,2019-07-24 10:50:46:646
0.23231466114521027,0.03553568944334984,9.732073783874512,0.0008124625041657164,-0.004059914960643116,0.010326264606052035,-178.3629650197467,169.76030869180354,0,1.2274665832519531,2019-07-24 10:50:46:649
0.2562621533870697,-0.029122551903128624,9.777573585510254,0.0010788436317549408,-0.0029943904502862176,0.011125408508968359,-178.36520582902867,162.76834511310975,0,1.2302813529968262,2019-07-24 10:50:46:652
0.3424731492996216,0.006798694375902414,9.729679107666016,-0.0005194432313082785,-0.00432629608823234,0.008461597233076112,-178.35659820824077,163.11229579223334,0,1.234337329864502,2019-07-24 10:50:46:656
0.2371041625738144,0.006798694375902414,9.715310096740723,0.00267713046230887,-0.00459267747589589,0.008727977840516687,-178.36061515156047,163.44872898668777,0,1.2377898693084717,2019-07-24 10:50:46:659
0.24189366400241852,0.06666743755340576,9.815889358520508,-0.0002530620874644087,-0.007256488751788136,0.003933117543910645,-178.3642280674747,163.77200454890263,0,1.2401008605957031,2019-07-24 10:50:46:662
0.22034092247486115,0.033140942454338074,9.772784233093262,-0.0010522055189960183,-0.0035271527054646663,0.007928834977897663,-178.3702073019448,164.09294828137163,0,1.2446670532226562,2019-07-24 10:50:46:666
0.29218339920043945,0.013982943259179592,9.674599647521973,-0.0010522055189960183,-0.0064573453690204615,0.004465879799089094,-178.36701533671018,164.40962707521106,0,1.2479503154754639,2019-07-24 10:50:46:670
0.31134140491485596,0.021167192608118057,9.806310653686523,1.3319057395376562e-05,-0.005658201986252788,0.00366673641632142,-178.3625841320607,164.71895934907815,0,1.250220775604248,2019-07-24 10:50:46:672
0.2873938977718353,-0.002780304290354252,9.820679664611816,0.0013452248243627468,-0.00512543973107434,0.003933117543910645,-178.3604809542742,157.82455634366022,0,1.254831075668335,2019-07-24 10:50:46:676
0.31134140491485596,0.07624643296003342,9.66023063659668,-0.0005194432313082785,-0.004059914960643116,0.001535687265570461,-178.355644319211,158.25911146976998,0,1.2579362392425537,2019-07-24 10:50:46:680
0.27781492471694946,0.040325190871953964,9.772784233093262,1.3319057395376562e-05,-0.00512543973107434,-0.0013945052679481718,-178.35531034229697,158.68919920420376,0,1.2602102756500244,2019-07-24 10:50:46:682
0.30655190348625183,0.0020091950427740812,9.758416175842285,-0.0005194432313082785,-0.004059914960643116,-0.0005953618851804982,-178.35127463729438,159.1152999888496,0,1.2643487453460693,2019-07-24 10:50:46:686
0.34965741634368896,0.033140942454338074,9.799126625061035,0.0005460813765764917,-0.0035271527054646663,-0.000328980725081983,-178.34276491756577,159.52902366569788,0,1.2674410343170166,2019-07-24 10:50:46:689
0.21555142104625702,0.08582543581724167,9.799126625061035,-0.0005194432313082785,-0.003793533833053891,-0.0027264109058942948,-178.35022411376175,159.9284730898669,0,1.2697079181671143,2019-07-24 10:50:46:691
0.21315667033195496,0.17443117499351501,9.69854736328125,0.00027970021647797646,-0.003793533833053891,-0.0024600297783050704,-178.35704227357988,160.30922277325396,0,1.2743849754333496,2019-07-24 10:50:46:696
0.2490779161453247,0.10258868336677551,9.77996826171875,0.0010788436317549408,-0.004059914960643116,-0.0011281241403589474,-178.35972634935143,160.69075354090054,0,1.2787585258483887,2019-07-24 10:50:46:700
0.22513042390346527,0.09300968050956726,9.844626426696777,-0.0018513489667822737,-0.00432629608823234,-0.000328980725081983,-178.36571442644004,161.0663763835001,0,1.2812974452972412,2019-07-24 10:50:46:703
0.19639341533184052,0.02356194145977497,9.820679664611816,0.0029435115898980946,-0.007256488751788136,-0.007521271462574662,-178.3737363138234,161.4415893199684,0,1.2855947017669678,2019-07-24 10:50:46:707
0.2969729006290436,0.0906149372458458,9.839837074279785,-0.0018513489667822737,-0.005391820858663564,-0.003525554548736294,-178.37033851218985,161.80266832847363,0,1.290050745010376,2019-07-24 10:50:46:712
0.24668316543102264,0.0642726868391037,9.679388999938965,0.002410749334719645,-0.0011297224271244826,-0.004857460186682417,-178.3735189980919,162.15854734595607,0,1.2934391498565674,2019-07-24 10:50:46:715
0.23470941185951233,-0.012359303422272205,9.763205528259277,-0.004515160242674519,-0.002728009322696993,-0.004591079059093192,-178.37791746796879,155.3178009134358,0,1.2972805500030518,2019-07-24 10:50:46:719
0.34486791491508484,0.061877936124801636,9.796731948852539,0.0005460813765764917,-0.00432629608823234,-0.006722128079806988,-178.36936814758334,155.80412277381964,0,1.3000333309173584,2019-07-24 10:50:46:722
0.18681442737579346,0.1361151784658432,9.69854736328125,1.3319057395376562e-05,-0.003793533833053891,-0.006722128079806988,-178.37899766005106,156.2719557077031,0,1.3043200969696045,2019-07-24 10:50:46:726
0.3017624020576477,0.09779918193817139,9.851811408996582,1.3319057395376562e-05,-0.00459267747589589,-0.006722128079806988,-178.37553242184416,156.735139123575,0,1.3074095249176025,2019-07-24 10:50:46:729
0.2754201591014862,0.1432994306087494,9.868574142456055,-0.0005194432313082785,-0.003793533833053891,-0.010185082738466909,-178.37556708752547,157.18386389639596,0,1.3096716403961182,2019-07-24 10:50:46:731
0.18202492594718933,0.06906218826770782,9.732073783874512,0.0005460813765764917,-0.007256488751788136,-0.0069885092073962134,-178.38508313164616,157.63193886989433,0,1.3134570121765137,2019-07-24 10:50:46:735
0.2682359218597412,0.08822018653154373,9.806310653686523,-0.0005194432313082785,-0.004859058603485115,-0.009918702131026334,-178.38492009443704,158.0691116199057,0,1.3175785541534424,2019-07-24 10:50:46:739
0.22752517461776733,0.05948318913578987,9.78954792022705,-0.0010522055189960183,-0.005391820858663564,-0.00805403371775311,-178.3899084537765,158.50090035888314,0,1.3198413848876953,2019-07-24 10:50:46:741
0.23470941185951233,0.12653617560863495,9.806310653686523,-0.0015849678391930489,-0.003793533833053891,-0.0061893658246285396,-178.39371848293592,158.9165021090555,0,1.3243956565856934,2019-07-24 10:50:46:746
0.27302542328834534,0.10498343408107758,9.722494125366211,-0.0015849678391930489,0.000734945596037252,-0.007521271462574662,-178.39380062391635,159.326073840215,0,1.327484369277954,2019-07-24 10:50:46:749
0.32570990920066833,0.05948318913578987,9.835047721862793,-0.0023841112219607223,-0.00459267747589589,-0.00858679597293156,-178.38740301151864,159.73292598719075,0,1.329756259918213,2019-07-24 10:50:46:751
0.31134140491485596,0.10258868336677551,9.77996826171875,-0.0002530620874644087,-0.00432629608823234,-0.00565660356945009,-178.38205927900694,160.12631362084508,0,1.3344006538391113,2019-07-24 10:50:46:756
0.3352889120578766,0.13850992918014526,9.784757614135742,-0.003449635732317621,-0.004059914960643116,-0.00911955822811001,-178.3744619533067,160.50816627184193,0,1.3374934196472168,2019-07-24 10:50:46:759
0.3472626507282257,0.16006267070770264,9.763205528259277,0.0016116059519519711,-0.003260771577875442,-0.009918702131026334,-178.36581598461285,160.8790126336754,0,1.3397622108459473,2019-07-24 10:50:46:761
0.30655190348625183,0.07624643296003342,9.72728443145752,1.3319057395376562e-05,-0.003260771577875442,-0.008320414845342336,-178.3615552999275,161.25244696584883,0,1.344367504119873,2019-07-24 10:50:46:766
0.2945781648159027,0.07864118367433548,9.791942596435547,-0.0015849678391930489,-0.002461628195107768,-0.006455746952217765,-178.35943372260587,161.61847035311538,0,1.3474600315093994,2019-07-24 10:50:46:769
0.3209204077720642,0.10498343408107758,9.832653045654297,-0.0018513489667822737,-0.005391820858663564,-0.00565660356945009,-178.3541723730303,161.97410174954857,0,1.3497235774993896,2019-07-24 10:50:46:771
0.29936766624450684,0.13132567703723907,9.803915977478027,-0.0023841112219607223,-0.007256488751788136,-0.008320414845342336,-178.35057379434164,162.31977511419805,0,1.3534905910491943,2019-07-24 10:50:46:775
0.33049941062927246,0.1361151784658432,9.772784233093262,-0.002117730094371498,-0.005658201986252788,-0.006722128079806988,-178.34351959038727,162.65790860112898,0,1.3575966358184814,2019-07-24 10:50:46:779
0.33049941062927246,0.0020091950427740812,9.78954792022705,-0.0005194432313082785,-0.00432629608823234,-0.005922984697039315,-178.33742642866108,163.00458138107942,0,1.3598642349243164,2019-07-24 10:50:46:781
0.21794617176055908,0.11216767877340317,9.794337272644043,-0.003449635732317621,-0.00459267747589589,-0.004058316803914743,-178.34402166354934,163.33223917715065,0,1.3643672466278076,2019-07-24 10:50:46:786
0.3664206564426422,0.10737818479537964,9.72728443145752,-0.0007858243914067938,-0.005924583113842013,-0.005922984697039315,-178.33296757442727,163.65308166958536,0,1.3674578666687012,2019-07-24 10:50:46:789
0.3616311550140381,0.07385168224573135,9.796731948852539,-0.0023841112219607223,-0.0029943904502862176,-0.005922984697039315,-178.32364646238727,163.97168538782452,0,1.3697254657745361,2019-07-24 10:50:46:791
0.3281046450138092,0.0906149372458458,9.763205528259277,-0.0015849678391930489,-0.005391820858663564,0.00020378157886040212,-178.31753338236203,164.2819529345366,0,1.3735065460205078,2019-07-24 10:50:46:795
0.3352889120578766,0.1169571802020073,9.801521301269531,-0.005847065880620643,-0.0019288658098921565,-0.0013945052679481718,-178.31155468197275,164.58398677548178,0,1.3776061534881592,2019-07-24 10:50:46:799
0.35205215215682983,0.08103593438863754,9.796731948852539,-0.0018513489667822737,-0.00805563213455581,-0.0029927920334835195,-178.30313712147753,164.8830641005029,0,1.3798720836639404,2019-07-24 10:50:46:801
0.28020966053009033,0.11935193091630936,9.705731391906738,-0.0010522055189960183,-0.00512543973107434,-0.001927267523126621,-178.30271129710448,165.17157677424723,0,1.3843512535095215,2019-07-24 10:50:46:806
0.2706306576728821,0.11456242948770523,9.717704772949219,-0.0037160168599068453,-0.003260771577875442,-0.0021936486507158457,-178.3041854410644,165.4552827807231,0,1.3874480724334717,2019-07-24 10:50:46:809
0.3544468879699707,0.08582543581724167,9.849416732788086,-0.002117730094371498,-0.0013961035547137074,0.00020378157886040212,-178.2967048052318,165.73646082332868,0,1.3897075653076172,2019-07-24 10:50:46:811
0.22034092247486115,0.09540443122386932,9.80870532989502,-0.0031832546047283966,-0.002461628195107768,-6.259956904712911e-05,-178.3045129908912,166.0112591759567,0,1.393472671508789,2019-07-24 10:50:46:815
0.24189366400241852,0.11456242948770523,9.875758171081543,-0.0023841112219607223,-0.00432629608823234,0.00206844952074891,-178.30936228092997,166.2782917227685,0,1.3975825309753418,2019-07-24 10:50:46:819
0.20836716890335083,0.18401017785072327,9.72728443145752,-0.005580684753031417,-0.0035271527054646663,0.001002925010392012,-178.31818315152216,166.53176185259073,0,1.3998501300811768,2019-07-24 10:50:46:821
0.16286692023277283,0.0834306851029396,9.744047164916992,-0.003449635732317621,-0.0035271527054646663,0.001535687265570461,-178.3317762790342,166.79218725983205,0,1.4043519496917725,2019-07-24 10:50:46:826
0.2562621533870697,0.047509439289569855,9.837442398071289,-0.004248779115085295,-0.005391820858663564,0.0028675930335537465,-178.33436044200528,167.05154725134665,0,1.407444715499878,2019-07-24 10:50:46:829
0.30655190348625183,0.1097729280591011,9.775178909301758,-0.005847065880620643,-0.0019288658098921565,0.004732260926678319,-178.33150421283338,167.29838999381653,0,1.409703254699707,2019-07-24 10:50:46:831
0.23949891328811646,0.1097729280591011,9.782362937927246,-0.00398239798749607,-0.00459267747589589,0.00419949867149987,-178.33584689238967,167.54041160916265,0,1.41349458694458,2019-07-24 10:50:46:835
0.22752517461776733,0.12653617560863495,9.813494682312012,-0.003449635732317621,-0.004059914960643116,0.006863309947392116,-178.34163109360503,167.77562364980702,0,1.4175989627838135,2019-07-24 10:50:46:839
0.22034092247486115,0.13132567703723907,9.724889755249023,-0.003449635732317621,-0.006723726496609687,0.004732260926678319,-178.34797611916332,168.00508050364226,0,1.4198856353759766,2019-07-24 10:50:46:841
0.3472626507282257,0.09779918193817139,9.763205528259277,-0.004515160242674519,-0.002728009322696993,0.010059883998611461,-178.3395892665829,168.23463590882102,0,1.4243640899658203,2019-07-24 10:50:46:846
0.2706306576728821,0.11216767877340317,9.784757614135742,-0.0018513489667822737,-0.006990107624198911,0.006863309947392116,-178.339896363604,168.457129349456,0,1.427459716796875,2019-07-24 10:50:46:849
0.2634464204311371,0.040325190871953964,9.823074340820312,-0.002117730094371498,-0.00432629608823234,0.00766245385030844,-178.34182300305488,168.6835520194661,0,1.429725170135498,2019-07-24 10:50:46:851
0.21315667033195496,0.10498343408107758,9.842231750488281,-0.005047922497852969,-0.004859058603485115,0.0073960722025705646,-178.3491435894497,168.89872773099404,0,1.4334979057312012,2019-07-24 10:50:46:855
0.2514726519584656,0.11456242948770523,9.80870532989502,-0.004515160242674519,-0.007789251006966585,0.006863309947392116,-178.35099475459148,169.10840964905475,0,1.4375991821289062,2019-07-24 10:50:46:859
0.22034092247486115,0.13132567703723907,9.80870532989502,-0.002650492349549947,-0.0035271527054646663,0.00952712174343301,-178.35778897791653,169.31123715318,0,1.439864158630371,2019-07-24 10:50:46:861
0.19878816604614258,0.09779918193817139,9.837442398071289,-0.003449635732317621,-0.0064573453690204615,0.009260740095695136,-178.36585185254145,169.51449068408857,0,1.4443559646606445,2019-07-24 10:50:46:866
0.28499916195869446,0.10258868336677551,9.854206085205078,-0.005847065880620643,-0.00512543973107434,0.008727977840516687,-178.36451188027155,169.71328743770388,0,1.4474501609802246,2019-07-24 10:50:46:869
0.22034092247486115,0.10019393265247345,9.80870532989502,-0.006379828135799091,-0.005924583113842013,0.008727977840516687,-178.37073403292143,169.90812475928962,0,1.4497056007385254,2019-07-24 10:50:46:871
0.19399867951869965,0.10737818479537964,9.787153244018555,-0.0031832546047283966,-0.00459267747589589,0.009793502350873586,-178.37963141232927,170.098067602596,0,1.453493595123291,2019-07-24 10:50:46:875
0.2514726519584656,0.07624643296003342,9.842231750488281,-0.004248779115085295,-0.0019288658098921565,0.010326264606052035,-178.3823223441095,170.28820772422225,0,1.4575953483581543,2019-07-24 10:50:46:879
0.1844196766614914,0.04511468857526779,9.756021499633789,-0.004781541370263744,-0.00459267747589589,0.008461597233076112,-178.39243068319809,170.47775503550676,0,1.459869146347046,2019-07-24 10:50:46:881
0.15568268299102783,0.054693687707185745,9.748836517333984,-0.0007858243914067938,-0.002728009322696993,0.010859026861230484,-178.40559593341558,170.66196932437776,0,1.4643616676330566,2019-07-24 10:50:46:886
0.2299199253320694,0.05708843842148781,9.799126625061035,-0.0029168734771391714,-0.003260771577875442,0.011658170764146809,-178.41003567281524,170.84256063665805,0,1.4674546718597412,2019-07-24 10:50:46:889
0.2227356731891632,0.0834306851029396,9.720099449157715,-0.002650492349549947,-0.005391820858663564,0.012190933019325256,-178.41489565751291,171.01621078158507,0,1.4697182178497314,2019-07-24 10:50:46:891
0.17484067380428314,0.028351441025733948,9.894916534423828,-0.0013185867116038243,-0.0008633412995352583,0.008994359488254562,-178.42616888877046,171.19288261716065,0,1.4734916687011719,2019-07-24 10:50:46:895
0.17963017523288727,0.10258868336677551,9.796731948852539,-0.007178972038715416,-0.0019288658098921565,0.01059264625378991,-178.43619015793575,171.3586875575209,0,1.477614402770996,2019-07-24 10:50:46:899
0.17005117237567902,0.009193443693220615,9.69854736328125,-0.002117730094371498,-0.003793533833053891,0.01059264625378991,-178.4468931369339,171.53069729662502,0,1.4798827171325684,2019-07-24 10:50:46:901
0.11976142972707748,0.028351441025733948,9.803915977478027,-0.003449635732317621,-0.0019288658098921565,0.009793502350873586,-178.46347388353323,171.6976350672237,0,1.4843511581420898,2019-07-24 10:50:46:906
0.14610368013381958,0.054693687707185745,9.758416175842285,-0.0023841112219607223,-0.004859058603485115,0.010059883998611461,-178.47620559949434,171.85767363616947,0,1.4874422550201416,2019-07-24 10:50:46:909
0.13652467727661133,0.04990419000387192,9.756021499633789,-0.006113447008209866,-0.00459267747589589,0.0073960722025705646,-178.49006478292097,172.01543323721256,0,1.489698886871338,2019-07-24 10:50:46:911
0.16286692023277283,0.08822018653154373,9.763205528259277,-0.002650492349549947,-0.0013961035547137074,0.0073960722025705646,-178.50085417096676,172.16533093127762,0,1.4934654235839844,2019-07-24 10:50:46:915
0.22752517461776733,0.006798694375902414,9.758416175842285,-0.0029168734771391714,-0.0029943904502862176,0.006330547692213666,-178.50343339234905,172.32189868342232,0,1.497572898864746,2019-07-24 10:50:46:919
0.2562621533870697,0.05948318913578987,9.813494682312012,-0.0023841112219607223,-0.002461628195107768,0.008727977840516687,-178.50313399817338,172.4688190488366,0,1.4998443126678467,2019-07-24 10:50:46:921
0.20118291676044464,0.028351441025733948,9.753625869750977,-0.003449635732317621,-0.00459267747589589,0.006064166564624441,-178.50826414600624,172.61699383111605,0,1.5043981075286865,2019-07-24 10:50:46:926
0.15328793227672577,0.040325190871953964,9.775178909301758,-0.005580684753031417,-0.00459267747589589,0.008461597233076112,-178.5193324842975,172.76089688119686,0,1.5074939727783203,2019-07-24 10:50:46:929
0.18202492594718933,0.006798694375902414,9.686573028564453,-0.0037160168599068453,-0.0035271527054646663,0.006863309947392116,-178.52696531722177,172.90534835285064,0,1.5097641944885254,2019-07-24 10:50:46:931
0.18920917809009552,0.013982943259179592,9.736863136291504,-0.0013185867116038243,-0.0011297224271244826,0.008461597233076112,-178.53386753987843,173.04593838521308,0,1.5143918991088867,2019-07-24 10:50:46:936
0.20118291676044464,0.013982943259179592,9.799126625061035,-0.0029168734771391714,-0.002728009322696993,0.006064166564624441,-178.53919308520915,173.18389121888055,0,1.5174860954284668,2019-07-24 10:50:46:939
0.16047218441963196,0.06666743755340576,9.85899543762207,-0.004781541370263744,-0.005924583113842013,0.005265023181856767,-178.5490061128526,173.3130724489539,0,1.519749641418457,2019-07-24 10:50:46:941
0.2371041625738144,0.028351441025733948,9.674599647521973,-0.0013185867116038243,-0.00432629608823234,0.006330547692213666,-178.54882600368165,173.44379475223053,0,1.524366855621338,2019-07-24 10:50:46:946
0.20836716890335083,0.021167192608118057,9.676994323730469,-0.004781541370263744,-0.0029943904502862176,0.005797785437035217,-178.5526588276732,173.57324324760174,0,1.5274617671966553,2019-07-24 10:50:46:949
0.21555142104625702,0.054693687707185745,9.756021499633789,-0.0029168734771391714,-0.005391820858663564,0.006064166564624441,-178.55560683402766,173.69572477295614,0,1.529723882675171,2019-07-24 10:50:46:951
0.14849843084812164,0.033140942454338074,9.667415618896484,-0.005580684753031417,-0.004859058603485115,0.00366673641632142,-178.56586986482029,173.81905819838843,0,1.533477544784546,2019-07-24 10:50:46:955
0.11736667901277542,0.02356194145977497,9.72728443145752,-0.0029168734771391714,-0.007256488751788136,0.004465879799089094,-178.5790538316358,173.94057383908483,0,1.537583589553833,2019-07-24 10:50:46:959
0.19878816604614258,-0.007569803856313229,9.744047164916992,-0.002650492349549947,-0.005924583113842013,0.005265023181856767,-178.58334257118491,166.8629906258809,0,1.5398550033569336,2019-07-24 10:50:46:961
0.2706306576728821,0.06666743755340576,9.693758010864258,-0.002117730094371498,-0.0035271527054646663,0.0026012119059645217,-178.5787974312183,167.1183873636983,0,1.5443735122680664,2019-07-24 10:50:46:966
0.12934042513370514,0.05229893699288368,9.801521301269531,-0.004515160242674519,-0.005391820858663564,0.00366673641632142,-178.59116529763477,167.3706887913825,0,1.5474638938903809,2019-07-24 10:50:46:969
0.26105165481567383,0.013982943259179592,9.75123119354248,-0.005314303625442193,-0.0064573453690204615,0.00366673641632142,-178.5878395432082,167.62231678111993,0,1.5497593879699707,2019-07-24 10:50:46:971
0.13652467727661133,0.10498343408107758,9.7392578125,-0.0029168734771391714,-0.005658201986252788,0.0023348307783752974,-178.59854634496446,167.8582785195297,0,1.554399013519287,2019-07-24 10:50:46:976
0.19639341533184052,0.061877936124801636,9.76799488067627,-0.003449635732317621,-0.003260771577875442,0.001535687265570461,-178.60297300993633,168.09445267702066,0,1.5574901103973389,2019-07-24 10:50:46:979
0.16286692023277283,0.061877936124801636,9.803915977478027,-0.002117730094371498,-0.00432629608823234,0.001002925010392012,-178.611322965918,168.32560331971501,0,1.5597784519195557,2019-07-24 10:50:46:981
0.21555142104625702,0.07624643296003342,9.758416175842285,-0.002650492349549947,-0.005391820858663564,0.00020378157886040212,-178.61240027683522,168.55082047899566,0,1.5643646717071533,2019-07-24 10:50:46:986
0.2227356731891632,0.06906218826770782,9.832653045654297,-0.0018513489667822737,-0.0035271527054646663,-6.259956904712911e-05,-178.61358630429308,168.77207699439134,0,1.5674567222595215,2019-07-24 10:50:46:989
0.3089466691017151,0.054693687707185745,9.777573585510254,-0.004248779115085295,-0.007789251006966585,-6.259956904712911e-05,-178.6041304583595,168.99076449750197,0,1.569715976715088,2019-07-24 10:50:46:991
0.20597241818904877,0.011588193476200104,9.729679107666016,-0.0029168734771391714,-0.004059914960643116,0.000470162722704272,-178.6069325875917,169.21020258528057,0,1.5734903812408447,2019-07-24 10:50:46:995
0.17963017523288727,0.033140942454338074,9.736863136291504,-0.002650492349549947,-0.005658201986252788,-0.0008617430127697228,-178.6123503697119,169.42270982299178,0,1.5775997638702393,2019-07-24 10:50:46:999
0.14610368013381958,0.033140942454338074,9.700942039489746,-0.003449635732317621,-0.00459267747589589,-0.0011281241403589474,-178.62226171317022,169.63077998354885,0,1.579866647720337,2019-07-24 10:50:47:001
0.20118291676044464,0.0379304401576519,9.794337272644043,-0.00398239798749607,-0.004859058603485115,-0.004591079059093192,-178.62505292983772,169.83473381925143,0,1.5843708515167236,2019-07-24 10:50:47:006
0.14131417870521545,0.07145693898200989,9.724889755249023,-0.0018513489667822737,-0.0013961035547137074,-0.0008617430127697228,-178.63565942223806,170.02994034553387,0,1.5874593257904053,2019-07-24 10:50:47:009
0.2754201591014862,0.09300968050956726,9.753625869750977,-0.003449635732317621,-0.00459267747589589,-0.003525554548736294,-178.6300143581438,170.21885199531133,0,1.5897178649902344,2019-07-24 10:50:47:011
0.25865691900253296,0.08822018653154373,9.777573585510254,-0.0015849678391930489,-0.005924583113842013,-0.0043246979315039675,-178.62555948888868,170.4045499637558,0,1.594369649887085,2019-07-24 10:50:47:016
0.2514726519584656,0.033140942454338074,9.80870532989502,-0.0015849678391930489,-0.002461628195107768,-0.0021936486507158457,-178.62324870886863,170.59286242198556,0,1.5974617004394531,2019-07-24 10:50:47:019
0.28499916195869446,0.03074619174003601,9.732073783874512,-0.0015849678391930489,-0.003260771577875442,-0.003259173161072744,-178.61681928344964,170.77758735751854,0,1.599736213684082,2019-07-24 10:50:47:021
0.2706306576728821,0.04271994158625603,9.772784233093262,-0.0015849678391930489,-0.004059914960643116,-0.0061893658246285396,-178.61189903294735,170.95736181452384,0,1.6035041809082031,2019-07-24 10:50:47:025
0.22513042390346527,0.1169571802020073,9.777573585510254,-0.0018513489667822737,-0.004859058603485115,-0.005390222441860866,-178.61216143303707,171.12493453087367,0,1.6076068878173828,2019-07-24 10:50:47:029
0.2490779161453247,0.040325190871953964,9.80870532989502,-0.0002530620874644087,-0.005658201986252788,-0.005390222441860866,-178.6101056814444,171.29775701801498,0,1.609872817993164,2019-07-24 10:50:47:031
0.3161309063434601,0.07864118367433548,9.775178909301758,1.3319057395376562e-05,-0.0029943904502862176,-0.005390222441860866,-178.60010407550135,171.46257985022848,0,1.6143531799316406,2019-07-24 10:50:47:036
0.2754201591014862,0.025956692174077034,9.770389556884766,0.0016116059519519711,-0.00512543973107434,-0.004857460186682417,-178.59491767100636,171.63000398665233,0,1.6174468994140625,2019-07-24 10:50:47:039
0.21315667033195496,0.040325190871953964,9.794337272644043,-0.00398239798749607,-0.0021952470675185437,-0.005123841314271641,-178.5978064168697,171.79319026435493,0,1.6197021007537842,2019-07-24 10:50:47:041
0.2945781648159027,0.047509439289569855,9.665020942687988,-0.003449635732317621,-0.002461628195107768,-0.0027264109058942948,-178.59041498941326,171.9524223222012,0,1.6234641075134277,2019-07-24 10:50:47:045
0.3161309063434601,0.03074619174003601,9.705731391906738,0.00267713046230887,-0.005391820858663564,-0.0061893658246285396,-178.5800527223857,172.10912669688867,0,1.6275694370269775,2019-07-24 10:50:47:049
0.27781492471694946,0.13132567703723907,9.736863136291504,-0.0010522055189960183,-0.002728009322696993,-0.003525554548736294,-178.57541815222044,172.25162335581336,0,1.629833459854126,2019-07-24 10:50:47:051
0.33049941062927246,0.06666743755340576,9.75123119354248,0.0013452248243627468,-0.006723726496609687,-0.004058316803914743,-178.56336275067252,172.3984118115796,0,1.6343979835510254,2019-07-24 10:50:47:056
0.33289414644241333,0.1097729280591011,9.827863693237305,-0.0007858243914067938,-0.0064573453690204615,-0.004857460186682417,-178.55217360585394,172.53778123998404,0,1.6374917030334473,2019-07-24 10:50:47:059
0.29936766624450684,0.128930926322937,9.720099449157715,-0.0010522055189960183,-0.004859058603485115,-0.004058316803914743,-178.54522506499444,172.6719616529728,0,1.6397764682769775,2019-07-24 10:50:47:061
0.22513042390346527,0.0642726868391037,9.760810852050781,-0.0013185867116038243,-0.005391820858663564,-0.00565660356945009,-178.54650524301377,172.81131681367168,0,1.644366979598999,2019-07-24 10:50:47:066
0.33289414644241333,0.10498343408107758,9.770389556884766,0.00027970021647797646,-0.002461628195107768,-0.007787652590163887,-178.53611912196368,172.94272941206054,0,1.6474618911743164,2019-07-24 10:50:47:069
0.2945781648159027,0.033140942454338074,9.684178352355957,-0.0023841112219607223,-0.006190964241431238,-0.0043246979315039675,-178.52976309756983,173.0802565234856,0,1.6497268676757812,2019-07-24 10:50:47:071
0.2682359218597412,0.09300968050956726,9.763205528259277,-0.0018513489667822737,-0.00459267747589589,-0.0013945052679481718,-178.52672008031232,173.20812716256492,0,1.6534984111785889,2019-07-24 10:50:47:075
0.2634464204311371,0.0834306851029396,9.736863136291504,-0.0029168734771391714,-0.0008633412995352583,-0.005390222441860866,-178.52498983319663,173.33481779243118,0,1.657599925994873,2019-07-24 10:50:47:079
0.22034092247486115,0.0020091950427740812,9.732073783874512,-0.0007858243914067938,-0.007522869879377361,-0.001927267523126621,-178.52758141290838,173.46798605286853,0,1.659893274307251,2019-07-24 10:50:47:081
0.3472626507282257,0.05708843842148781,9.80870532989502,-0.002650492349549947,-0.005658201986252788,-0.001927267523126621,-178.51495407885585,173.5926704906792,0,1.6646876335144043,2019-07-24 10:50:47:086
0.2826044261455536,0.011588193476200104,9.784757614135742,-0.0007858243914067938,-0.0008633412995352583,-0.004058316803914743,-178.5114081835869,173.71960518948714,0,1.6679790019989014,2019-07-24 10:50:47:090
0.26584115624427795,0.07624643296003342,9.734468460083008,-0.0029168734771391714,-0.0021952470675185437,-0.00565660356945009,-178.50959962843962,173.83662846421478,0,1.6703646183013916,2019-07-24 10:50:47:092
0.20836716890335083,0.1552731692790985,9.806310653686523,-0.0018513489667822737,-0.006990107624198911,0.0007365438828027872,-178.51377990120713,173.94209269693,0,1.6736326217651367,2019-07-24 10:50:47:095
0.28499916195869446,0.05229893699288368,9.736863136291504,-0.002650492349549947,-0.00459267747589589,-0.0024600297783050704,-178.50878856571893,174.05777935556253,0,1.678224802017212,2019-07-24 10:50:47:100
0.20597241818904877,0.1361151784658432,9.748836517333984,0.00027970021647797646,-0.00432629608823234,-0.004058316803914743,-178.5138097601295,174.16058678615235,0,1.6806776523590088,2019-07-24 10:50:47:102
0.17484067380428314,0.11216767877340317,9.724889755249023,-0.002650492349549947,-0.003793533833053891,-0.001927267523126621,-178.52222254665466,174.26465545001247,0,1.684016466140747,2019-07-24 10:50:47:106
0.2706306576728821,0.10258868336677551,9.744047164916992,-0.0005194432313082785,-0.0021952470675185437,0.001002925010392012,-178.5194886718659,174.36740964264607,0,1.6878376007080078,2019-07-24 10:50:47:109
0.3089466691017151,0.05229893699288368,9.712915420532227,-0.002650492349549947,-0.003793533833053891,-0.004058316803914743,-178.51201714049762,174.47434198607905,0,1.6908655166625977,2019-07-24 10:50:47:112
0.3209204077720642,0.028351441025733948,9.720099449157715,-0.0007858243914067938,-0.00512543973107434,0.000470162722704272,-178.50284399724922,174.58168337913986,0,1.6947321891784668,2019-07-24 10:50:47:116
0.2706306576728821,0.08822018653154373,9.835047721862793,-0.002117730094371498,-0.004059914960643116,0.0018020683931596856,-178.5004686715371,174.68018545965214,0,1.698216438293457,2019-07-24 10:50:47:120
0.28499916195869446,0.1097729280591011,9.794337272644043,-0.002650492349549947,-0.007522869879377361,0.00206844952074891,-178.4960033357102,174.77413409295482,0,1.7008705139160156,2019-07-24 10:50:47:122
0.25865691900253296,0.07864118367433548,9.765600204467773,-0.004248779115085295,-0.005658201986252788,-0.0005953618851804982,-178.49451071079747,174.87034604450778,0,1.7047367095947266,2019-07-24 10:50:47:126
0.24189366400241852,0.07864118367433548,9.715310096740723,-0.0029168734771391714,-0.005391820858663564,0.0026012119059645217,-178.49504355448101,174.96423254123044,0,1.7082102298736572,2019-07-24 10:50:47:130
0.2371041625738144,0.08822018653154373,9.76799488067627,-0.0005194432313082785,-0.006990107624198911,0.0031339741611429712,-178.4962899386936,175.05467625872805,0,1.710866928100586,2019-07-24 10:50:47:132
0.2969729006290436,0.128930926322937,9.772784233093262,-0.0005194432313082785,-0.00432629608823234,0.0012693061379812365,-178.49060941910736,175.13857901170792,0,1.7147514820098877,2019-07-24 10:50:47:136
0.3209204077720642,0.021167192608118057,9.753625869750977,-0.004781541370263744,-0.0013961035547137074,0.0031339741611429712,-178.48283546041432,175.234251052612,0,1.718217134475708,2019-07-24 10:50:47:140
0.14610368013381958,0.06666743755340576,9.78954792022705,-0.002650492349549947,-0.00512543973107434,0.0055314043094459924,-178.4953130007295,175.32215791936582,0,1.7208747863769531,2019-07-24 10:50:47:142
0.24428841471672058,0.12653617560863495,9.782362937927246,-0.0018513489667822737,-0.00512543973107434,0.00419949867149987,-178.49568383941838,175.40129491846636,0,1.724740982055664,2019-07-24 10:50:47:146
0.15568268299102783,0.10498343408107758,9.772784233093262,-0.003449635732317621,-0.005658201986252788,0.00366673641632142,-178.50641117465105,175.48163377191293,0,1.7282216548919678,2019-07-24 10:50:47:150
0.26584115624427795,0.05708843842148781,9.777573585510254,-0.003449635732317621,-0.0064573453690204615,0.00419949867149987,-178.50417034980975,175.56582555629856,0,1.7308807373046875,2019-07-24 10:50:47:152
0.2945781648159027,0.04990419000387192,9.803915977478027,-0.0013185867116038243,-0.001662484682302932,0.004732260926678319,-178.49931282708772,175.64895622555503,0,1.734663963317871,2019-07-24 10:50:47:156
0.2562621533870697,0.09300968050956726,9.736863136291504,1.3319057395376562e-05,-0.003260771577875442,0.0023348307783752974,-178.49855162105138,175.72502873184712,0,1.7380657196044922,2019-07-24 10:50:47:160
0.3233151435852051,0.054693687707185745,9.803915977478027,-0.0029168734771391714,-0.009653919420239807,0.006064166564624441,-178.48938814890408,175.8045632536159,0,1.740677833557129,2019-07-24 10:50:47:162
0.29218339920043945,0.047509439289569855,9.791942596435547,-0.005580684753031417,-0.00512543973107434,0.003933117543910645,-178.48435856322902,175.88406501802527,0,1.7443568706512451,2019-07-24 10:50:47:166
0.27781492471694946,0.08822018653154373,9.81828498840332,-0.0031832546047283966,-0.005924583113842013,0.006863309947392116,-178.4811981887643,175.95665574533268,0,1.7475354671478271,2019-07-24 10:50:47:169
0.31852564215660095,0.0834306851029396,9.772784233093262,-0.00398239798749607,-0.0029943904502862176,0.00366673641632142,-178.47385531844066,176.028249702772,0,1.7498142719268799,2019-07-24 10:50:47:171
0.21555142104625702,0.1097729280591011,9.717704772949219,-0.0023841112219607223,-0.0021952470675185437,0.011391789116408934,-178.47840644850302,176.09534682274793,0,1.7543413639068604,2019-07-24 10:50:47:176
0.20836716890335083,0.1169571802020073,9.77996826171875,-0.005047922497852969,-0.006190964241431238,0.0073960722025705646,-178.4833257357748,176.16063521518674,0,1.7575113773345947,2019-07-24 10:50:47:179
0.2035776674747467,0.08822018653154373,9.705731391906738,-0.004781541370263744,-0.003260771577875442,0.009793502350873586,-178.48921155565702,176.22761645660975,0,1.7597813606262207,2019-07-24 10:50:47:181
0.26584115624427795,0.10258868336677551,9.775178909301758,-0.00398239798749607,-0.005391820858663564,0.008727977840516687,-178.48677512367988,176.2921434175439,0,1.7647230625152588,2019-07-24 10:50:47:186
0.14370892941951752,0.19358916580677032,9.777573585510254,-0.004248779115085295,-0.003793533833053891,0.0055314043094459924,-178.49945413342328,176.34444874410144,0,1.7682170867919922,2019-07-24 10:50:47:190
0.1844196766614914,0.1097729280591011,9.796731948852539,-0.0023841112219607223,-0.00805563213455581,0.011391789116408934,-178.5066989187841,176.40507459545617,0,1.7708640098571777,2019-07-24 10:50:47:192
0.13652467727661133,0.08582543581724167,9.736863136291504,-0.0029168734771391714,-0.00512543973107434,0.008195216105486888,-178.51934712672738,176.46752802414147,0,1.7748651504516602,2019-07-24 10:50:47:196
0.17963017523288727,0.13372042775154114,9.753625869750977,-0.0037160168599068453,-0.006190964241431238,0.011125408508968359,-178.52669132672418,176.52316874090053,0,1.7782227993011475,2019-07-24 10:50:47:200
0.30415716767311096,0.11935193091630936,9.815889358520508,-0.002650492349549947,-0.004859058603485115,0.008994359488254562,-178.51993982250602,176.57916634031895,0,1.780867099761963,2019-07-24 10:50:47:202
0.17484067380428314,0.07385168224573135,9.741652488708496,-0.002650492349549947,-0.003793533833053891,0.012190933019325256,-178.52815331428394,176.63947121239121,0,1.7847323417663574,2019-07-24 10:50:47:206
0.18920917809009552,0.13372042775154114,9.827863693237305,-0.0029168734771391714,-0.005658201986252788,0.009260740095695136,-178.534424922518,176.69166155267314,0,1.788215160369873,2019-07-24 10:50:47:210
0.24189366400241852,0.054693687707185745,9.96915340423584,-0.00398239798749607,-0.0064573453690204615,0.008994359488254562,-178.53497569080673,176.7521345046812,0,1.7908668518066406,2019-07-24 10:50:47:212
0.17244592308998108,0.08103593438863754,9.825469017028809,-0.0037160168599068453,-0.005391820858663564,0.010059883998611461,-178.54299307434934,176.8084496825858,0,1.7947423458099365,2019-07-24 10:50:47:216
0.1389194279909134,0.03553568944334984,9.72728443145752,-0.00398239798749607,-0.0029943904502862176,0.012723695274503706,-178.55518576691415,176.86887015655077,0,1.7982113361358643,2019-07-24 10:50:47:220
0.18681442737579346,0.08582543581724167,9.703336715698242,-0.0018513489667822737,-0.008322013262145034,0.010859026861230484,-178.5607839554827,176.92163308899083,0,1.8008627891540527,2019-07-24 10:50:47:222
0.12934042513370514,0.13372042775154114,9.720099449157715,-0.005047922497852969,-0.00459267747589589,0.013256457529682155,-178.5733538097607,176.96850006830022,0,1.8046135902404785,2019-07-24 10:50:47:226
0.1508931815624237,0.040325190871953964,9.756021499633789,-0.005314303625442193,-0.007522869879377361,0.011658170764146809,-178.5827263069831,177.0254096786551,0,1.808018684387207,2019-07-24 10:50:47:230
0.21555142104625702,0.03553568944334984,9.837442398071289,-0.002650492349549947,-0.005658201986252788,0.008195216105486888,-178.58513169763773,177.081153532774,0,1.8106486797332764,2019-07-24 10:50:47:232
0.2035776674747467,0.06666743755340576,9.7392578125,-0.005047922497852969,-0.00512543973107434,0.01059264625378991,-178.5884094586831,177.1327406037616,0,1.8143675327301025,2019-07-24 10:50:47:236
0.15328793227672577,0.07624643296003342,9.69854736328125,-0.002650492349549947,-0.0064573453690204615,0.006330547692213666,-178.59738122690322,177.18154926835234,0,1.8175394535064697,2019-07-24 10:50:47:239
0.1844196766614914,-0.0003855547111015767,9.69854736328125,-0.0037160168599068453,-0.005924583113842013,0.01059264625378991,-178.60288962205496,170.03843852297408,0,1.8198144435882568,2019-07-24 10:50:47:241
0.2706306576728821,0.07624643296003342,9.777573585510254,-0.0023841112219607223,-0.003260771577875442,0.008195216105486888,-178.598281403483,170.22934891201595,0,1.8244080543518066,2019-07-24 10:50:47:246
0.15328793227672577,0.02356194145977497,9.72728443145752,-0.005580684753031417,-0.005924583113842013,0.007928834977897663,-178.60720109836618,170.42298301722892,0,1.8275890350341797,2019-07-24 10:50:47:249
0.09820868819952011,0.09300968050956726,9.705731391906738,-0.0031832546047283966,-0.00432629608823234,0.011924551371587381,-178.62290973547545,170.60394905462286,0,1.8298640251159668,2019-07-24 10:50:47:251
0.12455093115568161,0.05708843842148781,9.784757614135742,-0.0029168734771391714,-0.005924583113842013,0.010859026861230484,-178.63437708900156,170.78591737319283,0,1.8343393802642822,2019-07-24 10:50:47:256
0.18202492594718933,0.0379304401576519,9.686573028564453,-0.005314303625442193,-0.00432629608823234,0.0073960722025705646,-178.63938800349948,170.9666585363634,0,1.8375117778778076,2019-07-24 10:50:47:259
0.13652467727661133,0.05229893699288368,9.87096881866455,-0.0023841112219607223,-0.00432629608823234,0.00952712174343301,-178.65020184973878,171.14155733691652,0,1.8397772312164307,2019-07-24 10:50:47:261
0.1580774337053299,0.0834306851029396,9.756021499633789,-0.0023841112219607223,-0.006723726496609687,0.010326264606052035,-178.65676705264997,171.30958819903447,0,1.844717264175415,2019-07-24 10:50:47:266
0.1844196766614914,0.054693687707185745,9.7392578125,-0.0015849678391930489,-0.0064573453690204615,0.00766245385030844,-178.66066682730792,171.47727269424033,0,1.8482165336608887,2019-07-24 10:50:47:270
0.2682359218597412,0.0642726868391037,9.746441841125488,-0.004248779115085295,-0.006190964241431238,0.006596928819802891,-178.65500335093682,171.64080261988616,0,1.8508656024932861,2019-07-24 10:50:47:272
0.23231466114521027,-0.007569803856313229,9.820679664611816,-0.0029168734771391714,-0.004059914960643116,0.00766245385030844,-178.6539172051361,164.60950477343894,0,1.8547422885894775,2019-07-24 10:50:47:276
0.12455093115568161,0.04990419000387192,9.849416732788086,-0.0029168734771391714,-0.00805563213455581,0.005797785437035217,-178.66477779052775,164.91207759991957,0,1.8582158088684082,2019-07-24 10:50:47:280
0.17963017523288727,0.07145693898200989,9.813494682312012,-0.0037160168599068453,-0.0064573453690204615,0.008195216105486888,-178.66954436885328,165.20604748912695,0,1.8608770370483398,2019-07-24 10:50:47:282
0.2227356731891632,0.018772443756461143,9.791942596435547,-0.0029168734771391714,-0.0064573453690204615,0.0023348307783752974,-178.6686795919143,165.50036768734628,0,1.8647725582122803,2019-07-24 10:50:47:286
0.11257718503475189,0.028351441025733948,9.763205528259277,-0.0018513489667822737,-0.00512543973107434,0.007928834977897663,-178.68109660388666,165.7873927277331,0,1.8682358264923096,2019-07-24 10:50:47:290
0.2227356731891632,0.06666743755340576,9.77996826171875,0.0008124625041657164,-0.0064573453690204615,0.006064166564624441,-178.68042825615183,166.06371367871205,0,1.8708643913269043,2019-07-24 10:50:47:292
0.2107619196176529,0.03074619174003601,9.81828498840332,-0.0018513489667822737,-0.005924583113842013,0.0031339741611429712,-178.68093625495086,166.3392536507937,0,1.8747382164001465,2019-07-24 10:50:47:296
0.1844196766614914,0.03074619174003601,9.770389556884766,-0.0018513489667822737,-0.010186681675418257,0.005797785437035217,-178.68370100782266,166.60922411541196,0,1.8782165050506592,2019-07-24 10:50:47:300
0.12455093115568161,0.047509439289569855,9.763205528259277,-0.005580684753031417,-0.007789251006966585,0.0012693061379812365,-178.69425010566187,166.87229385151232,0,1.880866527557373,2019-07-24 10:50:47:302
0.13412992656230927,-0.0339120514690876,9.770389556884766,0.0010788436317549408,-0.00512543973107434,0.00206844952074891,-178.7035158186736,159.93858980115715,0,1.8847544193267822,2019-07-24 10:50:47:306
0.21315667033195496,0.07385168224573135,9.796731948852539,-0.002650492349549947,-0.003793533833053891,0.0031339741611429712,-178.7037790295906,160.3316951835684,0,1.8882174491882324,2019-07-24 10:50:47:310
0.19639341533184052,-0.009964553639292717,9.729679107666016,0.0008124625041657164,-0.005391820858663564,-0.000328980725081983,-178.70577444069156,153.52611402962472,0,1.8908660411834717,2019-07-24 10:50:47:312
0.21555142104625702,-0.002780304290354252,9.837442398071289,-0.0031832546047283966,-0.00459267747589589,-0.0008617430127697228,-178.7055799324385,146.85659105723548,0,1.8946449756622314,2019-07-24 10:50:47:316
0.1580774337053299,0.033140942454338074,9.78954792022705,0.0013452248243627468,-0.002728009322696993,0.001535687265570461,-178.71242367738733,147.51531241764602,0,1.8981866836547852,2019-07-24 10:50:47:320
0.26584115624427795,0.02356194145977497,9.756021499633789,-0.0023841112219607223,-0.007256488751788136,-0.0029927920334835195,-178.70586877693137,148.16259650134543,0,1.9008598327636719,2019-07-24 10:50:47:322
0.23470941185951233,0.04511468857526779,9.851811408996582,-0.0002530620874644087,-0.005391820858663564,-0.0016608863955373968,-178.70331625802035,148.7941505898511,0,1.904625415802002,2019-07-24 10:50:47:326
0.20597241818904877,-0.00517505407333374,9.835047721862793,1.3319057395376562e-05,-0.007522869879377361,-0.0043246979315039675,-178.70381794875266,142.21886799748506,0,1.908027172088623,2019-07-24 10:50:47:330
0.25386741757392883,0.03553568944334984,9.760810852050781,-0.0018513489667822737,-0.0035271527054646663,-0.0061893658246285396,-178.69943119465242,142.97058813518814,0,1.9106183052062988,2019-07-24 10:50:47:332
0.18202492594718933,0.09540443122386932,9.820679664611816,-0.002650492349549947,-0.006190964241431238,-0.0069885092073962134,-178.702525981184,143.7007636480401,0,1.915450096130371,2019-07-24 10:50:47:337
0.0862349346280098,0.08582543581724167,9.842231750488281,-0.0002530620874644087,-0.0029943904502862176,-0.0061893658246285396,-178.7180386248133,144.4167896500645,0,1.9178106784820557,2019-07-24 10:50:47:339
