ACCELEROMETER X (m/s²),ACCELEROMETER Y (m/s²),ACCELEROMETER Z (m/s²),GYROSCOPE X (rad/s),GYROSCOPE Y (rad/s),GYROSCOPE Z (rad/s),Time since start in ms ,YYYY-MO-DD HH-MI-SS_SSS,MagX,MagY,MagZ
-0.014543314464390278,-0.027360014617443085,9.790364265441895,-0.002647828668311217,-0.001340962726321319,-0.006040192393178574,0.0,2019-06-24 14:10:02:549,0.0,0.0,0.0
0.016588430851697922,-0.027360014617443085,9.838258743286133,0.0001491734477046111,0.0043862320369956595,-0.0019112846554712676,0.005006313323974609,2019-06-24 14:10:02:554,0.0,0.0,0.0
-0.004964316263794899,-0.0034125184174627066,9.799942970275879,0.003079366095005761,0.00025732418550583624,-0.003109999729622778,0.010894775390625,2019-06-24 14:10:02:560,0.0,0.0,0.0
0.05011492595076561,0.01095598004758358,9.744863510131836,-0.002514638104516605,-0.0008082004061242886,-0.0009789507089089816,0.015035629272460938,2019-06-24 14:10:02:564,0.0,0.0,0.0
0.03814117982983589,0.01814022846519947,9.814311981201172,0.0008151263154416085,0.0017224205010290888,0.003416338156387549,0.020925521850585938,2019-06-24 14:10:02:570,0.0,0.0,0.0
0.03574642911553383,-0.005807267967611551,9.823890686035156,0.0020138414546117004,-0.004137964566008177,-0.0013785224002928185,0.02503061294555664,2019-06-24 14:10:02:574,0.0,0.0,0.0
-0.038490813225507736,-0.027360014617443085,9.811917304992676,-0.001715494591711769,-0.004137964566008177,0.0002197644465157556,0.029998302459716797,2019-06-24 14:10:02:579,0.0,0.0,0.0
-0.028911812230944633,-0.01059676706790924,9.79275894165039,-0.0006499700163362892,-0.00427115512980279,-0.0021776657830604924,0.03500843048095703,2019-06-24 14:10:02:584,0.0,0.0,0.0
0.0213779304176569,0.034903477877378464,9.802337646484375,-0.00025039827618851643,0.00025732418550583624,-0.0013785224002928185,0.04088926315307617,2019-06-24 14:10:02:590,0.0,0.0,0.0
-0.028911812230944633,0.034903477877378464,9.735284805297852,0.002546603839827312,0.0014560393734398642,-0.0013785224002928185,0.04500436782836914,2019-06-24 14:10:02:594,0.0,0.0,0.0
0.009404182434082031,0.027719227597117424,9.759232521057129,-0.0011827323365333196,-0.00014224753838729123,-0.0008457601451143693,0.049997806549072266,2019-06-24 14:10:02:599,0.0,0.0,0.0
0.0046146828681230545,0.02532447874546051,9.831074714660645,-0.00025039827618851643,-0.0018737249814997682,-4.661670139177563e-05,0.055939674377441406,2019-06-24 14:10:02:605,0.0,0.0,0.0
0.0213779304176569,-0.0010177686344832182,9.823890686035156,-0.004379306257715503,-0.0014741532901159315,-0.0013785224002928185,0.06000041961669922,2019-06-24 14:10:02:609,0.0,0.0,0.0
0.011798931285738945,-0.01059676706790924,9.807126998901367,0.0008151263154416085,-0.0020069155452943806,0.004215481539155223,0.06502819061279297,2019-06-24 14:10:02:614,0.0,0.0,0.0
0.018983181565999985,0.02532447874546051,9.831074714660645,0.0008151263154416085,-0.0008082004061242886,0.0010189078780473654,0.07002782821655273,2019-06-24 14:10:02:619,0.0,0.0,0.0
0.02856217883527279,0.006166480481624603,9.790364265441895,0.0012146980718440268,-0.0016073438539105438,-0.00044618842122124184,0.07500839233398438,2019-06-24 14:10:02:624,0.0,0.0,0.0
0.0213779304176569,0.015745479613542557,9.778390884399414,-0.0005167794200323863,-0.0002754381184365489,-0.0008457601451143693,0.08087444305419922,2019-06-24 14:10:02:630,0.0,0.0,0.0
0.026167429983615875,0.020534979179501534,9.807126998901367,-0.0006499700163362892,0.002255182756207538,-4.661670139177563e-05,0.0850057601928711,2019-06-24 14:10:02:634,0.0,0.0,0.0
-0.04806981235742569,0.015745479613542557,9.694574356079102,0.001347888635638639,0.0009232770532428338,-0.003909143372464777,0.09088897705078125,2019-06-24 14:10:02:640,0.0,0.0,0.0
0.018983181565999985,0.0013769810320809484,9.795153617858887,0.0012146980718440268,0.0023883733200021503,0.002084432388404264,0.09500408172607422,2019-06-24 14:10:02:644,0.0,0.0,0.0
-0.0025695664808154106,0.022929728031158447,9.840654373168945,-0.000383588856237774,-0.003205630619445891,-4.661670139177563e-05,0.1009221076965332,2019-06-24 14:10:02:650,0.0,0.0,0.0
-0.014543314464390278,-0.008202017284929752,9.886154174804688,0.0002823640277538687,-9.05695935394897e-06,-0.0023108563468551046,0.10500907897949219,2019-06-24 14:10:02:654,0.0,0.0,0.0
0.011798931285738945,-0.0034125184174627066,9.814311981201172,-0.0010495417077201262,0.0007900864894482214,-0.003775952808670165,0.1110682487487793,2019-06-24 14:10:02:660,0.0,0.0,0.0
0.040535926818847656,0.030113978311419487,9.807126998901367,-0.0006499700163362892,-0.001740534417705156,-0.0015117129640874309,0.11501502990722656,2019-06-24 14:10:02:664,0.0,0.0,0.0
0.016588430851697922,0.027719227597117424,9.749653816223145,-0.0010495417077201262,-0.0002754381184365489,0.0014184795694312021,0.12088680267333984,2019-06-24 14:10:02:670,0.0,0.0,0.0
0.030956929549574852,0.0013769810320809484,9.778390884399414,-0.0011827323365333196,-0.0005418192460257735,-0.003775952808670165,0.1250019073486328,2019-06-24 14:10:02:674,0.0,0.0,0.0
-0.009753815829753876,-0.01778101734817028,9.83346939086914,-0.00025039827618851643,0.00025732418550583624,-0.0015117129640874309,0.1300067901611328,2019-06-24 14:10:02:679,0.0,0.0,0.0
0.02856217883527279,-0.03214951604604721,9.756837844848633,-0.0014491134641225444,-0.0029392494918566666,0.0027503853374144876,0.135894775390625,2019-06-24 14:10:02:685,0.0,0.0,0.0
0.014193681068718433,0.003771730698645115,9.826285362243652,-0.0015823040279171567,0.0027879450113859868,-0.00017980727737737192,0.14007949829101562,2019-06-24 14:10:02:689,0.0,0.0,0.0
0.033351678401231766,0.03729822486639023,9.85023307800293,1.5982868671268808e-05,-0.0014741532901159315,-0.0015117129640874309,0.14591741561889648,2019-06-24 14:10:02:695,0.0,0.0,0.0
0.014193681068718433,0.01814022846519947,9.843049049377441,-0.0035801626148735037,0.0029211355751805994,-0.0023108563468551046,0.1499958038330078,2019-06-24 14:10:02:699,0.0,0.0,0.0
0.014193681068718433,-0.03693901374936104,9.787969589233398,-0.0015823040279171567,0.0026547544475913746,-0.004575095931363514,0.15592479705810547,2019-06-24 14:10:02:705,0.0,0.0,0.0
0.011798931285738945,-0.0393337644636631,9.811917304992676,-0.00011720770426658147,-0.0010745815337135133,0.006479721123663631,0.16088485717773438,2019-06-24 14:10:02:710,0.0,0.0,0.0
0.016588430851697922,0.0013769810320809484,9.819101333618164,0.004944034248204658,-0.001340962726321319,0.000885717314252753,0.16589117050170898,2019-06-24 14:10:02:715,0.0,0.0,0.0
0.0022199328523129225,0.022929728031158447,9.75204849243164,1.5982868671268808e-05,-0.003072440055651279,0.0018180512608150393,0.1699962615966797,2019-06-24 14:10:02:719,0.0,0.0,0.0
-0.0001748167269397527,0.034903477877378464,9.85023307800293,0.003079366095005761,-0.0006750098423296765,0.0002197644465157556,0.17589569091796875,2019-06-24 14:10:02:725,0.0,0.0,0.0
0.018983181565999985,-0.01059676706790924,9.797548294067383,-0.0009163511439255139,0.001855611064823701,0.004748244054407998,0.1799941062927246,2019-06-24 14:10:02:729,0.0,0.0,0.0
-0.004964316263794899,0.008561230264604092,9.764021873474121,-0.003446972051078891,0.0043862320369956595,-0.002710428038238941,0.18593406677246094,2019-06-24 14:10:02:735,0.0,0.0,0.0
-0.009753815829753876,-0.005807267967611551,9.787969589233398,-0.000383588856237774,-0.0005418192460257735,-0.0019112846554712676,0.19000244140625,2019-06-24 14:10:02:739,0.0,0.0,0.0
-0.0025695664808154106,-0.0010177686344832182,9.720916748046875,-0.0022482569769273807,-0.0024064872366782175,-0.0013785224002928185,0.1950092315673828,2019-06-24 14:10:02:744,0.0,0.0,0.0
0.011798931285738945,-0.029754765331745148,9.783180236816406,-0.0011827323365333196,0.0009232770532428338,-0.004175524500054002,0.20091724395751953,2019-06-24 14:10:02:750,0.0,0.0,0.0
0.030956929549574852,-0.029754765331745148,9.749653816223145,-0.0022482569769273807,-0.0009413909699189009,0.0028835759012090997,0.20500707626342773,2019-06-24 14:10:02:754,0.0,0.0,0.0
0.02856217883527279,-0.041728515177965164,9.795153617858887,0.0036121283501842102,-0.0004086286822311611,-0.002577237474444329,0.21088123321533203,2019-06-24 14:10:02:760,0.0,0.0,0.0
-0.012148565612733364,0.022929728031158447,9.85023307800293,-0.001848685155506381,-0.0014741532901159315,-0.003909143372464777,0.2150287628173828,2019-06-24 14:10:02:764,0.0,0.0,0.0
-0.012148565612733364,-0.008202017284929752,9.790364265441895,0.0012146980718440268,-0.0037383928746243405,-0.00017980727737737192,0.22089004516601562,2019-06-24 14:10:02:770,0.0,0.0,0.0
-0.0001748167269397527,0.008561230264604092,9.82149600982666,0.0001491734477046111,0.0013228488096452518,0.0027503853374144876,0.22589492797851562,2019-06-24 14:10:02:775,0.0,0.0,0.0
0.0022199328523129225,-0.02496526576578617,9.823890686035156,-0.0037133531786681154,0.002255182756207538,0.0014184795694312021,0.23000049591064453,2019-06-24 14:10:02:779,0.0,0.0,0.0
-0.0073590655811131,-0.012991516850888729,9.871786117553711,0.0005487451878523839,0.0015892299372344764,0.0011520984418419776,0.23589706420898438,2019-06-24 14:10:02:785,0.0,0.0,0.0
-0.0073590655811131,-0.005807267967611551,9.80952262878418,-0.0022482569769273807,-9.05695935394897e-06,-0.0020444752192658802,0.2400188446044922,2019-06-24 14:10:02:789,0.0,0.0,0.0
0.02377268113195896,0.03969297558069229,9.78078556060791,-0.002914209795900442,-0.0008082004061242886,-0.003109999729622778,0.24591541290283203,2019-06-24 14:10:02:795,0.0,0.0,0.0
0.02856217883527279,0.022929728031158447,9.802337646484375,-0.005844402199381912,-0.0014741532901159315,-0.0009789507089089816,0.24998998641967773,2019-06-24 14:10:02:799,0.0,0.0,0.0
0.03574642911553383,-0.022570515051484108,9.797548294067383,-0.0010495417077201262,-0.0008082004061242886,0.0003529550265650132,0.2558889389038086,2019-06-24 14:10:02:805,0.0,0.0,0.0
0.0213779304176569,-0.02496526576578617,9.797548294067383,-0.0009163511439255139,0.0025215638837967624,0.0011520984418419776,0.26000404357910156,2019-06-24 14:10:02:809,0.0,0.0,0.0
-0.004964316263794899,-0.0010177686344832182,9.804732322692871,-0.000383588856237774,-0.0005418192460257735,-0.0020444752192658802,0.26589012145996094,2019-06-24 14:10:02:815,0.0,0.0,0.0
0.02377268113195896,0.003771730698645115,9.840654373168945,-0.003047400359695054,0.0013228488096452518,-0.002710428038238941,0.26999711990356445,2019-06-24 14:10:02:819,0.0,0.0,0.0
0.0022199328523129225,-0.01059676706790924,9.80952262878418,-0.003979734306257341,0.0027879450113859868,-0.0012453318364982061,0.2759246826171875,2019-06-24 14:10:02:825,0.0,0.0,0.0
0.007009432185441256,-0.0034125184174627066,9.814311981201172,0.0005487451878523839,-0.0033388211832405036,0.002350813646030651,0.2808856964111328,2019-06-24 14:10:02:830,0.0,0.0,0.0
0.030956929549574852,-0.008202017284929752,9.73049545288086,0.0016142697632278635,-0.0018737249814997682,-0.0008457601451143693,0.2850217819213867,2019-06-24 14:10:02:834,0.0,0.0,0.0
0.007009432185441256,0.003771730698645115,9.82149600982666,0.0012146980718440268,0.002255182756207538,-0.0024440469106497167,0.29088830947875977,2019-06-24 14:10:02:840,0.0,0.0,0.0
-0.0073590655811131,0.013350729830563068,9.838258743286133,0.00414489060536266,0.0001241336135839013,0.0010189078780473654,0.29588794708251953,2019-06-24 14:10:02:845,0.0,0.0,0.0
-0.0073590655811131,0.0013769810320809484,9.761627197265625,-0.002914209795900442,-0.0020069155452943806,-0.002976809165828166,0.2999992370605469,2019-06-24 14:10:02:849,0.0,0.0,0.0
0.033351678401231766,0.015745479613542557,9.768811225891113,0.0014810791994332513,-0.0012077721625267067,-4.661670139177563e-05,0.3058967590332031,2019-06-24 14:10:02:855,0.0,0.0,0.0
0.0213779304176569,-0.020175766199827194,9.773600578308105,0.0021470320184063126,-0.004404345693597402,0.0026171947736198754,0.3099946975708008,2019-06-24 14:10:02:859,0.0,0.0,0.0
0.026167429983615875,0.02532447874546051,9.79275894165039,0.0020138414546117004,0.0011896582458506397,0.0010189078780473654,0.3159637451171875,2019-06-24 14:10:02:865,0.0,0.0,0.0
0.040535926818847656,-0.005807267967611551,9.732890129089355,-0.001315922900327932,0.0023883733200021503,-0.004708286755232451,0.32003021240234375,2019-06-24 14:10:02:869,0.0,0.0,0.0
-0.0408855602145195,0.013350729830563068,9.787969589233398,-0.0035801626148735037,0.0034538978303590485,-0.0019112846554712676,0.325894832611084,2019-06-24 14:10:02:875,0.0,0.0,0.0
-0.014543314464390278,-0.03214951604604721,9.785574913024902,0.0008151263154416085,-0.0009413909699189009,-0.0017780940916766552,0.3300018310546875,2019-06-24 14:10:02:879,0.0,0.0,0.0
0.016588430851697922,-0.034544263035058975,9.754443168640137,-0.0007831605801309015,0.0006568959256536091,-0.005107858186541962,0.33589649200439453,2019-06-24 14:10:02:885,0.0,0.0,0.0
0.0213779304176569,0.030113978311419487,9.775995254516602,-0.001315922900327932,0.003720278957948273,-0.002976809165828166,0.3399953842163086,2019-06-24 14:10:02:889,0.0,0.0,0.0
0.018983181565999985,0.027719227597117424,9.785574913024902,-0.0007831605801309015,-0.005070298772644788,0.0004861455903596255,0.34589433670043945,2019-06-24 14:10:02:895,0.0,0.0,0.0
-0.0073590655811131,-0.012991516850888729,9.778390884399414,0.00041555459154848093,0.0023883733200021503,-0.0008457601451143693,0.34999847412109375,2019-06-24 14:10:02:899,0.0,0.0,0.0
0.0022199328523129225,0.027719227597117424,9.828680038452148,0.003345747222594986,0.0001241336135839013,0.0006193361866635284,0.35589599609375,2019-06-24 14:10:02:905,0.0,0.0,0.0
0.040535926818847656,-0.027360014617443085,9.823890686035156,-0.0010495417077201262,-0.0006750098423296765,0.0026171947736198754,0.3600130081176758,2019-06-24 14:10:02:909,0.0,0.0,0.0
0.016588430851697922,0.042087726294994354,9.78078556060791,0.0001491734477046111,0.003720278957948273,0.0010189078780473654,0.3650350570678711,2019-06-24 14:10:02:914,0.0,0.0,0.0
0.02377268113195896,0.006166480481624603,9.778390884399414,-0.003446972051078891,0.001855611064823701,-0.0024440469106497167,0.37088680267333984,2019-06-24 14:10:02:920,0.0,0.0,0.0
0.018983181565999985,0.003771730698645115,9.83346939086914,-0.0011827323365333196,-0.0010745815337135133,-0.006972526599815185,0.37502002716064453,2019-06-24 14:10:02:924,0.0,0.0,0.0
0.014193681068718433,-0.0034125184174627066,9.82149600982666,0.002679794403621924,-0.0012077721625267067,0.0016848606970204267,0.3808889389038086,2019-06-24 14:10:02:930,0.0,0.0,0.0
0.0046146828681230545,-0.0034125184174627066,9.78078556060791,0.0001491734477046111,-0.0021401061090889927,-0.0036427622448755525,0.38500547409057617,2019-06-24 14:10:02:934,0.0,0.0,0.0
0.009404182434082031,0.030113978311419487,9.79275894165039,1.5982868671268808e-05,-0.001740534417705156,0.0030167664650037123,0.3908815383911133,2019-06-24 14:10:02:940,0.0,0.0,0.0
-0.01933281496167183,0.015745479613542557,9.799942970275879,0.0017474603270224759,0.0007900864894482214,-0.0008457601451143693,0.39589405059814453,2019-06-24 14:10:02:945,0.0,0.0,0.0
0.040535926818847656,-0.029754765331745148,9.802337646484375,0.0012146980718440268,-0.0008082004061242886,-0.0013785224002928185,0.3999910354614258,2019-06-24 14:10:02:949,0.0,0.0,0.0
0.011798931285738945,-0.020175766199827194,9.768811225891113,0.0024134132760327,0.00039051476555509394,-0.005107858186541962,0.40603160858154297,2019-06-24 14:10:02:955,0.0,0.0,0.0
-0.009753815829753876,-0.008202017284929752,9.795153617858887,-0.0006499700163362892,0.0001241336135839013,0.0022176230822360385,0.4100055694580078,2019-06-24 14:10:02:959,0.0,0.0,0.0
0.0213779304176569,0.020534979179501534,9.73049545288086,-0.00025039827618851643,0.0006568959256536091,-0.0023108563468551046,0.4150094985961914,2019-06-24 14:10:02:964,0.0,0.0,0.0
-0.03370131179690361,0.030113978311419487,9.778390884399414,-0.005045258816614238,0.0034538978303590485,-0.0017780940916766552,0.42090320587158203,2019-06-24 14:10:02:970,0.0,0.0,0.0
-0.012148565612733364,-0.01059676706790924,9.814311981201172,-0.0019818757193009935,0.0029211355751805994,0.000885717314252753,0.4259157180786133,2019-06-24 14:10:02:975,0.0,0.0,0.0
0.014193681068718433,-0.0010177686344832182,9.768811225891113,0.00041555459154848093,0.002255182756207538,-0.003775952808670165,0.42999792098999023,2019-06-24 14:10:02:979,0.0,0.0,0.0
0.02377268113195896,-0.015386266633868217,9.75204849243164,0.0009483168792362209,0.0030543261389752115,-0.0007125695813197571,0.43588924407958984,2019-06-24 14:10:02:985,0.0,0.0,0.0
0.0022199328523129225,0.006166480481624603,9.761627197265625,0.0001491734477046111,0.0017224205010290888,0.0015516701332258143,0.4400014877319336,2019-06-24 14:10:02:989,0.0,0.0,0.0
0.011798931285738945,-0.015386266633868217,9.740074157714844,0.0012146980718440268,-0.0004086286822311611,-0.0005793790175251447,0.44589710235595703,2019-06-24 14:10:02:995,0.0,0.0,0.0
0.014193681068718433,-0.01778101734817028,9.71373176574707,-0.0015823040279171567,-0.0033388211832405036,-0.00044618842122124184,0.4500007629394531,2019-06-24 14:10:02:999,0.0,0.0,0.0
-0.028911812230944633,-0.022570515051484108,9.75204849243164,0.0009483168792362209,0.0011896582458506397,0.0035495287201821614,0.45591163635253906,2019-06-24 14:10:03:005,0.0,0.0,0.0
-0.0001748167269397527,-0.0034125184174627066,9.747259140014648,0.00041555459154848093,0.0009232770532428338,0.00128528900563659,0.45999765396118164,2019-06-24 14:10:03:009,0.0,0.0,0.0
0.026167429983615875,-0.0010177686344832182,9.811917304992676,0.0012146980718440268,0.00039051476555509394,-0.0020444752192658802,0.4658942222595215,2019-06-24 14:10:03:015,0.0,0.0,0.0
0.0046146828681230545,0.0013769810320809484,9.773600578308105,0.0044112719930262095,0.0011896582458506397,0.0024840042098252632,0.4700016975402832,2019-06-24 14:10:03:019,0.0,0.0,0.0
0.014193681068718433,-0.008202017284929752,9.816706657409668,0.0006819357516469962,-0.00014224753838729123,-0.0028436186020335537,0.47588253021240234,2019-06-24 14:10:03:025,0.0,0.0,0.0
0.014193681068718433,-0.012991516850888729,9.754443168640137,0.003745318913978823,0.0014560393734398642,-0.003109999729622778,0.4799976348876953,2019-06-24 14:10:03:029,0.0,0.0,0.0
-0.016938064247369766,-0.0010177686344832182,9.823890686035156,-0.002514638104516605,0.0011896582458506397,-0.0024440469106497167,0.4859333038330078,2019-06-24 14:10:03:035,0.0,0.0,0.0
-0.014543314464390278,0.042087726294994354,9.86220645904541,1.5982868671268808e-05,0.0007900864894482214,0.002350813646030651,0.48999786376953125,2019-06-24 14:10:03:039,0.0,0.0,0.0
0.007009432185441256,0.020534979179501534,9.720916748046875,-0.0022482569769273807,0.001855611064823701,-0.0003129978574266295,0.49503469467163086,2019-06-24 14:10:03:044,0.0,0.0,0.0
0.009404182434082031,-0.03693901374936104,9.764021873474121,-0.0031805909234896667,-0.0006750098423296765,0.0002197644465157556,0.5008773803710938,2019-06-24 14:10:03:050,0.0,0.0,0.0
0.02377268113195896,-0.022570515051484108,9.835864067077637,0.004544462296746496,-0.0006750098423296765,-0.0015117129640874309,0.5049962997436523,2019-06-24 14:10:03:054,0.0,0.0,0.0
0.0213779304176569,0.013350729830563068,9.797548294067383,-0.002914209795900442,-0.0024064872366782175,0.0006193361866635284,0.51007080078125,2019-06-24 14:10:03:059,0.0,0.0,0.0
0.018983181565999985,0.008561230264604092,9.819101333618164,0.0034789377863895985,-0.0012077721625267067,-0.002976809165828166,0.5159215927124023,2019-06-24 14:10:03:065,0.0,0.0,0.0
0.009404182434082031,0.008561230264604092,9.828680038452148,0.0008151263154416085,0.0015892299372344764,-0.003109999729622778,0.5199980735778809,2019-06-24 14:10:03:069,0.0,0.0,0.0
-0.028911812230944633,0.015745479613542557,9.761627197265625,0.0001491734477046111,-0.001340962726321319,0.0022176230822360385,0.5258874893188477,2019-06-24 14:10:03:075,0.0,0.0,0.0
-0.014543314464390278,0.006166480481624603,9.814311981201172,-0.0035801626148735037,0.003986660085537498,0.004748244054407998,0.5299978256225586,2019-06-24 14:10:03:079,0.0,0.0,0.0
-0.0001748167269397527,-0.008202017284929752,9.811917304992676,-0.004379306257715503,-0.005869442155412462,-0.0012453318364982061,0.5350117683410645,2019-06-24 14:10:03:084,0.0,0.0,0.0
0.0022199328523129225,-0.0010177686344832182,9.790364265441895,-0.003846543742462728,0.00039051476555509394,0.0015516701332258143,0.5409188270568848,2019-06-24 14:10:03:090,0.0,0.0,0.0
0.04293067753314972,0.006166480481624603,9.78078556060791,0.0028129849674165368,-0.0024064872366782175,-0.005107858186541962,0.5450139045715332,2019-06-24 14:10:03:094,0.0,0.0,0.0
-0.0025695664808154106,0.020534979179501534,9.847838401794434,-0.00011720770426658147,-0.004137964566008177,0.002350813646030651,0.5508866310119629,2019-06-24 14:10:03:100,0.0,0.0,0.0
0.016588430851697922,-0.01778101734817028,9.790364265441895,-0.0007831605801309015,-0.0008082004061242886,0.003283147592592937,0.5558977127075195,2019-06-24 14:10:03:105,0.0,0.0,0.0
0.02377268113195896,0.0013769810320809484,9.826285362243652,0.0001491734477046111,0.0033207072665644363,-0.0007125695813197571,0.5600008964538574,2019-06-24 14:10:03:109,0.0,0.0,0.0
0.0046146828681230545,-0.005807267967611551,9.797548294067383,0.0002823640277538687,0.0023883733200021503,-0.00017980727737737192,0.5658907890319824,2019-06-24 14:10:03:115,0.0,0.0,0.0
-0.004964316263794899,-0.022570515051484108,9.778390884399414,-0.00025039827618851643,-0.0009413909699189009,0.0015516701332258143,0.570002555847168,2019-06-24 14:10:03:119,0.0,0.0,0.0
0.026167429983615875,-0.01778101734817028,9.795153617858887,-0.003047400359695054,0.004918994292174109,-0.005907002089458287,0.5758962631225586,2019-06-24 14:10:03:125,0.0,0.0,0.0
-0.0001748167269397527,0.003771730698645115,9.799942970275879,0.003745318913978823,0.00411985064933211,-0.003376381117286328,0.5800185203552246,2019-06-24 14:10:03:129,0.0,0.0,0.0
0.018983181565999985,0.013350729830563068,9.773600578308105,-0.0009163511439255139,0.0001241336135839013,0.003682719283976774,0.5859150886535645,2019-06-24 14:10:03:135,0.0,0.0,0.0
0.018983181565999985,0.034903477877378464,9.852627754211426,0.0006819357516469962,-0.0016073438539105438,-0.0008457601451143693,0.5908865928649902,2019-06-24 14:10:03:140,0.0,0.0,0.0
0.0213779304176569,-0.0010177686344832182,9.807126998901367,0.0012146980718440268,0.002255182756207538,0.0003529550265650132,0.595005989074707,2019-06-24 14:10:03:144,0.0,0.0,0.0
0.018983181565999985,-0.01778101734817028,9.795153617858887,0.0001491734477046111,0.001056467617037446,-0.002577237474444329,0.6009225845336914,2019-06-24 14:10:03:150,0.0,0.0,0.0
0.026167429983615875,-0.01778101734817028,9.835864067077637,0.0010815074430308332,0.001855611064823701,0.0006193361866635284,0.6050043106079102,2019-06-24 14:10:03:154,0.0,0.0,0.0
-0.038490813225507736,0.02532447874546051,9.823890686035156,0.0014810791994332513,-9.05695935394897e-06,0.0022176230822360385,0.6108822822570801,2019-06-24 14:10:03:160,0.0,0.0,0.0
0.016588430851697922,0.015745479613542557,9.766416549682617,0.0021470320184063126,-9.05695935394897e-06,-0.005374239314131187,0.6150045394897461,2019-06-24 14:10:03:164,0.0,0.0,0.0
0.03814117982983589,-0.015386266633868217,9.840654373168945,-0.002647828668311217,0.0011896582458506397,0.0007525267504581406,0.6200132369995117,2019-06-24 14:10:03:169,0.0,0.0,0.0
0.016588430851697922,-0.01778101734817028,9.778390884399414,-0.003047400359695054,0.003587088394153661,0.0015516701332258143,0.626103401184082,2019-06-24 14:10:03:175,0.0,0.0,0.0
0.026167429983615875,0.003771730698645115,9.799942970275879,-0.0037133531786681154,-0.0025396778004728297,0.0010189078780473654,0.6300015449523926,2019-06-24 14:10:03:179,0.0,0.0,0.0
0.02377268113195896,0.020534979179501534,9.78078556060791,-0.0006499700163362892,0.0029211355751805994,-0.003775952808670165,0.6358890533447266,2019-06-24 14:10:03:185,0.0,0.0,0.0
0.0046146828681230545,0.03969297558069229,9.790364265441895,0.00041555459154848093,-0.0025396778004728297,0.00128528900563659,0.6400213241577148,2019-06-24 14:10:03:189,0.0,0.0,0.0
-0.01933281496167183,0.027719227597117424,9.747259140014648,0.0044112719930262095,0.0019888016286183133,-0.00017980727737737192,0.6459217071533203,2019-06-24 14:10:03:195,0.0,0.0,0.0
-0.0001748167269397527,-0.01059676706790924,9.83346939086914,-0.0009163511439255139,0.0019888016286183133,-0.00044618842122124184,0.649993896484375,2019-06-24 14:10:03:199,0.0,0.0,0.0
0.007009432185441256,-0.022570515051484108,9.785574913024902,0.0005487451878523839,-0.0024064872366782175,-0.00044618842122124184,0.6558942794799805,2019-06-24 14:10:03:205,0.0,0.0,0.0
0.016588430851697922,-0.008202017284929752,9.761627197265625,1.5982868671268808e-05,0.002255182756207538,0.0011520984418419776,0.6599979400634766,2019-06-24 14:10:03:209,0.0,0.0,0.0
0.007009432185441256,-0.015386266633868217,9.78078556060791,-0.00025039827618851643,-0.005336679900234013,-0.002577237474444329,0.6658954620361328,2019-06-24 14:10:03:215,0.0,0.0,0.0
0.016588430851697922,0.02532447874546051,9.804732322692871,-0.002647828668311217,0.0009232770532428338,8.657387459382065e-05,0.6700139045715332,2019-06-24 14:10:03:219,0.0,0.0,0.0
-0.004964316263794899,-0.0393337644636631,9.804732322692871,0.0022802227122380877,-0.0024064872366782175,-0.0007125695813197571,0.6758966445922852,2019-06-24 14:10:03:225,0.0,0.0,0.0
-0.0025695664808154106,0.042087726294994354,9.744863510131836,0.001347888635638639,0.0025215638837967624,0.003283147592592937,0.6799969673156738,2019-06-24 14:10:03:229,0.0,0.0,0.0
0.0022199328523129225,0.015745479613542557,9.799942970275879,-0.000383588856237774,0.003986660085537498,0.0026171947736198754,0.6859273910522461,2019-06-24 14:10:03:235,0.0,0.0,0.0
0.011798931285738945,0.06842996925115585,9.775995254516602,-0.001315922900327932,-0.001340962726321319,-0.001644903527882043,0.6900014877319336,2019-06-24 14:10:03:239,0.0,0.0,0.0
-0.0073590655811131,-0.03214951604604721,9.840654373168945,0.0017474603270224759,-0.001340962726321319,0.0004861455903596255,0.6958861351013184,2019-06-24 14:10:03:245,0.0,0.0,0.0
0.009404182434082031,0.003771730698645115,9.759232521057129,-0.0022482569769273807,-0.0005418192460257735,0.0027503853374144876,0.6999979019165039,2019-06-24 14:10:03:249,0.0,0.0,0.0
0.016588430851697922,-0.01778101734817028,9.840654373168945,0.0009483168792362209,0.0007900864894482214,0.00461505323053906,0.7058963775634766,2019-06-24 14:10:03:255,0.0,0.0,0.0
-0.0073590655811131,-0.012991516850888729,9.754443168640137,0.0022802227122380877,-0.0004086286822311611,0.0031499570287983245,0.7099919319152832,2019-06-24 14:10:03:259,0.0,0.0,0.0
0.009404182434082031,0.02532447874546051,9.819101333618164,0.0002823640277538687,0.00039051476555509394,0.0002197644465157556,0.7159223556518555,2019-06-24 14:10:03:265,0.0,0.0,0.0
0.030956929549574852,0.022929728031158447,9.77120590209961,0.0006819357516469962,-0.0014741532901159315,-0.0020444752192658802,0.7208948135375977,2019-06-24 14:10:03:270,0.0,0.0,0.0
-0.021727563813328743,0.03729822486639023,9.840654373168945,0.002679794403621924,-0.0038715834384189522,-0.0017780940916766552,0.7250032424926758,2019-06-24 14:10:03:274,0.0,0.0,0.0
0.0022199328523129225,0.015745479613542557,9.831074714660645,-0.0010495417077201262,-0.0029392494918566666,-0.0023108563468551046,0.7300424575805664,2019-06-24 14:10:03:279,0.0,0.0,0.0
-0.009753815829753876,0.013350729830563068,9.86220645904541,-0.004778877689025014,0.0014560393734398642,-0.0036427622448755525,0.7358970642089844,2019-06-24 14:10:03:285,0.0,0.0,0.0
-0.021727563813328743,0.015745479613542557,9.790364265441895,0.0002823640277538687,0.0023883733200021503,-0.001112141272703594,0.7399969100952148,2019-06-24 14:10:03:289,0.0,0.0,0.0
0.03574642911553383,0.003771730698645115,9.847838401794434,-0.0021150662830956056,0.0005237053293497061,-0.001644903527882043,0.7458839416503906,2019-06-24 14:10:03:295,0.0,0.0,0.0
-0.009753815829753876,-0.03214951604604721,9.814311981201172,0.002679794403621924,-0.004404345693597402,-0.0009789507089089816,0.7499909400939941,2019-06-24 14:10:03:299,0.0,0.0,0.0
0.014193681068718433,0.01814022846519947,9.778390884399414,0.0009483168792362209,0.0001241336135839013,-0.0036427622448755525,0.7559351921081543,2019-06-24 14:10:03:305,0.0,0.0,0.0
-0.009753815829753876,-0.0034125184174627066,9.852627754211426,-0.0005167794200323863,0.0025215638837967624,-0.0028436186020335537,0.7600202560424805,2019-06-24 14:10:03:309,0.0,0.0,0.0
-0.021727563813328743,0.04448247700929642,9.831074714660645,-0.002381447540721993,0.00025732418550583624,-4.661670139177563e-05,0.765894889831543,2019-06-24 14:10:03:315,0.0,0.0,0.0
0.007009432185441256,0.06842996925115585,9.790364265441895,-0.0009163511439255139,-0.0018737249814997682,-0.0013785224002928185,0.7699875831604004,2019-06-24 14:10:03:319,0.0,0.0,0.0
-0.009753815829753876,-0.01778101734817028,9.859811782836914,0.0021470320184063126,0.0006568959256536091,0.0010189078780473654,0.7759265899658203,2019-06-24 14:10:03:325,0.0,0.0,0.0
0.0213779304176569,-0.0010177686344832182,9.78078556060791,0.00041555459154848093,-0.00014224753838729123,0.002084432388404264,0.7799968719482422,2019-06-24 14:10:03:329,0.0,0.0,0.0
0.018983181565999985,0.006166480481624603,9.804732322692871,-0.0015823040279171567,-0.0009413909699189009,-0.0019112846554712676,0.7858877182006836,2019-06-24 14:10:03:335,0.0,0.0,0.0
0.02377268113195896,-0.012991516850888729,9.80952262878418,-0.003047400359695054,0.0011896582458506397,-0.004308715063848614,0.7899980545043945,2019-06-24 14:10:03:339,0.0,0.0,0.0
-0.038490813225507736,0.034903477877378464,9.759232521057129,-0.001715494591711769,0.0038534695217428854,-0.00350957168108094,0.7958946228027344,2019-06-24 14:10:03:345,0.0,0.0,0.0
0.018983181565999985,-0.015386266633868217,9.795153617858887,0.0006819357516469962,0.0031875167027698237,-0.00044618842122124184,0.8000140190124512,2019-06-24 14:10:03:349,0.0,0.0,0.0
0.0022199328523129225,-0.029754765331745148,9.773600578308105,-0.001315922900327932,0.0043862320369956595,0.0019512418246096514,0.8059177398681641,2019-06-24 14:10:03:355,0.0,0.0,0.0
0.014193681068718433,-0.0010177686344832182,9.787969589233398,-0.005311639944203463,-0.0010745815337135133,-0.0012453318364982061,0.809992790222168,2019-06-24 14:10:03:359,0.0,0.0,0.0
0.04532542824745178,-0.0010177686344832182,9.85023307800293,-0.0031805909234896667,-0.005336679900234013,-0.0005793790175251447,0.8158917427062988,2019-06-24 14:10:03:365,0.0,0.0,0.0
0.011798931285738945,-0.01059676706790924,9.797548294067383,-0.00025039827618851643,0.00025732418550583624,-0.0019112846554712676,0.8209314346313477,2019-06-24 14:10:03:370,0.0,0.0,0.0
0.018983181565999985,0.04448247700929642,9.759232521057129,-0.0005167794200323863,-9.05695935394897e-06,0.009143532919704529,0.8250112533569336,2019-06-24 14:10:03:374,0.0,0.0,0.0
-0.014543314464390278,-0.03693901374936104,9.684995651245117,0.0012146980718440268,0.0030543261389752115,-0.00350957168108094,0.8308815956115723,2019-06-24 14:10:03:380,0.0,0.0,0.0
0.011798931285738945,0.015745479613542557,9.835864067077637,-0.006510355278429299,0.0005237053293497061,0.0027503853374144876,0.8350028991699219,2019-06-24 14:10:03:384,0.0,0.0,0.0
0.0022199328523129225,0.006166480481624603,9.720916748046875,-0.001315922900327932,-0.00014224753838729123,-0.001644903527882043,0.8408880233764648,2019-06-24 14:10:03:390,0.0,0.0,0.0
0.02856217883527279,-0.01778101734817028,9.787969589233398,0.0005487451878523839,0.0015892299372344764,-0.0003129978574266295,0.8451414108276367,2019-06-24 14:10:03:394,0.0,0.0,0.0
0.016588430851697922,-0.034544263035058975,9.802337646484375,0.0010815074430308332,-0.0012077721625267067,0.003283147592592937,0.8500008583068848,2019-06-24 14:10:03:399,0.0,0.0,0.0
0.0022199328523129225,0.022929728031158447,9.819101333618164,-0.0011827323365333196,0.0029211355751805994,-0.0028436186020335537,0.855893611907959,2019-06-24 14:10:03:405,0.0,0.0,0.0
0.0213779304176569,0.0325087271630764,9.871786117553711,-0.002381447540721993,0.0017224205010290888,-0.004175524500054002,0.8600215911865234,2019-06-24 14:10:03:409,0.0,0.0,0.0
0.007009432185441256,0.003771730698645115,9.795153617858887,-0.00011720770426658147,0.0034538978303590485,-0.0003129978574266295,0.8659152984619141,2019-06-24 14:10:03:415,0.0,0.0,0.0
0.009404182434082031,-0.012991516850888729,9.823890686035156,-0.001315922900327932,0.0017224205010290888,0.000885717314252753,0.8699922561645508,2019-06-24 14:10:03:419,0.0,0.0,0.0
0.0022199328523129225,0.013350729830563068,9.819101333618164,-0.0010495417077201262,-9.05695935394897e-06,-0.0021776657830604924,0.8758888244628906,2019-06-24 14:10:03:425,0.0,0.0,0.0
-0.0073590655811131,-0.008202017284929752,9.75204849243164,0.0010815074430308332,-0.003205630619445891,-0.003109999729622778,0.8799943923950195,2019-06-24 14:10:03:429,0.0,0.0,0.0
0.0213779304176569,-0.029754765331745148,9.871786117553711,-0.0009163511439255139,0.0034538978303590485,-0.002710428038238941,0.8858966827392578,2019-06-24 14:10:03:435,0.0,0.0,0.0
-0.009753815829753876,0.0013769810320809484,9.807126998901367,-0.00025039827618851643,-0.0005418192460257735,-0.00404233393625939,0.8900117874145508,2019-06-24 14:10:03:439,0.0,0.0,0.0
0.014193681068718433,-0.01059676706790924,9.785574913024902,-0.0011827323365333196,0.0019888016286183133,0.0003529550265650132,0.8958959579467773,2019-06-24 14:10:03:445,0.0,0.0,0.0
-0.028911812230944633,-0.04651801288127899,9.799942970275879,-0.0009163511439255139,-0.0009413909699189009,-0.0028436186020335537,0.8999958038330078,2019-06-24 14:10:03:449,0.0,0.0,0.0
0.009404182434082031,-0.005807267967611551,9.811917304992676,-0.002914209795900442,0.0029211355751805994,-0.0019112846554712676,0.9059104919433594,2019-06-24 14:10:03:455,0.0,0.0,0.0
0.02377268113195896,0.030113978311419487,9.785574913024902,-0.0015823040279171567,-0.0038715834384189522,-0.002976809165828166,0.9108982086181641,2019-06-24 14:10:03:460,0.0,0.0,0.0
0.03574642911553383,0.04448247700929642,9.83346939086914,0.0009483168792362209,0.00025732418550583624,0.004748244054407998,0.9158906936645508,2019-06-24 14:10:03:465,0.0,0.0,0.0
0.030956929549574852,0.003771730698645115,9.783180236816406,1.5982868671268808e-05,0.0011896582458506397,-0.0013785224002928185,0.9200172424316406,2019-06-24 14:10:03:469,0.0,0.0,0.0
-0.004964316263794899,-0.03693901374936104,9.807126998901367,-0.00025039827618851643,0.0026547544475913746,-0.002710428038238941,0.9258880615234375,2019-06-24 14:10:03:475,0.0,0.0,0.0
-0.0025695664808154106,0.015745479613542557,9.799942970275879,0.0028129849674165368,0.0031875167027698237,-0.0007125695813197571,0.9299983978271484,2019-06-24 14:10:03:479,0.0,0.0,0.0
0.011798931285738945,0.03729822486639023,9.720916748046875,-0.0007831605801309015,0.0013228488096452518,-0.002710428038238941,0.9360198974609375,2019-06-24 14:10:03:485,0.0,0.0,0.0
-0.0073590655811131,0.01095598004758358,9.859811782836914,-0.005178449640483176,-0.0006750098423296765,-0.004175524500054002,0.9400320053100586,2019-06-24 14:10:03:489,0.0,0.0,0.0
0.0213779304176569,0.020534979179501534,9.852627754211426,-0.0006499700163362892,-0.00427115512980279,0.0016848606970204267,0.94500732421875,2019-06-24 14:10:03:494,0.0,0.0,0.0
-0.012148565612733364,-0.005807267967611551,9.790364265441895,0.002546603839827312,-0.0037383928746243405,0.0019512418246096514,0.950930118560791,2019-06-24 14:10:03:500,0.0,0.0,0.0
0.007009432185441256,-0.01778101734817028,9.797548294067383,0.0012146980718440268,-0.001340962726321319,-0.0003129978574266295,0.9550104141235352,2019-06-24 14:10:03:504,0.0,0.0,0.0
-0.0025695664808154106,-0.0034125184174627066,9.764021873474121,-0.001315922900327932,0.003587088394153661,0.00128528900563659,0.9608783721923828,2019-06-24 14:10:03:510,0.0,0.0,0.0
0.011798931285738945,0.015745479613542557,9.807126998901367,-0.0009163511439255139,0.0014560393734398642,0.0004861455903596255,0.9650077819824219,2019-06-24 14:10:03:514,0.0,0.0,0.0
0.016588430851697922,0.022929728031158447,9.826285362243652,-0.0010495417077201262,-0.00014224753838729123,-0.0008457601451143693,0.9708929061889648,2019-06-24 14:10:03:520,0.0,0.0,0.0
0.009404182434082031,-0.034544263035058975,9.77120590209961,-0.004645687385304727,-0.0038715834384189522,-0.00017980727737737192,0.9750089645385742,2019-06-24 14:10:03:524,0.0,0.0,0.0
0.016588430851697922,0.0325087271630764,9.80952262878418,-0.000383588856237774,-0.0025396778004728297,-0.0008457601451143693,0.9809122085571289,2019-06-24 14:10:03:530,0.0,0.0,0.0
0.016588430851697922,0.0013769810320809484,9.795153617858887,-0.0014491134641225444,-0.001340962726321319,0.0018180512608150393,0.9850139617919922,2019-06-24 14:10:03:534,0.0,0.0,0.0
-0.009753815829753876,0.020534979179501534,9.732890129089355,-0.003446972051078891,-0.0037383928746243405,0.0035495287201821614,0.9908809661865234,2019-06-24 14:10:03:540,0.0,0.0,0.0
-0.012148565612733364,-0.008202017284929752,9.843049049377441,-0.00011720770426658147,-0.0038715834384189522,0.0003529550265650132,0.9959325790405273,2019-06-24 14:10:03:545,0.0,0.0,0.0
-0.0025695664808154106,0.003771730698645115,9.77120590209961,-0.0019818757193009935,-0.0009413909699189009,-0.004441905627643227,0.9999923706054688,2019-06-24 14:10:03:549,0.0,0.0,0.0
0.014193681068718433,-0.03214951604604721,9.828680038452148,-0.0011827323365333196,0.0026547544475913746,0.0010189078780473654,1.0058865547180176,2019-06-24 14:10:03:555,0.0,0.0,0.0
0.0046146828681230545,0.008561230264604092,9.859811782836914,-0.0006499700163362892,0.0027879450113859868,0.004748244054407998,1.0100040435791016,2019-06-24 14:10:03:559,0.0,0.0,0.0
0.014193681068718433,0.013350729830563068,9.811917304992676,-0.0010495417077201262,-0.0029392494918566666,-0.00044618842122124184,1.015009880065918,2019-06-24 14:10:03:564,0.0,0.0,0.0
0.009404182434082031,0.0013769810320809484,9.749653816223145,-0.001715494591711769,0.001855611064823701,0.000885717314252753,1.0200281143188477,2019-06-24 14:10:03:569,0.0,0.0,0.0
-0.012148565612733364,-0.015386266633868217,9.838258743286133,-0.000383588856237774,-0.0009413909699189009,-0.00017980727737737192,1.0258893966674805,2019-06-24 14:10:03:575,0.0,0.0,0.0
0.018983181565999985,0.01814022846519947,9.823890686035156,0.0002823640277538687,-0.00014224753838729123,-0.0017780940916766552,1.0300030708312988,2019-06-24 14:10:03:579,0.0,0.0,0.0
0.0022199328523129225,0.042087726294994354,9.77120590209961,0.0001491734477046111,-0.0009413909699189009,0.00128528900563659,1.0361804962158203,2019-06-24 14:10:03:585,0.0,0.0,0.0
0.009404182434082031,0.01814022846519947,9.807126998901367,-0.001848685155506381,0.0001241336135839013,-0.0013785224002928185,1.0400280952453613,2019-06-24 14:10:03:589,0.0,0.0,0.0
0.007009432185441256,0.013350729830563068,9.814311981201172,-0.0010495417077201262,-0.0012077721625267067,-0.0012453318364982061,1.0458874702453613,2019-06-24 14:10:03:595,0.0,0.0,0.0
0.026167429983615875,-0.005807267967611551,9.799942970275879,-0.0006499700163362892,0.002121992192412926,0.0016848606970204267,1.049997329711914,2019-06-24 14:10:03:599,0.0,0.0,0.0
0.007009432185441256,0.022929728031158447,9.79275894165039,0.0024134132760327,-0.003205630619445891,-0.00017980727737737192,1.0550041198730469,2019-06-24 14:10:03:604,0.0,0.0,0.0
0.040535926818847656,0.008561230264604092,9.799942970275879,-0.0011827323365333196,-0.0004086286822311611,0.002350813646030651,1.060887336730957,2019-06-24 14:10:03:610,0.0,0.0,0.0
0.0022199328523129225,0.015745479613542557,9.814311981201172,-0.0014491134641225444,-0.004803917645055564,-0.004575095931363514,1.0650053024291992,2019-06-24 14:10:03:614,0.0,0.0,0.0
0.007009432185441256,0.01095598004758358,9.737679481506348,-0.001715494591711769,0.00025732418550583624,-0.0032431902934173906,1.0700292587280273,2019-06-24 14:10:03:619,0.0,0.0,0.0
0.0213779304176569,-0.022570515051484108,9.804732322692871,-0.0007831605801309015,-0.0020069155452943806,-0.002976809165828166,1.0758938789367676,2019-06-24 14:10:03:625,0.0,0.0,0.0
-0.0025695664808154106,0.027719227597117424,9.77120590209961,-0.0015823040279171567,0.0025215638837967624,0.0040822909753606106,1.0799946784973145,2019-06-24 14:10:03:629,0.0,0.0,0.0
0.018983181565999985,0.015745479613542557,9.783180236816406,-0.002381447540721993,0.0009232770532428338,-0.0017780940916766552,1.0850143432617188,2019-06-24 14:10:03:634,0.0,0.0,0.0
0.0046146828681230545,-0.027360014617443085,9.773600578308105,0.0005487451878523839,0.002121992192412926,0.003283147592592937,1.090886116027832,2019-06-24 14:10:03:640,0.0,0.0,0.0
0.02377268113195896,0.006166480481624603,9.814311981201172,-0.00025039827618851643,-0.001740534417705156,0.0014184795694312021,1.0950031280517578,2019-06-24 14:10:03:644,0.0,0.0,0.0
-0.009753815829753876,-0.015386266633868217,9.797548294067383,-0.00011720770426658147,0.004519422340715947,0.0002197644465157556,1.1008877754211426,2019-06-24 14:10:03:650,0.0,0.0,0.0
-0.0001748167269397527,-0.0010177686344832182,9.795153617858887,0.0020138414546117004,0.0017224205010290888,-0.001644903527882043,1.1050095558166504,2019-06-24 14:10:03:654,0.0,0.0,0.0
0.0022199328523129225,0.022929728031158447,9.826285362243652,0.0009483168792362209,0.0019888016286183133,-0.001644903527882043,1.111154556274414,2019-06-24 14:10:03:660,0.0,0.0,0.0
-0.009753815829753876,0.008561230264604092,9.790364265441895,1.5982868671268808e-05,-0.005070298772644788,0.0002197644465157556,1.115030288696289,2019-06-24 14:10:03:664,0.0,0.0,0.0
0.0213779304176569,-0.01778101734817028,9.876575469970703,0.0008151263154416085,-0.0010745815337135133,0.003283147592592937,1.1209182739257812,2019-06-24 14:10:03:670,0.0,0.0,0.0
0.030956929549574852,-0.02496526576578617,9.799942970275879,-0.005578021071792687,0.0009232770532428338,0.0003529550265650132,1.125004768371582,2019-06-24 14:10:03:674,0.0,0.0,0.0
-0.03130656108260155,0.013350729830563068,9.787969589233398,-0.0014491134641225444,0.0006568959256536091,0.004348672102949836,1.1309232711791992,2019-06-24 14:10:03:680,0.0,0.0,0.0
-0.0001748167269397527,0.020534979179501534,9.790364265441895,-0.002514638104516605,0.002121992192412926,-0.0023108563468551046,1.1350069046020508,2019-06-24 14:10:03:684,0.0,0.0,0.0
0.018983181565999985,0.030113978311419487,9.823890686035156,-0.0019818757193009935,-0.006135823283001687,0.0007525267504581406,1.139998435974121,2019-06-24 14:10:03:689,0.0,0.0,0.0
0.014193681068718433,0.05406147614121437,9.857417106628418,0.0002823640277538687,0.0011896582458506397,-0.0003129978574266295,1.1450061798095703,2019-06-24 14:10:03:694,0.0,0.0,0.0
-0.004964316263794899,-0.01059676706790924,9.831074714660645,0.002679794403621924,-0.005336679900234013,0.0019512418246096514,1.1508893966674805,2019-06-24 14:10:03:700,0.0,0.0,0.0
0.03814117982983589,0.008561230264604092,9.79275894165039,-0.0037133531786681154,-0.0025396778004728297,0.000885717314252753,1.1550750732421875,2019-06-24 14:10:03:704,0.0,0.0,0.0
0.011798931285738945,0.027719227597117424,9.797548294067383,0.0009483168792362209,0.00039051476555509394,0.004348672102949836,1.1600275039672852,2019-06-24 14:10:03:709,0.0,0.0,0.0
0.04293067753314972,0.003771730698645115,9.756837844848633,0.0010815074430308332,-0.0006750098423296765,0.003283147592592937,1.1658926010131836,2019-06-24 14:10:03:715,0.0,0.0,0.0
0.016588430851697922,0.01814022846519947,9.82149600982666,0.00041555459154848093,-0.00014224753838729123,-0.001644903527882043,1.1699962615966797,2019-06-24 14:10:03:719,0.0,0.0,0.0
0.018983181565999985,0.013350729830563068,9.795153617858887,0.0002823640277538687,0.0006568959256536091,-0.00044618842122124184,1.1759119033813477,2019-06-24 14:10:03:725,0.0,0.0,0.0
0.016588430851697922,-0.015386266633868217,9.840654373168945,0.0001491734477046111,0.001056467617037446,-0.004308715063848614,1.1800003051757812,2019-06-24 14:10:03:729,0.0,0.0,0.0
-0.0073590655811131,-0.03214951604604721,9.826285362243652,-0.0010495417077201262,0.0031875167027698237,-0.004308715063848614,1.1858949661254883,2019-06-24 14:10:03:735,0.0,0.0,0.0
-0.004964316263794899,0.04448247700929642,9.840654373168945,0.001347888635638639,-0.0020069155452943806,0.0026171947736198754,1.190004825592041,2019-06-24 14:10:03:739,0.0,0.0,0.0
0.0213779304176569,0.02532447874546051,9.75204849243164,-0.0022482569769273807,-0.0012077721625267067,0.0002197644465157556,1.1958885192871094,2019-06-24 14:10:03:745,0.0,0.0,0.0
0.033351678401231766,-0.0393337644636631,9.816706657409668,-0.0011827323365333196,-0.0022732966728836053,0.0015516701332258143,1.2000131607055664,2019-06-24 14:10:03:749,0.0,0.0,0.0
0.0046146828681230545,-0.02496526576578617,9.804732322692871,0.0012146980718440268,-0.0022732966728836053,-0.00044618842122124184,1.205897331237793,2019-06-24 14:10:03:755,0.0,0.0,0.0
0.0022199328523129225,-0.034544263035058975,9.790364265441895,-0.0006499700163362892,0.002121992192412926,0.0019512418246096514,1.2099981307983398,2019-06-24 14:10:03:759,0.0,0.0,0.0
0.009404182434082031,0.02532447874546051,9.814311981201172,-0.0015823040279171567,-0.004137964566008177,-0.002577237474444329,1.2159299850463867,2019-06-24 14:10:03:765,0.0,0.0,0.0
0.011798931285738945,0.02532447874546051,9.737679481506348,-0.003446972051078891,-0.002672868364267442,-0.0020444752192658802,1.2200164794921875,2019-06-24 14:10:03:769,0.0,0.0,0.0
0.007009432185441256,-0.005807267967611551,9.699363708496094,0.0021470320184063126,0.0001241336135839013,-0.0024440469106497167,1.225010871887207,2019-06-24 14:10:03:774,0.0,0.0,0.0
-0.0073590655811131,-0.04412326216697693,9.778390884399414,-0.001315922900327932,0.0001241336135839013,0.0018180512608150393,1.2299981117248535,2019-06-24 14:10:03:779,0.0,0.0,0.0
0.007009432185441256,0.034903477877378464,9.790364265441895,-0.001715494591711769,-0.0012077721625267067,0.002084432388404264,1.2358946800231934,2019-06-24 14:10:03:785,0.0,0.0,0.0
0.0022199328523129225,0.03969297558069229,9.82149600982666,-0.004379306257715503,-0.0014741532901159315,0.000885717314252753,1.239999771118164,2019-06-24 14:10:03:789,0.0,0.0,0.0
-0.0001748167269397527,0.027719227597117424,9.83346939086914,-0.00011720770426658147,-0.0033388211832405036,-0.001112141272703594,1.2458982467651367,2019-06-24 14:10:03:795,0.0,0.0,0.0
0.011798931285738945,-0.005807267967611551,9.787969589233398,-0.0035801626148735037,-0.0006750098423296765,0.003682719283976774,1.2499990463256836,2019-06-24 14:10:03:799,0.0,0.0,0.0
0.014193681068718433,-0.0034125184174627066,9.761627197265625,-0.0014491134641225444,0.0011896582458506397,8.657387459382065e-05,1.2550053596496582,2019-06-24 14:10:03:804,0.0,0.0,0.0
0.007009432185441256,0.015745479613542557,9.79275894165039,-0.00278101923210583,0.003986660085537498,-0.002710428038238941,1.2609272003173828,2019-06-24 14:10:03:810,0.0,0.0,0.0
-0.0001748167269397527,0.006166480481624603,9.775995254516602,0.0005487451878523839,0.00039051476555509394,-0.0005793790175251447,1.2650351524353027,2019-06-24 14:10:03:814,0.0,0.0,0.0
-0.0025695664808154106,0.022929728031158447,9.843049049377441,-0.002381447540721993,0.0019888016286183133,-0.005773811265589349,1.2699971199035645,2019-06-24 14:10:03:819,0.0,0.0,0.0
0.0022199328523129225,0.02532447874546051,9.807126998901367,0.0012146980718440268,0.0014560393734398642,-0.0015117129640874309,1.2758879661560059,2019-06-24 14:10:03:825,0.0,0.0,0.0
0.009404182434082031,-0.008202017284929752,9.847838401794434,0.0010815074430308332,-0.003205630619445891,0.002084432388404264,1.280001163482666,2019-06-24 14:10:03:829,0.0,0.0,0.0
-0.0073590655811131,0.008561230264604092,9.79275894165039,-0.004645687385304727,0.0009232770532428338,-0.0019112846554712676,1.2851343154907227,2019-06-24 14:10:03:834,0.0,0.0,0.0
0.04293067753314972,0.015745479613542557,9.790364265441895,0.00041555459154848093,-0.001340962726321319,0.002350813646030651,1.2909326553344727,2019-06-24 14:10:03:840,0.0,0.0,0.0
-0.016938064247369766,0.022929728031158447,9.768811225891113,0.0010815074430308332,0.003720278957948273,0.0015516701332258143,1.2950048446655273,2019-06-24 14:10:03:844,0.0,0.0,0.0
-0.0073590655811131,-0.005807267967611551,9.799942970275879,-0.003047400359695054,-0.003072440055651279,-4.661670139177563e-05,1.3008804321289062,2019-06-24 14:10:03:850,0.0,0.0,0.0
-0.0001748167269397527,-0.03693901374936104,9.78078556060791,-0.0021150662830956056,-0.00014224753838729123,-0.0017780940916766552,1.3050165176391602,2019-06-24 14:10:03:854,0.0,0.0,0.0
0.05250967666506767,-0.01778101734817028,9.831074714660645,-0.004112924870051953,-0.003205630619445891,-0.0032431902934173906,1.3100433349609375,2019-06-24 14:10:03:859,0.0,0.0,0.0
0.03814117982983589,0.01095598004758358,9.749653816223145,-0.0021150662830956056,0.0034538978303590485,0.0002197644465157556,1.3158893585205078,2019-06-24 14:10:03:865,0.0,0.0,0.0
0.011798931285738945,0.02532447874546051,9.783180236816406,0.0022802227122380877,-0.0004086286822311611,-0.003775952808670165,1.3200230598449707,2019-06-24 14:10:03:869,0.0,0.0,0.0
0.033351678401231766,0.003771730698645115,9.795153617858887,0.0044112719930262095,0.0019888016286183133,-0.001644903527882043,1.3250083923339844,2019-06-24 14:10:03:874,0.0,0.0,0.0
-0.01933281496167183,-0.034544263035058975,9.799942970275879,-0.0007831605801309015,-0.0006750098423296765,-0.0020444752192658802,1.3309869766235352,2019-06-24 14:10:03:880,0.0,0.0,0.0
0.016588430851697922,0.01095598004758358,9.785574913024902,0.001880650890817088,0.0006568959256536091,-0.0015117129640874309,1.3350272178649902,2019-06-24 14:10:03:884,0.0,0.0,0.0
-0.0025695664808154106,-0.008202017284929752,9.831074714660645,-0.00011720770426658147,-0.004404345693597402,0.003682719283976774,1.3408775329589844,2019-06-24 14:10:03:890,0.0,0.0,0.0
0.040535926818847656,0.01095598004758358,9.77120590209961,0.0014810791994332513,0.002121992192412926,-0.005374239314131187,1.3450045585632324,2019-06-24 14:10:03:894,0.0,0.0,0.0
-0.0073590655811131,-0.034544263035058975,9.732890129089355,-0.0006499700163362892,0.00039051476555509394,-0.003376381117286328,1.3511285781860352,2019-06-24 14:10:03:900,0.0,0.0,0.0
-0.012148565612733364,0.020534979179501534,9.754443168640137,0.002546603839827312,-0.005203489076365075,0.0031499570287983245,1.355029582977295,2019-06-24 14:10:03:904,0.0,0.0,0.0
0.05011492595076561,0.030113978311419487,9.85023307800293,-0.000383588856237774,0.0001241336135839013,0.003416338156387549,1.3608875274658203,2019-06-24 14:10:03:910,0.0,0.0,0.0
-0.0025695664808154106,-0.01059676706790924,9.795153617858887,0.0028129849674165368,0.0009232770532428338,0.0010189078780473654,1.3650050163269043,2019-06-24 14:10:03:914,0.0,0.0,0.0
0.011798931285738945,0.008561230264604092,9.766416549682617,-0.004778877689025014,-0.0012077721625267067,-0.0028436186020335537,1.3708906173706055,2019-06-24 14:10:03:920,0.0,0.0,0.0
-0.012148565612733364,-0.034544263035058975,9.828680038452148,0.0036121283501842102,0.0005237053293497061,-0.0036427622448755525,1.375030517578125,2019-06-24 14:10:03:924,0.0,0.0,0.0
0.007009432185441256,-0.0010177686344832182,9.797548294067383,-0.0035801626148735037,0.001056467617037446,0.002084432388404264,1.3800230026245117,2019-06-24 14:10:03:929,0.0,0.0,0.0
0.02856217883527279,0.01095598004758358,9.78078556060791,0.002679794403621924,0.0007900864894482214,0.0006193361866635284,1.3858890533447266,2019-06-24 14:10:03:935,0.0,0.0,0.0
-0.0001748167269397527,0.008561230264604092,9.766416549682617,0.0008151263154416085,-0.0012077721625267067,-0.005107858186541962,1.3899917602539062,2019-06-24 14:10:03:939,0.0,0.0,0.0
-0.012148565612733364,0.01095598004758358,9.82149600982666,-0.0007831605801309015,-0.0024064872366782175,-0.004841477058952738,1.3950071334838867,2019-06-24 14:10:03:944,0.0,0.0,0.0
-0.014543314464390278,-0.020175766199827194,9.814311981201172,-0.003446972051078891,0.0027879450113859868,0.0002197644465157556,1.4008893966674805,2019-06-24 14:10:03:950,0.0,0.0,0.0
0.018983181565999985,-0.005807267967611551,9.77120590209961,-0.0006499700163362892,-0.0022732966728836053,-0.0020444752192658802,1.4050140380859375,2019-06-24 14:10:03:954,0.0,0.0,0.0
0.0022199328523129225,0.013350729830563068,9.82149600982666,-0.002514638104516605,-0.0018737249814997682,-0.0021776657830604924,1.4100008010864258,2019-06-24 14:10:03:959,0.0,0.0,0.0
-0.0073590655811131,0.022929728031158447,9.795153617858887,0.0034789377863895985,0.00784918669565558,0.003682719283976774,1.415006160736084,2019-06-24 14:10:03:964,0.0,0.0,0.0
0.033351678401231766,0.02532447874546051,9.816706657409668,-0.00451249656143579,0.0023883733200021503,0.0006193361866635284,1.4209175109863281,2019-06-24 14:10:03:970,0.0,0.0,0.0
0.007009432185441256,0.02532447874546051,9.811917304992676,-0.0010495417077201262,0.0011896582458506397,0.0007525267504581406,1.4250125885009766,2019-06-24 14:10:03:974,0.0,0.0,0.0
-0.021727563813328743,0.02532447874546051,9.728100776672363,-0.0006499700163362892,-0.0024064872366782175,-0.0008457601451143693,1.4299960136413574,2019-06-24 14:10:03:979,0.0,0.0,0.0
0.0046146828681230545,0.0013769810320809484,9.785574913024902,-0.003446972051078891,0.0001241336135839013,8.657387459382065e-05,1.4358959197998047,2019-06-24 14:10:03:985,0.0,0.0,0.0
0.02856217883527279,0.006166480481624603,9.744863510131836,-0.001848685155506381,0.0007900864894482214,-0.0015117129640874309,1.4400043487548828,2019-06-24 14:10:03:989,0.0,0.0,0.0
0.018983181565999985,-0.029754765331745148,9.811917304992676,0.0048108434243357215,0.003587088394153661,-0.0013785224002928185,1.4458880424499512,2019-06-24 14:10:03:995,0.0,0.0,0.0
-0.009753815829753876,-0.015386266633868217,9.799942970275879,0.002946175531211149,-0.00014224753838729123,-0.0003129978574266295,1.4499907493591309,2019-06-24 14:10:03:999,0.0,0.0,0.0
0.018983181565999985,-0.020175766199827194,9.835864067077637,0.003079366095005761,0.00025732418550583624,0.0010189078780473654,1.4550495147705078,2019-06-24 14:10:04:004,0.0,0.0,0.0
0.016588430851697922,-0.022570515051484108,9.807126998901367,0.0002823640277538687,0.0033207072665644363,-0.0020444752192658802,1.4608793258666992,2019-06-24 14:10:04:010,0.0,0.0,0.0
0.02856217883527279,0.01095598004758358,9.811917304992676,-0.00278101923210583,0.0029211355751805994,-0.002577237474444329,1.465911865234375,2019-06-24 14:10:04:015,0.0,0.0,0.0
0.040535926818847656,0.008561230264604092,9.783180236816406,0.003345747222594986,-0.005070298772644788,0.0003529550265650132,1.4700031280517578,2019-06-24 14:10:04:019,0.0,0.0,0.0
0.0046146828681230545,-0.041728515177965164,9.795153617858887,-0.004379306257715503,-0.0016073438539105438,0.0003529550265650132,1.475006103515625,2019-06-24 14:10:04:024,0.0,0.0,0.0
0.011798931285738945,0.022929728031158447,9.804732322692871,-0.0021150662830956056,0.001855611064823701,0.0031499570287983245,1.4808902740478516,2019-06-24 14:10:04:030,0.0,0.0,0.0
0.033351678401231766,-0.03693901374936104,9.859811782836914,-0.0021150662830956056,-0.0018737249814997682,-0.001644903527882043,1.4850096702575684,2019-06-24 14:10:04:034,0.0,0.0,0.0
0.018983181565999985,-0.01059676706790924,9.802337646484375,-0.0006499700163362892,-0.0010745815337135133,-0.0007125695813197571,1.4899940490722656,2019-06-24 14:10:04:039,0.0,0.0,0.0
0.0046146828681230545,0.0013769810320809484,9.816706657409668,-0.0014491134641225444,-0.0010745815337135133,0.0010189078780473654,1.495901107788086,2019-06-24 14:10:04:045,0.0,0.0,0.0
0.05250967666506767,0.02532447874546051,9.826285362243652,-0.001715494591711769,0.001056467617037446,-0.0003129978574266295,1.500028133392334,2019-06-24 14:10:04:049,0.0,0.0,0.0
0.011798931285738945,0.008561230264604092,9.790364265441895,0.004278081169157272,0.0033207072665644363,-4.661670139177563e-05,1.5058879852294922,2019-06-24 14:10:04:055,0.0,0.0,0.0
0.02377268113195896,-0.015386266633868217,9.804732322692871,0.0012146980718440268,0.0029211355751805994,-0.0003129978574266295,1.5100345611572266,2019-06-24 14:10:04:059,0.0,0.0,0.0
0.016588430851697922,-0.029754765331745148,9.77120590209961,-0.003846543742462728,-0.0002754381184365489,0.0028835759012090997,1.5150146484375,2019-06-24 14:10:04:064,0.0,0.0,0.0
0.007009432185441256,0.020534979179501534,9.764021873474121,-0.004246115433846565,0.0015892299372344764,-0.0023108563468551046,1.5200204849243164,2019-06-24 14:10:04:069,0.0,0.0,0.0
-0.004964316263794899,0.008561230264604092,9.77120590209961,-0.0015823040279171567,-0.0016073438539105438,0.0003529550265650132,1.525895118713379,2019-06-24 14:10:04:075,0.0,0.0,0.0
0.026167429983615875,0.0013769810320809484,9.819101333618164,0.0006819357516469962,0.0006568959256536091,-0.0008457601451143693,1.5300016403198242,2019-06-24 14:10:04:079,0.0,0.0,0.0
-0.012148565612733364,0.022929728031158447,9.790364265441895,-0.0009163511439255139,0.005984518802531007,0.0018180512608150393,1.5358953475952148,2019-06-24 14:10:04:085,0.0,0.0,0.0
-0.0025695664808154106,-0.008202017284929752,9.778390884399414,0.002679794403621924,-0.0012077721625267067,-0.0024440469106497167,1.5399904251098633,2019-06-24 14:10:04:089,0.0,0.0,0.0
0.009404182434082031,0.003771730698645115,9.773600578308105,-0.00278101923210583,0.0026547544475913746,-0.004841477058952738,1.5459284782409668,2019-06-24 14:10:04:095,0.0,0.0,0.0
-0.0073590655811131,-0.022570515051484108,9.819101333618164,-0.001848685155506381,-0.003205630619445891,-0.001112141272703594,1.5499968528747559,2019-06-24 14:10:04:099,0.0,0.0,0.0
0.0046146828681230545,0.006166480481624603,9.802337646484375,-0.00278101923210583,0.003720278957948273,0.0015516701332258143,1.5559735298156738,2019-06-24 14:10:04:105,0.0,0.0,0.0
0.014193681068718433,-0.01059676706790924,9.828680038452148,-0.0015823040279171567,-0.0008082004061242886,0.002084432388404264,1.5600032806396484,2019-06-24 14:10:04:109,0.0,0.0,0.0
0.0022199328523129225,-0.020175766199827194,9.754443168640137,-0.0021150662830956056,0.0001241336135839013,-0.0020444752192658802,1.5658960342407227,2019-06-24 14:10:04:115,0.0,0.0,0.0
0.014193681068718433,-0.0034125184174627066,9.785574913024902,0.0017474603270224759,0.0027879450113859868,-0.0052410490104109,1.5700054168701172,2019-06-24 14:10:04:119,0.0,0.0,0.0
-0.0001748167269397527,0.006166480481624603,9.797548294067383,0.0005487451878523839,0.0017224205010290888,0.0024840042098252632,1.5758934020996094,2019-06-24 14:10:04:125,0.0,0.0,0.0
0.030956929549574852,0.03969297558069229,9.807126998901367,-0.0006499700163362892,-0.001340962726321319,-0.0021776657830604924,1.5799999237060547,2019-06-24 14:10:04:129,0.0,0.0,0.0
-0.0025695664808154106,-0.008202017284929752,9.775995254516602,-0.00025039827618851643,0.0038534695217428854,-0.0003129978574266295,1.5850582122802734,2019-06-24 14:10:04:134,0.0,0.0,0.0
0.0213779304176569,0.006166480481624603,9.766416549682617,1.5982868671268808e-05,0.002121992192412926,-0.0019112846554712676,1.5900201797485352,2019-06-24 14:10:04:139,0.0,0.0,0.0
-0.012148565612733364,0.020534979179501534,9.80952262878418,-0.002914209795900442,0.002255182756207538,-0.0003129978574266295,1.5958948135375977,2019-06-24 14:10:04:145,0.0,0.0,0.0
-0.028911812230944633,0.022929728031158447,9.8789701461792,0.0012146980718440268,0.0011896582458506397,0.003949100411565999,1.6000337600708008,2019-06-24 14:10:04:149,0.0,0.0,0.0
-0.0073590655811131,-0.022570515051484108,9.73049545288086,0.0021470320184063126,0.0005237053293497061,-4.661670139177563e-05,1.6050119400024414,2019-06-24 14:10:04:154,0.0,0.0,0.0
0.016588430851697922,0.008561230264604092,9.828680038452148,-0.0014491134641225444,-0.0014741532901159315,0.0019512418246096514,1.6108803749084473,2019-06-24 14:10:04:160,0.0,0.0,0.0
0.009404182434082031,0.008561230264604092,9.785574913024902,-0.003846543742462728,-0.0004086286822311611,-0.0009789507089089816,1.6150054931640625,2019-06-24 14:10:04:164,0.0,0.0,0.0
0.05250967666506767,0.022929728031158447,9.847838401794434,0.003745318913978823,0.0043862320369956595,-0.00017980727737737192,1.6209173202514648,2019-06-24 14:10:04:170,0.0,0.0,0.0
0.014193681068718433,0.0325087271630764,9.840654373168945,0.0014810791994332513,0.002255182756207538,0.0019512418246096514,1.625009536743164,2019-06-24 14:10:04:174,0.0,0.0,0.0
0.040535926818847656,0.03729822486639023,9.826285362243652,-0.0010495417077201262,0.00025732418550583624,0.003815909847771386,1.6301765441894531,2019-06-24 14:10:04:179,0.0,0.0,0.0
0.047720178961753845,-0.008202017284929752,9.768811225891113,-0.0015823040279171567,0.00039051476555509394,-0.0008457601451143693,1.635911464691162,2019-06-24 14:10:04:185,0.0,0.0,0.0
-0.024122314527630806,-0.020175766199827194,9.823890686035156,-0.0022482569769273807,0.0038534695217428854,0.0007525267504581406,1.6400365829467773,2019-06-24 14:10:04:189,0.0,0.0,0.0
-0.004964316263794899,-0.05130751058459282,9.797548294067383,0.005476796503383108,-0.0016073438539105438,-0.0049746678828216755,1.6450414657592773,2019-06-24 14:10:04:194,0.0,0.0,0.0
-0.014543314464390278,0.02532447874546051,9.871786117553711,-0.0035801626148735037,-0.003472011747035116,-0.00044618842122124184,1.6508855819702148,2019-06-24 14:10:04:200,0.0,0.0,0.0
0.009404182434082031,0.04448247700929642,9.80952262878418,0.0016142697632278635,0.0006568959256536091,0.0010189078780473654,1.6550092697143555,2019-06-24 14:10:04:204,0.0,0.0,0.0
0.026167429983615875,-0.0010177686344832182,9.802337646484375,-0.0009163511439255139,0.0014560393734398642,-0.00350957168108094,1.660893440246582,2019-06-24 14:10:04:210,0.0,0.0,0.0
0.011798931285738945,0.008561230264604092,9.768811225891113,0.0020138414546117004,0.0014560393734398642,-0.0017780940916766552,1.6650071144104004,2019-06-24 14:10:04:214,0.0,0.0,0.0
0.016588430851697922,-0.029754765331745148,9.814311981201172,0.0001491734477046111,0.0031875167027698237,-0.0021776657830604924,1.6708784103393555,2019-06-24 14:10:04:220,0.0,0.0,0.0
0.016588430851697922,-0.022570515051484108,9.83346939086914,0.0014810791994332513,-0.0018737249814997682,0.004748244054407998,1.6750154495239258,2019-06-24 14:10:04:224,0.0,0.0,0.0
0.018983181565999985,0.034903477877378464,9.768811225891113,-0.00011720770426658147,0.002255182756207538,-0.0024440469106497167,1.6808891296386719,2019-06-24 14:10:04:230,0.0,0.0,0.0
-0.012148565612733364,0.01095598004758358,9.73049545288086,0.004944034248204658,-0.002672868364267442,-0.00350957168108094,1.6860918998718262,2019-06-24 14:10:04:235,0.0,0.0,0.0
-0.0025695664808154106,-0.008202017284929752,9.82149600982666,-0.0015823040279171567,0.00039051476555509394,-0.0007125695813197571,1.6900091171264648,2019-06-24 14:10:04:239,0.0,0.0,0.0
0.02856217883527279,0.020534979179501534,9.754443168640137,0.0017474603270224759,-0.0008082004061242886,0.0002197644465157556,1.695897102355957,2019-06-24 14:10:04:245,0.0,0.0,0.0
0.018983181565999985,-0.008202017284929752,9.783180236816406,0.002946175531211149,-0.001340962726321319,0.000885717314252753,1.6999921798706055,2019-06-24 14:10:04:249,0.0,0.0,0.0
0.014193681068718433,-0.015386266633868217,9.778390884399414,0.0006819357516469962,-0.003472011747035116,0.0006193361866635284,1.7058939933776855,2019-06-24 14:10:04:255,0.0,0.0,0.0
0.0213779304176569,0.01814022846519947,9.773600578308105,-0.0009163511439255139,0.0001241336135839013,8.657387459382065e-05,1.7100028991699219,2019-06-24 14:10:04:259,0.0,0.0,0.0
-0.0073590655811131,0.006166480481624603,9.855022430419922,0.0022802227122380877,-0.001340962726321319,-0.0009789507089089816,1.715996265411377,2019-06-24 14:10:04:265,0.0,0.0,0.0
-0.021727563813328743,0.0013769810320809484,9.783180236816406,0.0024134132760327,0.0023883733200021503,0.0016848606970204267,1.720057487487793,2019-06-24 14:10:04:269,0.0,0.0,0.0
-0.0001748167269397527,-0.015386266633868217,9.831074714660645,0.00041555459154848093,-0.0002754381184365489,0.00128528900563659,1.7258963584899902,2019-06-24 14:10:04:275,0.0,0.0,0.0
0.014193681068718433,-0.022570515051484108,9.845443725585938,0.002946175531211149,0.001855611064823701,0.0028835759012090997,1.7300043106079102,2019-06-24 14:10:04:279,0.0,0.0,0.0
0.02377268113195896,0.027719227597117424,9.78078556060791,-0.0037133531786681154,0.0013228488096452518,-0.0023108563468551046,1.7358980178833008,2019-06-24 14:10:04:285,0.0,0.0,0.0
0.0022199328523129225,-0.020175766199827194,9.843049049377441,-0.0010495417077201262,-0.0004086286822311611,-0.00017980727737737192,1.7399978637695312,2019-06-24 14:10:04:289,0.0,0.0,0.0
0.0046146828681230545,-0.04412326216697693,9.816706657409668,0.0006819357516469962,0.00025732418550583624,-0.0005793790175251447,1.7458863258361816,2019-06-24 14:10:04:295,0.0,0.0,0.0
0.007009432185441256,0.003771730698645115,9.857417106628418,-0.004112924870051953,0.00025732418550583624,-0.0021776657830604924,1.7499914169311523,2019-06-24 14:10:04:299,0.0,0.0,0.0
0.0022199328523129225,0.008561230264604092,9.811917304992676,-0.001848685155506381,0.0029211355751805994,0.0026171947736198754,1.7558894157409668,2019-06-24 14:10:04:305,0.0,0.0,0.0
0.007009432185441256,-0.012991516850888729,9.73049545288086,0.001880650890817088,0.0030543261389752115,-0.001644903527882043,1.7600526809692383,2019-06-24 14:10:04:309,0.0,0.0,0.0
0.03814117982983589,0.01814022846519947,9.79275894165039,-0.0037133531786681154,0.0009232770532428338,-0.002577237474444329,1.765915870666504,2019-06-24 14:10:04:315,0.0,0.0,0.0
0.030956929549574852,-0.015386266633868217,9.775995254516602,-0.002381447540721993,-0.0025396778004728297,-0.0013785224002928185,1.7700014114379883,2019-06-24 14:10:04:319,0.0,0.0,0.0
0.0022199328523129225,0.008561230264604092,9.766416549682617,0.005876367934692619,0.0006568959256536091,0.005813768564764896,1.7759246826171875,2019-06-24 14:10:04:325,0.0,0.0,0.0
0.018983181565999985,-0.02496526576578617,9.807126998901367,0.0001491734477046111,-0.003205630619445891,0.0018180512608150393,1.7799959182739258,2019-06-24 14:10:04:329,0.0,0.0,0.0
0.014193681068718433,0.01814022846519947,9.778390884399414,0.0017474603270224759,-0.005869442155412462,-0.0017780940916766552,1.7858963012695312,2019-06-24 14:10:04:335,0.0,0.0,0.0
0.0046146828681230545,-0.01778101734817028,9.823890686035156,-0.004246115433846565,0.0029211355751805994,0.003416338156387549,1.790001392364502,2019-06-24 14:10:04:339,0.0,0.0,0.0
0.054904427379369736,-0.012991516850888729,9.77120590209961,0.005609986807103395,0.0034538978303590485,-0.0007125695813197571,1.7958927154541016,2019-06-24 14:10:04:345,0.0,0.0,0.0
0.04532542824745178,0.01095598004758358,9.811917304992676,0.0008151263154416085,-0.0002754381184365489,0.0014184795694312021,1.7999916076660156,2019-06-24 14:10:04:349,0.0,0.0,0.0
0.0022199328523129225,-0.01778101734817028,9.761627197265625,0.0010815074430308332,0.001056467617037446,-0.001112141272703594,1.8059186935424805,2019-06-24 14:10:04:355,0.0,0.0,0.0
0.03814117982983589,-0.015386266633868217,9.816706657409668,-0.0006499700163362892,0.0011896582458506397,-0.0032431902934173906,1.810007095336914,2019-06-24 14:10:04:359,0.0,0.0,0.0
-0.012148565612733364,-0.029754765331745148,9.787969589233398,-0.0010495417077201262,0.0043862320369956595,0.006213339996074407,1.8159246444702148,2019-06-24 14:10:04:365,0.0,0.0,0.0
0.033351678401231766,0.013350729830563068,9.814311981201172,0.0016142697632278635,-0.00014224753838729123,-0.001112141272703594,1.820012092590332,2019-06-24 14:10:04:369,0.0,0.0,0.0
0.016588430851697922,-0.005807267967611551,9.790364265441895,-0.00011720770426658147,0.0023883733200021503,0.0014184795694312021,1.8258953094482422,2019-06-24 14:10:04:375,0.0,0.0,0.0
0.018983181565999985,0.003771730698645115,9.826285362243652,0.0028129849674165368,-0.0020069155452943806,-0.001644903527882043,1.8299965858459473,2019-06-24 14:10:04:379,0.0,0.0,0.0
0.026167429983615875,0.006166480481624603,9.823890686035156,-0.005045258816614238,0.001855611064823701,-0.003775952808670165,1.8358936309814453,2019-06-24 14:10:04:385,0.0,0.0,0.0
-0.014543314464390278,0.013350729830563068,9.783180236816406,-0.001715494591711769,-0.00014224753838729123,0.0007525267504581406,1.8399944305419922,2019-06-24 14:10:04:389,0.0,0.0,0.0
0.007009432185441256,-0.012991516850888729,9.835864067077637,-0.0015823040279171567,-0.0009413909699189009,0.00461505323053906,1.8450078964233398,2019-06-24 14:10:04:394,0.0,0.0,0.0
0.040535926818847656,0.015745479613542557,9.756837844848633,0.0021470320184063126,0.0015892299372344764,0.0004861455903596255,1.850881576538086,2019-06-24 14:10:04:400,0.0,0.0,0.0
0.007009432185441256,-0.012991516850888729,9.787969589233398,-0.0005167794200323863,0.0017224205010290888,-0.00017980727737737192,1.8550143241882324,2019-06-24 14:10:04:404,0.0,0.0,0.0
0.007009432185441256,0.027719227597117424,9.79275894165039,0.0009483168792362209,-0.0025396778004728297,-0.003909143372464777,1.8609075546264648,2019-06-24 14:10:04:410,0.0,0.0,0.0
-0.0001748167269397527,0.008561230264604092,9.816706657409668,-0.003846543742462728,0.0047858034683051715,-0.0009789507089089816,1.8659167289733887,2019-06-24 14:10:04:415,0.0,0.0,0.0
-0.009753815829753876,-0.008202017284929752,9.819101333618164,0.002546603839827312,-0.0010745815337135133,0.000885717314252753,1.8699946403503418,2019-06-24 14:10:04:419,0.0,0.0,0.0
0.007009432185441256,0.020534979179501534,9.85023307800293,-0.0010495417077201262,0.0007900864894482214,-0.002710428038238941,1.875894546508789,2019-06-24 14:10:04:425,0.0,0.0,0.0
0.040535926818847656,-0.005807267967611551,9.766416549682617,0.0022802227122380877,-9.05695935394897e-06,-0.002577237474444329,1.8799972534179688,2019-06-24 14:10:04:429,0.0,0.0,0.0
-0.04567506164312363,-0.01778101734817028,9.811917304992676,0.0016142697632278635,-0.0033388211832405036,-0.002577237474444329,1.885009765625,2019-06-24 14:10:04:434,0.0,0.0,0.0
0.016588430851697922,-0.01059676706790924,9.823890686035156,-0.00011720770426658147,0.001855611064823701,0.0006193361866635284,1.8908815383911133,2019-06-24 14:10:04:440,0.0,0.0,0.0
0.009404182434082031,0.008561230264604092,9.711337089538574,-0.0019818757193009935,-0.0038715834384189522,0.0007525267504581406,1.8950161933898926,2019-06-24 14:10:04:444,0.0,0.0,0.0
0.033351678401231766,0.003771730698645115,9.77120590209961,-0.0033137814872842794,0.0017224205010290888,-0.0007125695813197571,1.900918960571289,2019-06-24 14:10:04:450,0.0,0.0,0.0
0.018983181565999985,0.02532447874546051,9.768811225891113,-0.0014491134641225444,0.0001241336135839013,-0.0008457601451143693,1.9050226211547852,2019-06-24 14:10:04:454,0.0,0.0,0.0
0.02377268113195896,-0.020175766199827194,9.756837844848633,-0.0037133531786681154,-0.003205630619445891,-0.00044618842122124184,1.9108881950378418,2019-06-24 14:10:04:460,0.0,0.0,0.0
0.011798931285738945,-0.03693901374936104,9.843049049377441,0.0024134132760327,0.003720278957948273,-0.0019112846554712676,1.9150056838989258,2019-06-24 14:10:04:464,0.0,0.0,0.0
-0.0001748167269397527,-0.05370226129889488,9.790364265441895,0.0032125566588003737,0.0007900864894482214,0.002084432388404264,1.9208860397338867,2019-06-24 14:10:04:470,0.0,0.0,0.0
0.0213779304176569,0.01814022846519947,9.797548294067383,0.0008151263154416085,-0.0010745815337135133,0.0035495287201821614,1.92500638961792,2019-06-24 14:10:04:474,0.0,0.0,0.0
0.04532542824745178,0.01095598004758358,9.744863510131836,0.0014810791994332513,-0.0033388211832405036,0.0007525267504581406,1.9299983978271484,2019-06-24 14:10:04:479,0.0,0.0,0.0
-0.016938064247369766,0.02532447874546051,9.787969589233398,-0.0005167794200323863,0.003587088394153661,-0.0003129978574266295,1.9359192848205566,2019-06-24 14:10:04:485,0.0,0.0,0.0
0.011798931285738945,-0.022570515051484108,9.816706657409668,-0.001848685155506381,-0.0010745815337135133,-0.0012453318364982061,1.940023422241211,2019-06-24 14:10:04:489,0.0,0.0,0.0
-0.0001748167269397527,-0.0010177686344832182,9.749653816223145,-0.001848685155506381,0.00039051476555509394,0.0010189078780473654,1.9459152221679688,2019-06-24 14:10:04:495,0.0,0.0,0.0
-0.01933281496167183,-0.0010177686344832182,9.80952262878418,-0.001848685155506381,-9.05695935394897e-06,0.0011520984418419776,1.9500055313110352,2019-06-24 14:10:04:499,0.0,0.0,0.0
0.009404182434082031,0.022929728031158447,9.764021873474121,0.0008151263154416085,0.0017224205010290888,-0.0015117129640874309,1.9550142288208008,2019-06-24 14:10:04:504,0.0,0.0,0.0
0.02377268113195896,0.01814022846519947,9.773600578308105,-0.0007831605801309015,-0.0024064872366782175,-0.001112141272703594,1.9608888626098633,2019-06-24 14:10:04:510,0.0,0.0,0.0
0.007009432185441256,-0.01778101734817028,9.80952262878418,-0.0022482569769273807,0.002255182756207538,-0.004841477058952738,1.9650073051452637,2019-06-24 14:10:04:514,0.0,0.0,0.0
-0.0001748167269397527,0.003771730698645115,9.8789701461792,-0.0006499700163362892,0.0017224205010290888,0.0015516701332258143,1.970881462097168,2019-06-24 14:10:04:520,0.0,0.0,0.0
0.030956929549574852,-0.012991516850888729,9.814311981201172,0.003345747222594986,-0.0024064872366782175,-0.00044618842122124184,1.9750051498413086,2019-06-24 14:10:04:524,0.0,0.0,0.0
0.014193681068718433,-0.020175766199827194,9.823890686035156,0.002946175531211149,0.0007900864894482214,-0.0021776657830604924,1.980879783630371,2019-06-24 14:10:04:530,0.0,0.0,0.0
-0.004964316263794899,0.003771730698645115,9.835864067077637,-0.0015823040279171567,-0.0005418192460257735,0.0007525267504581406,1.9850225448608398,2019-06-24 14:10:04:534,0.0,0.0,0.0
0.011798931285738945,0.0013769810320809484,9.773600578308105,-0.005578021071792687,-0.0012077721625267067,0.0018180512608150393,1.9908876419067383,2019-06-24 14:10:04:540,0.0,0.0,0.0
0.014193681068718433,-0.020175766199827194,9.83346939086914,-0.0021150662830956056,0.0015892299372344764,-0.0019112846554712676,1.9959192276000977,2019-06-24 14:10:04:545,0.0,0.0,0.0
0.02856217883527279,0.034903477877378464,9.835864067077637,0.001347888635638639,0.0017224205010290888,-0.0003129978574266295,1.999988079071045,2019-06-24 14:10:04:549,0.0,0.0,0.0
0.04293067753314972,-0.03693901374936104,9.761627197265625,-0.0035801626148735037,0.0015892299372344764,-0.004575095931363514,2.005887031555176,2019-06-24 14:10:04:555,0.0,0.0,0.0
0.026167429983615875,-0.015386266633868217,9.804732322692871,0.0044112719930262095,0.0023883733200021503,0.0010189078780473654,2.0100011825561523,2019-06-24 14:10:04:559,0.0,0.0,0.0
0.0213779304176569,0.015745479613542557,9.775995254516602,0.0009483168792362209,-0.0024064872366782175,0.0002197644465157556,2.01589298248291,2019-06-24 14:10:04:565,0.0,0.0,0.0
0.007009432185441256,-0.008202017284929752,9.732890129089355,-0.002514638104516605,0.0005237053293497061,0.0002197644465157556,2.0199971199035645,2019-06-24 14:10:04:569,0.0,0.0,0.0
-0.012148565612733364,0.008561230264604092,9.790364265441895,0.0006819357516469962,0.001056467617037446,-0.003376381117286328,2.0250244140625,2019-06-24 14:10:04:574,0.0,0.0,0.0
-0.009753815829753876,-0.022570515051484108,9.790364265441895,1.5982868671268808e-05,0.0030543261389752115,-0.002710428038238941,2.030932903289795,2019-06-24 14:10:04:580,0.0,0.0,0.0
0.02856217883527279,0.013350729830563068,9.828680038452148,1.5982868671268808e-05,-0.00014224753838729123,0.005147815485717509,2.0350122451782227,2019-06-24 14:10:04:584,0.0,0.0,0.0
-0.009753815829753876,0.02532447874546051,9.80952262878418,-0.002381447540721993,0.0015892299372344764,0.0007525267504581406,2.0409164428710938,2019-06-24 14:10:04:590,0.0,0.0,0.0
0.047720178961753845,-0.01778101734817028,9.775995254516602,0.0017474603270224759,0.0015892299372344764,-0.00350957168108094,2.0458946228027344,2019-06-24 14:10:04:595,0.0,0.0,0.0
-0.014543314464390278,-0.0034125184174627066,9.819101333618164,-0.0021150662830956056,0.0014560393734398642,0.0022176230822360385,2.049996852874756,2019-06-24 14:10:04:599,0.0,0.0,0.0
0.02377268113195896,-0.005807267967611551,9.768811225891113,0.0012146980718440268,-0.0002754381184365489,-0.0017780940916766552,2.0550060272216797,2019-06-24 14:10:04:604,0.0,0.0,0.0
0.0213779304176569,0.013350729830563068,9.754443168640137,-0.001715494591711769,-0.0014741532901159315,0.0015516701332258143,2.06088924407959,2019-06-24 14:10:04:610,0.0,0.0,0.0
0.0572991743683815,-0.020175766199827194,9.74246883392334,0.0008151263154416085,0.0005237053293497061,-0.0028436186020335537,2.0650081634521484,2019-06-24 14:10:04:614,0.0,0.0,0.0
0.0022199328523129225,0.022929728031158447,9.795153617858887,-0.0022482569769273807,0.0019888016286183133,0.0007525267504581406,2.07088565826416,2019-06-24 14:10:04:620,0.0,0.0,0.0
0.009404182434082031,-0.027360014617443085,9.828680038452148,0.001347888635638639,-0.0010745815337135133,-0.003376381117286328,2.0750527381896973,2019-06-24 14:10:04:624,0.0,0.0,0.0
0.02856217883527279,0.01095598004758358,9.773600578308105,-0.0014491134641225444,0.0029211355751805994,0.0022176230822360385,2.0800228118896484,2019-06-24 14:10:04:629,0.0,0.0,0.0
0.018983181565999985,-0.008202017284929752,9.787969589233398,-0.003047400359695054,-0.0006750098423296765,0.0004861455903596255,2.085028648376465,2019-06-24 14:10:04:634,0.0,0.0,0.0
-0.03130656108260155,0.020534979179501534,9.783180236816406,0.0009483168792362209,0.001056467617037446,0.0022176230822360385,2.090886116027832,2019-06-24 14:10:04:640,0.0,0.0,0.0
-0.014543314464390278,0.0013769810320809484,9.778390884399414,0.00414489060536266,0.0006568959256536091,0.0002197644465157556,2.095888137817383,2019-06-24 14:10:04:645,0.0,0.0,0.0
0.011798931285738945,-0.012991516850888729,9.766416549682617,-0.001848685155506381,0.0043862320369956595,0.002084432388404264,2.1000008583068848,2019-06-24 14:10:04:649,0.0,0.0,0.0
0.02377268113195896,0.015745479613542557,9.828680038452148,0.0005487451878523839,-9.05695935394897e-06,-0.0012453318364982061,2.1058950424194336,2019-06-24 14:10:04:655,0.0,0.0,0.0
0.033351678401231766,0.013350729830563068,9.78078556060791,0.0010815074430308332,-0.0002754381184365489,0.0003529550265650132,2.1099939346313477,2019-06-24 14:10:04:659,0.0,0.0,0.0
-0.012148565612733364,-0.005807267967611551,9.80952262878418,-0.0022482569769273807,-0.0021401061090889927,-0.0028436186020335537,2.115947723388672,2019-06-24 14:10:04:665,0.0,0.0,0.0
-0.004964316263794899,-0.0034125184174627066,9.811917304992676,0.00041555459154848093,-0.0014741532901159315,-0.004841477058952738,2.1200199127197266,2019-06-24 14:10:04:669,0.0,0.0,0.0
-0.0073590655811131,0.022929728031158447,9.85023307800293,-0.0033137814872842794,-0.003472011747035116,-0.003775952808670165,2.1250600814819336,2019-06-24 14:10:04:674,0.0,0.0,0.0
0.016588430851697922,0.003771730698645115,9.785574913024902,-0.003846543742462728,0.0005237053293497061,-0.0007125695813197571,2.1308889389038086,2019-06-24 14:10:04:680,0.0,0.0,0.0
-0.0001748167269397527,0.008561230264604092,9.778390884399414,0.0010815074430308332,-0.0009413909699189009,-0.001644903527882043,2.135004997253418,2019-06-24 14:10:04:684,0.0,0.0,0.0
-0.004964316263794899,0.003771730698645115,9.814311981201172,-0.0005167794200323863,-0.005070298772644788,-0.0015117129640874309,2.14089298248291,2019-06-24 14:10:04:690,0.0,0.0,0.0
0.02377268113195896,0.01095598004758358,9.819101333618164,-0.002914209795900442,0.0030543261389752115,0.0006193361866635284,2.1450066566467285,2019-06-24 14:10:04:694,0.0,0.0,0.0
0.0022199328523129225,0.0013769810320809484,9.778390884399414,-0.0010495417077201262,-0.0008082004061242886,0.0003529550265650132,2.1508827209472656,2019-06-24 14:10:04:700,0.0,0.0,0.0
0.016588430851697922,-0.01778101734817028,9.807126998901367,-0.003047400359695054,0.0007900864894482214,0.003283147592592937,2.155024528503418,2019-06-24 14:10:04:704,0.0,0.0,0.0
0.007009432185441256,0.034903477877378464,9.756837844848633,-0.0007831605801309015,0.0013228488096452518,0.003283147592592937,2.160912036895752,2019-06-24 14:10:04:710,0.0,0.0,0.0
0.009404182434082031,0.015745479613542557,9.73049545288086,0.0001491734477046111,0.003986660085537498,0.00461505323053906,2.1650218963623047,2019-06-24 14:10:04:714,0.0,0.0,0.0
0.011798931285738945,-0.02496526576578617,9.711337089538574,-0.003047400359695054,0.0013228488096452518,0.0003529550265650132,2.170043468475342,2019-06-24 14:10:04:719,0.0,0.0,0.0
-0.02651706337928772,0.01095598004758358,9.787969589233398,0.0006819357516469962,0.0009232770532428338,0.0031499570287983245,2.175896644592285,2019-06-24 14:10:04:725,0.0,0.0,0.0
0.04293067753314972,0.008561230264604092,9.797548294067383,-0.001848685155506381,-0.0018737249814997682,0.0016848606970204267,2.18088436126709,2019-06-24 14:10:04:730,0.0,0.0,0.0
0.016588430851697922,0.013350729830563068,9.82149600982666,-0.003979734306257341,-0.003605202310829728,-0.0009789507089089816,2.185004711151123,2019-06-24 14:10:04:734,0.0,0.0,0.0
-0.0025695664808154106,-0.0010177686344832182,9.75204849243164,0.0009483168792362209,-9.05695935394897e-06,0.002084432388404264,2.190889358520508,2019-06-24 14:10:04:740,0.0,0.0,0.0
0.007009432185441256,-0.027360014617443085,9.802337646484375,0.0002823640277538687,-0.0025396778004728297,-0.0032431902934173906,2.195010185241699,2019-06-24 14:10:04:744,0.0,0.0,0.0
0.007009432185441256,-0.022570515051484108,9.797548294067383,-0.00011720770426658147,0.0027879450113859868,-0.0003129978574266295,2.200881004333496,2019-06-24 14:10:04:750,0.0,0.0,0.0
0.03574642911553383,0.006166480481624603,9.764021873474121,0.00534360567951417,0.0025215638837967624,0.003815909847771386,2.205923557281494,2019-06-24 14:10:04:755,0.0,0.0,0.0
-0.04806981235742569,0.006166480481624603,9.871786117553711,-0.0037133531786681154,0.0009232770532428338,0.0003529550265650132,2.2099990844726562,2019-06-24 14:10:04:759,0.0,0.0,0.0
-0.03609606251120567,-0.022570515051484108,9.778390884399414,-0.0033137814872842794,0.0001241336135839013,0.0011520984418419776,2.215928077697754,2019-06-24 14:10:04:765,0.0,0.0,0.0
0.007009432185441256,0.013350729830563068,9.840654373168945,-0.005578021071792687,-0.0028060589280620545,0.000885717314252753,2.219999313354492,2019-06-24 14:10:04:769,0.0,0.0,0.0
0.033351678401231766,-0.02496526576578617,9.816706657409668,-0.0011827323365333196,0.0005237053293497061,-0.0005793790175251447,2.2250123023986816,2019-06-24 14:10:04:774,0.0,0.0,0.0
0.014193681068718433,0.027719227597117424,9.816706657409668,0.003345747222594986,0.0001241336135839013,0.005813768564764896,2.230894088745117,2019-06-24 14:10:04:780,0.0,0.0,0.0
0.009404182434082031,0.013350729830563068,9.826285362243652,0.001880650890817088,0.0015892299372344764,-0.0019112846554712676,2.235894203186035,2019-06-24 14:10:04:785,0.0,0.0,0.0
0.018983181565999985,-0.022570515051484108,9.857417106628418,-0.0005167794200323863,0.0017224205010290888,0.0022176230822360385,2.239996910095215,2019-06-24 14:10:04:789,0.0,0.0,0.0
-0.004964316263794899,0.02532447874546051,9.787969589233398,0.0002823640277538687,0.0047858034683051715,0.0040822909753606106,2.245894432067871,2019-06-24 14:10:04:795,0.0,0.0,0.0
0.0022199328523129225,-0.012991516850888729,9.773600578308105,0.0001491734477046111,0.0005237053293497061,-0.0008457601451143693,2.2499914169311523,2019-06-24 14:10:04:799,0.0,0.0,0.0
0.03574642911553383,-0.005807267967611551,9.80952262878418,0.001347888635638639,-0.0037383928746243405,0.003283147592592937,2.2550010681152344,2019-06-24 14:10:04:804,0.0,0.0,0.0
-0.004964316263794899,0.008561230264604092,9.826285362243652,0.0021470320184063126,-0.004404345693597402,0.0011520984418419776,2.260918617248535,2019-06-24 14:10:04:810,0.0,0.0,0.0
-0.0001748167269397527,0.034903477877378464,9.759232521057129,-0.0010495417077201262,-9.05695935394897e-06,-0.0020444752192658802,2.2658958435058594,2019-06-24 14:10:04:815,0.0,0.0,0.0
-0.016938064247369766,-0.012991516850888729,9.859811782836914,-0.0010495417077201262,-0.0012077721625267067,0.0006193361866635284,2.269996166229248,2019-06-24 14:10:04:819,0.0,0.0,0.0
-0.0073590655811131,-0.015386266633868217,9.759232521057129,0.0002823640277538687,-0.001340962726321319,-4.661670139177563e-05,2.275890827178955,2019-06-24 14:10:04:825,0.0,0.0,0.0
0.016588430851697922,-0.005807267967611551,9.874180793762207,-0.0010495417077201262,-0.0024064872366782175,0.0035495287201821614,2.280000686645508,2019-06-24 14:10:04:829,0.0,0.0,0.0
0.011798931285738945,0.027719227597117424,9.811917304992676,0.0014810791994332513,0.00025732418550583624,0.0002197644465157556,2.2858948707580566,2019-06-24 14:10:04:835,0.0,0.0,0.0
0.02377268113195896,-0.015386266633868217,9.785574913024902,-0.00025039827618851643,0.00531856572348362,0.0002197644465157556,2.289994239807129,2019-06-24 14:10:04:839,0.0,0.0,0.0
0.026167429983615875,0.006166480481624603,9.75204849243164,0.0024134132760327,-0.005203489076365075,0.0026171947736198754,2.2959189414978027,2019-06-24 14:10:04:845,0.0,0.0,0.0
-0.016938064247369766,-0.02496526576578617,9.735284805297852,-0.0006499700163362892,0.002121992192412926,0.0011520984418419776,2.3000640869140625,2019-06-24 14:10:04:849,0.0,0.0,0.0
-0.0001748167269397527,0.0013769810320809484,9.744863510131836,-0.0015823040279171567,-0.0018737249814997682,-4.661670139177563e-05,2.3059120178222656,2019-06-24 14:10:04:855,0.0,0.0,0.0
0.02377268113195896,-0.015386266633868217,9.754443168640137,0.0006819357516469962,-0.004803917645055564,8.657387459382065e-05,2.3108835220336914,2019-06-24 14:10:04:860,0.0,0.0,0.0
0.009404182434082031,0.015745479613542557,9.831074714660645,-0.0011827323365333196,0.0009232770532428338,0.0006193361866635284,2.3158884048461914,2019-06-24 14:10:04:865,0.0,0.0,0.0
0.018983181565999985,0.020534979179501534,9.73049545288086,0.0022802227122380877,0.0023883733200021503,-0.00044618842122124184,2.319997787475586,2019-06-24 14:10:04:869,0.0,0.0,0.0
0.011798931285738945,0.022929728031158447,9.83346939086914,0.0021470320184063126,-0.001740534417705156,0.0022176230822360385,2.325895309448242,2019-06-24 14:10:04:875,0.0,0.0,0.0
-0.0073590655811131,-0.008202017284929752,9.816706657409668,-0.0007831605801309015,-0.0010745815337135133,-0.005773811265589349,2.3299918174743652,2019-06-24 14:10:04:879,0.0,0.0,0.0
-0.0001748167269397527,0.030113978311419487,9.764021873474121,-0.0014491134641225444,0.0019888016286183133,0.0019512418246096514,2.335932731628418,2019-06-24 14:10:04:885,0.0,0.0,0.0
0.018983181565999985,0.015745479613542557,9.787969589233398,0.0001491734477046111,0.0019888016286183133,-0.0017780940916766552,2.339998245239258,2019-06-24 14:10:04:889,0.0,0.0,0.0
-0.0408855602145195,-0.005807267967611551,9.814311981201172,-0.00025039827618851643,-0.0021401061090889927,-0.001644903527882043,2.345987319946289,2019-06-24 14:10:04:895,0.0,0.0,0.0
-0.0073590655811131,-0.041728515177965164,9.802337646484375,-0.0015823040279171567,-0.0016073438539105438,0.0040822909753606106,2.350888729095459,2019-06-24 14:10:04:900,0.0,0.0,0.0
-0.0025695664808154106,0.008561230264604092,9.77120590209961,-0.0009163511439255139,0.0001241336135839013,-0.0015117129640874309,2.35500431060791,2019-06-24 14:10:04:904,0.0,0.0,0.0
0.0022199328523129225,0.01095598004758358,9.859811782836914,-0.002514638104516605,0.005984518802531007,-0.0032431902934173906,2.360891819000244,2019-06-24 14:10:04:910,0.0,0.0,0.0
-0.009753815829753876,0.027719227597117424,9.826285362243652,0.0021470320184063126,-0.0005418192460257735,-0.003376381117286328,2.3650054931640625,2019-06-24 14:10:04:914,0.0,0.0,0.0
-0.0025695664808154106,-0.005807267967611551,9.845443725585938,0.0002823640277538687,-0.0008082004061242886,0.0011520984418419776,2.37088680267334,2019-06-24 14:10:04:920,0.0,0.0,0.0
0.014193681068718433,-0.01778101734817028,9.83346939086914,-0.003047400359695054,-0.0009413909699189009,0.0014184795694312021,2.375016212463379,2019-06-24 14:10:04:924,0.0,0.0,0.0
-0.01933281496167183,-0.0010177686344832182,9.831074714660645,-0.0006499700163362892,0.0038534695217428854,-0.003775952808670165,2.3808913230895996,2019-06-24 14:10:04:930,0.0,0.0,0.0
0.0022199328523129225,-0.012991516850888729,9.783180236816406,0.0006819357516469962,0.004652613164584885,-0.0003129978574266295,2.3850040435791016,2019-06-24 14:10:04:934,0.0,0.0,0.0
-0.05285931006073952,-0.008202017284929752,9.756837844848633,0.002546603839827312,0.0005237053293497061,-0.0013785224002928185,2.390044689178467,2019-06-24 14:10:04:939,0.0,0.0,0.0
-0.0025695664808154106,-0.01059676706790924,9.785574913024902,0.001347888635638639,-0.0008082004061242886,-0.001112141272703594,2.395901679992676,2019-06-24 14:10:04:945,0.0,0.0,0.0
-0.016938064247369766,-0.027360014617443085,9.855022430419922,-0.006643545582149587,-0.0021401061090889927,0.0002197644465157556,2.3999977111816406,2019-06-24 14:10:04:949,0.0,0.0,0.0
-0.0025695664808154106,-0.015386266633868217,9.790364265441895,0.0006819357516469962,0.00039051476555509394,-0.001644903527882043,2.405888557434082,2019-06-24 14:10:04:955,0.0,0.0,0.0
0.009404182434082031,0.008561230264604092,9.799942970275879,-0.0019818757193009935,0.0017224205010290888,-0.006306573520767799,2.4099979400634766,2019-06-24 14:10:04:959,0.0,0.0,0.0
-0.016938064247369766,0.01814022846519947,9.843049049377441,-0.0007831605801309015,0.00039051476555509394,0.0024840042098252632,2.415891647338867,2019-06-24 14:10:04:965,0.0,0.0,0.0
-0.03130656108260155,-0.041728515177965164,9.783180236816406,0.0017474603270224759,0.002121992192412926,-0.0009789507089089816,2.419996738433838,2019-06-24 14:10:04:969,0.0,0.0,0.0
0.0022199328523129225,-0.02496526576578617,9.790364265441895,-0.0021150662830956056,0.002255182756207538,0.002350813646030651,2.425898551940918,2019-06-24 14:10:04:975,0.0,0.0,0.0
0.018983181565999985,0.022929728031158447,9.814311981201172,-0.0035801626148735037,-0.0005418192460257735,-0.0052410490104109,2.4299979209899902,2019-06-24 14:10:04:979,0.0,0.0,0.0
0.0213779304176569,-0.0034125184174627066,9.802337646484375,-0.003846543742462728,-0.00014224753838729123,-0.00404233393625939,2.435929775238037,2019-06-24 14:10:04:985,0.0,0.0,0.0
-0.009753815829753876,0.015745479613542557,9.83346939086914,-0.0021150662830956056,-0.0004086286822311611,-0.003775952808670165,2.439997673034668,2019-06-24 14:10:04:989,0.0,0.0,0.0
0.04293067753314972,0.01095598004758358,9.785574913024902,0.001880650890817088,0.00411985064933211,0.004348672102949836,2.4458889961242676,2019-06-24 14:10:04:995,0.0,0.0,0.0
0.009404182434082031,-0.02496526576578617,9.785574913024902,0.0016142697632278635,-0.0002754381184365489,0.0031499570287983245,2.4499993324279785,2019-06-24 14:10:04:999,0.0,0.0,0.0
0.018983181565999985,0.008561230264604092,9.823890686035156,0.0017474603270224759,0.0009232770532428338,0.000885717314252753,2.455899715423584,2019-06-24 14:10:05:005,0.0,0.0,0.0
0.0022199328523129225,-0.01059676706790924,9.802337646484375,-0.0011827323365333196,0.002121992192412926,-0.0017780940916766552,2.459996223449707,2019-06-24 14:10:05:009,0.0,0.0,0.0
0.04532542824745178,0.03969297558069229,9.775995254516602,0.00414489060536266,-0.00014224753838729123,0.0011520984418419776,2.4659128189086914,2019-06-24 14:10:05:015,0.0,0.0,0.0
-0.009753815829753876,-0.01778101734817028,9.764021873474121,-0.000383588856237774,0.0005237053293497061,-0.001644903527882043,2.469998359680176,2019-06-24 14:10:05:019,0.0,0.0,0.0
0.026167429983615875,-0.01778101734817028,9.740074157714844,-0.003047400359695054,-0.0016073438539105438,-0.0021776657830604924,2.475952625274658,2019-06-24 14:10:05:025,0.0,0.0,0.0
0.033351678401231766,0.015745479613542557,9.773600578308105,-0.0021150662830956056,0.0015892299372344764,-0.002710428038238941,2.480034828186035,2019-06-24 14:10:05:029,0.0,0.0,0.0
0.0213779304176569,0.008561230264604092,9.819101333618164,-0.004379306257715503,-0.0038715834384189522,-0.008038051110172082,2.485391139984131,2019-06-24 14:10:05:034,0.0,0.0,0.0
0.0046146828681230545,0.013350729830563068,9.859811782836914,-0.002514638104516605,0.002255182756207538,0.002350813646030651,2.49153995513916,2019-06-24 14:10:05:041,0.0,0.0,0.0
0.011798931285738945,-0.05130751058459282,9.826285362243652,-0.0022482569769273807,0.0006568959256536091,-0.002577237474444329,2.4965014457702637,2019-06-24 14:10:05:046,0.0,0.0,0.0
-0.014543314464390278,0.01095598004758358,9.826285362243652,-0.002514638104516605,0.0023883733200021503,0.0015516701332258143,2.5014853477478027,2019-06-24 14:10:05:051,0.0,0.0,0.0
0.033351678401231766,0.01814022846519947,9.814311981201172,-0.003047400359695054,0.0029211355751805994,0.00461505323053906,2.5065054893493652,2019-06-24 14:10:05:056,0.0,0.0,0.0
0.030956929549574852,-0.0010177686344832182,9.773600578308105,-0.000383588856237774,-0.0016073438539105438,-0.0036427622448755525,2.511488914489746,2019-06-24 14:10:05:061,0.0,0.0,0.0
0.0022199328523129225,-0.022570515051484108,9.787969589233398,0.004677653120615434,0.0014560393734398642,-0.0009789507089089816,2.516505241394043,2019-06-24 14:10:05:066,0.0,0.0,0.0
0.011798931285738945,-0.03214951604604721,9.80952262878418,-0.0009163511439255139,0.0019888016286183133,-0.001112141272703594,2.5215978622436523,2019-06-24 14:10:05:071,0.0,0.0,0.0
0.0046146828681230545,0.013350729830563068,9.747259140014648,-0.0021150662830956056,-0.001340962726321319,0.003416338156387549,2.52657413482666,2019-06-24 14:10:05:076,0.0,0.0,0.0
-0.012148565612733364,0.020534979179501534,9.797548294067383,0.0020138414546117004,0.0043862320369956595,-0.0021776657830604924,2.531507968902588,2019-06-24 14:10:05:081,0.0,0.0,0.0
-0.009753815829753876,0.022929728031158447,9.799942970275879,-0.005178449640483176,0.0017224205010290888,0.0004861455903596255,2.53652286529541,2019-06-24 14:10:05:086,0.0,0.0,0.0
-0.016938064247369766,-0.020175766199827194,9.82149600982666,-0.004112924870051953,0.0009232770532428338,0.0007525267504581406,2.541497230529785,2019-06-24 14:10:05:091,0.0,0.0,0.0
-0.01933281496167183,-0.005807267967611551,9.778390884399414,0.0024134132760327,0.004519422340715947,0.0015516701332258143,2.546515464782715,2019-06-24 14:10:05:096,0.0,0.0,0.0
0.030956929549574852,-0.0034125184174627066,9.823890686035156,0.0009483168792362209,0.005984518802531007,-0.0017780940916766552,2.551504135131836,2019-06-24 14:10:05:101,0.0,0.0,0.0
-0.021727563813328743,-0.04651801288127899,9.814311981201172,-0.0014491134641225444,0.001056467617037446,-0.002976809165828166,2.5565218925476074,2019-06-24 14:10:05:106,0.0,0.0,0.0
0.018983181565999985,0.01095598004758358,9.807126998901367,1.5982868671268808e-05,0.002255182756207538,-0.0032431902934173906,2.5615272521972656,2019-06-24 14:10:05:111,0.0,0.0,0.0
-0.009753815829753876,0.003771730698645115,9.807126998901367,1.5982868671268808e-05,-0.0016073438539105438,-0.0008457601451143693,2.5666422843933105,2019-06-24 14:10:05:116,0.0,0.0,0.0
-0.02651706337928772,-0.048912763595581055,9.78078556060791,-0.0006499700163362892,-0.001740534417705156,-0.0013785224002928185,2.571518898010254,2019-06-24 14:10:05:121,0.0,0.0,0.0
-0.0025695664808154106,-0.020175766199827194,9.749653816223145,-0.0009163511439255139,0.003986660085537498,-0.0020444752192658802,2.5765175819396973,2019-06-24 14:10:05:126,0.0,0.0,0.0
0.026167429983615875,0.008561230264604092,9.768811225891113,0.0017474603270224759,-0.0005418192460257735,0.0022176230822360385,2.5814995765686035,2019-06-24 14:10:05:131,0.0,0.0,0.0
0.0046146828681230545,0.03729822486639023,9.802337646484375,-0.001315922900327932,-0.00014224753838729123,0.0014184795694312021,2.586503505706787,2019-06-24 14:10:05:136,0.0,0.0,0.0
0.03574642911553383,-0.015386266633868217,9.75204849243164,0.0010815074430308332,-0.0002754381184365489,0.00128528900563659,2.5915050506591797,2019-06-24 14:10:05:141,0.0,0.0,0.0
-0.0025695664808154106,0.0013769810320809484,9.761627197265625,0.0005487451878523839,-0.0012077721625267067,8.657387459382065e-05,2.596517562866211,2019-06-24 14:10:05:146,0.0,0.0,0.0
-0.016938064247369766,-0.0010177686344832182,9.761627197265625,-0.0006499700163362892,-0.0021401061090889927,-0.0023108563468551046,2.601494789123535,2019-06-24 14:10:05:151,0.0,0.0,0.0
0.016588430851697922,0.02532447874546051,9.749653816223145,0.0017474603270224759,0.0006568959256536091,-0.0023108563468551046,2.6065120697021484,2019-06-24 14:10:05:156,0.0,0.0,0.0
-0.016938064247369766,0.0013769810320809484,9.835864067077637,-0.0014491134641225444,0.004253041213126723,0.0002197644465157556,2.6116514205932617,2019-06-24 14:10:05:161,0.0,0.0,0.0
0.018983181565999985,-0.022570515051484108,9.881364822387695,-0.0009163511439255139,0.002255182756207538,-0.0023108563468551046,2.6165084838867188,2019-06-24 14:10:05:166,0.0,0.0,0.0
0.007009432185441256,0.015745479613542557,9.845443725585938,0.0028129849674165368,0.003986660085537498,0.000885717314252753,2.621509552001953,2019-06-24 14:10:05:171,0.0,0.0,0.0
-0.0073590655811131,-0.022570515051484108,9.785574913024902,0.0006819357516469962,0.0001241336135839013,0.0007525267504581406,2.6265172958374023,2019-06-24 14:10:05:176,0.0,0.0,0.0
-0.0001748167269397527,0.034903477877378464,9.80952262878418,0.002679794403621924,0.0001241336135839013,0.0007525267504581406,2.6314945220947266,2019-06-24 14:10:05:181,0.0,0.0,0.0
0.0022199328523129225,0.020534979179501534,9.768811225891113,0.0020138414546117004,-0.0004086286822311611,-0.0012453318364982061,2.636734962463379,2019-06-24 14:10:05:186,0.0,0.0,0.0
-0.03130656108260155,0.01814022846519947,9.859811782836914,0.0012146980718440268,0.002121992192412926,0.0026171947736198754,2.641510009765625,2019-06-24 14:10:05:191,0.0,0.0,0.0
-0.024122314527630806,0.02532447874546051,9.80952262878418,-0.001715494591711769,-0.0006750098423296765,-0.002577237474444329,2.6465234756469727,2019-06-24 14:10:05:196,0.0,0.0,0.0
-0.0073590655811131,-0.027360014617443085,9.826285362243652,-0.0019818757193009935,-0.0009413909699189009,0.0035495287201821614,2.6515440940856934,2019-06-24 14:10:05:201,0.0,0.0,0.0
-0.004964316263794899,-0.0034125184174627066,9.82149600982666,0.0020138414546117004,0.001056467617037446,-0.00044618842122124184,2.6566057205200195,2019-06-24 14:10:05:206,0.0,0.0,0.0
-0.0073590655811131,0.015745479613542557,9.79275894165039,0.0001491734477046111,-0.00014224753838729123,-0.0013785224002928185,2.6615047454833984,2019-06-24 14:10:05:211,0.0,0.0,0.0
-0.0001748167269397527,-0.015386266633868217,9.83346939086914,-0.0005167794200323863,0.0014560393734398642,0.0015516701332258143,2.6665186882019043,2019-06-24 14:10:05:216,0.0,0.0,0.0
-0.024122314527630806,-0.020175766199827194,9.802337646484375,0.0008151263154416085,0.001056467617037446,-0.00044618842122124184,2.6714954376220703,2019-06-24 14:10:05:221,0.0,0.0,0.0
-0.03130656108260155,-0.0034125184174627066,9.82149600982666,0.004544462296746496,-0.0018737249814997682,-0.0013785224002928185,2.676511764526367,2019-06-24 14:10:05:226,0.0,0.0,0.0
0.009404182434082031,0.015745479613542557,9.754443168640137,0.0010815074430308332,0.001855611064823701,-0.0007125695813197571,2.6814966201782227,2019-06-24 14:10:05:231,0.0,0.0,0.0
0.02377268113195896,0.020534979179501534,9.831074714660645,-0.0011827323365333196,-0.0020069155452943806,-0.0024440469106497167,2.6865181922912598,2019-06-24 14:10:05:236,0.0,0.0,0.0
0.03814117982983589,-0.008202017284929752,9.775995254516602,0.0006819357516469962,-0.004803917645055564,0.0019512418246096514,2.6914968490600586,2019-06-24 14:10:05:241,0.0,0.0,0.0
0.05011492595076561,0.013350729830563068,9.783180236816406,0.0032125566588003737,-0.005869442155412462,0.0031499570287983245,2.696625232696533,2019-06-24 14:10:05:246,0.0,0.0,0.0
-0.01933281496167183,-0.008202017284929752,9.811917304992676,0.0020138414546117004,0.0026547544475913746,-0.0032431902934173906,2.7015275955200195,2019-06-24 14:10:05:251,0.0,0.0,0.0
0.02856217883527279,0.006166480481624603,9.77120590209961,0.002679794403621924,0.0029211355751805994,-0.0021776657830604924,2.7065038681030273,2019-06-24 14:10:05:256,0.0,0.0,0.0
0.05250967666506767,-0.005807267967611551,9.802337646484375,-0.001715494591711769,0.0014560393734398642,0.0002197644465157556,2.7114944458007812,2019-06-24 14:10:05:261,0.0,0.0,0.0
0.011798931285738945,-0.05370226129889488,9.82149600982666,0.002946175531211149,0.002121992192412926,0.0004861455903596255,2.71651554107666,2019-06-24 14:10:05:266,0.0,0.0,0.0
-0.0001748167269397527,-0.03214951604604721,9.797548294067383,0.002679794403621924,-0.0006750098423296765,-0.0015117129640874309,2.721503734588623,2019-06-24 14:10:05:271,0.0,0.0,0.0
-0.0001748167269397527,0.0013769810320809484,9.754443168640137,-0.002381447540721993,-0.0024064872366782175,-0.00017980727737737192,2.7265262603759766,2019-06-24 14:10:05:276,0.0,0.0,0.0
0.03574642911553383,-0.01778101734817028,9.802337646484375,-0.002647828668311217,0.0006568959256536091,-0.0013785224002928185,2.731494903564453,2019-06-24 14:10:05:281,0.0,0.0,0.0
0.05011492595076561,-0.008202017284929752,9.787969589233398,0.003079366095005761,0.00039051476555509394,-0.0007125695813197571,2.736517906188965,2019-06-24 14:10:05:286,0.0,0.0,0.0
0.018983181565999985,0.022929728031158447,9.814311981201172,-0.0014491134641225444,-0.0025396778004728297,-4.661670139177563e-05,2.741593360900879,2019-06-24 14:10:05:291,0.0,0.0,0.0
0.026167429983615875,0.020534979179501534,9.83346939086914,-0.0015823040279171567,0.0001241336135839013,0.0018180512608150393,2.7465219497680664,2019-06-24 14:10:05:296,0.0,0.0,0.0
0.026167429983615875,-0.012991516850888729,9.790364265441895,-0.0011827323365333196,0.001855611064823701,0.0028835759012090997,2.7514877319335938,2019-06-24 14:10:05:301,0.0,0.0,0.0
0.03574642911553383,-0.0010177686344832182,9.747259140014648,-0.00025039827618851643,0.00039051476555509394,8.657387459382065e-05,2.7565174102783203,2019-06-24 14:10:05:306,0.0,0.0,0.0
0.0022199328523129225,-0.005807267967611551,9.80952262878418,-0.0011827323365333196,-0.0002754381184365489,0.0006193361866635284,2.761503219604492,2019-06-24 14:10:05:311,0.0,0.0,0.0
0.016588430851697922,-0.0034125184174627066,9.797548294067383,-0.00278101923210583,-0.0010745815337135133,-0.0017780940916766552,2.766496181488037,2019-06-24 14:10:05:316,0.0,0.0,0.0
-0.0073590655811131,-0.020175766199827194,9.79275894165039,-0.0005167794200323863,-0.0009413909699189009,-0.0013785224002928185,2.771489143371582,2019-06-24 14:10:05:321,0.0,0.0,0.0
0.02377268113195896,0.01814022846519947,9.77120590209961,-0.0037133531786681154,-0.0004086286822311611,-0.0015117129640874309,2.776515007019043,2019-06-24 14:10:05:326,0.0,0.0,0.0
0.0213779304176569,0.006166480481624603,9.761627197265625,-0.0019818757193009935,0.0029211355751805994,0.0011520984418419776,2.781496524810791,2019-06-24 14:10:05:331,0.0,0.0,0.0
0.033351678401231766,-0.022570515051484108,9.766416549682617,-0.0014491134641225444,-0.00014224753838729123,-0.0015117129640874309,2.786900043487549,2019-06-24 14:10:05:336,0.0,0.0,0.0
0.03574642911553383,-0.01059676706790924,9.761627197265625,0.0021470320184063126,0.0026547544475913746,-0.006173383217047511,2.796450138092041,2019-06-24 14:10:05:346,0.0,0.0,0.0
0.05011492595076561,-0.0034125184174627066,9.75204849243164,0.0014810791994332513,-0.0005418192460257735,0.0002197644465157556,2.801508903503418,2019-06-24 14:10:05:351,0.0,0.0,0.0
-0.004964316263794899,0.022929728031158447,9.799942970275879,1.5982868671268808e-05,0.0005237053293497061,0.0026171947736198754,2.806502342224121,2019-06-24 14:10:05:356,0.0,0.0,0.0
0.007009432185441256,0.008561230264604092,9.766416549682617,-0.00025039827618851643,0.00039051476555509394,-0.0013785224002928185,2.8114967346191406,2019-06-24 14:10:05:361,0.0,0.0,0.0
0.007009432185441256,-0.0010177686344832182,9.83346939086914,0.0002823640277538687,-0.0028060589280620545,-0.0028436186020335537,2.8165225982666016,2019-06-24 14:10:05:366,0.0,0.0,0.0
-0.009753815829753876,-0.008202017284929752,9.73049545288086,0.0009483168792362209,-0.005336679900234013,-0.005640620961869062,2.821504592895508,2019-06-24 14:10:05:371,0.0,0.0,0.0
0.03574642911553383,-0.005807267967611551,9.790364265441895,-0.0007831605801309015,0.0031875167027698237,-0.00044618842122124184,2.826533317565918,2019-06-24 14:10:05:376,0.0,0.0,0.0
0.02377268113195896,0.04687722399830818,9.77120590209961,-0.001848685155506381,-0.0012077721625267067,0.0016848606970204267,2.831644058227539,2019-06-24 14:10:05:381,0.0,0.0,0.0
0.009404182434082031,0.01814022846519947,9.797548294067383,-0.002381447540721993,0.002121992192412926,-0.0007125695813197571,2.8365049362182617,2019-06-24 14:10:05:386,0.0,0.0,0.0
-0.016938064247369766,-0.0393337644636631,9.78078556060791,-0.0014491134641225444,0.0001241336135839013,-0.00044618842122124184,2.841496467590332,2019-06-24 14:10:05:391,0.0,0.0,0.0
0.014193681068718433,0.015745479613542557,9.838258743286133,-0.0054448307680724,-0.0012077721625267067,-0.0028436186020335537,2.8465118408203125,2019-06-24 14:10:05:396,0.0,0.0,0.0
0.007009432185441256,0.015745479613542557,9.699363708496094,-0.00025039827618851643,-0.001340962726321319,0.0028835759012090997,2.8514890670776367,2019-06-24 14:10:05:401,0.0,0.0,0.0
0.0046146828681230545,-0.022570515051484108,9.795153617858887,-0.00025039827618851643,0.0025215638837967624,-0.0005793790175251447,2.856497287750244,2019-06-24 14:10:05:406,0.0,0.0,0.0
0.0213779304176569,-0.005807267967611551,9.881364822387695,-0.00011720770426658147,0.0007900864894482214,-0.0013785224002928185,2.861496925354004,2019-06-24 14:10:05:411,0.0,0.0,0.0
0.0213779304176569,0.034903477877378464,9.795153617858887,-0.0010495417077201262,-0.0012077721625267067,0.0019512418246096514,2.866511344909668,2019-06-24 14:10:05:416,0.0,0.0,0.0
0.016588430851697922,-0.01059676706790924,9.895732879638672,-0.0005167794200323863,0.0031875167027698237,-4.661670139177563e-05,2.8714799880981445,2019-06-24 14:10:05:421,0.0,0.0,0.0
0.007009432185441256,-0.01778101734817028,9.826285362243652,0.0010815074430308332,-0.0022732966728836053,0.0015516701332258143,2.875040054321289,2019-06-24 14:10:05:424,0.0,0.0,0.0
-0.0001748167269397527,-0.008202017284929752,9.828680038452148,0.0012146980718440268,0.0009232770532428338,0.003815909847771386,2.8808860778808594,2019-06-24 14:10:05:430,0.0,0.0,0.0
0.007009432185441256,0.02532447874546051,9.86220645904541,-0.002514638104516605,0.0001241336135839013,-0.002976809165828166,2.8850059509277344,2019-06-24 14:10:05:434,0.0,0.0,0.0
-0.0001748167269397527,0.015745479613542557,9.783180236816406,-0.001315922900327932,-0.0009413909699189009,-0.001112141272703594,2.890005111694336,2019-06-24 14:10:05:439,0.0,0.0,0.0
-0.0073590655811131,-0.0034125184174627066,9.795153617858887,-0.0005167794200323863,0.00039051476555509394,8.657387459382065e-05,2.8950090408325195,2019-06-24 14:10:05:444,0.0,0.0,0.0
0.0022199328523129225,0.0013769810320809484,9.761627197265625,-0.00278101923210583,0.0027879450113859868,-0.0009789507089089816,2.900874137878418,2019-06-24 14:10:05:450,0.0,0.0,0.0
0.016588430851697922,0.0013769810320809484,9.749653816223145,0.0005487451878523839,0.0030543261389752115,0.0011520984418419776,2.905035972595215,2019-06-24 14:10:05:454,0.0,0.0,0.0
0.05011492595076561,0.01814022846519947,9.787969589233398,0.001880650890817088,0.005185375419763333,0.0002197644465157556,2.910888671875,2019-06-24 14:10:05:460,0.0,0.0,0.0
-0.0073590655811131,0.0325087271630764,9.759232521057129,-0.0014491134641225444,-9.05695935394897e-06,0.0016848606970204267,2.9150452613830566,2019-06-24 14:10:05:464,0.0,0.0,0.0
-0.0073590655811131,0.013350729830563068,9.756837844848633,-0.004112924870051953,0.0005237053293497061,-4.661670139177563e-05,2.920032024383545,2019-06-24 14:10:05:469,0.0,0.0,0.0
0.016588430851697922,0.0013769810320809484,9.799942970275879,-0.003047400359695054,0.0013228488096452518,0.00128528900563659,2.9250097274780273,2019-06-24 14:10:05:474,0.0,0.0,0.0
0.007009432185441256,-0.012991516850888729,9.888548851013184,-0.000383588856237774,-0.0028060589280620545,0.0024840042098252632,2.9300012588500977,2019-06-24 14:10:05:479,0.0,0.0,0.0
-0.02651706337928772,0.030113978311419487,9.797548294067383,0.0005487451878523839,0.001056467617037446,0.0014184795694312021,2.9358949661254883,2019-06-24 14:10:05:485,0.0,0.0,0.0
0.026167429983615875,-0.01059676706790924,9.775995254516602,-0.003979734306257341,-0.0005418192460257735,-0.0021776657830604924,2.9400062561035156,2019-06-24 14:10:05:489,0.0,0.0,0.0
0.018983181565999985,-0.0393337644636631,9.785574913024902,0.0010815074430308332,-0.001340962726321319,0.005547387437175671,2.945010185241699,2019-06-24 14:10:05:494,0.0,0.0,0.0
-0.009753815829753876,-0.020175766199827194,9.744863510131836,0.002546603839827312,0.0029211355751805994,-0.0007125695813197571,2.9499969482421875,2019-06-24 14:10:05:499,0.0,0.0,0.0
0.0046146828681230545,-0.008202017284929752,9.795153617858887,-0.0007831605801309015,-9.05695935394897e-06,0.000885717314252753,2.955904006958008,2019-06-24 14:10:05:505,0.0,0.0,0.0
0.011798931285738945,-0.03693901374936104,9.773600578308105,0.0005487451878523839,0.0013228488096452518,0.003283147592592937,2.9600229263305664,2019-06-24 14:10:05:509,0.0,0.0,0.0
0.011798931285738945,-0.015386266633868217,9.725706100463867,-0.001315922900327932,0.003587088394153661,0.004748244054407998,2.9658961296081543,2019-06-24 14:10:05:515,0.0,0.0,0.0
-0.03370131179690361,-0.012991516850888729,9.732890129089355,-0.003446972051078891,-0.0025396778004728297,0.000885717314252753,2.9699954986572266,2019-06-24 14:10:05:519,0.0,0.0,0.0
0.014193681068718433,0.01814022846519947,9.811917304992676,-0.0015823040279171567,-0.0014741532901159315,-0.0012453318364982061,2.975895881652832,2019-06-24 14:10:05:525,0.0,0.0,0.0
0.0022199328523129225,0.01814022846519947,9.795153617858887,-0.004246115433846565,0.0031875167027698237,-0.0019112846554712676,2.9800033569335938,2019-06-24 14:10:05:529,0.0,0.0,0.0
-0.014543314464390278,-0.008202017284929752,9.811917304992676,-0.00025039827618851643,0.00025732418550583624,-0.00350957168108094,2.9850101470947266,2019-06-24 14:10:05:534,0.0,0.0,0.0
-0.0025695664808154106,-0.0034125184174627066,9.773600578308105,-0.0010495417077201262,-0.0008082004061242886,-0.0015117129640874309,2.990877628326416,2019-06-24 14:10:05:540,0.0,0.0,0.0
0.011798931285738945,-0.048912763595581055,9.74246883392334,-0.00011720770426658147,0.005185375419763333,-0.00017980727737737192,2.9950356483459473,2019-06-24 14:10:05:544,0.0,0.0,0.0
0.014193681068718433,0.013350729830563068,9.804732322692871,0.0002823640277538687,-0.0006750098423296765,0.002084432388404264,3.000886917114258,2019-06-24 14:10:05:550,0.0,0.0,0.0
0.033351678401231766,0.006166480481624603,9.838258743286133,-0.0009163511439255139,0.002255182756207538,-0.004441905627643227,3.0059309005737305,2019-06-24 14:10:05:555,0.0,0.0,0.0
0.018983181565999985,0.0013769810320809484,9.814311981201172,-0.003047400359695054,-0.0016073438539105438,0.000885717314252753,3.010039806365967,2019-06-24 14:10:05:559,0.0,0.0,0.0
0.009404182434082031,-0.027360014617443085,9.78078556060791,0.002946175531211149,-0.0002754381184365489,0.0007525267504581406,3.015036106109619,2019-06-24 14:10:05:564,0.0,0.0,0.0
-0.050464559346437454,0.013350729830563068,9.790364265441895,0.0032125566588003737,0.0013228488096452518,0.0027503853374144876,3.0208873748779297,2019-06-24 14:10:05:570,0.0,0.0,0.0
0.0213779304176569,0.030113978311419487,9.811917304992676,-0.0011827323365333196,-0.003205630619445891,-0.003109999729622778,3.0250048637390137,2019-06-24 14:10:05:574,0.0,0.0,0.0
0.014193681068718433,0.01095598004758358,9.831074714660645,0.0001491734477046111,-0.0006750098423296765,-0.002710428038238941,3.0308899879455566,2019-06-24 14:10:05:580,0.0,0.0,0.0
-0.014543314464390278,0.030113978311419487,9.823890686035156,0.001880650890817088,0.0011896582458506397,0.0006193361866635284,3.035005569458008,2019-06-24 14:10:05:584,0.0,0.0,0.0
0.030956929549574852,-0.015386266633868217,9.775995254516602,-0.0022482569769273807,-0.0002754381184365489,-0.0012453318364982061,3.0408802032470703,2019-06-24 14:10:05:590,0.0,0.0,0.0
-0.004964316263794899,-0.012991516850888729,9.811917304992676,-0.0037133531786681154,0.001056467617037446,-0.0032431902934173906,3.045034408569336,2019-06-24 14:10:05:594,0.0,0.0,0.0
-0.0073590655811131,-0.012991516850888729,9.790364265441895,0.0009483168792362209,0.00039051476555509394,-0.00350957168108094,3.0500364303588867,2019-06-24 14:10:05:599,0.0,0.0,0.0
0.016588430851697922,0.0013769810320809484,9.80952262878418,-0.0005167794200323863,0.0019888016286183133,0.0018180512608150393,3.0559206008911133,2019-06-24 14:10:05:605,0.0,0.0,0.0
0.04532542824745178,-0.02496526576578617,9.764021873474121,-0.00025039827618851643,0.0029211355751805994,-0.0020444752192658802,3.060014247894287,2019-06-24 14:10:05:609,0.0,0.0,0.0
0.018983181565999985,0.0013769810320809484,9.711337089538574,0.002546603839827312,0.0014560393734398642,-0.0024440469106497167,3.0650124549865723,2019-06-24 14:10:05:614,0.0,0.0,0.0
0.0022199328523129225,-0.005807267967611551,9.783180236816406,-0.004912068512893952,0.0017224205010290888,-0.0012453318364982061,3.069998264312744,2019-06-24 14:10:05:619,0.0,0.0,0.0
-0.012148565612733364,0.022929728031158447,9.71373176574707,-0.0021150662830956056,-0.0002754381184365489,-0.001644903527882043,3.075895309448242,2019-06-24 14:10:05:625,0.0,0.0,0.0
0.030956929549574852,-0.0010177686344832182,9.80952262878418,0.0001491734477046111,-0.0006750098423296765,0.003949100411565999,3.0800065994262695,2019-06-24 14:10:05:629,0.0,0.0,0.0
0.040535926818847656,-0.008202017284929752,9.773600578308105,-0.00025039827618851643,-0.0018737249814997682,-0.005374239314131187,3.085010528564453,2019-06-24 14:10:05:634,0.0,0.0,0.0
-0.01933281496167183,-0.015386266633868217,9.749653816223145,-0.0021150662830956056,0.0027879450113859868,0.0002197644465157556,3.0902910232543945,2019-06-24 14:10:05:639,0.0,0.0,0.0
0.0022199328523129225,0.020534979179501534,9.787969589233398,0.0034789377863895985,-0.001340962726321319,-0.001112141272703594,3.095909595489502,2019-06-24 14:10:05:645,0.0,0.0,0.0
0.011798931285738945,0.022929728031158447,9.744863510131836,-0.002647828668311217,-0.005070298772644788,0.0015516701332258143,3.100019931793213,2019-06-24 14:10:05:649,0.0,0.0,0.0
-0.01933281496167183,-0.0010177686344832182,9.811917304992676,-0.003446972051078891,-0.0020069155452943806,-0.00350957168108094,3.1059045791625977,2019-06-24 14:10:05:655,0.0,0.0,0.0
0.026167429983615875,-0.027360014617443085,9.802337646484375,-0.0006499700163362892,0.0023883733200021503,-0.001112141272703594,3.109996795654297,2019-06-24 14:10:05:659,0.0,0.0,0.0
-0.01933281496167183,0.01095598004758358,9.847838401794434,-0.0005167794200323863,0.0031875167027698237,-0.004441905627643227,3.1150078773498535,2019-06-24 14:10:05:664,0.0,0.0,0.0
0.03574642911553383,-0.012991516850888729,9.764021873474121,-0.002514638104516605,0.0029211355751805994,-0.004308715063848614,3.1208910942077637,2019-06-24 14:10:05:670,0.0,0.0,0.0
-0.009753815829753876,-0.0034125184174627066,9.802337646484375,-0.0021150662830956056,-0.0020069155452943806,-4.661670139177563e-05,3.1250076293945312,2019-06-24 14:10:05:674,0.0,0.0,0.0
0.0022199328523129225,0.0013769810320809484,9.843049049377441,-0.004778877689025014,-0.0014741532901159315,-0.00044618842122124184,3.1300082206726074,2019-06-24 14:10:05:679,0.0,0.0,0.0
0.011798931285738945,0.003771730698645115,9.811917304992676,-0.0006499700163362892,0.0019888016286183133,-0.00044618842122124184,3.1359481811523438,2019-06-24 14:10:05:685,0.0,0.0,0.0
0.03574642911553383,-0.01059676706790924,9.835864067077637,-0.0033137814872842794,0.0009232770532428338,0.0004861455903596255,3.140012264251709,2019-06-24 14:10:05:689,0.0,0.0,0.0
0.040535926818847656,-0.01059676706790924,9.785574913024902,-0.0033137814872842794,0.002121992192412926,0.00128528900563659,3.145914077758789,2019-06-24 14:10:05:695,0.0,0.0,0.0
0.04293067753314972,-0.0010177686344832182,9.759232521057129,0.0022802227122380877,0.0025215638837967624,-0.001112141272703594,3.149998188018799,2019-06-24 14:10:05:699,0.0,0.0,0.0
-0.009753815829753876,-0.005807267967611551,9.80952262878418,0.0034789377863895985,0.00025732418550583624,0.0027503853374144876,3.15500545501709,2019-06-24 14:10:05:704,0.0,0.0,0.0
0.009404182434082031,0.01095598004758358,9.828680038452148,0.0002823640277538687,-0.0006750098423296765,0.0048814343581282844,3.1608896255493164,2019-06-24 14:10:05:710,0.0,0.0,0.0
0.04293067753314972,-0.0034125184174627066,9.778390884399414,-0.00011720770426658147,0.0023883733200021503,-0.0009789507089089816,3.1650094985961914,2019-06-24 14:10:05:714,0.0,0.0,0.0
-0.01933281496167183,0.008561230264604092,9.795153617858887,0.003345747222594986,0.0009232770532428338,-0.0028436186020335537,3.169996738433838,2019-06-24 14:10:05:719,0.0,0.0,0.0
-0.0025695664808154106,-0.027360014617443085,9.778390884399414,-0.0014491134641225444,-9.05695935394897e-06,0.004215481539155223,3.1750435829162598,2019-06-24 14:10:05:724,0.0,0.0,0.0
0.0022199328523129225,0.01095598004758358,9.787969589233398,0.0016142697632278635,0.0013228488096452518,0.0030167664650037123,3.1808900833129883,2019-06-24 14:10:05:730,0.0,0.0,0.0
-0.0001748167269397527,-0.012991516850888729,9.785574913024902,0.0016142697632278635,-0.0005418192460257735,-0.00017980727737737192,3.1859312057495117,2019-06-24 14:10:05:735,0.0,0.0,0.0
0.0022199328523129225,0.0013769810320809484,9.799942970275879,-0.0007831605801309015,-0.003205630619445891,-0.0020444752192658802,3.190032958984375,2019-06-24 14:10:05:739,0.0,0.0,0.0
-0.004964316263794899,-0.029754765331745148,9.807126998901367,0.0036121283501842102,0.00039051476555509394,-0.0008457601451143693,3.1950106620788574,2019-06-24 14:10:05:744,0.0,0.0,0.0
0.026167429983615875,0.008561230264604092,9.775995254516602,-0.002514638104516605,-0.0002754381184365489,-0.003376381117286328,3.199997901916504,2019-06-24 14:10:05:749,0.0,0.0,0.0
-0.009753815829753876,0.006166480481624603,9.857417106628418,0.004011700041568048,0.0027879450113859868,0.0015516701332258143,3.2050085067749023,2019-06-24 14:10:05:754,0.0,0.0,0.0
0.018983181565999985,0.04448247700929642,9.819101333618164,-0.0009163511439255139,0.0025215638837967624,0.003949100411565999,3.2108874320983887,2019-06-24 14:10:05:760,0.0,0.0,0.0
0.0046146828681230545,0.01095598004758358,9.843049049377441,-0.004379306257715503,0.0031875167027698237,0.003283147592592937,3.215010643005371,2019-06-24 14:10:05:764,0.0,0.0,0.0
0.007009432185441256,-0.01059676706790924,9.732890129089355,0.0010815074430308332,0.001056467617037446,0.0030167664650037123,3.2199959754943848,2019-06-24 14:10:05:769,0.0,0.0,0.0
-0.028911812230944633,-0.015386266633868217,9.80952262878418,0.0034789377863895985,-0.006402204410590911,0.0019512418246096514,3.2250356674194336,2019-06-24 14:10:05:774,0.0,0.0,0.0
-0.014543314464390278,0.0013769810320809484,9.852627754211426,0.002946175531211149,-0.003072440055651279,-0.0017780940916766552,3.231163501739502,2019-06-24 14:10:05:780,0.0,0.0,0.0
0.02856217883527279,-0.034544263035058975,9.857417106628418,0.001880650890817088,-0.003072440055651279,-0.0032431902934173906,3.235030174255371,2019-06-24 14:10:05:784,0.0,0.0,0.0
0.014193681068718433,-0.01778101734817028,9.852627754211426,0.0036121283501842102,0.0009232770532428338,-0.0028436186020335537,3.2399988174438477,2019-06-24 14:10:05:789,0.0,0.0,0.0
0.011798931285738945,0.022929728031158447,9.811917304992676,0.00414489060536266,-0.0020069155452943806,-4.661670139177563e-05,3.2450060844421387,2019-06-24 14:10:05:794,0.0,0.0,0.0
-0.004964316263794899,0.006166480481624603,9.811917304992676,1.5982868671268808e-05,-0.001340962726321319,-0.004175524500054002,3.250880241394043,2019-06-24 14:10:05:800,0.0,0.0,0.0
-0.021727563813328743,0.020534979179501534,9.838258743286133,0.0012146980718440268,0.0026547544475913746,-0.0019112846554712676,3.2550039291381836,2019-06-24 14:10:05:804,0.0,0.0,0.0
0.0213779304176569,0.01095598004758358,9.764021873474121,-0.001848685155506381,-0.004004774002213565,-0.0009789507089089816,3.2608861923217773,2019-06-24 14:10:05:810,0.0,0.0,0.0
-0.02651706337928772,-0.015386266633868217,9.819101333618164,-0.0037133531786681154,-0.0005418192460257735,0.0014184795694312021,3.2650318145751953,2019-06-24 14:10:05:814,0.0,0.0,0.0
0.0213779304176569,-0.01778101734817028,9.840654373168945,0.0017474603270224759,-0.0005418192460257735,-0.008437622541481596,3.2709426879882812,2019-06-24 14:10:05:820,0.0,0.0,0.0
0.02377268113195896,-0.0010177686344832182,9.807126998901367,-0.0009163511439255139,0.0015892299372344764,0.0007525267504581406,3.2750582695007324,2019-06-24 14:10:05:824,0.0,0.0,0.0
