ACCELEROMETER X (m/s²),ACCELEROMETER Y (m/s²),ACCELEROMETER Z (m/s²),GYROSCOPE X (rad/s),GYROSCOPE Y (rad/s),GYROSCOPE Z (rad/s),Time since start in ms ,YYYY-MO-DD HH-MI-SS_SSS,MagX,MagY,MagZ
0.030956929549574852,-0.0010177686344832182,9.790364265441895,-0.002914209795900442,-0.005336679900234013,-0.004708286755232451,0.0,2019-06-24 14:08:08:904,0.0,0.0,0.0
0.011798931285738945,-0.008202017284929752,9.819101333618164,0.00041555459154848093,-0.004004774002213565,0.0011520984418419776,0.00589752197265625,2019-06-24 14:08:08:910,0.0,0.0,0.0
0.0022199328523129225,0.013350729830563068,9.816706657409668,0.0017474603270224759,0.00025732418550583624,-0.0032431902934173906,0.009999275207519531,2019-06-24 14:08:08:914,0.0,0.0,0.0
-0.012148565612733364,-0.005807267967611551,9.799942970275879,0.0017474603270224759,-0.0028060589280620545,0.005414196613306733,0.01505422592163086,2019-06-24 14:08:08:919,0.0,0.0,0.0
0.04293067753314972,0.013350729830563068,9.785574913024902,0.0021470320184063126,-0.00014224753838729123,-0.0015117129640874309,0.020008087158203125,2019-06-24 14:08:08:924,0.0,0.0,0.0
-0.021727563813328743,0.03969297558069229,9.744863510131836,0.0010815074430308332,-0.0028060589280620545,0.0010189078780473654,0.02591991424560547,2019-06-24 14:08:08:930,0.0,0.0,0.0
0.018983181565999985,0.01814022846519947,9.75204849243164,-0.0006499700163362892,0.0019888016286183133,0.0015516701332258143,0.030884265899658203,2019-06-24 14:08:08:935,0.0,0.0,0.0
0.011798931285738945,-0.0010177686344832182,9.828680038452148,-0.001715494591711769,0.0017224205010290888,-0.003909143372464777,0.03501129150390625,2019-06-24 14:08:08:939,0.0,0.0,0.0
-0.016938064247369766,-0.020175766199827194,9.876575469970703,-0.00278101923210583,-0.003605202310829728,0.0040822909753606106,0.04088783264160156,2019-06-24 14:08:08:945,0.0,0.0,0.0
-0.038490813225507736,-0.005807267967611551,9.831074714660645,0.0020138414546117004,-0.0014741532901159315,-0.002976809165828166,0.045042991638183594,2019-06-24 14:08:08:949,0.0,0.0,0.0
-0.004964316263794899,-0.005807267967611551,9.775995254516602,0.0006819357516469962,-9.05695935394897e-06,-0.0007125695813197571,0.05087757110595703,2019-06-24 14:08:08:955,0.0,0.0,0.0
0.016588430851697922,0.006166480481624603,9.787969589233398,-0.00025039827618851643,0.001056467617037446,0.0026171947736198754,0.055017948150634766,2019-06-24 14:08:08:959,0.0,0.0,0.0
0.02377268113195896,-0.0010177686344832182,9.773600578308105,-0.0005167794200323863,0.00039051476555509394,0.0003529550265650132,0.060894012451171875,2019-06-24 14:08:08:965,0.0,0.0,0.0
0.016588430851697922,-0.008202017284929752,9.79275894165039,-0.0005167794200323863,0.002255182756207538,0.0011520984418419776,0.06501340866088867,2019-06-24 14:08:08:969,0.0,0.0,0.0
0.014193681068718433,0.02532447874546051,9.80952262878418,0.0002823640277538687,0.002255182756207538,0.003682719283976774,0.07088279724121094,2019-06-24 14:08:08:975,0.0,0.0,0.0
0.016588430851697922,0.008561230264604092,9.785574913024902,0.00041555459154848093,0.0013228488096452518,0.00128528900563659,0.07500839233398438,2019-06-24 14:08:08:979,0.0,0.0,0.0
-0.03609606251120567,-0.03214951604604721,9.838258743286133,-0.0019818757193009935,-0.004803917645055564,-0.0017780940916766552,0.08095073699951172,2019-06-24 14:08:08:985,0.0,0.0,0.0
0.011798931285738945,0.020534979179501534,9.819101333618164,-0.0019818757193009935,-0.0010745815337135133,-0.0021776657830604924,0.0850229263305664,2019-06-24 14:08:08:989,0.0,0.0,0.0
-0.04567506164312363,-0.01059676706790924,9.787969589233398,0.0010815074430308332,0.0026547544475913746,-0.0009789507089089816,0.09088277816772461,2019-06-24 14:08:08:995,0.0,0.0,0.0
0.007009432185441256,0.01095598004758358,9.773600578308105,1.5982868671268808e-05,0.0009232770532428338,-0.00044618842122124184,0.09500741958618164,2019-06-24 14:08:08:999,0.0,0.0,0.0
-0.03609606251120567,-0.01059676706790924,9.811917304992676,0.004544462296746496,-0.0002754381184365489,0.0002197644465157556,0.1011190414428711,2019-06-24 14:08:09:005,0.0,0.0,0.0
-0.03370131179690361,-0.0010177686344832182,9.80952262878418,-0.000383588856237774,-0.003605202310829728,-0.002577237474444329,0.10502099990844727,2019-06-24 14:08:09:009,0.0,0.0,0.0
0.0213779304176569,0.0325087271630764,9.86220645904541,-0.0010495417077201262,-0.0009413909699189009,-0.0021776657830604924,0.1099996566772461,2019-06-24 14:08:09:014,0.0,0.0,0.0
0.009404182434082031,0.027719227597117424,9.787969589233398,-0.00011720770426658147,-0.00014224753838729123,-0.0023108563468551046,0.11589241027832031,2019-06-24 14:08:09:020,0.0,0.0,0.0
0.05250967666506767,-0.012991516850888729,9.831074714660645,-0.001848685155506381,-0.0002754381184365489,-0.0015117129640874309,0.12000083923339844,2019-06-24 14:08:09:024,0.0,0.0,0.0
-0.04567506164312363,-0.012991516850888729,9.785574913024902,0.001347888635638639,0.002255182756207538,0.000885717314252753,0.12598896026611328,2019-06-24 14:08:09:030,0.0,0.0,0.0
-0.0025695664808154106,0.015745479613542557,9.838258743286133,0.0005487451878523839,-0.0020069155452943806,0.0035495287201821614,0.1300048828125,2019-06-24 14:08:09:034,0.0,0.0,0.0
-0.043280310928821564,0.0325087271630764,9.807126998901367,-0.001848685155506381,0.001056467617037446,-4.661670139177563e-05,0.1358966827392578,2019-06-24 14:08:09:040,0.0,0.0,0.0
-0.012148565612733364,-0.008202017284929752,9.79275894165039,-0.0005167794200323863,0.0011896582458506397,-0.00017980727737737192,0.13999557495117188,2019-06-24 14:08:09:044,0.0,0.0,0.0
-0.02651706337928772,-0.01778101734817028,9.826285362243652,0.001347888635638639,-0.001340962726321319,-0.0009789507089089816,0.14592742919921875,2019-06-24 14:08:09:050,0.0,0.0,0.0
0.011798931285738945,-0.005807267967611551,9.795153617858887,-0.0019818757193009935,-0.0016073438539105438,0.003283147592592937,0.15000057220458984,2019-06-24 14:08:09:054,0.0,0.0,0.0
0.0046146828681230545,0.01095598004758358,9.783180236816406,0.003079366095005761,-0.0004086286822311611,0.0010189078780473654,0.15588855743408203,2019-06-24 14:08:09:060,0.0,0.0,0.0
-0.004964316263794899,0.01814022846519947,9.828680038452148,0.0028129849674165368,-0.004803917645055564,-0.0017780940916766552,0.160003662109375,2019-06-24 14:08:09:064,0.0,0.0,0.0
0.0046146828681230545,-0.005807267967611551,9.814311981201172,-0.0022482569769273807,-0.0016073438539105438,0.0030167664650037123,0.16589641571044922,2019-06-24 14:08:09:070,0.0,0.0,0.0
0.009404182434082031,-0.029754765331745148,9.802337646484375,0.002546603839827312,0.004918994292174109,-0.001112141272703594,0.17000675201416016,2019-06-24 14:08:09:074,0.0,0.0,0.0
0.009404182434082031,-0.01778101734817028,9.847838401794434,0.0009483168792362209,0.0001241336135839013,0.0028835759012090997,0.17501544952392578,2019-06-24 14:08:09:079,0.0,0.0,0.0
0.007009432185441256,0.027719227597117424,9.787969589233398,1.5982868671268808e-05,-9.05695935394897e-06,-4.661670139177563e-05,0.18088054656982422,2019-06-24 14:08:09:085,0.0,0.0,0.0
0.007009432185441256,-0.005807267967611551,9.787969589233398,-0.001315922900327932,0.0017224205010290888,0.005946958868485183,0.18500804901123047,2019-06-24 14:08:09:089,0.0,0.0,0.0
0.009404182434082031,-0.01059676706790924,9.838258743286133,0.0009483168792362209,0.0014560393734398642,-0.0007125695813197571,0.19089031219482422,2019-06-24 14:08:09:095,0.0,0.0,0.0
0.014193681068718433,0.015745479613542557,9.838258743286133,0.0009483168792362209,0.004652613164584885,0.00128528900563659,0.19591999053955078,2019-06-24 14:08:09:100,0.0,0.0,0.0
-0.02651706337928772,0.003771730698645115,9.900522232055664,0.0008151263154416085,-0.0008082004061242886,0.0024840042098252632,0.19999933242797852,2019-06-24 14:08:09:104,0.0,0.0,0.0
-0.009753815829753876,0.01095598004758358,9.79275894165039,0.0009483168792362209,0.0023883733200021503,-0.0005793790175251447,0.20589923858642578,2019-06-24 14:08:09:110,0.0,0.0,0.0
-0.028911812230944633,0.022929728031158447,9.778390884399414,-0.0022482569769273807,0.0013228488096452518,0.003283147592592937,0.21000003814697266,2019-06-24 14:08:09:114,0.0,0.0,0.0
-0.012148565612733364,0.013350729830563068,9.78078556060791,-0.0033137814872842794,0.00039051476555509394,-0.001644903527882043,0.21591711044311523,2019-06-24 14:08:09:120,0.0,0.0,0.0
0.02856217883527279,0.020534979179501534,9.826285362243652,-0.0014491134641225444,-0.0022732966728836053,-0.0009789507089089816,0.2199997901916504,2019-06-24 14:08:09:124,0.0,0.0,0.0
-0.016938064247369766,-0.03214951604604721,9.826285362243652,0.0017474603270224759,-0.0009413909699189009,-0.0005793790175251447,0.2258920669555664,2019-06-24 14:08:09:130,0.0,0.0,0.0
0.007009432185441256,0.006166480481624603,9.797548294067383,0.0005487451878523839,-0.0012077721625267067,0.003416338156387549,0.22999954223632812,2019-06-24 14:08:09:134,0.0,0.0,0.0
-0.004964316263794899,-0.027360014617443085,9.814311981201172,0.001880650890817088,-0.0020069155452943806,0.006479721123663631,0.23591327667236328,2019-06-24 14:08:09:140,0.0,0.0,0.0
-0.0001748167269397527,0.030113978311419487,9.804732322692871,0.0012146980718440268,-0.00014224753838729123,-0.0032431902934173906,0.2400341033935547,2019-06-24 14:08:09:144,0.0,0.0,0.0
-0.028911812230944633,-0.03693901374936104,9.811917304992676,-0.0005167794200323863,-0.0009413909699189009,-0.00044618842122124184,0.24592113494873047,2019-06-24 14:08:09:150,0.0,0.0,0.0
-0.03130656108260155,-0.005807267967611551,9.835864067077637,0.0005487451878523839,0.0001241336135839013,0.00128528900563659,0.24999666213989258,2019-06-24 14:08:09:154,0.0,0.0,0.0
0.009404182434082031,0.003771730698645115,9.823890686035156,0.0024134132760327,0.0030543261389752115,0.000885717314252753,0.25500965118408203,2019-06-24 14:08:09:159,0.0,0.0,0.0
0.0046146828681230545,0.013350729830563068,9.78078556060791,-0.0006499700163362892,0.0009232770532428338,0.0010189078780473654,0.26091432571411133,2019-06-24 14:08:09:165,0.0,0.0,0.0
-0.014543314464390278,0.01814022846519947,9.859811782836914,0.003079366095005761,-0.0029392494918566666,-0.0005793790175251447,0.26500797271728516,2019-06-24 14:08:09:169,0.0,0.0,0.0
-0.021727563813328743,-0.03214951604604721,9.790364265441895,0.001347888635638639,-0.0028060589280620545,-0.004308715063848614,0.27088117599487305,2019-06-24 14:08:09:175,0.0,0.0,0.0
-0.01933281496167183,-0.01778101734817028,9.838258743286133,-0.002381447540721993,0.0030543261389752115,-0.003775952808670165,0.27500438690185547,2019-06-24 14:08:09:179,0.0,0.0,0.0
0.026167429983615875,-0.0034125184174627066,9.826285362243652,0.0034789377863895985,0.0017224205010290888,-0.0017780940916766552,0.28090667724609375,2019-06-24 14:08:09:185,0.0,0.0,0.0
0.0046146828681230545,0.003771730698645115,9.787969589233398,0.001880650890817088,0.0027879450113859868,0.0014184795694312021,0.28591394424438477,2019-06-24 14:08:09:190,0.0,0.0,0.0
-0.024122314527630806,-0.027360014617443085,9.828680038452148,0.0005487451878523839,0.0011896582458506397,0.003815909847771386,0.28999996185302734,2019-06-24 14:08:09:194,0.0,0.0,0.0
-0.01933281496167183,-0.005807267967611551,9.82149600982666,0.0021470320184063126,0.0006568959256536091,-0.0021776657830604924,0.29589176177978516,2019-06-24 14:08:09:200,0.0,0.0,0.0
-0.0025695664808154106,-0.005807267967611551,9.747259140014648,0.003079366095005761,0.0030543261389752115,0.00461505323053906,0.30002498626708984,2019-06-24 14:08:09:204,0.0,0.0,0.0
0.011798931285738945,0.013350729830563068,9.725706100463867,-0.0033137814872842794,-0.0002754381184365489,0.0011520984418419776,0.3059215545654297,2019-06-24 14:08:09:210,0.0,0.0,0.0
0.03574642911553383,0.01095598004758358,9.783180236816406,0.003345747222594986,-0.0024064872366782175,0.0024840042098252632,0.30999088287353516,2019-06-24 14:08:09:214,0.0,0.0,0.0
0.0213779304176569,0.008561230264604092,9.814311981201172,-0.001315922900327932,-0.0018737249814997682,-0.0015117129640874309,0.31589794158935547,2019-06-24 14:08:09:220,0.0,0.0,0.0
-0.02651706337928772,0.034903477877378464,9.816706657409668,-0.0006499700163362892,0.001855611064823701,-0.0020444752192658802,0.32000160217285156,2019-06-24 14:08:09:224,0.0,0.0,0.0
-0.043280310928821564,0.027719227597117424,9.838258743286133,0.0001491734477046111,0.0023883733200021503,0.0011520984418419776,0.32590484619140625,2019-06-24 14:08:09:230,0.0,0.0,0.0
0.0046146828681230545,-0.027360014617443085,9.835864067077637,0.0024134132760327,-0.0024064872366782175,8.657387459382065e-05,0.3300032615661621,2019-06-24 14:08:09:234,0.0,0.0,0.0
-0.02651706337928772,0.0013769810320809484,9.787969589233398,-0.000383588856237774,-0.0004086286822311611,-0.004708286755232451,0.3358922004699707,2019-06-24 14:08:09:240,0.0,0.0,0.0
-0.012148565612733364,0.003771730698645115,9.773600578308105,-0.00025039827618851643,-0.0018737249814997682,0.0019512418246096514,0.34000110626220703,2019-06-24 14:08:09:244,0.0,0.0,0.0
-0.024122314527630806,0.008561230264604092,9.859811782836914,-0.002514638104516605,0.003720278957948273,8.657387459382065e-05,0.3459281921386719,2019-06-24 14:08:09:250,0.0,0.0,0.0
-0.012148565612733364,-0.0034125184174627066,9.811917304992676,-0.0011827323365333196,-0.005203489076365075,-0.003376381117286328,0.35000133514404297,2019-06-24 14:08:09:254,0.0,0.0,0.0
0.033351678401231766,0.01814022846519947,9.823890686035156,0.0002823640277538687,0.0026547544475913746,0.0004861455903596255,0.3558969497680664,2019-06-24 14:08:09:260,0.0,0.0,0.0
-0.004964316263794899,0.020534979179501534,9.711337089538574,0.0017474603270224759,-0.0010745815337135133,0.005147815485717509,0.36000680923461914,2019-06-24 14:08:09:264,0.0,0.0,0.0
-0.01933281496167183,0.003771730698645115,9.799942970275879,-0.0021150662830956056,-0.005070298772644788,-0.00044618842122124184,0.36589717864990234,2019-06-24 14:08:09:270,0.0,0.0,0.0
0.030956929549574852,0.05166672542691231,9.831074714660645,0.003079366095005761,0.0043862320369956595,0.0011520984418419776,0.37003135681152344,2019-06-24 14:08:09:274,0.0,0.0,0.0
0.016588430851697922,-0.01059676706790924,9.79275894165039,-0.001315922900327932,0.0025215638837967624,-0.0021776657830604924,0.3759021759033203,2019-06-24 14:08:09:280,0.0,0.0,0.0
0.007009432185441256,-0.0010177686344832182,9.74246883392334,0.0008151263154416085,0.00025732418550583624,-0.002577237474444329,0.37999868392944336,2019-06-24 14:08:09:284,0.0,0.0,0.0
-0.01933281496167183,0.0325087271630764,9.754443168640137,0.0024134132760327,-0.001740534417705156,0.0031499570287983245,0.3858966827392578,2019-06-24 14:08:09:290,0.0,0.0,0.0
-0.043280310928821564,-0.027360014617443085,9.735284805297852,0.0024134132760327,-0.00014224753838729123,0.002350813646030651,0.390017032623291,2019-06-24 14:08:09:294,0.0,0.0,0.0
0.0046146828681230545,-0.015386266633868217,9.766416549682617,-0.00025039827618851643,0.0015892299372344764,0.0006193361866635284,0.39591121673583984,2019-06-24 14:08:09:300,0.0,0.0,0.0
0.04293067753314972,0.008561230264604092,9.785574913024902,-0.000383588856237774,-0.0022732966728836053,0.0003529550265650132,0.39999866485595703,2019-06-24 14:08:09:304,0.0,0.0,0.0
-0.038490813225507736,-0.005807267967611551,9.759232521057129,-0.0037133531786681154,-0.003472011747035116,-0.00404233393625939,0.40588951110839844,2019-06-24 14:08:09:310,0.0,0.0,0.0
-0.03370131179690361,0.0013769810320809484,9.773600578308105,0.0028129849674165368,-0.0006750098423296765,0.0026171947736198754,0.4100027084350586,2019-06-24 14:08:09:314,0.0,0.0,0.0
-0.0001748167269397527,0.015745479613542557,9.754443168640137,0.0038785094777734346,-0.0014741532901159315,0.003682719283976774,0.41589832305908203,2019-06-24 14:08:09:320,0.0,0.0,0.0
-0.012148565612733364,-0.008202017284929752,9.802337646484375,-0.0014491134641225444,0.0011896582458506397,0.0015516701332258143,0.4200000762939453,2019-06-24 14:08:09:324,0.0,0.0,0.0
-0.004964316263794899,-0.022570515051484108,9.797548294067383,-0.0011827323365333196,-0.0008082004061242886,-0.0007125695813197571,0.4258913993835449,2019-06-24 14:08:09:330,0.0,0.0,0.0
0.0022199328523129225,-0.008202017284929752,9.802337646484375,-0.0007831605801309015,0.0007900864894482214,0.0035495287201821614,0.4308919906616211,2019-06-24 14:08:09:335,0.0,0.0,0.0
0.05011492595076561,-0.0393337644636631,9.783180236816406,-0.00025039827618851643,-0.003605202310829728,0.0011520984418419776,0.43500804901123047,2019-06-24 14:08:09:339,0.0,0.0,0.0
-0.0073590655811131,0.04687722399830818,9.807126998901367,0.0005487451878523839,-0.0016073438539105438,-0.002710428038238941,0.4409189224243164,2019-06-24 14:08:09:345,0.0,0.0,0.0
-0.028911812230944633,0.0013769810320809484,9.847838401794434,-0.002514638104516605,0.0026547544475913746,-0.0015117129640874309,0.44500732421875,2019-06-24 14:08:09:349,0.0,0.0,0.0
0.014193681068718433,-0.05130751058459282,9.79275894165039,0.0014810791994332513,-0.0012077721625267067,0.005547387437175671,0.4508829116821289,2019-06-24 14:08:09:355,0.0,0.0,0.0
-0.0408855602145195,-0.0393337644636631,9.787969589233398,0.0016142697632278635,0.00025732418550583624,-0.002710428038238941,0.45500755310058594,2019-06-24 14:08:09:359,0.0,0.0,0.0
0.018983181565999985,-0.0034125184174627066,9.866995811462402,0.0024134132760327,-0.001740534417705156,-0.0017780940916766552,0.4609198570251465,2019-06-24 14:08:09:365,0.0,0.0,0.0
-0.01933281496167183,0.034903477877378464,9.855022430419922,0.0002823640277538687,-0.0005418192460257735,-0.00017980727737737192,0.4650087356567383,2019-06-24 14:08:09:369,0.0,0.0,0.0
-0.03130656108260155,-0.015386266633868217,9.835864067077637,0.0002823640277538687,0.00025732418550583624,-0.002710428038238941,0.4708890914916992,2019-06-24 14:08:09:375,0.0,0.0,0.0
-0.0408855602145195,-0.06328126043081284,9.75204849243164,0.005210415375793883,-0.001340962726321319,-0.0009789507089089816,0.4750080108642578,2019-06-24 14:08:09:379,0.0,0.0,0.0
0.007009432185441256,-0.012991516850888729,9.768811225891113,0.0034789377863895985,0.0009232770532428338,-0.0015117129640874309,0.4800252914428711,2019-06-24 14:08:09:384,0.0,0.0,0.0
-0.028911812230944633,0.030113978311419487,9.75204849243164,0.002546603839827312,-0.0005418192460257735,0.0015516701332258143,0.4850301742553711,2019-06-24 14:08:09:389,0.0,0.0,0.0
-0.009753815829753876,0.006166480481624603,9.811917304992676,0.0009483168792362209,0.00025732418550583624,0.0002197644465157556,0.49088287353515625,2019-06-24 14:08:09:395,0.0,0.0,0.0
-0.016938064247369766,0.003771730698645115,9.838258743286133,0.002546603839827312,0.0011896582458506397,-0.001112141272703594,0.4950075149536133,2019-06-24 14:08:09:399,0.0,0.0,0.0
0.02377268113195896,-0.048912763595581055,9.802337646484375,-0.002647828668311217,0.0011896582458506397,0.0030167664650037123,0.5008907318115234,2019-06-24 14:08:09:405,0.0,0.0,0.0
0.016588430851697922,-0.027360014617443085,9.718522071838379,-0.00011720770426658147,0.00411985064933211,0.004215481539155223,0.5051765441894531,2019-06-24 14:08:09:409,0.0,0.0,0.0
-0.03609606251120567,0.0588509738445282,9.775995254516602,0.002546603839827312,0.0009232770532428338,-0.0003129978574266295,0.5100083351135254,2019-06-24 14:08:09:414,0.0,0.0,0.0
0.018983181565999985,0.013350729830563068,9.797548294067383,-0.0021150662830956056,-0.0014741532901159315,0.0006193361866635284,0.515892505645752,2019-06-24 14:08:09:420,0.0,0.0,0.0
-0.028911812230944633,0.006166480481624603,9.785574913024902,-0.001315922900327932,0.003986660085537498,0.00128528900563659,0.5200037956237793,2019-06-24 14:08:09:424,0.0,0.0,0.0
0.03814117982983589,-0.02496526576578617,9.828680038452148,0.0001491734477046111,0.001855611064823701,0.0014184795694312021,0.5259027481079102,2019-06-24 14:08:09:430,0.0,0.0,0.0
0.016588430851697922,-0.022570515051484108,9.823890686035156,-0.001315922900327932,-0.0012077721625267067,0.004348672102949836,0.530003547668457,2019-06-24 14:08:09:434,0.0,0.0,0.0
0.02856217883527279,0.05166672542691231,9.747259140014648,0.0020138414546117004,0.0001241336135839013,-0.003775952808670165,0.5358953475952148,2019-06-24 14:08:09:440,0.0,0.0,0.0
0.007009432185441256,-0.005807267967611551,9.795153617858887,0.0010815074430308332,0.0043862320369956595,-0.002976809165828166,0.5400047302246094,2019-06-24 14:08:09:444,0.0,0.0,0.0
-0.028911812230944633,0.03729822486639023,9.761627197265625,0.004011700041568048,0.0005237053293497061,-0.0052410490104109,0.5458917617797852,2019-06-24 14:08:09:450,0.0,0.0,0.0
0.0022199328523129225,-0.008202017284929752,9.764021873474121,0.0010815074430308332,-0.0021401061090889927,0.0031499570287983245,0.5500764846801758,2019-06-24 14:08:09:454,0.0,0.0,0.0
-0.004964316263794899,-0.034544263035058975,9.783180236816406,0.0005487451878523839,0.00025732418550583624,-0.0032431902934173906,0.5559110641479492,2019-06-24 14:08:09:460,0.0,0.0,0.0
-0.07441205531358719,0.0013769810320809484,9.787969589233398,-0.0010495417077201262,-0.0033388211832405036,0.004215481539155223,0.5599946975708008,2019-06-24 14:08:09:464,0.0,0.0,0.0
0.040535926818847656,0.049271974712610245,9.826285362243652,0.0010815074430308332,0.0034538978303590485,-0.0023108563468551046,0.5658855438232422,2019-06-24 14:08:09:470,0.0,0.0,0.0
-0.0001748167269397527,0.01095598004758358,9.857417106628418,-0.002647828668311217,0.0009232770532428338,8.657387459382065e-05,0.5700020790100098,2019-06-24 14:08:09:474,0.0,0.0,0.0
-0.01933281496167183,-0.056097012013196945,9.807126998901367,0.0020138414546117004,-0.00014224753838729123,0.0010189078780473654,0.575007438659668,2019-06-24 14:08:09:479,0.0,0.0,0.0
-0.024122314527630806,0.006166480481624603,9.819101333618164,0.0021470320184063126,-0.0038715834384189522,0.0007525267504581406,0.580876350402832,2019-06-24 14:08:09:485,0.0,0.0,0.0
-0.0073590655811131,0.04448247700929642,9.828680038452148,-0.0010495417077201262,-0.003472011747035116,-0.0020444752192658802,0.5850009918212891,2019-06-24 14:08:09:489,0.0,0.0,0.0
-0.0408855602145195,0.034903477877378464,9.74246883392334,0.0009483168792362209,0.0011896582458506397,0.0028835759012090997,0.5908832550048828,2019-06-24 14:08:09:495,0.0,0.0,0.0
-0.0073590655811131,-0.012991516850888729,9.78078556060791,-0.0035801626148735037,-0.0021401061090889927,-0.0007125695813197571,0.5959272384643555,2019-06-24 14:08:09:500,0.0,0.0,0.0
0.009404182434082031,-0.06328126043081284,9.795153617858887,0.001347888635638639,0.0055849468510728445,0.0030167664650037123,0.6000003814697266,2019-06-24 14:08:09:504,0.0,0.0,0.0
0.026167429983615875,-0.008202017284929752,9.804732322692871,0.0001491734477046111,-0.0008082004061242886,0.0030167664650037123,0.6058883666992188,2019-06-24 14:08:09:510,0.0,0.0,0.0
-0.021727563813328743,0.008561230264604092,9.859811782836914,-0.0011827323365333196,0.00039051476555509394,0.0028835759012090997,0.6100015640258789,2019-06-24 14:08:09:514,0.0,0.0,0.0
-0.021727563813328743,0.02532447874546051,9.826285362243652,0.003345747222594986,0.00025732418550583624,-0.0007125695813197571,0.6159210205078125,2019-06-24 14:08:09:520,0.0,0.0,0.0
-0.004964316263794899,0.020534979179501534,9.866995811462402,0.0001491734477046111,0.0009232770532428338,-0.0008457601451143693,0.619999885559082,2019-06-24 14:08:09:524,0.0,0.0,0.0
0.018983181565999985,-0.027360014617443085,9.764021873474121,-0.0005167794200323863,0.0019888016286183133,-0.0008457601451143693,0.6250114440917969,2019-06-24 14:08:09:529,0.0,0.0,0.0
0.0022199328523129225,-0.01778101734817028,9.819101333618164,0.0001491734477046111,0.0033207072665644363,0.0004861455903596255,0.6308917999267578,2019-06-24 14:08:09:535,0.0,0.0,0.0
-0.0073590655811131,-0.04412326216697693,9.82149600982666,-0.001715494591711769,0.00039051476555509394,0.003815909847771386,0.6350069046020508,2019-06-24 14:08:09:539,0.0,0.0,0.0
-0.038490813225507736,0.0013769810320809484,9.826285362243652,-0.005311639944203463,0.002255182756207538,-0.004175524500054002,0.6408834457397461,2019-06-24 14:08:09:545,0.0,0.0,0.0
0.0046146828681230545,0.0325087271630764,9.749653816223145,0.002679794403621924,-0.0024064872366782175,-0.0007125695813197571,0.6450157165527344,2019-06-24 14:08:09:549,0.0,0.0,0.0
0.016588430851697922,-0.012991516850888729,9.807126998901367,-0.003846543742462728,-0.0002754381184365489,0.0014184795694312021,0.6500024795532227,2019-06-24 14:08:09:554,0.0,0.0,0.0
-0.004964316263794899,-0.07286025583744049,9.819101333618164,0.0024134132760327,0.0009232770532428338,-0.0021776657830604924,0.6559247970581055,2019-06-24 14:08:09:560,0.0,0.0,0.0
0.007009432185441256,-0.01059676706790924,9.802337646484375,0.0014810791994332513,-0.004803917645055564,-0.0019112846554712676,0.6600155830383301,2019-06-24 14:08:09:564,0.0,0.0,0.0
-0.014543314464390278,0.027719227597117424,9.85023307800293,-0.0007831605801309015,0.0038534695217428854,-0.0007125695813197571,0.6658964157104492,2019-06-24 14:08:09:570,0.0,0.0,0.0
-0.016938064247369766,0.01814022846519947,9.826285362243652,0.001347888635638639,-0.0022732966728836053,0.0019512418246096514,0.6699962615966797,2019-06-24 14:08:09:574,0.0,0.0,0.0
-0.012148565612733364,-0.03214951604604721,9.77120590209961,0.002946175531211149,-0.0016073438539105438,0.003682719283976774,0.6758890151977539,2019-06-24 14:08:09:580,0.0,0.0,0.0
-0.0025695664808154106,0.003771730698645115,9.845443725585938,-0.001715494591711769,0.00039051476555509394,0.0018180512608150393,0.6800050735473633,2019-06-24 14:08:09:584,0.0,0.0,0.0
0.026167429983615875,-0.008202017284929752,9.802337646484375,0.003745318913978823,-0.0021401061090889927,0.003682719283976774,0.6858968734741211,2019-06-24 14:08:09:590,0.0,0.0,0.0
0.009404182434082031,0.008561230264604092,9.82149600982666,-0.0019818757193009935,0.0005237053293497061,-0.0032431902934173906,0.6900215148925781,2019-06-24 14:08:09:594,0.0,0.0,0.0
-0.038490813225507736,0.003771730698645115,9.855022430419922,0.0008151263154416085,-0.004404345693597402,-0.0021776657830604924,0.695897102355957,2019-06-24 14:08:09:600,0.0,0.0,0.0
0.009404182434082031,-0.022570515051484108,9.80952262878418,0.0020138414546117004,0.0001241336135839013,-0.0017780940916766552,0.7000150680541992,2019-06-24 14:08:09:604,0.0,0.0,0.0
-0.012148565612733364,-0.04651801288127899,9.852627754211426,-0.0006499700163362892,0.0007900864894482214,-0.003109999729622778,0.7059221267700195,2019-06-24 14:08:09:610,0.0,0.0,0.0
-0.004964316263794899,0.02532447874546051,9.845443725585938,-0.002647828668311217,0.003720278957948273,-0.004175524500054002,0.710881233215332,2019-06-24 14:08:09:615,0.0,0.0,0.0
0.0046146828681230545,0.022929728031158447,9.799942970275879,0.0005487451878523839,-0.0038715834384189522,0.004748244054407998,0.7150025367736816,2019-06-24 14:08:09:619,0.0,0.0,0.0
-0.0073590655811131,0.01095598004758358,9.761627197265625,-0.0007831605801309015,-9.05695935394897e-06,-0.0019112846554712676,0.7200021743774414,2019-06-24 14:08:09:624,0.0,0.0,0.0
-0.0025695664808154106,-0.05849176272749901,9.835864067077637,0.0038785094777734346,0.0013228488096452518,0.0003529550265650132,0.7258915901184082,2019-06-24 14:08:09:630,0.0,0.0,0.0
0.011798931285738945,-0.03693901374936104,9.759232521057129,0.003345747222594986,0.0019888016286183133,0.0003529550265650132,0.7308826446533203,2019-06-24 14:08:09:635,0.0,0.0,0.0
0.016588430851697922,0.006166480481624603,9.816706657409668,1.5982868671268808e-05,0.00025732418550583624,0.0022176230822360385,0.7350482940673828,2019-06-24 14:08:09:639,0.0,0.0,0.0
-0.0073590655811131,0.0013769810320809484,9.78078556060791,-0.0010495417077201262,0.0015892299372344764,-0.001112141272703594,0.7408866882324219,2019-06-24 14:08:09:645,0.0,0.0,0.0
0.014193681068718433,-0.0010177686344832182,9.77120590209961,0.0010815074430308332,0.001056467617037446,-0.0013785224002928185,0.7450046539306641,2019-06-24 14:08:09:649,0.0,0.0,0.0
0.007009432185441256,-0.008202017284929752,9.747259140014648,-0.000383588856237774,0.0006568959256536091,0.005147815485717509,0.7500295639038086,2019-06-24 14:08:09:654,0.0,0.0,0.0
-0.03370131179690361,0.020534979179501534,9.835864067077637,0.0020138414546117004,-0.0005418192460257735,-0.002976809165828166,0.7559123039245605,2019-06-24 14:08:09:660,0.0,0.0,0.0
-0.016938064247369766,0.003771730698645115,9.855022430419922,-0.0006499700163362892,0.001056467617037446,-0.0019112846554712676,0.7599964141845703,2019-06-24 14:08:09:664,0.0,0.0,0.0
-0.0001748167269397527,0.01814022846519947,9.761627197265625,-0.000383588856237774,0.0014560393734398642,-0.004441905627643227,0.7658872604370117,2019-06-24 14:08:09:670,0.0,0.0,0.0
-0.0025695664808154106,0.020534979179501534,9.775995254516602,-0.004112924870051953,0.0019888016286183133,0.0003529550265650132,0.7700028419494629,2019-06-24 14:08:09:674,0.0,0.0,0.0
-0.0073590655811131,0.006166480481624603,9.819101333618164,-0.0009163511439255139,0.0007900864894482214,0.0014184795694312021,0.7758960723876953,2019-06-24 14:08:09:680,0.0,0.0,0.0
-0.0001748167269397527,-0.06088650971651077,9.826285362243652,0.0028129849674165368,-0.0002754381184365489,-0.0032431902934173906,0.779998779296875,2019-06-24 14:08:09:684,0.0,0.0,0.0
-0.0025695664808154106,0.0013769810320809484,9.811917304992676,0.0016142697632278635,0.0027879450113859868,0.0014184795694312021,0.7851996421813965,2019-06-24 14:08:09:689,0.0,0.0,0.0
0.016588430851697922,-0.0010177686344832182,9.823890686035156,0.003345747222594986,0.0014560393734398642,-0.0003129978574266295,0.7909274101257324,2019-06-24 14:08:09:695,0.0,0.0,0.0
0.009404182434082031,0.020534979179501534,9.802337646484375,0.00041555459154848093,0.0009232770532428338,0.0026171947736198754,0.7950177192687988,2019-06-24 14:08:09:699,0.0,0.0,0.0
0.0022199328523129225,0.003771730698645115,9.74246883392334,-0.0021150662830956056,0.0009232770532428338,0.0022176230822360385,0.8008756637573242,2019-06-24 14:08:09:705,0.0,0.0,0.0
0.026167429983615875,0.013350729830563068,9.799942970275879,0.0048108434243357215,0.0023883733200021503,0.0040822909753606106,0.8050012588500977,2019-06-24 14:08:09:709,0.0,0.0,0.0
-0.0073590655811131,0.02532447874546051,9.790364265441895,-0.0010495417077201262,-0.0012077721625267067,-0.0013785224002928185,0.8108758926391602,2019-06-24 14:08:09:715,0.0,0.0,0.0
0.007009432185441256,0.01814022846519947,9.811917304992676,0.0020138414546117004,-0.0021401061090889927,-0.0012453318364982061,0.8149962425231934,2019-06-24 14:08:09:719,0.0,0.0,0.0
-0.009753815829753876,0.0013769810320809484,9.835864067077637,0.0010815074430308332,-0.001740534417705156,0.0019512418246096514,0.8208713531494141,2019-06-24 14:08:09:725,0.0,0.0,0.0
-0.016938064247369766,0.027719227597117424,9.766416549682617,-0.0010495417077201262,0.001855611064823701,-0.0012453318364982061,0.8250226974487305,2019-06-24 14:08:09:729,0.0,0.0,0.0
0.016588430851697922,-0.04651801288127899,9.845443725585938,-0.0007831605801309015,0.0034538978303590485,0.0030167664650037123,0.830904483795166,2019-06-24 14:08:09:735,0.0,0.0,0.0
-0.04806981235742569,-0.029754765331745148,9.835864067077637,0.0008151263154416085,-0.0009413909699189009,0.000885717314252753,0.8350386619567871,2019-06-24 14:08:09:739,0.0,0.0,0.0
-0.009753815829753876,0.015745479613542557,9.775995254516602,-0.00011720770426658147,0.0015892299372344764,-0.0028436186020335537,0.8400154113769531,2019-06-24 14:08:09:744,0.0,0.0,0.0
-0.012148565612733364,0.01095598004758358,9.790364265441895,-0.00011720770426658147,0.00039051476555509394,0.0002197644465157556,0.8458833694458008,2019-06-24 14:08:09:750,0.0,0.0,0.0
-0.014543314464390278,-0.005807267967611551,9.768811225891113,-0.005844402199381912,-0.0010745815337135133,-0.0020444752192658802,0.8501543998718262,2019-06-24 14:08:09:754,0.0,0.0,0.0
0.0046146828681230545,0.008561230264604092,9.775995254516602,-0.0021150662830956056,0.0014560393734398642,0.000885717314252753,0.856480598449707,2019-06-24 14:08:09:761,0.0,0.0,0.0
0.02856217883527279,-0.0034125184174627066,9.778390884399414,-0.00025039827618851643,0.0026547544475913746,0.0016848606970204267,0.8615021705627441,2019-06-24 14:08:09:766,0.0,0.0,0.0
-0.0073590655811131,-0.02496526576578617,9.823890686035156,0.0020138414546117004,-0.0005418192460257735,-0.0003129978574266295,0.8668584823608398,2019-06-24 14:08:09:771,0.0,0.0,0.0
0.016588430851697922,0.0013769810320809484,9.802337646484375,0.0044112719930262095,0.0030543261389752115,-0.002710428038238941,0.8765478134155273,2019-06-24 14:08:09:781,0.0,0.0,0.0
-0.0025695664808154106,-0.05370226129889488,9.838258743286133,0.0002823640277538687,-0.0014741532901159315,-0.0007125695813197571,0.8815727233886719,2019-06-24 14:08:09:786,0.0,0.0,0.0
-0.03130656108260155,0.020534979179501534,9.77120590209961,0.002546603839827312,-0.0022732966728836053,0.0026171947736198754,0.8865199089050293,2019-06-24 14:08:09:791,0.0,0.0,0.0
-0.024122314527630806,0.003771730698645115,9.787969589233398,0.0017474603270224759,-0.0024064872366782175,-0.0019112846554712676,0.8915419578552246,2019-06-24 14:08:09:796,0.0,0.0,0.0
-0.0025695664808154106,0.01814022846519947,9.816706657409668,0.0024134132760327,0.0009232770532428338,0.0022176230822360385,0.8965129852294922,2019-06-24 14:08:09:801,0.0,0.0,0.0
-0.016938064247369766,0.008561230264604092,9.737679481506348,-0.0037133531786681154,-0.005070298772644788,0.0030167664650037123,0.9014959335327148,2019-06-24 14:08:09:806,0.0,0.0,0.0
-0.02651706337928772,-0.005807267967611551,9.828680038452148,0.004011700041568048,-0.0002754381184365489,0.0019512418246096514,0.9065103530883789,2019-06-24 14:08:09:811,0.0,0.0,0.0
-0.024122314527630806,-0.005807267967611551,9.759232521057129,-0.002914209795900442,-0.0014741532901159315,-0.006306573520767799,0.9115071296691895,2019-06-24 14:08:09:816,0.0,0.0,0.0
-0.024122314527630806,0.034903477877378464,9.819101333618164,-0.0033137814872842794,-0.0016073438539105438,0.005014625181997222,0.9165153503417969,2019-06-24 14:08:09:821,0.0,0.0,0.0
-0.02651706337928772,-0.029754765331745148,9.78078556060791,-0.004246115433846565,-0.0008082004061242886,-0.002710428038238941,0.9215726852416992,2019-06-24 14:08:09:826,0.0,0.0,0.0
-0.009753815829753876,-0.07286025583744049,9.77120590209961,0.0016142697632278635,0.0009232770532428338,0.0022176230822360385,0.9266037940979004,2019-06-24 14:08:09:831,0.0,0.0,0.0
-0.01933281496167183,-0.0393337644636631,9.811917304992676,0.0001491734477046111,0.002255182756207538,-0.004175524500054002,0.9315109252929688,2019-06-24 14:08:09:836,0.0,0.0,0.0
-0.0408855602145195,-0.0010177686344832182,9.828680038452148,0.0016142697632278635,-0.0020069155452943806,0.0030167664650037123,0.9365253448486328,2019-06-24 14:08:09:841,0.0,0.0,0.0
0.016588430851697922,0.030113978311419487,9.881364822387695,-0.002647828668311217,0.0014560393734398642,0.003416338156387549,0.9415078163146973,2019-06-24 14:08:09:846,0.0,0.0,0.0
0.014193681068718433,0.008561230264604092,9.912496566772461,0.001880650890817088,0.0019888016286183133,-0.0024440469106497167,0.9465055465698242,2019-06-24 14:08:09:851,0.0,0.0,0.0
0.0046146828681230545,-0.01059676706790924,9.819101333618164,0.002546603839827312,0.0023883733200021503,-0.002976809165828166,0.9515361785888672,2019-06-24 14:08:09:856,0.0,0.0,0.0
-0.0001748167269397527,-0.015386266633868217,9.78078556060791,0.0036121283501842102,-0.0006750098423296765,0.0015516701332258143,0.9565258026123047,2019-06-24 14:08:09:861,0.0,0.0,0.0
-0.038490813225507736,-0.01778101734817028,9.80952262878418,0.0012146980718440268,-0.0033388211832405036,0.0010189078780473654,0.9615058898925781,2019-06-24 14:08:09:866,0.0,0.0,0.0
0.03814117982983589,0.008561230264604092,9.77120590209961,-0.0031805909234896667,-0.001340962726321319,-0.0052410490104109,0.9660892486572266,2019-06-24 14:08:09:870,0.0,0.0,0.0
0.007009432185441256,0.01814022846519947,9.68978500366211,-0.0019818757193009935,-9.05695935394897e-06,-0.00017980727737737192,0.9700384140014648,2019-06-24 14:08:09:874,0.0,0.0,0.0
-0.021727563813328743,0.030113978311419487,9.831074714660645,-0.0006499700163362892,-9.05695935394897e-06,0.0007525267504581406,0.9758996963500977,2019-06-24 14:08:09:880,0.0,0.0,0.0
-0.0025695664808154106,-0.027360014617443085,9.838258743286133,-0.001848685155506381,0.00025732418550583624,-0.0017780940916766552,0.9799966812133789,2019-06-24 14:08:09:884,0.0,0.0,0.0
0.033351678401231766,-0.012991516850888729,9.831074714660645,0.002679794403621924,0.0023883733200021503,-0.0012453318364982061,0.9850120544433594,2019-06-24 14:08:09:889,0.0,0.0,0.0
-0.03370131179690361,0.03729822486639023,9.804732322692871,0.0021470320184063126,-0.0020069155452943806,-0.0015117129640874309,0.9908938407897949,2019-06-24 14:08:09:895,0.0,0.0,0.0
-0.021727563813328743,0.034903477877378464,9.78078556060791,-0.001715494591711769,-9.05695935394897e-06,0.0006193361866635284,0.9950122833251953,2019-06-24 14:08:09:899,0.0,0.0,0.0
-0.028911812230944633,-0.008202017284929752,9.756837844848633,0.0010815074430308332,-0.0004086286822311611,0.0010189078780473654,1.0008807182312012,2019-06-24 14:08:09:905,0.0,0.0,0.0
-0.01933281496167183,-0.056097012013196945,9.749653816223145,0.0016142697632278635,-0.0010745815337135133,-0.001112141272703594,1.005033016204834,2019-06-24 14:08:09:909,0.0,0.0,0.0
0.009404182434082031,-0.05370226129889488,9.799942970275879,-0.001315922900327932,0.0025215638837967624,0.0015516701332258143,1.0100383758544922,2019-06-24 14:08:09:914,0.0,0.0,0.0
0.016588430851697922,-0.01059676706790924,9.747259140014648,-0.0006499700163362892,0.00039051476555509394,0.0035495287201821614,1.0159292221069336,2019-06-24 14:08:09:920,0.0,0.0,0.0
0.018983181565999985,0.01095598004758358,9.828680038452148,-0.001315922900327932,0.0014560393734398642,-0.0003129978574266295,1.0200014114379883,2019-06-24 14:08:09:924,0.0,0.0,0.0
0.054904427379369736,0.0013769810320809484,9.804732322692871,-0.0014491134641225444,-0.001340962726321319,8.657387459382065e-05,1.025010108947754,2019-06-24 14:08:09:929,0.0,0.0,0.0
-0.0073590655811131,-0.020175766199827194,9.78078556060791,-0.0021150662830956056,-0.0021401061090889927,0.0003529550265650132,1.0308914184570312,2019-06-24 14:08:09:935,0.0,0.0,0.0
0.05011492595076561,-0.022570515051484108,9.807126998901367,0.001880650890817088,0.0030543261389752115,-0.0005793790175251447,1.0350112915039062,2019-06-24 14:08:09:939,0.0,0.0,0.0
-0.0073590655811131,0.01814022846519947,9.79275894165039,-0.000383588856237774,0.0017224205010290888,0.0031499570287983245,1.0408854484558105,2019-06-24 14:08:09:945,0.0,0.0,0.0
-0.03130656108260155,0.015745479613542557,9.754443168640137,-0.0022482569769273807,-0.0021401061090889927,0.0026171947736198754,1.0450401306152344,2019-06-24 14:08:09:949,0.0,0.0,0.0
-0.01933281496167183,-0.0010177686344832182,9.773600578308105,-0.0007831605801309015,0.0015892299372344764,-0.0009789507089089816,1.0509891510009766,2019-06-24 14:08:09:955,0.0,0.0,0.0
0.0046146828681230545,-0.015386266633868217,9.826285362243652,0.00534360567951417,-0.0018737249814997682,0.0015516701332258143,1.0550422668457031,2019-06-24 14:08:09:959,0.0,0.0,0.0
-0.0073590655811131,0.006166480481624603,9.835864067077637,-0.00278101923210583,-0.001340962726321319,-4.661670139177563e-05,1.0608854293823242,2019-06-24 14:08:09:965,0.0,0.0,0.0
0.0022199328523129225,-0.01778101734817028,9.819101333618164,0.0034789377863895985,0.0009232770532428338,-4.661670139177563e-05,1.065016746520996,2019-06-24 14:08:09:969,0.0,0.0,0.0
0.033351678401231766,-0.0034125184174627066,9.82149600982666,0.0014810791994332513,0.0033207072665644363,-0.0003129978574266295,1.0708904266357422,2019-06-24 14:08:09:975,0.0,0.0,0.0
-0.0025695664808154106,-0.027360014617443085,9.759232521057129,-0.002381447540721993,0.001056467617037446,-0.00350957168108094,1.0750083923339844,2019-06-24 14:08:09:979,0.0,0.0,0.0
-0.024122314527630806,0.006166480481624603,9.783180236816406,0.0044112719930262095,0.001855611064823701,0.0004861455903596255,1.0808920860290527,2019-06-24 14:08:09:985,0.0,0.0,0.0
0.016588430851697922,-0.005807267967611551,9.778390884399414,-0.003979734306257341,-0.0021401061090889927,-0.002577237474444329,1.0850095748901367,2019-06-24 14:08:09:989,0.0,0.0,0.0
-0.012148565612733364,-0.015386266633868217,9.783180236816406,0.001347888635638639,-0.0062690135867219735,0.003416338156387549,1.089996337890625,2019-06-24 14:08:09:994,0.0,0.0,0.0
-0.01933281496167183,0.01095598004758358,9.838258743286133,0.0038785094777734346,0.0029211355751805994,-0.002577237474444329,1.095963478088379,2019-06-24 14:08:10:000,0.0,0.0,0.0
-0.014543314464390278,-0.012991516850888729,9.79275894165039,-0.0009163511439255139,0.0009232770532428338,-0.002710428038238941,1.1000347137451172,2019-06-24 14:08:10:004,0.0,0.0,0.0
-0.0025695664808154106,-0.020175766199827194,9.83346939086914,-0.001315922900327932,0.0006568959256536091,-0.0024440469106497167,1.1050081253051758,2019-06-24 14:08:10:009,0.0,0.0,0.0
-0.009753815829753876,0.006166480481624603,9.773600578308105,0.0005487451878523839,0.0001241336135839013,-0.0003129978574266295,1.110041618347168,2019-06-24 14:08:10:014,0.0,0.0,0.0
-0.009753815829753876,-0.008202017284929752,9.807126998901367,0.0001491734477046111,0.0029211355751805994,0.0019512418246096514,1.1159000396728516,2019-06-24 14:08:10:020,0.0,0.0,0.0
-0.05525406077504158,-0.01059676706790924,9.744863510131836,0.0005487451878523839,0.0009232770532428338,0.0003529550265650132,1.1199989318847656,2019-06-24 14:08:10:024,0.0,0.0,0.0
-0.024122314527630806,-0.03214951604604721,9.823890686035156,-0.004112924870051953,-0.0010745815337135133,0.0002197644465157556,1.1250085830688477,2019-06-24 14:08:10:029,0.0,0.0,0.0
-0.004964316263794899,0.006166480481624603,9.816706657409668,-0.001715494591711769,-0.0033388211832405036,-0.0003129978574266295,1.1308927536010742,2019-06-24 14:08:10:035,0.0,0.0,0.0
0.011798931285738945,-0.012991516850888729,9.819101333618164,-0.003846543742462728,-0.0014741532901159315,-0.00044618842122124184,1.135012149810791,2019-06-24 14:08:10:039,0.0,0.0,0.0
-0.0025695664808154106,0.022929728031158447,9.761627197265625,-0.0033137814872842794,-0.005336679900234013,-0.0009789507089089816,1.140904426574707,2019-06-24 14:08:10:045,0.0,0.0,0.0
0.0022199328523129225,-0.02496526576578617,9.778390884399414,-0.00278101923210583,-0.0012077721625267067,-0.0012453318364982061,1.1450309753417969,2019-06-24 14:08:10:049,0.0,0.0,0.0
-0.0001748167269397527,0.01814022846519947,9.775995254516602,0.0009483168792362209,0.00039051476555509394,-0.0008457601451143693,1.1500234603881836,2019-06-24 14:08:10:054,0.0,0.0,0.0
-0.0073590655811131,-0.012991516850888729,9.82149600982666,-0.001315922900327932,0.002255182756207538,-0.0019112846554712676,1.1558923721313477,2019-06-24 14:08:10:060,0.0,0.0,0.0
0.009404182434082031,0.01814022846519947,9.78078556060791,0.0014810791994332513,0.0027879450113859868,0.002350813646030651,1.1600055694580078,2019-06-24 14:08:10:064,0.0,0.0,0.0
-0.021727563813328743,0.030113978311419487,9.78078556060791,-0.0015823040279171567,0.0025215638837967624,-0.0017780940916766552,1.1650090217590332,2019-06-24 14:08:10:069,0.0,0.0,0.0
-0.03609606251120567,-0.027360014617443085,9.802337646484375,-0.00011720770426658147,0.0026547544475913746,-0.0015117129640874309,1.1708898544311523,2019-06-24 14:08:10:075,0.0,0.0,0.0
-0.04806981235742569,-0.0034125184174627066,9.783180236816406,0.0006819357516469962,-0.0004086286822311611,0.0063465308199433445,1.1750092506408691,2019-06-24 14:08:10:079,0.0,0.0,0.0
0.0022199328523129225,-0.0010177686344832182,9.766416549682617,0.002679794403621924,-0.0046707268211866266,0.0016848606970204267,1.1800026893615723,2019-06-24 14:08:10:084,0.0,0.0,0.0
-0.0025695664808154106,0.056456223130226135,9.823890686035156,-0.00278101923210583,-0.0038715834384189522,0.0016848606970204267,1.1859374046325684,2019-06-24 14:08:10:090,0.0,0.0,0.0
-0.004964316263794899,0.0013769810320809484,9.795153617858887,0.003345747222594986,0.0023883733200021503,0.0011520984418419776,1.1900005340576172,2019-06-24 14:08:10:094,0.0,0.0,0.0
0.007009432185441256,-0.008202017284929752,9.83346939086914,-0.004778877689025014,-0.0024064872366782175,0.003416338156387549,1.1950178146362305,2019-06-24 14:08:10:099,0.0,0.0,0.0
-0.004964316263794899,0.008561230264604092,9.811917304992676,0.0032125566588003737,-0.001740534417705156,0.0004861455903596255,1.2009086608886719,2019-06-24 14:08:10:105,0.0,0.0,0.0
0.02856217883527279,0.013350729830563068,9.838258743286133,0.0017474603270224759,0.005718137674941782,0.0004861455903596255,1.2050275802612305,2019-06-24 14:08:10:109,0.0,0.0,0.0
-0.016938064247369766,0.0588509738445282,9.845443725585938,0.0012146980718440268,0.0014560393734398642,-0.001112141272703594,1.2100090980529785,2019-06-24 14:08:10:114,0.0,0.0,0.0
-0.021727563813328743,0.03969297558069229,9.799942970275879,0.001347888635638639,-0.0012077721625267067,-0.005640620961869062,1.215010166168213,2019-06-24 14:08:10:119,0.0,0.0,0.0
-0.021727563813328743,-0.034544263035058975,9.740074157714844,0.0001491734477046111,-0.0037383928746243405,-0.006173383217047511,1.2208919525146484,2019-06-24 14:08:10:125,0.0,0.0,0.0
-0.0001748167269397527,-0.022570515051484108,9.79275894165039,0.0048108434243357215,-0.0004086286822311611,0.0015516701332258143,1.2250118255615234,2019-06-24 14:08:10:129,0.0,0.0,0.0
-0.024122314527630806,0.034903477877378464,9.871786117553711,0.0010815074430308332,0.0007900864894482214,0.0040822909753606106,1.2300925254821777,2019-06-24 14:08:10:134,0.0,0.0,0.0
-0.0025695664808154106,0.0013769810320809484,9.790364265441895,0.0002823640277538687,-0.0020069155452943806,-0.0005793790175251447,1.2359023094177246,2019-06-24 14:08:10:140,0.0,0.0,0.0
-0.02651706337928772,0.008561230264604092,9.869390487670898,-0.0022482569769273807,-0.0005418192460257735,0.0011520984418419776,1.2399969100952148,2019-06-24 14:08:10:144,0.0,0.0,0.0
0.0022199328523129225,-0.008202017284929752,9.83346939086914,-0.00011720770426658147,0.0006568959256536091,0.000885717314252753,1.2459650039672852,2019-06-24 14:08:10:150,0.0,0.0,0.0
-0.0025695664808154106,0.003771730698645115,9.75204849243164,-0.002647828668311217,0.0026547544475913746,0.002084432388404264,1.250025749206543,2019-06-24 14:08:10:154,0.0,0.0,0.0
-0.009753815829753876,-0.0034125184174627066,9.799942970275879,-0.0006499700163362892,-0.004537536517466339,-0.0007125695813197571,1.2558989524841309,2019-06-24 14:08:10:160,0.0,0.0,0.0
0.007009432185441256,0.027719227597117424,9.764021873474121,-0.0021150662830956056,0.0015892299372344764,-0.0012453318364982061,1.2600078582763672,2019-06-24 14:08:10:164,0.0,0.0,0.0
-0.004964316263794899,-0.008202017284929752,9.77120590209961,-0.0019818757193009935,0.0014560393734398642,-0.0007125695813197571,1.2650060653686523,2019-06-24 14:08:10:169,0.0,0.0,0.0
-0.024122314527630806,-0.015386266633868217,9.785574913024902,0.0005487451878523839,0.0025215638837967624,0.0006193361866635284,1.2708740234375,2019-06-24 14:08:10:175,0.0,0.0,0.0
0.02856217883527279,-0.029754765331745148,9.811917304992676,-0.001848685155506381,-0.0004086286822311611,-0.0012453318364982061,1.2750468254089355,2019-06-24 14:08:10:179,0.0,0.0,0.0
-0.009753815829753876,0.02532447874546051,9.819101333618164,0.0002823640277538687,-0.0021401061090889927,-0.0008457601451143693,1.2808923721313477,2019-06-24 14:08:10:185,0.0,0.0,0.0
-0.012148565612733364,-0.01059676706790924,9.866995811462402,-0.0015823040279171567,0.0030543261389752115,-0.0005793790175251447,1.2859811782836914,2019-06-24 14:08:10:190,0.0,0.0,0.0
-0.0001748167269397527,0.008561230264604092,9.828680038452148,-0.0019818757193009935,0.0027879450113859868,-0.0003129978574266295,1.290933609008789,2019-06-24 14:08:10:195,0.0,0.0,0.0
-0.0073590655811131,0.008561230264604092,9.828680038452148,-0.004112924870051953,0.002255182756207538,-0.0021776657830604924,1.2950210571289062,2019-06-24 14:08:10:199,0.0,0.0,0.0
-0.004964316263794899,-0.034544263035058975,9.756837844848633,0.003079366095005761,0.0006568959256536091,-0.0003129978574266295,1.3008880615234375,2019-06-24 14:08:10:205,0.0,0.0,0.0
-0.009753815829753876,-0.027360014617443085,9.761627197265625,0.0001491734477046111,-0.0009413909699189009,0.0027503853374144876,1.3050127029418945,2019-06-24 14:08:10:209,0.0,0.0,0.0
-0.021727563813328743,0.008561230264604092,9.787969589233398,0.0034789377863895985,-0.001340962726321319,-0.002976809165828166,1.3108911514282227,2019-06-24 14:08:10:215,0.0,0.0,0.0
-0.038490813225507736,-0.0034125184174627066,9.80952262878418,1.5982868671268808e-05,0.0014560393734398642,-0.00017980727737737192,1.3150148391723633,2019-06-24 14:08:10:219,0.0,0.0,0.0
-0.02651706337928772,0.013350729830563068,9.871786117553711,0.002679794403621924,0.002121992192412926,0.004748244054407998,1.3208837509155273,2019-06-24 14:08:10:225,0.0,0.0,0.0
0.014193681068718433,-0.03214951604604721,9.876575469970703,-0.0022482569769273807,0.002121992192412926,-0.0009789507089089816,1.3250389099121094,2019-06-24 14:08:10:229,0.0,0.0,0.0
0.011798931285738945,0.013350729830563068,9.814311981201172,0.003345747222594986,-0.0020069155452943806,0.0040822909753606106,1.330976963043213,2019-06-24 14:08:10:235,0.0,0.0,0.0
0.016588430851697922,0.027719227597117424,9.747259140014648,-0.001315922900327932,0.004918994292174109,-0.00017980727737737192,1.335038185119629,2019-06-24 14:08:10:239,0.0,0.0,0.0
0.0022199328523129225,-0.008202017284929752,9.787969589233398,-0.002381447540721993,-0.003072440055651279,0.0014184795694312021,1.340005874633789,2019-06-24 14:08:10:244,0.0,0.0,0.0
-0.021727563813328743,0.01095598004758358,9.79275894165039,0.0002823640277538687,0.0015892299372344764,0.0024840042098252632,1.345010757446289,2019-06-24 14:08:10:249,0.0,0.0,0.0
0.0046146828681230545,0.015745479613542557,9.783180236816406,-0.0014491134641225444,-0.004404345693597402,-0.002976809165828166,1.3509197235107422,2019-06-24 14:08:10:255,0.0,0.0,0.0
-0.03370131179690361,0.05166672542691231,9.773600578308105,0.0022802227122380877,0.0005237053293497061,0.0011520984418419776,1.3550124168395996,2019-06-24 14:08:10:259,0.0,0.0,0.0
-0.0025695664808154106,0.03729822486639023,9.783180236816406,0.001347888635638639,0.003986660085537498,-0.0023108563468551046,1.3608903884887695,2019-06-24 14:08:10:265,0.0,0.0,0.0
0.009404182434082031,-0.012991516850888729,9.749653816223145,-0.0037133531786681154,0.0026547544475913746,-0.0024440469106497167,1.3650436401367188,2019-06-24 14:08:10:269,0.0,0.0,0.0
-0.0025695664808154106,0.006166480481624603,9.797548294067383,-0.0010495417077201262,0.00039051476555509394,-0.0028436186020335537,1.3709630966186523,2019-06-24 14:08:10:275,0.0,0.0,0.0
0.0046146828681230545,0.003771730698645115,9.797548294067383,0.0008151263154416085,-0.0020069155452943806,0.004215481539155223,1.3751649856567383,2019-06-24 14:08:10:279,0.0,0.0,0.0
-0.028911812230944633,0.006166480481624603,9.811917304992676,-0.0007831605801309015,0.0007900864894482214,0.0004861455903596255,1.3800153732299805,2019-06-24 14:08:10:284,0.0,0.0,0.0
-0.01933281496167183,-0.04412326216697693,9.80952262878418,0.0020138414546117004,-0.003605202310829728,0.0003529550265650132,1.3850150108337402,2019-06-24 14:08:10:289,0.0,0.0,0.0
-0.03609606251120567,-0.0010177686344832182,9.795153617858887,1.5982868671268808e-05,-0.0002754381184365489,0.0031499570287983245,1.389997959136963,2019-06-24 14:08:10:294,0.0,0.0,0.0
-0.02651706337928772,-0.015386266633868217,9.77120590209961,0.0002823640277538687,-0.0004086286822311611,0.004481862926818772,1.3958978652954102,2019-06-24 14:08:10:300,0.0,0.0,0.0
-0.0073590655811131,-0.008202017284929752,9.831074714660645,-0.00025039827618851643,0.0007900864894482214,0.0015516701332258143,1.400003433227539,2019-06-24 14:08:10:304,0.0,0.0,0.0
-0.01933281496167183,-0.022570515051484108,9.797548294067383,-0.0031805909234896667,-0.0018737249814997682,-0.0028436186020335537,1.4058895111083984,2019-06-24 14:08:10:310,0.0,0.0,0.0
-0.0001748167269397527,-0.005807267967611551,9.80952262878418,0.0002823640277538687,0.0005237053293497061,-0.0003129978574266295,1.4099998474121094,2019-06-24 14:08:10:314,0.0,0.0,0.0
0.02377268113195896,0.003771730698645115,9.816706657409668,-0.001315922900327932,0.0007900864894482214,-0.004308715063848614,1.415247917175293,2019-06-24 14:08:10:319,0.0,0.0,0.0
-0.009753815829753876,0.030113978311419487,9.737679481506348,-0.000383588856237774,-0.0004086286822311611,-0.003376381117286328,1.4202814102172852,2019-06-24 14:08:10:324,0.0,0.0,0.0
-0.024122314527630806,0.020534979179501534,9.768811225891113,0.0020138414546117004,-0.00427115512980279,-0.00350957168108094,1.4250307083129883,2019-06-24 14:08:10:329,0.0,0.0,0.0
0.026167429983615875,-0.03693901374936104,9.797548294067383,-0.0009163511439255139,0.001056467617037446,-4.661670139177563e-05,1.430882453918457,2019-06-24 14:08:10:335,0.0,0.0,0.0
-0.02651706337928772,0.022929728031158447,9.802337646484375,-0.006243974150840074,-0.0018737249814997682,0.00128528900563659,1.4350090026855469,2019-06-24 14:08:10:339,0.0,0.0,0.0
-0.0073590655811131,0.022929728031158447,9.840654373168945,-0.00025039827618851643,0.0007900864894482214,0.0015516701332258143,1.440894603729248,2019-06-24 14:08:10:345,0.0,0.0,0.0
-0.01933281496167183,0.02532447874546051,9.823890686035156,0.0006819357516469962,-0.0010745815337135133,0.0018180512608150393,1.4450135231018066,2019-06-24 14:08:10:349,0.0,0.0,0.0
-0.038490813225507736,-0.008202017284929752,9.768811225891113,0.0028129849674165368,0.0031875167027698237,-0.002976809165828166,1.4500007629394531,2019-06-24 14:08:10:354,0.0,0.0,0.0
0.007009432185441256,0.0013769810320809484,9.773600578308105,-0.0031805909234896667,0.002121992192412926,-0.003376381117286328,1.4559040069580078,2019-06-24 14:08:10:360,0.0,0.0,0.0
0.016588430851697922,-0.005807267967611551,9.814311981201172,0.0021470320184063126,0.00025732418550583624,0.0014184795694312021,1.4600896835327148,2019-06-24 14:08:10:364,0.0,0.0,0.0
-0.012148565612733364,-0.01059676706790924,9.795153617858887,-0.001715494591711769,-0.0028060589280620545,-0.001112141272703594,1.465031623840332,2019-06-24 14:08:10:369,0.0,0.0,0.0
-0.043280310928821564,-0.01778101734817028,9.761627197265625,0.0005487451878523839,-0.0004086286822311611,-0.0009789507089089816,1.47092866897583,2019-06-24 14:08:10:375,0.0,0.0,0.0
0.0046146828681230545,0.015745479613542557,9.816706657409668,0.00041555459154848093,-0.0010745815337135133,-0.0023108563468551046,1.4750356674194336,2019-06-24 14:08:10:379,0.0,0.0,0.0
0.007009432185441256,-0.012991516850888729,9.787969589233398,-0.0009163511439255139,-0.0016073438539105438,0.0022176230822360385,1.4808826446533203,2019-06-24 14:08:10:385,0.0,0.0,0.0
0.016588430851697922,0.030113978311419487,9.811917304992676,0.0010815074430308332,0.0001241336135839013,-4.661670139177563e-05,1.4850072860717773,2019-06-24 14:08:10:389,0.0,0.0,0.0
-0.04567506164312363,0.020534979179501534,9.823890686035156,0.001347888635638639,-0.0010745815337135133,-0.004708286755232451,1.4908971786499023,2019-06-24 14:08:10:395,0.0,0.0,0.0
-0.004964316263794899,-0.01778101734817028,9.811917304992676,-0.0009163511439255139,-0.002672868364267442,-0.0013785224002928185,1.495011806488037,2019-06-24 14:08:10:399,0.0,0.0,0.0
0.0046146828681230545,0.008561230264604092,9.778390884399414,0.0006819357516469962,-0.001740534417705156,0.0003529550265650132,1.500882625579834,2019-06-24 14:08:10:405,0.0,0.0,0.0
0.040535926818847656,0.015745479613542557,9.831074714660645,0.0001491734477046111,0.0025215638837967624,0.0011520984418419776,1.505941390991211,2019-06-24 14:08:10:410,0.0,0.0,0.0
-0.03130656108260155,-0.0010177686344832182,9.847838401794434,-0.002914209795900442,-0.003605202310829728,-0.00017980727737737192,1.5100040435791016,2019-06-24 14:08:10:414,0.0,0.0,0.0
0.0022199328523129225,0.03729822486639023,9.778390884399414,0.0005487451878523839,-0.0033388211832405036,0.0002197644465157556,1.515892505645752,2019-06-24 14:08:10:420,0.0,0.0,0.0
-0.009753815829753876,0.008561230264604092,9.795153617858887,0.0044112719930262095,0.0014560393734398642,-0.0012453318364982061,1.5200204849243164,2019-06-24 14:08:10:424,0.0,0.0,0.0
-0.01933281496167183,0.01814022846519947,9.787969589233398,0.0009483168792362209,-0.0008082004061242886,0.000885717314252753,1.5259060859680176,2019-06-24 14:08:10:430,0.0,0.0,0.0
0.0022199328523129225,0.01095598004758358,9.845443725585938,0.0008151263154416085,-0.0009413909699189009,0.000885717314252753,1.5300006866455078,2019-06-24 14:08:10:434,0.0,0.0,0.0
-0.0025695664808154106,-0.0010177686344832182,9.80952262878418,-0.0035801626148735037,0.0001241336135839013,0.0016848606970204267,1.5350089073181152,2019-06-24 14:08:10:439,0.0,0.0,0.0
0.02377268113195896,-0.01778101734817028,9.78078556060791,0.002679794403621924,-0.0004086286822311611,-0.001644903527882043,1.5408954620361328,2019-06-24 14:08:10:445,0.0,0.0,0.0
0.018983181565999985,-0.022570515051484108,9.768811225891113,-0.001715494591711769,-0.0024064872366782175,0.0031499570287983245,1.545013427734375,2019-06-24 14:08:10:449,0.0,0.0,0.0
0.030956929549574852,0.013350729830563068,9.804732322692871,-0.002381447540721993,-0.0012077721625267067,-0.0012453318364982061,1.5509366989135742,2019-06-24 14:08:10:455,0.0,0.0,0.0
-0.004964316263794899,0.01814022846519947,9.761627197265625,0.0006819357516469962,-0.0005418192460257735,0.0011520984418419776,1.5550284385681152,2019-06-24 14:08:10:459,0.0,0.0,0.0
0.011798931285738945,-0.0034125184174627066,9.82149600982666,0.00041555459154848093,0.0006568959256536091,-0.00044618842122124184,1.5608854293823242,2019-06-24 14:08:10:465,0.0,0.0,0.0
0.0572991743683815,0.008561230264604092,9.819101333618164,-0.002647828668311217,0.002121992192412926,0.0018180512608150393,1.5659313201904297,2019-06-24 14:08:10:470,0.0,0.0,0.0
0.009404182434082031,-0.01778101734817028,9.787969589233398,0.002546603839827312,-9.05695935394897e-06,0.00128528900563659,1.5700016021728516,2019-06-24 14:08:10:474,0.0,0.0,0.0
0.030956929549574852,-0.0010177686344832182,9.795153617858887,-0.0014491134641225444,-0.0002754381184365489,-0.0032431902934173906,1.5750112533569336,2019-06-24 14:08:10:479,0.0,0.0,0.0
0.02856217883527279,0.0325087271630764,9.819101333618164,0.0017474603270224759,-0.0033388211832405036,-0.001644903527882043,1.5808939933776855,2019-06-24 14:08:10:485,0.0,0.0,0.0
0.009404182434082031,-0.022570515051484108,9.838258743286133,0.0006819357516469962,0.0011896582458506397,0.0014184795694312021,1.585012435913086,2019-06-24 14:08:10:489,0.0,0.0,0.0
-0.004964316263794899,-0.01059676706790924,9.843049049377441,0.0024134132760327,0.0007900864894482214,0.00128528900563659,1.5911264419555664,2019-06-24 14:08:10:495,0.0,0.0,0.0
0.018983181565999985,-0.022570515051484108,9.819101333618164,0.001880650890817088,-0.0004086286822311611,0.0006193361866635284,1.5950326919555664,2019-06-24 14:08:10:499,0.0,0.0,0.0
0.0046146828681230545,0.015745479613542557,9.816706657409668,-0.0006499700163362892,0.0009232770532428338,-0.0009789507089089816,1.600886344909668,2019-06-24 14:08:10:505,0.0,0.0,0.0
-0.014543314464390278,0.003771730698645115,9.82149600982666,-0.0006499700163362892,-0.0005418192460257735,0.0004861455903596255,1.6050124168395996,2019-06-24 14:08:10:509,0.0,0.0,0.0
-0.014543314464390278,0.006166480481624603,9.855022430419922,0.0010815074430308332,-9.05695935394897e-06,0.0030167664650037123,1.6109113693237305,2019-06-24 14:08:10:515,0.0,0.0,0.0
-0.0001748167269397527,0.003771730698645115,9.797548294067383,0.0005487451878523839,-0.0020069155452943806,-0.0017780940916766552,1.615020751953125,2019-06-24 14:08:10:519,0.0,0.0,0.0
0.0046146828681230545,0.01814022846519947,9.790364265441895,0.002546603839827312,-0.0046707268211866266,-0.0009789507089089816,1.6208839416503906,2019-06-24 14:08:10:525,0.0,0.0,0.0
-0.016938064247369766,0.008561230264604092,9.783180236816406,-0.0015823040279171567,0.0023883733200021503,-0.0021776657830604924,1.6250085830688477,2019-06-24 14:08:10:529,0.0,0.0,0.0
-0.028911812230944633,0.008561230264604092,9.86220645904541,-0.0033137814872842794,0.003587088394153661,0.0002197644465157556,1.6308951377868652,2019-06-24 14:08:10:535,0.0,0.0,0.0
-0.024122314527630806,0.008561230264604092,9.83346939086914,-0.0015823040279171567,-0.0012077721625267067,0.0030167664650037123,1.6350464820861816,2019-06-24 14:08:10:539,0.0,0.0,0.0
-0.0001748167269397527,0.01095598004758358,9.799942970275879,-0.0007831605801309015,0.0025215638837967624,-0.0005793790175251447,1.640890121459961,2019-06-24 14:08:10:545,0.0,0.0,0.0
-0.012148565612733364,-0.01778101734817028,9.816706657409668,0.0034789377863895985,-0.0020069155452943806,-0.002577237474444329,1.6450071334838867,2019-06-24 14:08:10:549,0.0,0.0,0.0
0.018983181565999985,-0.0034125184174627066,9.802337646484375,0.0008151263154416085,-0.0018737249814997682,0.0022176230822360385,1.6509079933166504,2019-06-24 14:08:10:555,0.0,0.0,0.0
-0.024122314527630806,-0.012991516850888729,9.843049049377441,-0.00025039827618851643,-0.0004086286822311611,0.005946958868485183,1.65592622756958,2019-06-24 14:08:10:560,0.0,0.0,0.0
-0.01933281496167183,0.01095598004758358,9.778390884399414,-0.0021150662830956056,0.0026547544475913746,-0.0032431902934173906,1.6600027084350586,2019-06-24 14:08:10:564,0.0,0.0,0.0
0.02377268113195896,0.042087726294994354,9.855022430419922,-0.0007831605801309015,-0.0022732966728836053,0.0015516701332258143,1.6650123596191406,2019-06-24 14:08:10:569,0.0,0.0,0.0
0.03814117982983589,-0.02496526576578617,9.804732322692871,0.002546603839827312,-0.001740534417705156,0.0031499570287983245,1.6708898544311523,2019-06-24 14:08:10:575,0.0,0.0,0.0
-0.0073590655811131,-0.01059676706790924,9.823890686035156,0.0010815074430308332,-0.0022732966728836053,-0.004575095931363514,1.6750106811523438,2019-06-24 14:08:10:579,0.0,0.0,0.0
-0.021727563813328743,0.022929728031158447,9.773600578308105,0.001347888635638639,0.001855611064823701,0.0007525267504581406,1.6808977127075195,2019-06-24 14:08:10:585,0.0,0.0,0.0
-0.004964316263794899,-0.015386266633868217,9.799942970275879,-0.0005167794200323863,0.001855611064823701,-0.003909143372464777,1.6850252151489258,2019-06-24 14:08:10:589,0.0,0.0,0.0
0.0022199328523129225,-0.012991516850888729,9.790364265441895,-0.00025039827618851643,0.002121992192412926,-0.003775952808670165,1.6900014877319336,2019-06-24 14:08:10:594,0.0,0.0,0.0
0.02377268113195896,-0.0034125184174627066,9.83346939086914,-0.0011827323365333196,-0.0004086286822311611,0.000885717314252753,1.6958980560302734,2019-06-24 14:08:10:600,0.0,0.0,0.0
0.026167429983615875,0.04448247700929642,9.807126998901367,-0.0014491134641225444,-0.0005418192460257735,-0.002577237474444329,1.7000064849853516,2019-06-24 14:08:10:604,0.0,0.0,0.0
-0.01933281496167183,0.0013769810320809484,9.797548294067383,-0.0010495417077201262,0.0030543261389752115,-0.0007125695813197571,1.7058968544006348,2019-06-24 14:08:10:610,0.0,0.0,0.0
-0.0025695664808154106,0.006166480481624603,9.749653816223145,-0.0007831605801309015,0.0047858034683051715,-0.001644903527882043,1.7100086212158203,2019-06-24 14:08:10:614,0.0,0.0,0.0
-0.016938064247369766,-0.0034125184174627066,9.871786117553711,-0.0019818757193009935,-0.0024064872366782175,8.657387459382065e-05,1.7158946990966797,2019-06-24 14:08:10:620,0.0,0.0,0.0
-0.024122314527630806,0.0013769810320809484,9.77120590209961,0.00041555459154848093,0.0001241336135839013,-0.0008457601451143693,1.7200002670288086,2019-06-24 14:08:10:624,0.0,0.0,0.0
-0.0073590655811131,0.013350729830563068,9.814311981201172,0.0038785094777734346,0.001855611064823701,-0.00350957168108094,1.725937843322754,2019-06-24 14:08:10:630,0.0,0.0,0.0
-0.0073590655811131,-0.01778101734817028,9.79275894165039,0.0017474603270224759,0.0014560393734398642,0.0006193361866635284,1.7300024032592773,2019-06-24 14:08:10:634,0.0,0.0,0.0
0.007009432185441256,-0.01059676706790924,9.826285362243652,-0.0011827323365333196,0.007183234136756843,0.0003529550265650132,1.735896110534668,2019-06-24 14:08:10:640,0.0,0.0,0.0
-0.012148565612733364,-0.056097012013196945,9.783180236816406,-0.000383588856237774,0.00025732418550583624,-0.001112141272703594,1.7400140762329102,2019-06-24 14:08:10:644,0.0,0.0,0.0
0.040535926818847656,-0.03693901374936104,9.811917304992676,0.002946175531211149,-0.0009413909699189009,-0.0036427622448755525,1.7459049224853516,2019-06-24 14:08:10:650,0.0,0.0,0.0
-0.0073590655811131,-0.0010177686344832182,9.852627754211426,-0.001315922900327932,0.006250899930120232,0.0002197644465157556,1.7499990463256836,2019-06-24 14:08:10:654,0.0,0.0,0.0
0.011798931285738945,0.0013769810320809484,9.807126998901367,-0.002381447540721993,0.0015892299372344764,0.0014184795694312021,1.7558917999267578,2019-06-24 14:08:10:660,0.0,0.0,0.0
-0.0025695664808154106,-0.008202017284929752,9.838258743286133,1.5982868671268808e-05,0.0017224205010290888,-0.001644903527882043,1.760009765625,2019-06-24 14:08:10:664,0.0,0.0,0.0
0.011798931285738945,0.027719227597117424,9.787969589233398,0.0002823640277538687,0.00585132797866207,-0.003376381117286328,1.765009880065918,2019-06-24 14:08:10:669,0.0,0.0,0.0
0.0046146828681230545,-0.01059676706790924,9.735284805297852,-0.0006499700163362892,0.0011896582458506397,-0.0020444752192658802,1.7700395584106445,2019-06-24 14:08:10:674,0.0,0.0,0.0
0.009404182434082031,0.01814022846519947,9.80952262878418,-0.0015823040279171567,-0.004803917645055564,0.0018180512608150393,1.7758970260620117,2019-06-24 14:08:10:680,0.0,0.0,0.0
0.007009432185441256,0.0325087271630764,9.744863510131836,-0.00011720770426658147,-0.0010745815337135133,-0.0019112846554712676,1.7799930572509766,2019-06-24 14:08:10:684,0.0,0.0,0.0
0.016588430851697922,0.042087726294994354,9.744863510131836,-0.004246115433846565,-0.0012077721625267067,-0.0032431902934173906,1.7850446701049805,2019-06-24 14:08:10:689,0.0,0.0,0.0
0.0022199328523129225,-0.03214951604604721,9.759232521057129,0.002679794403621924,-0.0006750098423296765,-0.001112141272703594,1.7908897399902344,2019-06-24 14:08:10:695,0.0,0.0,0.0
-0.024122314527630806,-0.041728515177965164,9.785574913024902,-0.003446972051078891,-0.003205630619445891,-0.001644903527882043,1.7950124740600586,2019-06-24 14:08:10:699,0.0,0.0,0.0
0.06448342651128769,0.034903477877378464,9.790364265441895,-0.005045258816614238,0.004519422340715947,-0.0007125695813197571,1.8000068664550781,2019-06-24 14:08:10:704,0.0,0.0,0.0
-0.03609606251120567,0.03969297558069229,9.840654373168945,0.0010815074430308332,-0.0022732966728836053,-0.003909143372464777,1.8050127029418945,2019-06-24 14:08:10:709,0.0,0.0,0.0
-0.014543314464390278,0.0013769810320809484,9.816706657409668,-0.00278101923210583,-0.0008082004061242886,0.002084432388404264,1.8108882904052734,2019-06-24 14:08:10:715,0.0,0.0,0.0
-0.01933281496167183,-0.020175766199827194,9.838258743286133,-0.002647828668311217,0.0034538978303590485,0.0031499570287983245,1.8150653839111328,2019-06-24 14:08:10:719,0.0,0.0,0.0
0.011798931285738945,0.008561230264604092,9.787969589233398,-0.002647828668311217,-0.0012077721625267067,-0.0013785224002928185,1.8208904266357422,2019-06-24 14:08:10:725,0.0,0.0,0.0
0.011798931285738945,0.022929728031158447,9.826285362243652,-0.0010495417077201262,-0.003605202310829728,0.002084432388404264,1.825007438659668,2019-06-24 14:08:10:729,0.0,0.0,0.0
-0.0408855602145195,0.006166480481624603,9.857417106628418,0.0010815074430308332,-0.005070298772644788,8.657387459382065e-05,1.8309149742126465,2019-06-24 14:08:10:735,0.0,0.0,0.0
-0.0073590655811131,-0.03214951604604721,9.819101333618164,0.003079366095005761,-0.0002754381184365489,-0.002710428038238941,1.8350162506103516,2019-06-24 14:08:10:739,0.0,0.0,0.0
-0.01933281496167183,0.022929728031158447,9.811917304992676,0.002679794403621924,-0.0004086286822311611,-0.0024440469106497167,1.8408803939819336,2019-06-24 14:08:10:745,0.0,0.0,0.0
-0.009753815829753876,0.008561230264604092,9.816706657409668,-0.00025039827618851643,0.0030543261389752115,0.0028835759012090997,1.8450078964233398,2019-06-24 14:08:10:749,0.0,0.0,0.0
-0.016938064247369766,0.006166480481624603,9.845443725585938,0.0024134132760327,0.002121992192412926,8.657387459382065e-05,1.85089111328125,2019-06-24 14:08:10:755,0.0,0.0,0.0
0.018983181565999985,-0.0010177686344832182,9.795153617858887,-0.0019818757193009935,0.00039051476555509394,-0.003775952808670165,1.8550167083740234,2019-06-24 14:08:10:759,0.0,0.0,0.0
0.018983181565999985,0.01814022846519947,9.811917304992676,0.0009483168792362209,0.0015892299372344764,0.0002197644465157556,1.860011100769043,2019-06-24 14:08:10:764,0.0,0.0,0.0
0.033351678401231766,0.022929728031158447,9.71373176574707,0.0001491734477046111,-0.0021401061090889927,-0.001644903527882043,1.8658952713012695,2019-06-24 14:08:10:770,0.0,0.0,0.0
0.0572991743683815,-0.01059676706790924,9.864601135253906,-0.0037133531786681154,-0.0009413909699189009,-0.0032431902934173906,1.870133876800537,2019-06-24 14:08:10:774,0.0,0.0,0.0
-0.004964316263794899,0.003771730698645115,9.790364265441895,-0.0006499700163362892,0.0013228488096452518,0.0003529550265650132,1.8750367164611816,2019-06-24 14:08:10:779,0.0,0.0,0.0
0.018983181565999985,0.0013769810320809484,9.764021873474121,-0.002514638104516605,-0.0012077721625267067,-0.0009789507089089816,1.8808841705322266,2019-06-24 14:08:10:785,0.0,0.0,0.0
0.018983181565999985,-0.0034125184174627066,9.828680038452148,-0.00025039827618851643,-0.0037383928746243405,-0.001112141272703594,1.885009765625,2019-06-24 14:08:10:789,0.0,0.0,0.0
-0.0025695664808154106,-0.005807267967611551,9.790364265441895,-0.000383588856237774,0.00025732418550583624,-0.0005793790175251447,1.8900094032287598,2019-06-24 14:08:10:794,0.0,0.0,0.0
-0.014543314464390278,0.01814022846519947,9.826285362243652,0.0001491734477046111,0.002255182756207538,-0.00404233393625939,1.8958892822265625,2019-06-24 14:08:10:800,0.0,0.0,0.0
-0.0073590655811131,-0.005807267967611551,9.754443168640137,0.0014810791994332513,0.001056467617037446,0.0007525267504581406,1.8999991416931152,2019-06-24 14:08:10:804,0.0,0.0,0.0
-0.024122314527630806,0.02532447874546051,9.764021873474121,-0.001715494591711769,-0.0004086286822311611,0.0019512418246096514,1.9050378799438477,2019-06-24 14:08:10:809,0.0,0.0,0.0
0.018983181565999985,0.015745479613542557,9.80952262878418,-0.00278101923210583,0.0023883733200021503,0.000885717314252753,1.9108834266662598,2019-06-24 14:08:10:815,0.0,0.0,0.0
0.018983181565999985,-0.012991516850888729,9.78078556060791,0.0022802227122380877,-9.05695935394897e-06,0.0011520984418419776,1.9150285720825195,2019-06-24 14:08:10:819,0.0,0.0,0.0
-0.04806981235742569,0.02532447874546051,9.766416549682617,-0.0010495417077201262,-0.0033388211832405036,0.0024840042098252632,1.9208898544311523,2019-06-24 14:08:10:825,0.0,0.0,0.0
0.0046146828681230545,0.015745479613542557,9.790364265441895,-0.0033137814872842794,0.002121992192412926,-0.0024440469106497167,1.9250125885009766,2019-06-24 14:08:10:829,0.0,0.0,0.0
-0.012148565612733364,-0.0010177686344832182,9.79275894165039,0.002679794403621924,-0.0029392494918566666,-0.002710428038238941,1.9308891296386719,2019-06-24 14:08:10:835,0.0,0.0,0.0
-0.0025695664808154106,0.0013769810320809484,9.79275894165039,-0.0033137814872842794,0.0017224205010290888,0.0003529550265650132,1.9350128173828125,2019-06-24 14:08:10:839,0.0,0.0,0.0
-0.016938064247369766,-0.04651801288127899,9.799942970275879,0.0005487451878523839,0.0017224205010290888,0.0007525267504581406,1.940882682800293,2019-06-24 14:08:10:845,0.0,0.0,0.0
0.011798931285738945,0.01814022846519947,9.795153617858887,0.00534360567951417,-0.0004086286822311611,0.003416338156387549,1.9450364112854004,2019-06-24 14:08:10:849,0.0,0.0,0.0
-0.0025695664808154106,0.042087726294994354,9.828680038452148,-0.0006499700163362892,-0.0021401061090889927,0.0011520984418419776,1.950911045074463,2019-06-24 14:08:10:855,0.0,0.0,0.0
0.007009432185441256,-0.0034125184174627066,9.756837844848633,-0.002381447540721993,0.00411985064933211,-0.001112141272703594,1.9550414085388184,2019-06-24 14:08:10:859,0.0,0.0,0.0
-0.012148565612733364,-0.029754765331745148,9.783180236816406,-0.0009163511439255139,0.0009232770532428338,0.0040822909753606106,1.9610037803649902,2019-06-24 14:08:10:865,0.0,0.0,0.0
-0.0001748167269397527,0.003771730698645115,9.754443168640137,0.0001491734477046111,-0.0012077721625267067,-0.002976809165828166,1.9650259017944336,2019-06-24 14:08:10:869,0.0,0.0,0.0
0.0213779304176569,0.06603522598743439,9.785574913024902,-0.000383588856237774,0.002121992192412926,0.0011520984418419776,1.970881462097168,2019-06-24 14:08:10:875,0.0,0.0,0.0
-0.0001748167269397527,0.03729822486639023,9.802337646484375,-0.0033137814872842794,0.00039051476555509394,8.657387459382065e-05,1.9750375747680664,2019-06-24 14:08:10:879,0.0,0.0,0.0
0.026167429983615875,0.013350729830563068,9.77120590209961,-0.00011720770426658147,-0.0024064872366782175,0.0019512418246096514,1.9800100326538086,2019-06-24 14:08:10:884,0.0,0.0,0.0
0.03574642911553383,-0.01778101734817028,9.807126998901367,-0.000383588856237774,0.00025732418550583624,-0.0032431902934173906,1.9858980178833008,2019-06-24 14:08:10:890,0.0,0.0,0.0
0.03814117982983589,-0.01778101734817028,9.797548294067383,0.002946175531211149,0.003587088394153661,0.00128528900563659,1.990030288696289,2019-06-24 14:08:10:894,0.0,0.0,0.0
-0.04567506164312363,0.042087726294994354,9.840654373168945,0.0044112719930262095,-0.0012077721625267067,-0.004708286755232451,1.9950342178344727,2019-06-24 14:08:10:899,0.0,0.0,0.0
-0.004964316263794899,0.013350729830563068,9.775995254516602,0.0005487451878523839,0.0005237053293497061,0.00128528900563659,2.0008811950683594,2019-06-24 14:08:10:905,0.0,0.0,0.0
-0.028911812230944633,0.030113978311419487,9.778390884399414,0.001880650890817088,0.0031875167027698237,0.004215481539155223,2.005941390991211,2019-06-24 14:08:10:910,0.0,0.0,0.0
0.018983181565999985,-0.01778101734817028,9.787969589233398,-0.0007831605801309015,-0.002672868364267442,0.0010189078780473654,2.010000228881836,2019-06-24 14:08:10:914,0.0,0.0,0.0
-0.0073590655811131,0.006166480481624603,9.83346939086914,0.0028129849674165368,-0.002672868364267442,0.0031499570287983245,2.01589298248291,2019-06-24 14:08:10:920,0.0,0.0,0.0
-0.009753815829753876,0.006166480481624603,9.775995254516602,-0.000383588856237774,0.0005237053293497061,-0.004575095931363514,2.0200090408325195,2019-06-24 14:08:10:924,0.0,0.0,0.0
0.0213779304176569,0.008561230264604092,9.895732879638672,0.0024134132760327,0.0005237053293497061,0.0010189078780473654,2.025899887084961,2019-06-24 14:08:10:930,0.0,0.0,0.0
0.026167429983615875,-0.005807267967611551,9.799942970275879,0.001880650890817088,0.001855611064823701,-0.0023108563468551046,2.030000686645508,2019-06-24 14:08:10:934,0.0,0.0,0.0
-0.03370131179690361,-0.01059676706790924,9.802337646484375,0.0002823640277538687,0.001056467617037446,-0.0017780940916766552,2.0350379943847656,2019-06-24 14:08:10:939,0.0,0.0,0.0
0.0046146828681230545,-0.005807267967611551,9.80952262878418,-0.0010495417077201262,0.0009232770532428338,-0.0019112846554712676,2.040896415710449,2019-06-24 14:08:10:945,0.0,0.0,0.0
-0.0001748167269397527,0.027719227597117424,9.737679481506348,0.0008151263154416085,-0.0022732966728836053,-0.0017780940916766552,2.0451407432556152,2019-06-24 14:08:10:949,0.0,0.0,0.0
-0.009753815829753876,-0.012991516850888729,9.778390884399414,-0.0014491134641225444,0.00411985064933211,-4.661670139177563e-05,2.0500378608703613,2019-06-24 14:08:10:954,0.0,0.0,0.0
0.04532542824745178,-0.0010177686344832182,9.725706100463867,1.5982868671268808e-05,0.0025215638837967624,-0.0007125695813197571,2.0559329986572266,2019-06-24 14:08:10:960,0.0,0.0,0.0
0.0213779304176569,-0.0010177686344832182,9.871786117553711,-0.0015823040279171567,0.0009232770532428338,0.000885717314252753,2.060000419616699,2019-06-24 14:08:10:964,0.0,0.0,0.0
0.009404182434082031,0.0013769810320809484,9.814311981201172,0.003745318913978823,-0.001740534417705156,0.0028835759012090997,2.065894603729248,2019-06-24 14:08:10:970,0.0,0.0,0.0
-0.02651706337928772,-0.020175766199827194,9.819101333618164,0.0021470320184063126,0.002255182756207538,0.0007525267504581406,2.070005416870117,2019-06-24 14:08:10:974,0.0,0.0,0.0
0.011798931285738945,-0.0010177686344832182,9.845443725585938,0.0022802227122380877,0.001855611064823701,-0.00044618842122124184,2.075897216796875,2019-06-24 14:08:10:980,0.0,0.0,0.0
0.014193681068718433,-0.008202017284929752,9.823890686035156,0.0032125566588003737,0.001855611064823701,-0.00044618842122124184,2.0799989700317383,2019-06-24 14:08:10:984,0.0,0.0,0.0
0.014193681068718433,0.013350729830563068,9.785574913024902,-0.002514638104516605,-0.0009413909699189009,-0.0003129978574266295,2.085041046142578,2019-06-24 14:08:10:989,0.0,0.0,0.0
0.009404182434082031,0.0013769810320809484,9.778390884399414,0.0012146980718440268,-0.0022732966728836053,0.0011520984418419776,2.090920925140381,2019-06-24 14:08:10:995,0.0,0.0,0.0
0.02856217883527279,0.0013769810320809484,9.811917304992676,0.0017474603270224759,-0.0002754381184365489,-0.0015117129640874309,2.0950326919555664,2019-06-24 14:08:10:999,0.0,0.0,0.0
-0.0073590655811131,-0.04412326216697693,9.845443725585938,1.5982868671268808e-05,0.0026547544475913746,0.0035495287201821614,2.1008825302124023,2019-06-24 14:08:11:005,0.0,0.0,0.0
0.0213779304176569,-0.008202017284929752,9.811917304992676,-0.003047400359695054,-0.0005418192460257735,0.002084432388404264,2.105012893676758,2019-06-24 14:08:11:009,0.0,0.0,0.0
0.0213779304176569,0.01095598004758358,9.764021873474121,-0.001848685155506381,-0.0012077721625267067,0.0003529550265650132,2.1108951568603516,2019-06-24 14:08:11:015,0.0,0.0,0.0
0.009404182434082031,0.015745479613542557,9.797548294067383,-0.00011720770426658147,-0.0033388211832405036,-0.005107858186541962,2.115013599395752,2019-06-24 14:08:11:019,0.0,0.0,0.0
-0.02651706337928772,-0.02496526576578617,9.807126998901367,-0.002647828668311217,-0.0029392494918566666,-4.661670139177563e-05,2.1208834648132324,2019-06-24 14:08:11:025,0.0,0.0,0.0
-0.012148565612733364,-0.0034125184174627066,9.764021873474121,-0.00278101923210583,0.0001241336135839013,0.0019512418246096514,2.1250362396240234,2019-06-24 14:08:11:029,0.0,0.0,0.0
-0.012148565612733364,-0.01778101734817028,9.86220645904541,-0.001715494591711769,-0.0029392494918566666,-0.004175524500054002,2.130892276763916,2019-06-24 14:08:11:035,0.0,0.0,0.0
-0.004964316263794899,-0.0010177686344832182,9.725706100463867,0.0009483168792362209,-9.05695935394897e-06,0.0031499570287983245,2.1351585388183594,2019-06-24 14:08:11:039,0.0,0.0,0.0
-0.014543314464390278,-0.020175766199827194,9.749653816223145,0.002546603839827312,0.0006568959256536091,-4.661670139177563e-05,2.140906810760498,2019-06-24 14:08:11:045,0.0,0.0,0.0
-0.009753815829753876,-0.02496526576578617,9.785574913024902,0.0038785094777734346,0.0026547544475913746,-0.001112141272703594,2.1450119018554688,2019-06-24 14:08:11:049,0.0,0.0,0.0
0.0022199328523129225,-0.0010177686344832182,9.857417106628418,-0.0005167794200323863,-0.001740534417705156,-0.004308715063848614,2.15087890625,2019-06-24 14:08:11:055,0.0,0.0,0.0
-0.0001748167269397527,-0.02496526576578617,9.787969589233398,-0.0011827323365333196,-0.0005418192460257735,-0.0032431902934173906,2.155031204223633,2019-06-24 14:08:11:059,0.0,0.0,0.0
0.0022199328523129225,-0.02496526576578617,9.744863510131836,0.004544462296746496,0.0027879450113859868,-4.661670139177563e-05,2.160895347595215,2019-06-24 14:08:11:065,0.0,0.0,0.0
-0.0001748167269397527,0.0013769810320809484,9.768811225891113,-0.00011720770426658147,-0.0008082004061242886,-0.0015117129640874309,2.1650123596191406,2019-06-24 14:08:11:069,0.0,0.0,0.0
0.016588430851697922,0.022929728031158447,9.785574913024902,-0.003446972051078891,-0.0010745815337135133,-0.0028436186020335537,2.1700005531311035,2019-06-24 14:08:11:074,0.0,0.0,0.0
-0.016938064247369766,0.0325087271630764,9.826285362243652,-0.001715494591711769,-0.0009413909699189009,-0.003109999729622778,2.175906181335449,2019-06-24 14:08:11:080,0.0,0.0,0.0
0.0022199328523129225,0.006166480481624603,9.778390884399414,0.002946175531211149,-0.0002754381184365489,-4.661670139177563e-05,2.1809439659118652,2019-06-24 14:08:11:085,0.0,0.0,0.0
-0.0001748167269397527,-0.04412326216697693,9.790364265441895,-0.001315922900327932,0.00039051476555509394,-0.005640620961869062,2.185028076171875,2019-06-24 14:08:11:089,0.0,0.0,0.0
0.009404182434082031,-0.0034125184174627066,9.845443725585938,-0.0005167794200323863,-0.0010745815337135133,-0.0019112846554712676,2.19088077545166,2019-06-24 14:08:11:095,0.0,0.0,0.0
0.014193681068718433,-0.02496526576578617,9.866995811462402,-0.003047400359695054,-0.0005418192460257735,0.0024840042098252632,2.1950063705444336,2019-06-24 14:08:11:099,0.0,0.0,0.0
0.0046146828681230545,0.0013769810320809484,9.797548294067383,0.0010815074430308332,-0.001740534417705156,-0.0019112846554712676,2.200894355773926,2019-06-24 14:08:11:105,0.0,0.0,0.0
0.04532542824745178,-0.005807267967611551,9.82149600982666,0.0009483168792362209,0.0023883733200021503,-0.0009789507089089816,2.205012321472168,2019-06-24 14:08:11:109,0.0,0.0,0.0
0.009404182434082031,-0.01059676706790924,9.807126998901367,0.002679794403621924,-0.0022732966728836053,-0.0008457601451143693,2.2108774185180664,2019-06-24 14:08:11:115,0.0,0.0,0.0
-0.016938064247369766,-0.012991516850888729,9.778390884399414,0.0008151263154416085,0.0006568959256536091,0.0014184795694312021,2.21504545211792,2019-06-24 14:08:11:119,0.0,0.0,0.0
-0.0001748167269397527,0.01814022846519947,9.816706657409668,0.0028129849674165368,-0.0025396778004728297,0.0004861455903596255,2.2208943367004395,2019-06-24 14:08:11:125,0.0,0.0,0.0
-0.057648807764053345,-0.008202017284929752,9.831074714660645,-0.003446972051078891,-0.0020069155452943806,-0.003109999729622778,2.2250442504882812,2019-06-24 14:08:11:129,0.0,0.0,0.0
0.007009432185441256,-0.02496526576578617,9.797548294067383,0.0022802227122380877,0.003720278957948273,0.0006193361866635284,2.2300052642822266,2019-06-24 14:08:11:134,0.0,0.0,0.0
0.007009432185441256,0.01095598004758358,9.807126998901367,-0.0009163511439255139,0.0019888016286183133,-0.002976809165828166,2.2350082397460938,2019-06-24 14:08:11:139,0.0,0.0,0.0
0.0022199328523129225,0.0013769810320809484,9.761627197265625,-0.00025039827618851643,0.0043862320369956595,8.657387459382065e-05,2.240896224975586,2019-06-24 14:08:11:145,0.0,0.0,0.0
-0.03370131179690361,0.0013769810320809484,9.756837844848633,0.0006819357516469962,-0.0009413909699189009,0.003416338156387549,2.245009422302246,2019-06-24 14:08:11:149,0.0,0.0,0.0
0.011798931285738945,-0.03214951604604721,9.826285362243652,0.0010815074430308332,0.005052184595894396,-0.00017980727737737192,2.2508835792541504,2019-06-24 14:08:11:155,0.0,0.0,0.0
0.03814117982983589,-0.020175766199827194,9.814311981201172,0.0044112719930262095,-0.0022732966728836053,-0.00044618842122124184,2.255063056945801,2019-06-24 14:08:11:159,0.0,0.0,0.0
0.009404182434082031,0.0013769810320809484,9.78078556060791,0.0017474603270224759,0.0030543261389752115,-0.001644903527882043,2.2608909606933594,2019-06-24 14:08:11:165,0.0,0.0,0.0
-0.038490813225507736,0.042087726294994354,9.785574913024902,0.002679794403621924,0.0017224205010290888,0.000885717314252753,2.2650156021118164,2019-06-24 14:08:11:169,0.0,0.0,0.0
-0.0073590655811131,0.01814022846519947,9.831074714660645,-0.0015823040279171567,0.001056467617037446,0.0028835759012090997,2.270928382873535,2019-06-24 14:08:11:175,0.0,0.0,0.0
-0.0025695664808154106,0.006166480481624603,9.828680038452148,0.001880650890817088,-0.0033388211832405036,-0.004441905627643227,2.2750158309936523,2019-06-24 14:08:11:179,0.0,0.0,0.0
0.033351678401231766,-0.02496526576578617,9.795153617858887,-0.004246115433846565,0.00039051476555509394,0.005014625181997222,2.280888557434082,2019-06-24 14:08:11:185,0.0,0.0,0.0
0.0022199328523129225,0.013350729830563068,9.816706657409668,0.0010815074430308332,-9.05695935394897e-06,-0.0024440469106497167,2.28501033782959,2019-06-24 14:08:11:189,0.0,0.0,0.0
-0.06243830919265747,0.008561230264604092,9.790364265441895,-0.001848685155506381,-0.003472011747035116,-0.0021776657830604924,2.290895462036133,2019-06-24 14:08:11:195,0.0,0.0,0.0
-0.009753815829753876,0.015745479613542557,9.811917304992676,-0.000383588856237774,-0.0022732966728836053,0.004481862926818772,2.2950124740600586,2019-06-24 14:08:11:199,0.0,0.0,0.0
-0.012148565612733364,-0.03214951604604721,9.819101333618164,0.0006819357516469962,-0.0012077721625267067,0.0002197644465157556,2.3008813858032227,2019-06-24 14:08:11:205,0.0,0.0,0.0
-0.02651706337928772,0.008561230264604092,9.826285362243652,-0.002514638104516605,-0.0004086286822311611,-0.0009789507089089816,2.305042266845703,2019-06-24 14:08:11:209,0.0,0.0,0.0
-0.028911812230944633,-0.0010177686344832182,9.819101333618164,-0.001315922900327932,0.0005237053293497061,0.0003529550265650132,2.311035633087158,2019-06-24 14:08:11:215,0.0,0.0,0.0
-0.01933281496167183,0.006166480481624603,9.845443725585938,-0.004246115433846565,-0.0008082004061242886,-0.0017780940916766552,2.3159303665161133,2019-06-24 14:08:11:220,0.0,0.0,0.0
-0.043280310928821564,-0.027360014617443085,9.802337646484375,0.0017474603270224759,0.0023883733200021503,-0.002577237474444329,2.320002555847168,2019-06-24 14:08:11:224,0.0,0.0,0.0
-0.021727563813328743,0.008561230264604092,9.838258743286133,-0.0035801626148735037,-0.0010745815337135133,0.0007525267504581406,2.325897216796875,2019-06-24 14:08:11:230,0.0,0.0,0.0
0.0022199328523129225,0.008561230264604092,9.78078556060791,-0.00011720770426658147,-0.001340962726321319,-0.00044618842122124184,2.3300094604492188,2019-06-24 14:08:11:234,0.0,0.0,0.0
-0.024122314527630806,0.020534979179501534,9.814311981201172,0.0036121283501842102,0.0034538978303590485,0.0006193361866635284,2.335895538330078,2019-06-24 14:08:11:240,0.0,0.0,0.0
0.009404182434082031,-0.008202017284929752,9.737679481506348,-0.001715494591711769,-0.0037383928746243405,-0.0005793790175251447,2.339999198913574,2019-06-24 14:08:11:244,0.0,0.0,0.0
-0.016938064247369766,-0.012991516850888729,9.811917304992676,0.0020138414546117004,-0.0016073438539105438,0.002084432388404264,2.345900535583496,2019-06-24 14:08:11:250,0.0,0.0,0.0
0.0213779304176569,0.015745479613542557,9.75204849243164,-0.0014491134641225444,-0.0033388211832405036,0.0035495287201821614,2.3500070571899414,2019-06-24 14:08:11:254,0.0,0.0,0.0
0.02377268113195896,-0.012991516850888729,9.79275894165039,-0.00278101923210583,-0.0038715834384189522,0.002350813646030651,2.35593318939209,2019-06-24 14:08:11:260,0.0,0.0,0.0
-0.03609606251120567,-0.015386266633868217,9.797548294067383,-0.00451249656143579,0.0007900864894482214,0.002350813646030651,2.3600082397460938,2019-06-24 14:08:11:264,0.0,0.0,0.0
-0.024122314527630806,0.027719227597117424,9.831074714660645,0.0014810791994332513,-0.0008082004061242886,0.0007525267504581406,2.365237236022949,2019-06-24 14:08:11:269,0.0,0.0,0.0
0.016588430851697922,0.003771730698645115,9.83346939086914,-0.0015823040279171567,0.001855611064823701,0.0024840042098252632,2.37093448638916,2019-06-24 14:08:11:275,0.0,0.0,0.0
-0.01933281496167183,-0.03214951604604721,9.749653816223145,-0.001715494591711769,-0.0016073438539105438,-0.0023108563468551046,2.3750104904174805,2019-06-24 14:08:11:279,0.0,0.0,0.0
0.0022199328523129225,0.008561230264604092,9.778390884399414,-0.0006499700163362892,0.002121992192412926,0.003682719283976774,2.3799967765808105,2019-06-24 14:08:11:284,0.0,0.0,0.0
-0.024122314527630806,0.006166480481624603,9.797548294067383,-0.0022482569769273807,-0.0028060589280620545,-0.002710428038238941,2.3859128952026367,2019-06-24 14:08:11:290,0.0,0.0,0.0
-0.024122314527630806,0.05166672542691231,9.795153617858887,-0.001315922900327932,0.001855611064823701,-0.002577237474444329,2.3900156021118164,2019-06-24 14:08:11:294,0.0,0.0,0.0
-0.021727563813328743,-0.0034125184174627066,9.768811225891113,0.0005487451878523839,-0.0022732966728836053,-0.0023108563468551046,2.395009994506836,2019-06-24 14:08:11:299,0.0,0.0,0.0
0.011798931285738945,-0.008202017284929752,9.814311981201172,-0.0009163511439255139,-0.0028060589280620545,-0.003376381117286328,2.4009132385253906,2019-06-24 14:08:11:305,0.0,0.0,0.0
-0.014543314464390278,-0.005807267967611551,9.787969589233398,-0.000383588856237774,-0.0028060589280620545,0.005281006309586446,2.405008316040039,2019-06-24 14:08:11:309,0.0,0.0,0.0
0.0022199328523129225,-0.027360014617443085,9.835864067077637,1.5982868671268808e-05,-9.05695935394897e-06,-0.0032431902934173906,2.4108877182006836,2019-06-24 14:08:11:315,0.0,0.0,0.0
-0.028911812230944633,0.013350729830563068,9.845443725585938,-0.002381447540721993,0.0007900864894482214,-0.0049746678828216755,2.4150023460388184,2019-06-24 14:08:11:319,0.0,0.0,0.0
-0.024122314527630806,-0.0034125184174627066,9.79275894165039,-0.00025039827618851643,-0.0038715834384189522,-0.002976809165828166,2.420884132385254,2019-06-24 14:08:11:325,0.0,0.0,0.0
-0.04567506164312363,-0.02496526576578617,9.82149600982666,0.0024134132760327,0.002255182756207538,0.0002197644465157556,2.42501163482666,2019-06-24 14:08:11:329,0.0,0.0,0.0
-0.004964316263794899,-0.005807267967611551,9.797548294067383,-0.00025039827618851643,-9.05695935394897e-06,0.00461505323053906,2.430886745452881,2019-06-24 14:08:11:335,0.0,0.0,0.0
0.0046146828681230545,0.013350729830563068,9.819101333618164,0.006808702141329231,-0.0002754381184365489,-0.0005793790175251447,2.435044288635254,2019-06-24 14:08:11:339,0.0,0.0,0.0
-0.014543314464390278,0.04448247700929642,9.78078556060791,0.003079366095005761,0.0009232770532428338,0.0002197644465157556,2.4408950805664062,2019-06-24 14:08:11:345,0.0,0.0,0.0
0.011798931285738945,0.01814022846519947,9.881364822387695,-0.002514638104516605,0.0001241336135839013,-0.0023108563468551046,2.4450464248657227,2019-06-24 14:08:11:349,0.0,0.0,0.0
-0.03130656108260155,-0.034544263035058975,9.768811225891113,0.0008151263154416085,0.002121992192412926,0.0011520984418419776,2.4508910179138184,2019-06-24 14:08:11:355,0.0,0.0,0.0
0.0213779304176569,-0.0010177686344832182,9.831074714660645,0.00414489060536266,0.001056467617037446,0.0026171947736198754,2.455031394958496,2019-06-24 14:08:11:359,0.0,0.0,0.0
0.014193681068718433,0.003771730698645115,9.912496566772461,0.0009483168792362209,-0.00014224753838729123,0.0010189078780473654,2.4608936309814453,2019-06-24 14:08:11:365,0.0,0.0,0.0
-0.0025695664808154106,0.03729822486639023,9.840654373168945,1.5982868671268808e-05,0.0017224205010290888,0.0002197644465157556,2.4650135040283203,2019-06-24 14:08:11:369,0.0,0.0,0.0
-0.004964316263794899,-0.03214951604604721,9.83346939086914,-0.0033137814872842794,0.0027879450113859868,-0.0005793790175251447,2.4708809852600098,2019-06-24 14:08:11:375,0.0,0.0,0.0
0.026167429983615875,0.006166480481624603,9.823890686035156,-0.004645687385304727,0.0011896582458506397,0.0024840042098252632,2.475038528442383,2019-06-24 14:08:11:379,0.0,0.0,0.0
0.016588430851697922,0.027719227597117424,9.79275894165039,0.0022802227122380877,-0.0006750098423296765,0.007012483378842082,2.4808921813964844,2019-06-24 14:08:11:385,0.0,0.0,0.0
-0.014543314464390278,0.006166480481624603,9.78078556060791,0.0034789377863895985,-0.002672868364267442,0.0016848606970204267,2.4853973388671875,2019-06-24 14:08:11:390,0.0,0.0,0.0
0.016588430851697922,0.030113978311419487,9.77120590209961,-0.0054448307680724,0.0013228488096452518,-0.001644903527882043,2.4900379180908203,2019-06-24 14:08:11:394,0.0,0.0,0.0
-0.004964316263794899,0.04687722399830818,9.783180236816406,-0.000383588856237774,-0.0005418192460257735,-0.0012453318364982061,2.4959020614624023,2019-06-24 14:08:11:400,0.0,0.0,0.0
-0.0025695664808154106,-0.015386266633868217,9.74246883392334,-0.0033137814872842794,0.0023883733200021503,-0.0012453318364982061,2.500002861022949,2019-06-24 14:08:11:404,0.0,0.0,0.0
-0.021727563813328743,-0.0393337644636631,9.814311981201172,-0.00011720770426658147,-0.0012077721625267067,-0.003109999729622778,2.5050082206726074,2019-06-24 14:08:11:409,0.0,0.0,0.0
0.0046146828681230545,-0.008202017284929752,9.79275894165039,-0.002381447540721993,-0.0021401061090889927,0.0002197644465157556,2.5108909606933594,2019-06-24 14:08:11:415,0.0,0.0,0.0
-0.01933281496167183,0.027719227597117424,9.77120590209961,0.0001491734477046111,-0.0008082004061242886,0.00128528900563659,2.515012741088867,2019-06-24 14:08:11:419,0.0,0.0,0.0
-0.01933281496167183,0.003771730698645115,9.819101333618164,-0.0009163511439255139,0.0014560393734398642,0.0015516701332258143,2.520883560180664,2019-06-24 14:08:11:425,0.0,0.0,0.0
-0.021727563813328743,0.022929728031158447,9.804732322692871,-0.002914209795900442,0.002255182756207538,-0.0012453318364982061,2.525033950805664,2019-06-24 14:08:11:429,0.0,0.0,0.0
-0.0001748167269397527,-0.012991516850888729,9.785574913024902,0.0024134132760327,0.0013228488096452518,0.0027503853374144876,2.530923843383789,2019-06-24 14:08:11:435,0.0,0.0,0.0
0.0046146828681230545,-0.01059676706790924,9.799942970275879,-0.0019818757193009935,0.00025732418550583624,0.005414196613306733,2.535032272338867,2019-06-24 14:08:11:439,0.0,0.0,0.0
0.0022199328523129225,0.07321947067975998,9.819101333618164,0.001880650890817088,0.0014560393734398642,8.657387459382065e-05,2.540005683898926,2019-06-24 14:08:11:444,0.0,0.0,0.0
-0.0073590655811131,0.056456223130226135,9.795153617858887,-0.001315922900327932,-9.05695935394897e-06,-0.0028436186020335537,2.5458974838256836,2019-06-24 14:08:11:450,0.0,0.0,0.0
0.009404182434082031,-0.041728515177965164,9.785574913024902,-0.00011720770426658147,0.0001241336135839013,0.0024840042098252632,2.5500059127807617,2019-06-24 14:08:11:454,0.0,0.0,0.0
0.0046146828681230545,-0.01778101734817028,9.790364265441895,0.004677653120615434,-0.0012077721625267067,-0.00404233393625939,2.5550365447998047,2019-06-24 14:08:11:459,0.0,0.0,0.0
-0.04567506164312363,-0.022570515051484108,9.840654373168945,0.002946175531211149,-0.0025396778004728297,-0.003376381117286328,2.560002326965332,2019-06-24 14:08:11:464,0.0,0.0,0.0
-0.0001748167269397527,0.05406147614121437,9.785574913024902,0.0024134132760327,-0.004937107948775851,0.0003529550265650132,2.5659031867980957,2019-06-24 14:08:11:470,0.0,0.0,0.0
-0.009753815829753876,0.05406147614121437,9.764021873474121,0.0009483168792362209,-9.05695935394897e-06,0.0011520984418419776,2.570007801055908,2019-06-24 14:08:11:474,0.0,0.0,0.0
-0.038490813225507736,-0.034544263035058975,9.835864067077637,0.0022802227122380877,0.001855611064823701,0.0002197644465157556,2.57509708404541,2019-06-24 14:08:11:479,0.0,0.0,0.0
-0.01933281496167183,-0.029754765331745148,9.790364265441895,1.5982868671268808e-05,0.0025215638837967624,-0.0021776657830604924,2.580900192260742,2019-06-24 14:08:11:485,0.0,0.0,0.0
0.007009432185441256,0.022929728031158447,9.79275894165039,-0.00278101923210583,0.003587088394153661,0.0003529550265650132,2.585897445678711,2019-06-24 14:08:11:490,0.0,0.0,0.0
-0.028911812230944633,0.034903477877378464,9.840654373168945,-0.0010495417077201262,-0.0008082004061242886,-0.001644903527882043,2.5900039672851562,2019-06-24 14:08:11:494,0.0,0.0,0.0
0.0213779304176569,-0.005807267967611551,9.80952262878418,0.00041555459154848093,-0.0020069155452943806,-0.002710428038238941,2.5958995819091797,2019-06-24 14:08:11:500,0.0,0.0,0.0
-0.004964316263794899,-0.05849176272749901,9.814311981201172,-0.003446972051078891,0.001855611064823701,-0.00350957168108094,2.59999942779541,2019-06-24 14:08:11:504,0.0,0.0,0.0
-0.0073590655811131,-0.06328126043081284,9.79275894165039,0.002679794403621924,0.0031875167027698237,-0.0003129978574266295,2.6059274673461914,2019-06-24 14:08:11:510,0.0,0.0,0.0
-0.009753815829753876,-0.020175766199827194,9.843049049377441,0.0008151263154416085,0.0014560393734398642,0.0018180512608150393,2.610004425048828,2019-06-24 14:08:11:514,0.0,0.0,0.0
0.0213779304176569,0.03969297558069229,9.804732322692871,-0.004379306257715503,-0.002672868364267442,0.0003529550265650132,2.61501407623291,2019-06-24 14:08:11:519,0.0,0.0,0.0
-0.03370131179690361,0.03729822486639023,9.840654373168945,0.003079366095005761,-0.0012077721625267067,0.003283147592592937,2.6202139854431152,2019-06-24 14:08:11:524,0.0,0.0,0.0
0.016588430851697922,-0.03214951604604721,9.79275894165039,0.0010815074430308332,-0.0033388211832405036,0.0010189078780473654,2.6264848709106445,2019-06-24 14:08:11:531,0.0,0.0,0.0
0.0046146828681230545,-0.06088650971651077,9.766416549682617,0.002679794403621924,0.0011896582458506397,-0.00017980727737737192,2.631497383117676,2019-06-24 14:08:11:536,0.0,0.0,0.0
-0.03130656108260155,0.034903477877378464,9.804732322692871,0.004944034248204658,0.0055849468510728445,0.002350813646030651,2.636514663696289,2019-06-24 14:08:11:541,0.0,0.0,0.0
-0.03370131179690361,0.05166672542691231,9.797548294067383,0.004278081169157272,-0.0014741532901159315,0.003815909847771386,2.6414976119995117,2019-06-24 14:08:11:546,0.0,0.0,0.0
0.007009432185441256,0.05166672542691231,9.816706657409668,-0.004379306257715503,-0.00014224753838729123,-0.0021776657830604924,2.64650297164917,2019-06-24 14:08:11:551,0.0,0.0,0.0
-0.014543314464390278,-0.04651801288127899,9.77120590209961,0.0012146980718440268,0.0005237053293497061,0.0011520984418419776,2.6514854431152344,2019-06-24 14:08:11:556,0.0,0.0,0.0
0.018983181565999985,-0.029754765331745148,9.859811782836914,0.0002823640277538687,0.00025732418550583624,0.0022176230822360385,2.6565513610839844,2019-06-24 14:08:11:561,0.0,0.0,0.0
-0.009753815829753876,-0.0010177686344832182,9.754443168640137,-0.001715494591711769,0.004652613164584885,-0.0028436186020335537,2.6615567207336426,2019-06-24 14:08:11:566,0.0,0.0,0.0
-0.012148565612733364,0.03729822486639023,9.759232521057129,-0.002647828668311217,-0.0014741532901159315,-0.00017980727737737192,2.6666007041931152,2019-06-24 14:08:11:571,0.0,0.0,0.0
0.007009432185441256,0.003771730698645115,9.773600578308105,-0.00278101923210583,-0.0014741532901159315,-0.004708286755232451,2.671511173248291,2019-06-24 14:08:11:576,0.0,0.0,0.0
-0.03370131179690361,-0.08243925869464874,9.708942413330078,-0.0014491134641225444,-0.0016073438539105438,-0.00044618842122124184,2.6765036582946777,2019-06-24 14:08:11:581,0.0,0.0,0.0
0.030956929549574852,-0.015386266633868217,9.845443725585938,-0.00011720770426658147,0.0030543261389752115,0.0016848606970204267,2.681497573852539,2019-06-24 14:08:11:586,0.0,0.0,0.0
0.007009432185441256,0.030113978311419487,9.828680038452148,0.0006819357516469962,-0.0022732966728836053,-0.0024440469106497167,2.6865100860595703,2019-06-24 14:08:11:591,0.0,0.0,0.0
0.0022199328523129225,0.03729822486639023,9.82149600982666,-0.004379306257715503,-0.0006750098423296765,0.0006193361866635284,2.6915178298950195,2019-06-24 14:08:11:596,0.0,0.0,0.0
-0.0025695664808154106,0.006166480481624603,9.807126998901367,-0.0015823040279171567,0.0014560393734398642,-0.002710428038238941,2.696521282196045,2019-06-24 14:08:11:601,0.0,0.0,0.0
-0.024122314527630806,-0.03693901374936104,9.790364265441895,-0.0009163511439255139,-0.0008082004061242886,0.0010189078780473654,2.701498031616211,2019-06-24 14:08:11:606,0.0,0.0,0.0
-0.05285931006073952,-0.01778101734817028,9.811917304992676,-0.0007831605801309015,0.0001241336135839013,-0.004708286755232451,2.706641674041748,2019-06-24 14:08:11:611,0.0,0.0,0.0
-0.01933281496167183,0.042087726294994354,9.77120590209961,0.001880650890817088,-0.0022732966728836053,-0.0068393357759462476,2.7115354537963867,2019-06-24 14:08:11:616,0.0,0.0,0.0
0.0022199328523129225,0.04448247700929642,9.831074714660645,-0.0007831605801309015,-0.001740534417705156,-0.004841477058952738,2.716498374938965,2019-06-24 14:08:11:621,0.0,0.0,0.0
0.014193681068718433,0.013350729830563068,9.77120590209961,-0.0035801626148735037,-0.0020069155452943806,-0.0013785224002928185,2.7214975357055664,2019-06-24 14:08:11:626,0.0,0.0,0.0
0.02856217883527279,-0.05370226129889488,9.819101333618164,0.0010815074430308332,-0.0029392494918566666,-0.0013785224002928185,2.7265243530273438,2019-06-24 14:08:11:631,0.0,0.0,0.0
0.018983181565999985,-0.022570515051484108,9.77120590209961,0.001347888635638639,-0.0029392494918566666,0.005014625181997222,2.7314953804016113,2019-06-24 14:08:11:636,0.0,0.0,0.0
0.009404182434082031,0.04448247700929642,9.804732322692871,-0.003047400359695054,0.0009232770532428338,-4.661670139177563e-05,2.736517906188965,2019-06-24 14:08:11:641,0.0,0.0,0.0
-0.04806981235742569,0.03969297558069229,9.778390884399414,-0.0005167794200323863,0.0001241336135839013,-0.0015117129640874309,2.7414989471435547,2019-06-24 14:08:11:646,0.0,0.0,0.0
-0.028911812230944633,-0.015386266633868217,9.845443725585938,-0.0010495417077201262,-0.0009413909699189009,-0.00044618842122124184,2.7465248107910156,2019-06-24 14:08:11:651,0.0,0.0,0.0
-0.03370131179690361,-0.01778101734817028,9.814311981201172,0.0009483168792362209,-0.001340962726321319,0.0002197644465157556,2.751582145690918,2019-06-24 14:08:11:656,0.0,0.0,0.0
0.007009432185441256,-0.05370226129889488,9.768811225891113,0.0005487451878523839,-0.0008082004061242886,-0.0013785224002928185,2.75654935836792,2019-06-24 14:08:11:661,0.0,0.0,0.0
-0.012148565612733364,0.07321947067975998,9.82149600982666,0.0038785094777734346,0.0011896582458506397,0.0004861455903596255,2.761505126953125,2019-06-24 14:08:11:666,0.0,0.0,0.0
-0.01933281496167183,0.04687722399830818,9.843049049377441,-0.0014491134641225444,-0.0018737249814997682,-0.002577237474444329,2.7665038108825684,2019-06-24 14:08:11:671,0.0,0.0,0.0
0.018983181565999985,0.022929728031158447,9.79275894165039,-0.00278101923210583,0.00039051476555509394,-0.0021776657830604924,2.7714977264404297,2019-06-24 14:08:11:676,0.0,0.0,0.0
0.014193681068718433,-0.06328126043081284,9.814311981201172,0.0002823640277538687,-0.0014741532901159315,0.002350813646030651,2.776498794555664,2019-06-24 14:08:11:681,0.0,0.0,0.0
-0.009753815829753876,0.008561230264604092,9.799942970275879,0.003079366095005761,0.0001241336135839013,0.000885717314252753,2.781498432159424,2019-06-24 14:08:11:686,0.0,0.0,0.0
-0.03130656108260155,0.022929728031158447,9.823890686035156,1.5982868671268808e-05,0.0030543261389752115,0.0016848606970204267,2.786518096923828,2019-06-24 14:08:11:691,0.0,0.0,0.0
0.0022199328523129225,0.05166672542691231,9.807126998901367,-0.0037133531786681154,0.0026547544475913746,-0.003109999729622778,2.791504383087158,2019-06-24 14:08:11:696,0.0,0.0,0.0
-0.03130656108260155,-0.03214951604604721,9.804732322692871,-0.0009163511439255139,-0.0033388211832405036,-0.002710428038238941,2.796630859375,2019-06-24 14:08:11:701,0.0,0.0,0.0
0.007009432185441256,-0.07286025583744049,9.754443168640137,-0.0006499700163362892,0.001056467617037446,0.0024840042098252632,2.801515579223633,2019-06-24 14:08:11:706,0.0,0.0,0.0
0.016588430851697922,-0.048912763595581055,9.787969589233398,0.0020138414546117004,-0.005203489076365075,0.0006193361866635284,2.8065199851989746,2019-06-24 14:08:11:711,0.0,0.0,0.0
0.011798931285738945,0.03729822486639023,9.797548294067383,-0.0014491134641225444,0.0011896582458506397,-0.005640620961869062,2.81149959564209,2019-06-24 14:08:11:716,0.0,0.0,0.0
-0.009753815829753876,0.030113978311419487,9.80952262878418,-0.001315922900327932,0.002255182756207538,-0.0013785224002928185,2.816499710083008,2019-06-24 14:08:11:721,0.0,0.0,0.0
0.018983181565999985,0.0013769810320809484,9.77120590209961,0.0016142697632278635,-0.0020069155452943806,-0.002710428038238941,2.8214969635009766,2019-06-24 14:08:11:726,0.0,0.0,0.0
0.0022199328523129225,-0.07046551257371902,9.83346939086914,0.0005487451878523839,0.0019888016286183133,0.0007525267504581406,2.8265223503112793,2019-06-24 14:08:11:731,0.0,0.0,0.0
-0.0025695664808154106,-0.020175766199827194,9.799942970275879,0.004544462296746496,-0.003205630619445891,0.005547387437175671,2.8314971923828125,2019-06-24 14:08:11:736,0.0,0.0,0.0
-0.016938064247369766,0.02532447874546051,9.888548851013184,0.0012146980718440268,-0.0033388211832405036,0.000885717314252753,2.836498737335205,2019-06-24 14:08:11:741,0.0,0.0,0.0
0.009404182434082031,0.06842996925115585,9.852627754211426,-0.001715494591711769,0.0043862320369956595,0.0003529550265650132,2.8416342735290527,2019-06-24 14:08:11:746,0.0,0.0,0.0
0.018983181565999985,-0.008202017284929752,9.886154174804688,0.0020138414546117004,0.0015892299372344764,0.003682719283976774,2.8465189933776855,2019-06-24 14:08:11:751,0.0,0.0,0.0
0.033351678401231766,-0.06807076185941696,9.814311981201172,0.0008151263154416085,0.0034538978303590485,0.0030167664650037123,2.8515024185180664,2019-06-24 14:08:11:756,0.0,0.0,0.0
0.011798931285738945,-0.012991516850888729,9.819101333618164,0.0020138414546117004,0.0017224205010290888,-0.002976809165828166,2.8565502166748047,2019-06-24 14:08:11:761,0.0,0.0,0.0
-0.0073590655811131,0.015745479613542557,9.795153617858887,-0.001715494591711769,-0.0002754381184365489,0.00128528900563659,2.8615059852600098,2019-06-24 14:08:11:766,0.0,0.0,0.0
-0.043280310928821564,0.01814022846519947,9.775995254516602,-0.0031805909234896667,0.004519422340715947,-0.0013785224002928185,2.866504669189453,2019-06-24 14:08:11:771,0.0,0.0,0.0
0.007009432185441256,-0.01059676706790924,9.790364265441895,-0.004379306257715503,0.002255182756207538,-0.0020444752192658802,2.87149715423584,2019-06-24 14:08:11:776,0.0,0.0,0.0
-0.01933281496167183,-0.03214951604604721,9.807126998901367,0.0024134132760327,-0.003605202310829728,8.657387459382065e-05,2.8765201568603516,2019-06-24 14:08:11:781,0.0,0.0,0.0
0.0046146828681230545,-0.005807267967611551,9.840654373168945,0.002946175531211149,0.0023883733200021503,0.0015516701332258143,2.881847381591797,2019-06-24 14:08:11:786,0.0,0.0,0.0
-0.0001748167269397527,0.003771730698645115,9.749653816223145,-0.0005167794200323863,0.00039051476555509394,-0.005907002089458287,2.890873908996582,2019-06-24 14:08:11:795,0.0,0.0,0.0
-0.0408855602145195,0.003771730698645115,9.804732322692871,-0.0006499700163362892,0.0006568959256536091,-0.0023108563468551046,2.895010471343994,2019-06-24 14:08:11:799,0.0,0.0,0.0
0.016588430851697922,-0.029754765331745148,9.795153617858887,0.0021470320184063126,0.004519422340715947,-0.00350957168108094,2.9008874893188477,2019-06-24 14:08:11:805,0.0,0.0,0.0
-0.03370131179690361,-0.03693901374936104,9.79275894165039,0.00041555459154848093,-0.0018737249814997682,0.005946958868485183,2.9050040245056152,2019-06-24 14:08:11:809,0.0,0.0,0.0
-0.014543314464390278,0.01814022846519947,9.74246883392334,-0.003446972051078891,0.0015892299372344764,-0.0007125695813197571,2.910883903503418,2019-06-24 14:08:11:815,0.0,0.0,0.0
0.0022199328523129225,0.056456223130226135,9.787969589233398,0.004011700041568048,-0.0016073438539105438,-0.004441905627643227,2.9150381088256836,2019-06-24 14:08:11:819,0.0,0.0,0.0
-0.0001748167269397527,0.030113978311419487,9.82149600982666,0.0032125566588003737,0.0006568959256536091,0.0016848606970204267,2.9208898544311523,2019-06-24 14:08:11:825,0.0,0.0,0.0
0.040535926818847656,-0.06328126043081284,9.83346939086914,-0.0005167794200323863,0.0019888016286183133,0.002350813646030651,2.9250435829162598,2019-06-24 14:08:11:829,0.0,0.0,0.0
0.054904427379369736,-0.012991516850888729,9.790364265441895,-0.00011720770426658147,-0.0028060589280620545,-0.0007125695813197571,2.930032730102539,2019-06-24 14:08:11:834,0.0,0.0,0.0
-0.016938064247369766,0.0588509738445282,9.737679481506348,-0.0014491134641225444,0.0027879450113859868,0.003283147592592937,2.935896873474121,2019-06-24 14:08:11:840,0.0,0.0,0.0
0.009404182434082031,0.049271974712610245,9.828680038452148,-0.00278101923210583,-0.0024064872366782175,-0.003909143372464777,2.939997673034668,2019-06-24 14:08:11:844,0.0,0.0,0.0
-0.024122314527630806,-0.01059676706790924,9.828680038452148,-0.001848685155506381,-0.0028060589280620545,-0.0009789507089089816,2.9459304809570312,2019-06-24 14:08:11:850,0.0,0.0,0.0
0.0046146828681230545,-0.03214951604604721,9.790364265441895,-0.0014491134641225444,-0.00014224753838729123,0.0030167664650037123,2.950007915496826,2019-06-24 14:08:11:854,0.0,0.0,0.0
-0.014543314464390278,-0.015386266633868217,9.86220645904541,0.003079366095005761,0.001855611064823701,0.0040822909753606106,2.9558963775634766,2019-06-24 14:08:11:860,0.0,0.0,0.0
0.007009432185441256,0.034903477877378464,9.852627754211426,0.0006819357516469962,0.0009232770532428338,0.0003529550265650132,2.9600024223327637,2019-06-24 14:08:11:864,0.0,0.0,0.0
-0.0073590655811131,0.020534979179501534,9.866995811462402,-0.002914209795900442,-0.0020069155452943806,-0.0019112846554712676,2.965897560119629,2019-06-24 14:08:11:870,0.0,0.0,0.0
-0.004964316263794899,0.01814022846519947,9.778390884399414,0.0006819357516469962,0.006250899930120232,-0.00017980727737737192,2.970033645629883,2019-06-24 14:08:11:874,0.0,0.0,0.0
-0.016938064247369766,-0.06088650971651077,9.768811225891113,0.002946175531211149,-0.0005418192460257735,-0.002710428038238941,2.9759063720703125,2019-06-24 14:08:11:880,0.0,0.0,0.0
0.007009432185441256,-0.034544263035058975,9.768811225891113,0.0032125566588003737,-0.0018737249814997682,-0.0023108563468551046,2.9800000190734863,2019-06-24 14:08:11:884,0.0,0.0,0.0
0.0046146828681230545,0.049271974712610245,9.775995254516602,-0.00011720770426658147,-0.0012077721625267067,-0.005773811265589349,2.985013008117676,2019-06-24 14:08:11:889,0.0,0.0,0.0
-0.009753815829753876,0.01814022846519947,9.831074714660645,0.0009483168792362209,0.0007900864894482214,8.657387459382065e-05,2.9908924102783203,2019-06-24 14:08:11:895,0.0,0.0,0.0
0.03574642911553383,-0.022570515051484108,9.790364265441895,0.0017474603270224759,0.0025215638837967624,0.0004861455903596255,2.995011329650879,2019-06-24 14:08:11:899,0.0,0.0,0.0
-0.03370131179690361,-0.05370226129889488,9.795153617858887,0.00414489060536266,0.0031875167027698237,0.005813768564764896,3.000002861022949,2019-06-24 14:08:11:904,0.0,0.0,0.0
-0.004964316263794899,-0.0010177686344832182,9.799942970275879,0.0044112719930262095,0.003587088394153661,0.003949100411565999,3.005044937133789,2019-06-24 14:08:11:909,0.0,0.0,0.0
-0.021727563813328743,0.013350729830563068,9.819101333618164,0.0010815074430308332,-0.005603061027823238,-0.0003129978574266295,3.0108962059020996,2019-06-24 14:08:11:915,0.0,0.0,0.0
-0.012148565612733364,0.03729822486639023,9.783180236816406,-0.004112924870051953,-0.002672868364267442,-0.001112141272703594,3.0150465965270996,2019-06-24 14:08:11:919,0.0,0.0,0.0
-0.021727563813328743,-0.01059676706790924,9.807126998901367,-0.0033137814872842794,-0.0021401061090889927,-0.0012453318364982061,3.0208892822265625,2019-06-24 14:08:11:925,0.0,0.0,0.0
0.05011492595076561,-0.03693901374936104,9.838258743286133,-0.00011720770426658147,0.0013228488096452518,-0.004175524500054002,3.025897979736328,2019-06-24 14:08:11:930,0.0,0.0,0.0
0.018983181565999985,-0.008202017284929752,9.826285362243652,1.5982868671268808e-05,-0.0021401061090889927,0.0004861455903596255,3.0300073623657227,2019-06-24 14:08:11:934,0.0,0.0,0.0
0.0213779304176569,0.03729822486639023,9.783180236816406,1.5982868671268808e-05,0.00411985064933211,0.00128528900563659,3.0358986854553223,2019-06-24 14:08:11:940,0.0,0.0,0.0
-0.014543314464390278,0.0588509738445282,9.814311981201172,-0.0011827323365333196,0.0027879450113859868,-0.00017980727737737192,3.0400028228759766,2019-06-24 14:08:11:944,0.0,0.0,0.0
0.030956929549574852,0.027719227597117424,9.766416549682617,-0.0007831605801309015,-0.001740534417705156,0.0002197644465157556,3.045900344848633,2019-06-24 14:08:11:950,0.0,0.0,0.0
-0.038490813225507736,-0.0034125184174627066,9.773600578308105,0.0002823640277538687,-0.0029392494918566666,0.0003529550265650132,3.0500082969665527,2019-06-24 14:08:11:954,0.0,0.0,0.0
-0.009753815829753876,-0.02496526576578617,9.761627197265625,0.0001491734477046111,-0.0022732966728836053,0.003416338156387549,3.055013656616211,2019-06-24 14:08:11:959,0.0,0.0,0.0
0.0046146828681230545,0.049271974712610245,9.826285362243652,-0.000383588856237774,0.0009232770532428338,0.0019512418246096514,3.060936450958252,2019-06-24 14:08:11:965,0.0,0.0,0.0
-0.014543314464390278,0.020534979179501534,9.77120590209961,-0.0019818757193009935,0.0038534695217428854,0.0011520984418419776,3.0650153160095215,2019-06-24 14:08:11:969,0.0,0.0,0.0
-0.014543314464390278,0.006166480481624603,9.804732322692871,0.0012146980718440268,0.0025215638837967624,0.0006193361866635284,3.0699987411499023,2019-06-24 14:08:11:974,0.0,0.0,0.0
-0.05525406077504158,-0.015386266633868217,9.835864067077637,0.0009483168792362209,-0.005070298772644788,0.002350813646030651,3.0750112533569336,2019-06-24 14:08:11:979,0.0,0.0,0.0
-0.0025695664808154106,-0.029754765331745148,9.759232521057129,-0.0009163511439255139,-0.0010745815337135133,-0.0003129978574266295,3.0808916091918945,2019-06-24 14:08:11:985,0.0,0.0,0.0
-0.01933281496167183,0.01814022846519947,9.787969589233398,-0.0005167794200323863,-0.00014224753838729123,-0.0013785224002928185,3.085012435913086,2019-06-24 14:08:11:989,0.0,0.0,0.0
-0.01933281496167183,0.015745479613542557,9.78078556060791,0.0009483168792362209,0.004918994292174109,-0.0019112846554712676,3.0908780097961426,2019-06-24 14:08:11:995,0.0,0.0,0.0
0.0022199328523129225,-0.012991516850888729,9.797548294067383,-0.00278101923210583,-0.001340962726321319,0.0022176230822360385,3.0950398445129395,2019-06-24 14:08:11:999,0.0,0.0,0.0
-0.0073590655811131,-0.03214951604604721,9.773600578308105,0.0006819357516469962,0.0007900864894482214,-0.00017980727737737192,3.100052833557129,2019-06-24 14:08:12:004,0.0,0.0,0.0
-0.0025695664808154106,-0.034544263035058975,9.807126998901367,0.0017474603270224759,0.0015892299372344764,0.0019512418246096514,3.105046272277832,2019-06-24 14:08:12:009,0.0,0.0,0.0
-0.0001748167269397527,0.006166480481624603,9.799942970275879,0.001347888635638639,-0.003072440055651279,0.006879293075121794,3.1100025177001953,2019-06-24 14:08:12:014,0.0,0.0,0.0
-0.02651706337928772,0.0013769810320809484,9.77120590209961,0.0010815074430308332,-9.05695935394897e-06,0.0007525267504581406,3.115009307861328,2019-06-24 14:08:12:019,0.0,0.0,0.0
0.0022199328523129225,-0.008202017284929752,9.799942970275879,0.0006819357516469962,-0.004404345693597402,-0.00350957168108094,3.1208906173706055,2019-06-24 14:08:12:025,0.0,0.0,0.0
-0.004964316263794899,-0.029754765331745148,9.826285362243652,0.004278081169157272,-0.0004086286822311611,0.0010189078780473654,3.1250104904174805,2019-06-24 14:08:12:029,0.0,0.0,0.0
0.0022199328523129225,0.01814022846519947,9.831074714660645,-0.0022482569769273807,-0.0010745815337135133,0.0002197644465157556,3.130002975463867,2019-06-24 14:08:12:034,0.0,0.0,0.0
0.02377268113195896,0.049271974712610245,9.761627197265625,-0.0015823040279171567,-0.004137964566008177,0.0028835759012090997,3.135897636413574,2019-06-24 14:08:12:040,0.0,0.0,0.0
-0.024122314527630806,0.015745479613542557,9.82149600982666,-0.002381447540721993,-0.0024064872366782175,-0.0015117129640874309,3.1400089263916016,2019-06-24 14:08:12:044,0.0,0.0,0.0
-0.021727563813328743,-0.02496526576578617,9.900522232055664,-0.0011827323365333196,-0.0004086286822311611,0.0030167664650037123,3.1459193229675293,2019-06-24 14:08:12:050,0.0,0.0,0.0
-0.021727563813328743,-0.029754765331745148,9.728100776672363,0.0017474603270224759,0.00025732418550583624,-0.00044618842122124184,3.1500139236450195,2019-06-24 14:08:12:054,0.0,0.0,0.0
-0.014543314464390278,0.0325087271630764,9.816706657409668,-0.0033137814872842794,0.0019888016286183133,0.0007525267504581406,3.155013084411621,2019-06-24 14:08:12:059,0.0,0.0,0.0
-0.0001748167269397527,0.020534979179501534,9.82149600982666,0.0002823640277538687,-0.0018737249814997682,-0.005507430138000124,3.160007953643799,2019-06-24 14:08:12:064,0.0,0.0,0.0
-0.0073590655811131,0.015745479613542557,9.797548294067383,0.0005487451878523839,0.0015892299372344764,0.0016848606970204267,3.165895462036133,2019-06-24 14:08:12:070,0.0,0.0,0.0
-0.004964316263794899,-0.05130751058459282,9.778390884399414,0.0010815074430308332,-0.0009413909699189009,-0.002577237474444329,3.1700096130371094,2019-06-24 14:08:12:074,0.0,0.0,0.0
0.026167429983615875,-0.005807267967611551,9.807126998901367,0.00041555459154848093,-0.002672868364267442,0.0016848606970204267,3.1758971214294434,2019-06-24 14:08:12:080,0.0,0.0,0.0
0.011798931285738945,0.006166480481624603,9.828680038452148,-0.0015823040279171567,-0.0005418192460257735,0.0027503853374144876,3.1799964904785156,2019-06-24 14:08:12:084,0.0,0.0,0.0
-0.0025695664808154106,0.015745479613542557,9.835864067077637,0.0024134132760327,0.0023883733200021503,-0.004708286755232451,3.185904026031494,2019-06-24 14:08:12:090,0.0,0.0,0.0
-0.0025695664808154106,-0.029754765331745148,9.799942970275879,-0.00025039827618851643,-0.0012077721625267067,0.0030167664650037123,3.190128803253174,2019-06-24 14:08:12:094,0.0,0.0,0.0
0.0046146828681230545,-0.04651801288127899,9.756837844848633,-0.001315922900327932,0.0009232770532428338,-0.001644903527882043,3.1959056854248047,2019-06-24 14:08:12:100,0.0,0.0,0.0
-0.03370131179690361,-0.022570515051484108,9.823890686035156,-0.002381447540721993,0.00025732418550583624,8.657387459382065e-05,3.200000762939453,2019-06-24 14:08:12:104,0.0,0.0,0.0
-0.03130656108260155,0.06603522598743439,9.78078556060791,0.006409130189871068,-0.0012077721625267067,-0.0019112846554712676,3.2058968544006348,2019-06-24 14:08:12:110,0.0,0.0,0.0
-0.0073590655811131,0.027719227597117424,9.83346939086914,-0.000383588856237774,0.00039051476555509394,-0.004441905627643227,3.210007667541504,2019-06-24 14:08:12:114,0.0,0.0,0.0
-0.021727563813328743,-0.008202017284929752,9.795153617858887,-0.005578021071792687,0.00039051476555509394,-0.0007125695813197571,3.2150139808654785,2019-06-24 14:08:12:119,0.0,0.0,0.0
0.02377268113195896,-0.012991516850888729,9.795153617858887,0.00041555459154848093,-0.0004086286822311611,-0.0019112846554712676,3.2208824157714844,2019-06-24 14:08:12:125,0.0,0.0,0.0
0.007009432185441256,-0.041728515177965164,9.787969589233398,0.0022802227122380877,0.0034538978303590485,0.0063465308199433445,3.22503662109375,2019-06-24 14:08:12:129,0.0,0.0,0.0
0.0022199328523129225,0.020534979179501534,9.797548294067383,0.0020138414546117004,0.0027879450113859868,-0.0020444752192658802,3.2308950424194336,2019-06-24 14:08:12:135,0.0,0.0,0.0
0.0046146828681230545,0.020534979179501534,9.80952262878418,-0.00025039827618851643,-0.002672868364267442,-0.003775952808670165,3.2359442710876465,2019-06-24 14:08:12:140,0.0,0.0,0.0
-0.0073590655811131,0.02532447874546051,9.819101333618164,-0.004246115433846565,-0.0009413909699189009,-0.00044618842122124184,3.2400026321411133,2019-06-24 14:08:12:144,0.0,0.0,0.0
-0.028911812230944633,-0.048912763595581055,9.807126998901367,0.0012146980718440268,0.00025732418550583624,0.0007525267504581406,3.2458972930908203,2019-06-24 14:08:12:150,0.0,0.0,0.0
-0.01933281496167183,-0.0034125184174627066,9.807126998901367,0.0024134132760327,-0.003072440055651279,0.009676295174882978,3.2500076293945312,2019-06-24 14:08:12:154,0.0,0.0,0.0
0.0046146828681230545,0.008561230264604092,9.785574913024902,0.0001491734477046111,0.0006568959256536091,-0.006572954648357022,3.255898952484131,2019-06-24 14:08:12:160,0.0,0.0,0.0
-0.012148565612733364,0.027719227597117424,9.831074714660645,-0.0014491134641225444,0.001056467617037446,-0.00350957168108094,3.260000705718994,2019-06-24 14:08:12:164,0.0,0.0,0.0
0.026167429983615875,0.0013769810320809484,9.79275894165039,-0.0011827323365333196,0.0011896582458506397,-0.002710428038238941,3.265038013458252,2019-06-24 14:08:12:169,0.0,0.0,0.0
-0.0001748167269397527,-0.01059676706790924,9.766416549682617,0.0017474603270224759,-0.001740534417705156,8.657387459382065e-05,3.2708940505981445,2019-06-24 14:08:12:175,0.0,0.0,0.0
-0.02651706337928772,-0.022570515051484108,9.778390884399414,0.0021470320184063126,0.001056467617037446,0.0018180512608150393,3.2750158309936523,2019-06-24 14:08:12:179,0.0,0.0,0.0
0.007009432185441256,0.0588509738445282,9.785574913024902,0.00041555459154848093,0.006916853009167618,-0.002710428038238941,3.280935287475586,2019-06-24 14:08:12:185,0.0,0.0,0.0
