ACCELEROMETER X (m/s²),ACCELEROMETER Y (m/s²),ACCELEROMETER Z (m/s²),GYROSCOPE X (rad/s),GYROSCOPE Y (rad/s),GYROSCOPE Z (rad/s),Time since start in ms ,YYYY-MO-DD HH-MI-SS_SSS,MagX,MagY,MagZ
0.02856217883527279,-0.008202017284929752,9.728100776672363,0.0001491734477046111,0.0009232770532428338,0.000885717314252753,0.0,2019-06-24 14:01:20:363,0.0,0.0,0.0
-0.021727563813328743,0.02532447874546051,9.764021873474121,0.001347888635638639,-0.0038715834384189522,-0.005773811265589349,0.004084587097167969,2019-06-24 14:01:20:367,0.0,0.0,0.0
0.007009432185441256,0.006166480481624603,9.804732322692871,-0.00011720770426658147,-0.00014224753838729123,-0.006972526599815185,0.0099639892578125,2019-06-24 14:01:20:373,0.0,0.0,0.0
-0.0001748167269397527,-0.005807267967611551,9.785574913024902,0.0005487451878523839,0.001056467617037446,-0.001644903527882043,0.014082908630371094,2019-06-24 14:01:20:377,0.0,0.0,0.0
-0.0073590655811131,-0.005807267967611551,9.82149600982666,-0.004246115433846565,-0.0010745815337135133,-0.00350957168108094,0.019970417022705078,2019-06-24 14:01:20:383,0.0,0.0,0.0
-0.0001748167269397527,0.01095598004758358,9.8789701461792,-0.0007831605801309015,-0.0006750098423296765,-0.00044618842122124184,0.024077892303466797,2019-06-24 14:01:20:387,0.0,0.0,0.0
0.007009432185441256,0.015745479613542557,9.811917304992676,0.0006819357516469962,-0.0016073438539105438,0.0018180512608150393,0.029967308044433594,2019-06-24 14:01:20:393,0.0,0.0,0.0
-0.03130656108260155,0.027719227597117424,9.838258743286133,0.0001491734477046111,-0.00014224753838729123,0.000885717314252753,0.034079551696777344,2019-06-24 14:01:20:397,0.0,0.0,0.0
-0.03370131179690361,0.022929728031158447,9.831074714660645,0.0005487451878523839,-0.0006750098423296765,-0.0009789507089089816,0.040036678314208984,2019-06-24 14:01:20:403,0.0,0.0,0.0
-0.014543314464390278,0.030113978311419487,9.79275894165039,0.001347888635638639,-0.002672868364267442,0.0016848606970204267,0.044112205505371094,2019-06-24 14:01:20:407,0.0,0.0,0.0
0.030956929549574852,-0.005807267967611551,9.783180236816406,0.005077224551924946,-0.0004086286822311611,0.0024840042098252632,0.049968719482421875,2019-06-24 14:01:20:413,0.0,0.0,0.0
0.007009432185441256,0.01814022846519947,9.819101333618164,-0.0005167794200323863,0.0007900864894482214,-0.0005793790175251447,0.05407524108886719,2019-06-24 14:01:20:417,0.0,0.0,0.0
-0.009753815829753876,-0.02496526576578617,9.773600578308105,0.001880650890817088,-9.05695935394897e-06,0.0011520984418419776,0.05998706817626953,2019-06-24 14:01:20:423,0.0,0.0,0.0
-0.014543314464390278,-0.005807267967611551,9.840654373168945,0.0038785094777734346,0.0034538978303590485,-0.002710428038238941,0.064117431640625,2019-06-24 14:01:20:427,0.0,0.0,0.0
-0.014543314464390278,0.022929728031158447,9.804732322692871,-0.002514638104516605,0.005052184595894396,0.0007525267504581406,0.06997108459472656,2019-06-24 14:01:20:433,0.0,0.0,0.0
-0.024122314527630806,0.01814022846519947,9.790364265441895,-0.0011827323365333196,-0.0006750098423296765,-0.0008457601451143693,0.07496929168701172,2019-06-24 14:01:20:438,0.0,0.0,0.0
-0.0073590655811131,0.003771730698645115,9.847838401794434,0.0022802227122380877,-0.0006750098423296765,-0.003909143372464777,0.07907247543334961,2019-06-24 14:01:20:442,0.0,0.0,0.0
0.007009432185441256,0.013350729830563068,9.869390487670898,0.0014810791994332513,-0.0029392494918566666,-0.0017780940916766552,0.0849761962890625,2019-06-24 14:01:20:448,0.0,0.0,0.0
0.0046146828681230545,-0.015386266633868217,9.864601135253906,-0.0015823040279171567,-0.0010745815337135133,-0.0032431902934173906,0.08908367156982422,2019-06-24 14:01:20:452,0.0,0.0,0.0
-0.0025695664808154106,0.008561230264604092,9.77120590209961,0.003345747222594986,0.0019888016286183133,0.0014184795694312021,0.0949716567993164,2019-06-24 14:01:20:458,0.0,0.0,0.0
-0.03609606251120567,0.030113978311419487,9.857417106628418,0.0016142697632278635,-0.0021401061090889927,-0.002710428038238941,0.0990753173828125,2019-06-24 14:01:20:462,0.0,0.0,0.0
-0.0001748167269397527,-0.022570515051484108,9.826285362243652,0.0008151263154416085,-0.0025396778004728297,0.0031499570287983245,0.1041107177734375,2019-06-24 14:01:20:467,0.0,0.0,0.0
0.011798931285738945,0.02532447874546051,9.766416549682617,0.0021470320184063126,0.0007900864894482214,8.657387459382065e-05,0.1099696159362793,2019-06-24 14:01:20:473,0.0,0.0,0.0
0.014193681068718433,0.027719227597117424,9.823890686035156,-0.0015823040279171567,-0.0006750098423296765,-0.005107858186541962,0.11408042907714844,2019-06-24 14:01:20:477,0.0,0.0,0.0
-0.009753815829753876,-0.012991516850888729,9.814311981201172,0.0028129849674165368,0.0031875167027698237,0.0010189078780473654,0.1199636459350586,2019-06-24 14:01:20:483,0.0,0.0,0.0
-0.050464559346437454,-0.0034125184174627066,9.886154174804688,-0.0006499700163362892,0.0019888016286183133,0.0002197644465157556,0.12408447265625,2019-06-24 14:01:20:487,0.0,0.0,0.0
0.03574642911553383,-0.0034125184174627066,9.80952262878418,0.0002823640277538687,-0.0016073438539105438,-0.0015117129640874309,0.1299757957458496,2019-06-24 14:01:20:493,0.0,0.0,0.0
0.02377268113195896,-0.0034125184174627066,9.823890686035156,-0.00011720770426658147,0.0030543261389752115,0.0026171947736198754,0.13408660888671875,2019-06-24 14:01:20:497,0.0,0.0,0.0
-0.06004355847835541,-0.015386266633868217,9.775995254516602,0.003745318913978823,-0.0022732966728836053,0.0028835759012090997,0.13908004760742188,2019-06-24 14:01:20:502,0.0,0.0,0.0
0.014193681068718433,0.020534979179501534,9.819101333618164,0.0044112719930262095,-0.003605202310829728,0.0010189078780473654,0.14496326446533203,2019-06-24 14:01:20:508,0.0,0.0,0.0
0.014193681068718433,0.02532447874546051,9.869390487670898,0.0016142697632278635,-0.001740534417705156,0.002350813646030651,0.1490793228149414,2019-06-24 14:01:20:512,0.0,0.0,0.0
0.0213779304176569,-0.0034125184174627066,9.797548294067383,0.0010815074430308332,-9.05695935394897e-06,-0.003109999729622778,0.15497732162475586,2019-06-24 14:01:20:518,0.0,0.0,0.0
0.0022199328523129225,-0.0010177686344832182,9.811917304992676,-0.0014491134641225444,-0.0009413909699189009,0.000885717314252753,0.1590738296508789,2019-06-24 14:01:20:522,0.0,0.0,0.0
-0.0001748167269397527,0.0013769810320809484,9.797548294067383,-0.00011720770426658147,0.0006568959256536091,-0.004175524500054002,0.16497087478637695,2019-06-24 14:01:20:528,0.0,0.0,0.0
0.011798931285738945,0.022929728031158447,9.790364265441895,0.0006819357516469962,0.00025732418550583624,0.0007525267504581406,0.1690816879272461,2019-06-24 14:01:20:532,0.0,0.0,0.0
0.011798931285738945,0.006166480481624603,9.843049049377441,-0.0005167794200323863,-0.003605202310829728,8.657387459382065e-05,0.1740875244140625,2019-06-24 14:01:20:537,0.0,0.0,0.0
-0.012148565612733364,0.008561230264604092,9.749653816223145,-0.00025039827618851643,-0.003605202310829728,-0.0013785224002928185,0.17996978759765625,2019-06-24 14:01:20:543,0.0,0.0,0.0
-0.0073590655811131,-0.020175766199827194,9.823890686035156,0.0010815074430308332,0.00039051476555509394,0.003815909847771386,0.18410778045654297,2019-06-24 14:01:20:547,0.0,0.0,0.0
0.0046146828681230545,0.006166480481624603,9.811917304992676,-0.0006499700163362892,0.0011896582458506397,-0.00017980727737737192,0.18998432159423828,2019-06-24 14:01:20:553,0.0,0.0,0.0
-0.009753815829753876,0.022929728031158447,9.83346939086914,-0.0033137814872842794,-0.0025396778004728297,0.0018180512608150393,0.1941089630126953,2019-06-24 14:01:20:557,0.0,0.0,0.0
-0.012148565612733364,-0.027360014617443085,9.754443168640137,-0.005045258816614238,-0.0006750098423296765,-0.002710428038238941,0.1999664306640625,2019-06-24 14:01:20:563,0.0,0.0,0.0
-0.0073590655811131,0.01095598004758358,9.79275894165039,0.0017474603270224759,-0.0008082004061242886,0.0011520984418419776,0.20407485961914062,2019-06-24 14:01:20:567,0.0,0.0,0.0
-0.024122314527630806,0.013350729830563068,9.783180236816406,-0.0015823040279171567,-0.0002754381184365489,0.000885717314252753,0.20907878875732422,2019-06-24 14:01:20:572,0.0,0.0,0.0
0.007009432185441256,0.03969297558069229,9.795153617858887,-0.001848685155506381,0.00025732418550583624,-0.0017780940916766552,0.21497249603271484,2019-06-24 14:01:20:578,0.0,0.0,0.0
0.0046146828681230545,-0.0034125184174627066,9.893338203430176,0.0036121283501842102,-0.003072440055651279,-0.002710428038238941,0.21907472610473633,2019-06-24 14:01:20:582,0.0,0.0,0.0
0.009404182434082031,-0.005807267967611551,9.816706657409668,0.0034789377863895985,0.0006568959256536091,-0.0017780940916766552,0.2250065803527832,2019-06-24 14:01:20:588,0.0,0.0,0.0
0.0213779304176569,0.020534979179501534,9.799942970275879,0.005609986807103395,0.0026547544475913746,-0.0008457601451143693,0.2290787696838379,2019-06-24 14:01:20:592,0.0,0.0,0.0
-0.024122314527630806,0.022929728031158447,9.874180793762207,-0.000383588856237774,-9.05695935394897e-06,-0.0021776657830604924,0.23500823974609375,2019-06-24 14:01:20:598,0.0,0.0,0.0
-0.0001748167269397527,0.042087726294994354,9.831074714660645,0.004544462296746496,0.004519422340715947,-0.0003129978574266295,0.2390890121459961,2019-06-24 14:01:20:602,0.0,0.0,0.0
-0.03370131179690361,0.030113978311419487,9.78078556060791,0.0005487451878523839,0.0001241336135839013,-0.0028436186020335537,0.24409103393554688,2019-06-24 14:01:20:607,0.0,0.0,0.0
-0.0025695664808154106,0.006166480481624603,9.737679481506348,-0.004246115433846565,-0.0018737249814997682,0.0015516701332258143,0.24996662139892578,2019-06-24 14:01:20:613,0.0,0.0,0.0
0.0046146828681230545,-0.005807267967611551,9.852627754211426,0.0022802227122380877,0.003986660085537498,-0.0003129978574266295,0.2540760040283203,2019-06-24 14:01:20:617,0.0,0.0,0.0
-0.0073590655811131,-0.0010177686344832182,9.775995254516602,-0.0011827323365333196,-0.0018737249814997682,8.657387459382065e-05,0.2599678039550781,2019-06-24 14:01:20:623,0.0,0.0,0.0
-0.01933281496167183,0.015745479613542557,9.797548294067383,-0.0005167794200323863,0.00039051476555509394,-4.661670139177563e-05,0.26410579681396484,2019-06-24 14:01:20:627,0.0,0.0,0.0
0.011798931285738945,0.04687722399830818,9.775995254516602,-0.003979734306257341,0.001056467617037446,-0.002577237474444329,0.26996898651123047,2019-06-24 14:01:20:633,0.0,0.0,0.0
-0.009753815829753876,0.02532447874546051,9.799942970275879,-0.00011720770426658147,0.0011896582458506397,-4.661670139177563e-05,0.27410459518432617,2019-06-24 14:01:20:637,0.0,0.0,0.0
-0.014543314464390278,-0.0034125184174627066,9.754443168640137,-0.0011827323365333196,-0.004937107948775851,0.0018180512608150393,0.2799854278564453,2019-06-24 14:01:20:643,0.0,0.0,0.0
-0.03370131179690361,-0.008202017284929752,9.795153617858887,-0.001315922900327932,0.002121992192412926,-0.0003129978574266295,0.2841033935546875,2019-06-24 14:01:20:647,0.0,0.0,0.0
-0.024122314527630806,-0.034544263035058975,9.816706657409668,-0.0035801626148735037,0.002121992192412926,0.0026171947736198754,0.28908729553222656,2019-06-24 14:01:20:652,0.0,0.0,0.0
0.007009432185441256,0.006166480481624603,9.807126998901367,-0.0006499700163362892,0.0043862320369956595,0.007012483378842082,0.29497432708740234,2019-06-24 14:01:20:658,0.0,0.0,0.0
0.02377268113195896,0.0013769810320809484,9.773600578308105,0.00041555459154848093,-0.0020069155452943806,-0.00044618842122124184,0.29907894134521484,2019-06-24 14:01:20:662,0.0,0.0,0.0
-0.009753815829753876,0.0325087271630764,9.814311981201172,0.0006819357516469962,0.003587088394153661,0.0014184795694312021,0.30496978759765625,2019-06-24 14:01:20:668,0.0,0.0,0.0
-0.004964316263794899,0.003771730698645115,9.766416549682617,0.00041555459154848093,-0.0010745815337135133,-0.00044618842122124184,0.30907773971557617,2019-06-24 14:01:20:672,0.0,0.0,0.0
0.014193681068718433,0.042087726294994354,9.826285362243652,-0.0031805909234896667,-0.0005418192460257735,0.0002197644465157556,0.31496715545654297,2019-06-24 14:01:20:678,0.0,0.0,0.0
0.0046146828681230545,0.01814022846519947,9.778390884399414,-0.0005167794200323863,-0.0020069155452943806,-0.00350957168108094,0.3190946578979492,2019-06-24 14:01:20:682,0.0,0.0,0.0
-0.01933281496167183,0.015745479613542557,9.747259140014648,1.5982868671268808e-05,0.0033207072665644363,0.000885717314252753,0.3241095542907715,2019-06-24 14:01:20:687,0.0,0.0,0.0
-0.0001748167269397527,0.0013769810320809484,9.759232521057129,-0.0022482569769273807,-0.002672868364267442,0.0004861455903596255,0.3299674987792969,2019-06-24 14:01:20:693,0.0,0.0,0.0
-0.009753815829753876,0.03969297558069229,9.85023307800293,-0.0014491134641225444,0.00039051476555509394,-0.0007125695813197571,0.33408451080322266,2019-06-24 14:01:20:697,0.0,0.0,0.0
-0.01933281496167183,0.003771730698645115,9.843049049377441,-0.0037133531786681154,0.00025732418550583624,0.005014625181997222,0.3399662971496582,2019-06-24 14:01:20:703,0.0,0.0,0.0
-0.0025695664808154106,0.006166480481624603,9.881364822387695,-0.002381447540721993,0.0026547544475913746,0.0002197644465157556,0.34408044815063477,2019-06-24 14:01:20:707,0.0,0.0,0.0
-0.004964316263794899,0.003771730698645115,9.819101333618164,0.0001491734477046111,0.002255182756207538,-0.00017980727737737192,0.3499631881713867,2019-06-24 14:01:20:713,0.0,0.0,0.0
-0.0001748167269397527,0.01095598004758358,9.843049049377441,0.0022802227122380877,-0.001740534417705156,0.002084432388404264,0.35408735275268555,2019-06-24 14:01:20:717,0.0,0.0,0.0
-0.021727563813328743,0.003771730698645115,9.86220645904541,-0.003047400359695054,0.005718137674941782,-0.0023108563468551046,0.3599705696105957,2019-06-24 14:01:20:723,0.0,0.0,0.0
0.0046146828681230545,0.020534979179501534,9.79275894165039,0.0036121283501842102,0.004918994292174109,0.0031499570287983245,0.36411619186401367,2019-06-24 14:01:20:727,0.0,0.0,0.0
-0.012148565612733364,-0.008202017284929752,9.876575469970703,0.0024134132760327,-0.0018737249814997682,-0.0021776657830604924,0.36997318267822266,2019-06-24 14:01:20:733,0.0,0.0,0.0
-0.009753815829753876,0.02532447874546051,9.857417106628418,-0.00278101923210583,-0.0037383928746243405,-0.0019112846554712676,0.37499237060546875,2019-06-24 14:01:20:738,0.0,0.0,0.0
0.009404182434082031,-0.0010177686344832182,9.811917304992676,0.0009483168792362209,0.0025215638837967624,0.0004861455903596255,0.37907886505126953,2019-06-24 14:01:20:742,0.0,0.0,0.0
0.009404182434082031,0.020534979179501534,9.778390884399414,0.0020138414546117004,0.0014560393734398642,-0.0020444752192658802,0.38496923446655273,2019-06-24 14:01:20:748,0.0,0.0,0.0
0.0046146828681230545,0.01814022846519947,9.775995254516602,-0.001848685155506381,0.004652613164584885,-0.00017980727737737192,0.3890810012817383,2019-06-24 14:01:20:752,0.0,0.0,0.0
-0.03609606251120567,-0.020175766199827194,9.831074714660645,0.0010815074430308332,0.0023883733200021503,-0.0023108563468551046,0.3949766159057617,2019-06-24 14:01:20:758,0.0,0.0,0.0
0.033351678401231766,-0.02496526576578617,9.799942970275879,0.001880650890817088,0.0015892299372344764,-0.0015117129640874309,0.399078369140625,2019-06-24 14:01:20:762,0.0,0.0,0.0
0.0046146828681230545,0.01814022846519947,9.790364265441895,-0.0007831605801309015,0.0001241336135839013,0.003682719283976774,0.40410852432250977,2019-06-24 14:01:20:767,0.0,0.0,0.0
0.02377268113195896,-0.01059676706790924,9.814311981201172,-0.00025039827618851643,-0.001340962726321319,-0.001644903527882043,0.4099750518798828,2019-06-24 14:01:20:773,0.0,0.0,0.0
-0.03609606251120567,0.003771730698645115,9.775995254516602,0.0006819357516469962,-0.0018737249814997682,0.0015516701332258143,0.4150066375732422,2019-06-24 14:01:20:778,0.0,0.0,0.0
0.014193681068718433,-0.034544263035058975,9.775995254516602,0.00041555459154848093,0.00039051476555509394,0.0011520984418419776,0.4191007614135742,2019-06-24 14:01:20:782,0.0,0.0,0.0
-0.0025695664808154106,0.03729822486639023,9.807126998901367,-0.0006499700163362892,0.0014560393734398642,-0.0012453318364982061,0.4249696731567383,2019-06-24 14:01:20:788,0.0,0.0,0.0
-0.009753815829753876,0.049271974712610245,9.773600578308105,0.0008151263154416085,0.0017224205010290888,-4.661670139177563e-05,0.4290800094604492,2019-06-24 14:01:20:792,0.0,0.0,0.0
-0.0408855602145195,-0.022570515051484108,9.843049049377441,-0.002914209795900442,-0.0002754381184365489,0.0007525267504581406,0.4349689483642578,2019-06-24 14:01:20:798,0.0,0.0,0.0
-0.016938064247369766,-0.0010177686344832182,9.785574913024902,0.002946175531211149,0.0009232770532428338,0.0015516701332258143,0.43907737731933594,2019-06-24 14:01:20:802,0.0,0.0,0.0
0.033351678401231766,-0.005807267967611551,9.859811782836914,-0.0031805909234896667,-0.00014224753838729123,-0.002976809165828166,0.4449739456176758,2019-06-24 14:01:20:808,0.0,0.0,0.0
-0.0001748167269397527,0.01095598004758358,9.759232521057129,0.00041555459154848093,0.001855611064823701,0.0006193361866635284,0.4490785598754883,2019-06-24 14:01:20:812,0.0,0.0,0.0
0.026167429983615875,0.02532447874546051,9.785574913024902,-0.00025039827618851643,-0.0029392494918566666,0.0019512418246096514,0.45411014556884766,2019-06-24 14:01:20:817,0.0,0.0,0.0
-0.0001748167269397527,0.030113978311419487,9.78078556060791,-0.003446972051078891,-0.003205630619445891,0.0048814343581282844,0.45998477935791016,2019-06-24 14:01:20:823,0.0,0.0,0.0
-0.028911812230944633,0.04448247700929642,9.814311981201172,-0.001715494591711769,0.0047858034683051715,-0.0009789507089089816,0.46410512924194336,2019-06-24 14:01:20:827,0.0,0.0,0.0
-0.0025695664808154106,-0.0034125184174627066,9.816706657409668,0.0014810791994332513,-9.05695935394897e-06,0.0030167664650037123,0.4699697494506836,2019-06-24 14:01:20:833,0.0,0.0,0.0
-0.012148565612733364,-0.015386266633868217,9.826285362243652,1.5982868671268808e-05,-9.05695935394897e-06,0.0024840042098252632,0.47497081756591797,2019-06-24 14:01:20:838,0.0,0.0,0.0
-0.0025695664808154106,0.003771730698645115,9.778390884399414,-0.0010495417077201262,-0.0024064872366782175,0.003283147592592937,0.4790782928466797,2019-06-24 14:01:20:842,0.0,0.0,0.0
0.0022199328523129225,0.008561230264604092,9.831074714660645,-0.00278101923210583,-0.0020069155452943806,-0.002577237474444329,0.4849729537963867,2019-06-24 14:01:20:848,0.0,0.0,0.0
-0.0073590655811131,0.013350729830563068,9.826285362243652,0.0006819357516469962,-0.0029392494918566666,-0.0013785224002928185,0.4890727996826172,2019-06-24 14:01:20:852,0.0,0.0,0.0
0.0046146828681230545,0.034903477877378464,9.804732322692871,-0.001315922900327932,0.0007900864894482214,-0.00044618842122124184,0.49503660202026367,2019-06-24 14:01:20:858,0.0,0.0,0.0
-0.016938064247369766,0.008561230264604092,9.804732322692871,0.0009483168792362209,0.0023883733200021503,-0.0032431902934173906,0.4990997314453125,2019-06-24 14:01:20:862,0.0,0.0,0.0
0.009404182434082031,0.013350729830563068,9.819101333618164,0.0021470320184063126,-0.0016073438539105438,8.657387459382065e-05,0.5049819946289062,2019-06-24 14:01:20:868,0.0,0.0,0.0
-0.012148565612733364,0.0325087271630764,9.816706657409668,0.00041555459154848093,0.0009232770532428338,-0.001112141272703594,0.5090818405151367,2019-06-24 14:01:20:872,0.0,0.0,0.0
-0.0001748167269397527,-0.027360014617443085,9.783180236816406,0.002946175531211149,-0.00014224753838729123,0.0015516701332258143,0.5149669647216797,2019-06-24 14:01:20:878,0.0,0.0,0.0
-0.04567506164312363,-0.0034125184174627066,9.728100776672363,-0.00011720770426658147,-0.0012077721625267067,-0.0003129978574266295,0.5190715789794922,2019-06-24 14:01:20:882,0.0,0.0,0.0
0.007009432185441256,0.01814022846519947,9.804732322692871,0.0010815074430308332,-0.00427115512980279,-0.0009789507089089816,0.524991512298584,2019-06-24 14:01:20:888,0.0,0.0,0.0
-0.012148565612733364,-0.0010177686344832182,9.816706657409668,0.0005487451878523839,-0.0077341100485370335,0.0004861455903596255,0.5299673080444336,2019-06-24 14:01:20:893,0.0,0.0,0.0
0.014193681068718433,0.006166480481624603,9.799942970275879,-0.00025039827618851643,-0.0022732966728836053,-0.001112141272703594,0.5341124534606934,2019-06-24 14:01:20:897,0.0,0.0,0.0
-0.021727563813328743,-0.02496526576578617,9.859811782836914,-0.0005167794200323863,-0.003072440055651279,-0.0015117129640874309,0.5399684906005859,2019-06-24 14:01:20:903,0.0,0.0,0.0
0.02856217883527279,-0.027360014617443085,9.85023307800293,-0.0019818757193009935,0.001056467617037446,-0.003775952808670165,0.5450172424316406,2019-06-24 14:01:20:908,0.0,0.0,0.0
-0.016938064247369766,0.003771730698645115,9.804732322692871,0.0016142697632278635,0.0009232770532428338,0.002084432388404264,0.5490818023681641,2019-06-24 14:01:20:912,0.0,0.0,0.0
-0.016938064247369766,0.027719227597117424,9.82149600982666,0.0009483168792362209,0.0005237053293497061,-0.0009789507089089816,0.5540990829467773,2019-06-24 14:01:20:917,0.0,0.0,0.0
-0.043280310928821564,0.02532447874546051,9.831074714660645,-0.004645687385304727,0.002255182756207538,-0.0024440469106497167,0.559967041015625,2019-06-24 14:01:20:923,0.0,0.0,0.0
-0.004964316263794899,0.030113978311419487,9.819101333618164,-0.00278101923210583,0.0011896582458506397,0.0002197644465157556,0.5640802383422852,2019-06-24 14:01:20:927,0.0,0.0,0.0
0.026167429983615875,-0.005807267967611551,9.785574913024902,0.00041555459154848093,0.00039051476555509394,0.0002197644465157556,0.5699701309204102,2019-06-24 14:01:20:933,0.0,0.0,0.0
-0.014543314464390278,-0.01778101734817028,9.804732322692871,-0.0007831605801309015,0.0014560393734398642,-0.003909143372464777,0.5740804672241211,2019-06-24 14:01:20:937,0.0,0.0,0.0
-0.009753815829753876,0.06124572455883026,9.790364265441895,-0.00025039827618851643,0.0055849468510728445,-0.0007125695813197571,0.5799646377563477,2019-06-24 14:01:20:943,0.0,0.0,0.0
0.007009432185441256,0.008561230264604092,9.78078556060791,1.5982868671268808e-05,-0.0002754381184365489,0.0011520984418419776,0.5841078758239746,2019-06-24 14:01:20:947,0.0,0.0,0.0
0.0046146828681230545,0.022929728031158447,9.790364265441895,0.003345747222594986,-0.0014741532901159315,0.0067461022512528565,0.5899801254272461,2019-06-24 14:01:20:953,0.0,0.0,0.0
0.009404182434082031,0.015745479613542557,9.811917304992676,0.0032125566588003737,0.0034538978303590485,-0.001644903527882043,0.5940876007080078,2019-06-24 14:01:20:957,0.0,0.0,0.0
0.007009432185441256,0.022929728031158447,9.859811782836914,-0.0021150662830956056,-0.0016073438539105438,-0.0005793790175251447,0.5999636650085449,2019-06-24 14:01:20:963,0.0,0.0,0.0
0.0022199328523129225,-0.008202017284929752,9.795153617858887,0.0024134132760327,0.0019888016286183133,0.00128528900563659,0.6041259765625,2019-06-24 14:01:20:967,0.0,0.0,0.0
0.0046146828681230545,0.003771730698645115,9.783180236816406,0.0009483168792362209,-0.0009413909699189009,8.657387459382065e-05,0.6099662780761719,2019-06-24 14:01:20:973,0.0,0.0,0.0
-0.004964316263794899,0.013350729830563068,9.828680038452148,-0.0021150662830956056,-0.0006750098423296765,0.0018180512608150393,0.6149711608886719,2019-06-24 14:01:20:978,0.0,0.0,0.0
0.026167429983615875,-0.01059676706790924,9.790364265441895,0.0032125566588003737,0.002121992192412926,-0.0019112846554712676,0.6190743446350098,2019-06-24 14:01:20:982,0.0,0.0,0.0
0.018983181565999985,0.01814022846519947,9.852627754211426,1.5982868671268808e-05,0.0023883733200021503,0.0014184795694312021,0.625004768371582,2019-06-24 14:01:20:988,0.0,0.0,0.0
-0.012148565612733364,0.027719227597117424,9.816706657409668,0.0022802227122380877,0.0014560393734398642,0.004348672102949836,0.6290788650512695,2019-06-24 14:01:20:992,0.0,0.0,0.0
-0.0001748167269397527,0.01095598004758358,9.802337646484375,0.0009483168792362209,-9.05695935394897e-06,0.0024840042098252632,0.6349735260009766,2019-06-24 14:01:20:998,0.0,0.0,0.0
-0.0073590655811131,0.03969297558069229,9.754443168640137,-0.0035801626148735037,-0.0014741532901159315,-0.0007125695813197571,0.6391301155090332,2019-06-24 14:01:21:002,0.0,0.0,0.0
-0.009753815829753876,0.01814022846519947,9.82149600982666,-0.0014491134641225444,-0.0008082004061242886,-0.0019112846554712676,0.6449856758117676,2019-06-24 14:01:21:008,0.0,0.0,0.0
-0.0073590655811131,0.01095598004758358,9.831074714660645,0.0034789377863895985,-0.0008082004061242886,-0.0009789507089089816,0.6490778923034668,2019-06-24 14:01:21:012,0.0,0.0,0.0
0.03574642911553383,0.022929728031158447,9.814311981201172,0.0024134132760327,-0.0016073438539105438,-0.0005793790175251447,0.6549749374389648,2019-06-24 14:01:21:018,0.0,0.0,0.0
-0.009753815829753876,0.02532447874546051,9.845443725585938,0.001880650890817088,-0.0005418192460257735,-0.00044618842122124184,0.6590785980224609,2019-06-24 14:01:21:022,0.0,0.0,0.0
-0.02651706337928772,-0.020175766199827194,9.799942970275879,-0.002381447540721993,0.001855611064823701,-0.0003129978574266295,0.6649980545043945,2019-06-24 14:01:21:028,0.0,0.0,0.0
-0.028911812230944633,0.0013769810320809484,9.847838401794434,0.0021470320184063126,-0.0018737249814997682,-0.0023108563468551046,0.6699690818786621,2019-06-24 14:01:21:033,0.0,0.0,0.0
0.009404182434082031,-0.034544263035058975,9.799942970275879,-0.002914209795900442,0.0001241336135839013,0.0010189078780473654,0.6741018295288086,2019-06-24 14:01:21:037,0.0,0.0,0.0
-0.004964316263794899,0.02532447874546051,9.80952262878418,0.006009558758561557,-0.0012077721625267067,-0.0007125695813197571,0.6799702644348145,2019-06-24 14:01:21:043,0.0,0.0,0.0
0.014193681068718433,0.01095598004758358,9.778390884399414,-0.002647828668311217,0.002121992192412926,-0.0017780940916766552,0.6841115951538086,2019-06-24 14:01:21:047,0.0,0.0,0.0
0.009404182434082031,0.03969297558069229,9.799942970275879,-0.0021150662830956056,-0.004137964566008177,0.000885717314252753,0.6899709701538086,2019-06-24 14:01:21:053,0.0,0.0,0.0
0.033351678401231766,0.022929728031158447,9.773600578308105,-0.0011827323365333196,-0.002672868364267442,0.0006193361866635284,0.694969654083252,2019-06-24 14:01:21:058,0.0,0.0,0.0
-0.0001748167269397527,-0.015386266633868217,9.749653816223145,-0.00597759302325085,-0.0002754381184365489,-0.0032431902934173906,0.6990776062011719,2019-06-24 14:01:21:062,0.0,0.0,0.0
-0.014543314464390278,0.030113978311419487,9.838258743286133,-0.002381447540721993,0.0019888016286183133,0.0014184795694312021,0.7049746513366699,2019-06-24 14:01:21:068,0.0,0.0,0.0
0.0046146828681230545,0.006166480481624603,9.785574913024902,0.00041555459154848093,-0.0016073438539105438,0.0028835759012090997,0.7099637985229492,2019-06-24 14:01:21:073,0.0,0.0,0.0
-0.03130656108260155,-0.01059676706790924,9.811917304992676,-0.005311639944203463,0.0009232770532428338,-0.0024440469106497167,0.7141046524047852,2019-06-24 14:01:21:077,0.0,0.0,0.0
0.0046146828681230545,0.034903477877378464,9.831074714660645,0.0009483168792362209,0.0011896582458506397,0.00608014969235412,0.719963550567627,2019-06-24 14:01:21:083,0.0,0.0,0.0
0.011798931285738945,0.020534979179501534,9.85023307800293,-0.002381447540721993,-0.0018737249814997682,0.0014184795694312021,0.7240839004516602,2019-06-24 14:01:21:087,0.0,0.0,0.0
0.018983181565999985,-0.020175766199827194,9.828680038452148,0.0005487451878523839,-0.0025396778004728297,-0.002976809165828166,0.7299990653991699,2019-06-24 14:01:21:093,0.0,0.0,0.0
-0.028911812230944633,-0.0010177686344832182,9.799942970275879,-0.0014491134641225444,-0.0006750098423296765,0.00128528900563659,0.7340803146362305,2019-06-24 14:01:21:097,0.0,0.0,0.0
0.0046146828681230545,0.013350729830563068,9.852627754211426,0.0017474603270224759,-0.0025396778004728297,-0.003376381117286328,0.739952564239502,2019-06-24 14:01:21:103,0.0,0.0,0.0
-0.0408855602145195,-0.0010177686344832182,9.816706657409668,-0.001848685155506381,0.0001241336135839013,0.0031499570287983245,0.7440729141235352,2019-06-24 14:01:21:107,0.0,0.0,0.0
0.02377268113195896,-0.01059676706790924,9.75204849243164,0.0012146980718440268,0.006650471881578394,-4.661670139177563e-05,0.7499666213989258,2019-06-24 14:01:21:113,0.0,0.0,0.0
0.018983181565999985,0.020534979179501534,9.86220645904541,1.5982868671268808e-05,0.0005237053293497061,-0.0013785224002928185,0.7540817260742188,2019-06-24 14:01:21:117,0.0,0.0,0.0
-0.05525406077504158,0.022929728031158447,9.838258743286133,-0.00011720770426658147,-0.0005418192460257735,-0.00404233393625939,0.7599654197692871,2019-06-24 14:01:21:123,0.0,0.0,0.0
0.007009432185441256,0.015745479613542557,9.831074714660645,0.0012146980718440268,-0.0004086286822311611,-0.0013785224002928185,0.764103889465332,2019-06-24 14:01:21:127,0.0,0.0,0.0
0.018983181565999985,-0.01059676706790924,9.811917304992676,0.0022802227122380877,-0.0006750098423296765,0.0016848606970204267,0.7699947357177734,2019-06-24 14:01:21:133,0.0,0.0,0.0
-0.01933281496167183,0.02532447874546051,9.754443168640137,0.006009558758561557,0.0006568959256536091,-0.0008457601451143693,0.7741060256958008,2019-06-24 14:01:21:137,0.0,0.0,0.0
0.014193681068718433,-0.0034125184174627066,9.790364265441895,-0.003047400359695054,0.0034538978303590485,-0.0028436186020335537,0.7799692153930664,2019-06-24 14:01:21:143,0.0,0.0,0.0
0.009404182434082031,-0.0010177686344832182,9.811917304992676,0.002546603839827312,0.0007900864894482214,0.003283147592592937,0.7840785980224609,2019-06-24 14:01:21:147,0.0,0.0,0.0
0.016588430851697922,0.01814022846519947,9.75204849243164,0.003079366095005761,-0.004137964566008177,0.008211198713067917,0.7899694442749023,2019-06-24 14:01:21:153,0.0,0.0,0.0
-0.012148565612733364,0.013350729830563068,9.826285362243652,0.0001491734477046111,0.001056467617037446,-0.005773811265589349,0.7940797805786133,2019-06-24 14:01:21:157,0.0,0.0,0.0
0.009404182434082031,0.008561230264604092,9.783180236816406,0.008406988906864577,0.0023883733200021503,-0.0007125695813197571,0.7999634742736816,2019-06-24 14:01:21:163,0.0,0.0,0.0
-0.0073590655811131,-0.0034125184174627066,9.816706657409668,-0.005045258816614238,-0.0008082004061242886,0.00128528900563659,0.8041057586669922,2019-06-24 14:01:21:167,0.0,0.0,0.0
-0.016938064247369766,0.049271974712610245,9.852627754211426,-0.00025039827618851643,0.002121992192412926,0.0016848606970204267,0.809964656829834,2019-06-24 14:01:21:173,0.0,0.0,0.0
-0.0025695664808154106,-0.01059676706790924,9.764021873474121,0.0002823640277538687,0.0001241336135839013,-0.0015117129640874309,0.8140997886657715,2019-06-24 14:01:21:177,0.0,0.0,0.0
0.011798931285738945,0.01814022846519947,9.795153617858887,-0.0021150662830956056,0.0013228488096452518,0.00128528900563659,0.8199691772460938,2019-06-24 14:01:21:183,0.0,0.0,0.0
0.0213779304176569,0.003771730698645115,9.766416549682617,-0.0009163511439255139,0.0007900864894482214,0.004348672102949836,0.8240814208984375,2019-06-24 14:01:21:187,0.0,0.0,0.0
0.0022199328523129225,0.01814022846519947,9.866995811462402,-0.00278101923210583,0.00039051476555509394,0.0019512418246096514,0.8299679756164551,2019-06-24 14:01:21:193,0.0,0.0,0.0
0.0022199328523129225,0.003771730698645115,9.874180793762207,-0.00597759302325085,0.0027879450113859868,-0.0007125695813197571,0.8340797424316406,2019-06-24 14:01:21:197,0.0,0.0,0.0
0.0022199328523129225,0.0325087271630764,9.874180793762207,-0.001315922900327932,-0.0010745815337135133,-0.0008457601451143693,0.8399686813354492,2019-06-24 14:01:21:203,0.0,0.0,0.0
-0.0073590655811131,0.0013769810320809484,9.85023307800293,-0.0019818757193009935,-0.00014224753838729123,-0.0012453318364982061,0.8441057205200195,2019-06-24 14:01:21:207,0.0,0.0,0.0
0.014193681068718433,-0.0010177686344832182,9.857417106628418,-0.0006499700163362892,-0.0012077721625267067,0.0010189078780473654,0.8499660491943359,2019-06-24 14:01:21:213,0.0,0.0,0.0
-0.0025695664808154106,-0.012991516850888729,9.816706657409668,0.0044112719930262095,0.0007900864894482214,0.002084432388404264,0.8540797233581543,2019-06-24 14:01:21:217,0.0,0.0,0.0
-0.0025695664808154106,0.006166480481624603,9.802337646484375,0.00041555459154848093,-0.004137964566008177,0.002350813646030651,0.8599700927734375,2019-06-24 14:01:21:223,0.0,0.0,0.0
-0.0025695664808154106,-0.005807267967611551,9.86220645904541,0.0022802227122380877,-0.0022732966728836053,-0.0012453318364982061,0.8640866279602051,2019-06-24 14:01:21:227,0.0,0.0,0.0
-0.016938064247369766,-0.0034125184174627066,9.819101333618164,0.0010815074430308332,-0.0006750098423296765,0.0011520984418419776,0.8690872192382812,2019-06-24 14:01:21:232,0.0,0.0,0.0
0.033351678401231766,0.0013769810320809484,9.783180236816406,0.0028129849674165368,0.0017224205010290888,0.003283147592592937,0.8749709129333496,2019-06-24 14:01:21:238,0.0,0.0,0.0
0.007009432185441256,0.015745479613542557,9.82149600982666,0.002546603839827312,-0.0008082004061242886,0.004215481539155223,0.8790750503540039,2019-06-24 14:01:21:242,0.0,0.0,0.0
0.009404182434082031,-0.005807267967611551,9.82149600982666,0.002946175531211149,0.0005237053293497061,0.0002197644465157556,0.8849787712097168,2019-06-24 14:01:21:248,0.0,0.0,0.0
-0.016938064247369766,-0.022570515051484108,9.787969589233398,0.0006819357516469962,0.0055849468510728445,0.0006193361866635284,0.8890748023986816,2019-06-24 14:01:21:252,0.0,0.0,0.0
-0.01933281496167183,0.04448247700929642,9.869390487670898,-0.001315922900327932,0.003986660085537498,0.000885717314252753,0.89410400390625,2019-06-24 14:01:21:257,0.0,0.0,0.0
-0.03130656108260155,0.0013769810320809484,9.843049049377441,-0.002914209795900442,0.001855611064823701,0.002350813646030651,0.8999919891357422,2019-06-24 14:01:21:263,0.0,0.0,0.0
0.0046146828681230545,0.01814022846519947,9.725706100463867,-0.002514638104516605,0.002255182756207538,0.0010189078780473654,0.9050159454345703,2019-06-24 14:01:21:268,0.0,0.0,0.0
-0.009753815829753876,0.003771730698645115,9.759232521057129,0.0012146980718440268,-0.0016073438539105438,0.000885717314252753,0.9090785980224609,2019-06-24 14:01:21:272,0.0,0.0,0.0
0.0046146828681230545,-0.008202017284929752,9.814311981201172,0.0009483168792362209,0.0017224205010290888,-0.0013785224002928185,0.9149656295776367,2019-06-24 14:01:21:278,0.0,0.0,0.0
-0.0025695664808154106,-0.008202017284929752,9.816706657409668,0.0021470320184063126,0.0014560393734398642,-0.003909143372464777,0.9190759658813477,2019-06-24 14:01:21:282,0.0,0.0,0.0
-0.009753815829753876,0.030113978311419487,9.828680038452148,-0.001848685155506381,0.0017224205010290888,0.005813768564764896,0.9249734878540039,2019-06-24 14:01:21:288,0.0,0.0,0.0
0.007009432185441256,0.01814022846519947,9.787969589233398,1.5982868671268808e-05,-0.0018737249814997682,0.0010189078780473654,0.9290761947631836,2019-06-24 14:01:21:292,0.0,0.0,0.0
-0.043280310928821564,-0.012991516850888729,9.811917304992676,-0.001715494591711769,-0.0024064872366782175,-0.0009789507089089816,0.9350075721740723,2019-06-24 14:01:21:298,0.0,0.0,0.0
0.02377268113195896,-0.03214951604604721,9.756837844848633,-0.0037133531786681154,0.0026547544475913746,-0.005374239314131187,0.9390802383422852,2019-06-24 14:01:21:302,0.0,0.0,0.0
0.0213779304176569,-0.012991516850888729,9.766416549682617,-0.0022482569769273807,0.00039051476555509394,-0.00044618842122124184,0.945012092590332,2019-06-24 14:01:21:308,0.0,0.0,0.0
0.016588430851697922,0.008561230264604092,9.797548294067383,0.0021470320184063126,-0.0016073438539105438,0.0027503853374144876,0.9491028785705566,2019-06-24 14:01:21:312,0.0,0.0,0.0
0.0213779304176569,0.0013769810320809484,9.756837844848633,0.0005487451878523839,-0.0037383928746243405,-0.0015117129640874309,0.9549770355224609,2019-06-24 14:01:21:318,0.0,0.0,0.0
-0.03130656108260155,0.01814022846519947,9.811917304992676,-0.0037133531786681154,0.0029211355751805994,-0.0003129978574266295,0.9590792655944824,2019-06-24 14:01:21:322,0.0,0.0,0.0
-0.0408855602145195,0.020534979179501534,9.831074714660645,0.0001491734477046111,-0.001740534417705156,-0.003109999729622778,0.9649686813354492,2019-06-24 14:01:21:328,0.0,0.0,0.0
-0.0025695664808154106,0.03969297558069229,9.847838401794434,-0.00011720770426658147,0.0006568959256536091,-0.003109999729622778,0.9690752029418945,2019-06-24 14:01:21:332,0.0,0.0,0.0
0.018983181565999985,-0.005807267967611551,9.864601135253906,-0.000383588856237774,-0.0024064872366782175,0.002084432388404264,0.9749712944030762,2019-06-24 14:01:21:338,0.0,0.0,0.0
0.0213779304176569,-0.029754765331745148,9.8789701461792,-0.001848685155506381,0.00039051476555509394,8.657387459382065e-05,0.979072093963623,2019-06-24 14:01:21:342,0.0,0.0,0.0
-0.0073590655811131,0.03729822486639023,9.819101333618164,0.00041555459154848093,0.00025732418550583624,-0.003109999729622778,0.9850006103515625,2019-06-24 14:01:21:348,0.0,0.0,0.0
-0.014543314464390278,0.01095598004758358,9.783180236816406,-0.006110783326971137,-0.00014224753838729123,-0.00044618842122124184,0.9890956878662109,2019-06-24 14:01:21:352,0.0,0.0,0.0
-0.016938064247369766,0.006166480481624603,9.811917304992676,-0.0011827323365333196,-0.0010745815337135133,0.0002197644465157556,0.9941015243530273,2019-06-24 14:01:21:357,0.0,0.0,0.0
-0.012148565612733364,0.003771730698645115,9.82149600982666,-0.00011720770426658147,-9.05695935394897e-06,0.0030167664650037123,0.9999666213989258,2019-06-24 14:01:21:363,0.0,0.0,0.0
0.014193681068718433,-0.01778101734817028,9.732890129089355,-0.003446972051078891,-0.0012077721625267067,0.002350813646030651,1.0040764808654785,2019-06-24 14:01:21:367,0.0,0.0,0.0
0.026167429983615875,0.034903477877378464,9.874180793762207,-0.000383588856237774,0.00025732418550583624,-0.006972526599815185,1.0099639892578125,2019-06-24 14:01:21:373,0.0,0.0,0.0
-0.03370131179690361,0.034903477877378464,9.754443168640137,0.0012146980718440268,0.00039051476555509394,-0.00044618842122124184,1.0140814781188965,2019-06-24 14:01:21:377,0.0,0.0,0.0
-0.0001748167269397527,-0.0034125184174627066,9.797548294067383,0.0024134132760327,0.0019888016286183133,0.003815909847771386,1.019963264465332,2019-06-24 14:01:21:383,0.0,0.0,0.0
0.007009432185441256,-0.0393337644636631,9.802337646484375,0.0016142697632278635,-0.0022732966728836053,-0.0003129978574266295,1.0241169929504395,2019-06-24 14:01:21:387,0.0,0.0,0.0
-0.016938064247369766,-0.05370226129889488,9.77120590209961,-0.0014491134641225444,0.002255182756207538,0.000885717314252753,1.0299673080444336,2019-06-24 14:01:21:393,0.0,0.0,0.0
-0.0025695664808154106,-0.012991516850888729,9.766416549682617,-0.0019818757193009935,0.0005237053293497061,0.00461505323053906,1.0340995788574219,2019-06-24 14:01:21:397,0.0,0.0,0.0
-0.004964316263794899,0.030113978311419487,9.775995254516602,0.0034789377863895985,0.0025215638837967624,-0.0015117129640874309,1.039975643157959,2019-06-24 14:01:21:403,0.0,0.0,0.0
-0.01933281496167183,0.006166480481624603,9.787969589233398,-0.0007831605801309015,0.003720278957948273,8.657387459382065e-05,1.0440788269042969,2019-06-24 14:01:21:407,0.0,0.0,0.0
-0.016938064247369766,0.008561230264604092,9.814311981201172,0.0034789377863895985,-0.0014741532901159315,0.0007525267504581406,1.0499629974365234,2019-06-24 14:01:21:413,0.0,0.0,0.0
-0.0025695664808154106,-0.008202017284929752,9.828680038452148,-0.0011827323365333196,0.0031875167027698237,0.0002197644465157556,1.0540809631347656,2019-06-24 14:01:21:417,0.0,0.0,0.0
0.007009432185441256,-0.022570515051484108,9.831074714660645,0.0001491734477046111,-0.0012077721625267067,-0.006040192393178574,1.0599689483642578,2019-06-24 14:01:21:423,0.0,0.0,0.0
0.011798931285738945,0.020534979179501534,9.823890686035156,-0.001715494591711769,-0.0002754381184365489,0.0010189078780473654,1.064103126525879,2019-06-24 14:01:21:427,0.0,0.0,0.0
0.011798931285738945,0.042087726294994354,9.795153617858887,-0.0015823040279171567,0.0013228488096452518,-0.0024440469106497167,1.0690937042236328,2019-06-24 14:01:21:432,0.0,0.0,0.0
0.02856217883527279,0.01814022846519947,9.814311981201172,-0.0019818757193009935,0.0034538978303590485,-0.00017980727737737192,1.0749692916870117,2019-06-24 14:01:21:438,0.0,0.0,0.0
-0.004964316263794899,0.003771730698645115,9.785574913024902,-0.0014491134641225444,0.0005237053293497061,-0.0015117129640874309,1.0791029930114746,2019-06-24 14:01:21:442,0.0,0.0,0.0
0.02377268113195896,-0.0034125184174627066,9.778390884399414,0.0032125566588003737,0.0023883733200021503,-0.00017980727737737192,1.0841169357299805,2019-06-24 14:01:21:447,0.0,0.0,0.0
-0.03130656108260155,0.015745479613542557,9.823890686035156,-0.0007831605801309015,-0.0002754381184365489,-0.0028436186020335537,1.089970588684082,2019-06-24 14:01:21:453,0.0,0.0,0.0
0.011798931285738945,0.034903477877378464,9.804732322692871,0.0008151263154416085,-0.001340962726321319,-0.001644903527882043,1.094076156616211,2019-06-24 14:01:21:457,0.0,0.0,0.0
0.030956929549574852,0.02532447874546051,9.799942970275879,-0.0021150662830956056,-0.0016073438539105438,0.004348672102949836,1.0999631881713867,2019-06-24 14:01:21:463,0.0,0.0,0.0
-0.01933281496167183,-0.005807267967611551,9.811917304992676,0.0016142697632278635,-0.0008082004061242886,-0.002577237474444329,1.1040849685668945,2019-06-24 14:01:21:467,0.0,0.0,0.0
0.009404182434082031,-0.005807267967611551,9.859811782836914,-0.0009163511439255139,-0.0016073438539105438,0.0014184795694312021,1.109079360961914,2019-06-24 14:01:21:472,0.0,0.0,0.0
-0.057648807764053345,0.003771730698645115,9.816706657409668,-0.001848685155506381,0.0014560393734398642,0.0014184795694312021,1.1150007247924805,2019-06-24 14:01:21:478,0.0,0.0,0.0
0.011798931285738945,-0.020175766199827194,9.787969589233398,0.0010815074430308332,-0.00014224753838729123,-0.0009789507089089816,1.119072437286377,2019-06-24 14:01:21:482,0.0,0.0,0.0
-0.03370131179690361,-0.029754765331745148,9.864601135253906,0.0010815074430308332,-0.003472011747035116,-0.0028436186020335537,1.1250429153442383,2019-06-24 14:01:21:488,0.0,0.0,0.0
0.04532542824745178,0.013350729830563068,9.843049049377441,-0.0010495417077201262,0.0017224205010290888,0.000885717314252753,1.1290898323059082,2019-06-24 14:01:21:492,0.0,0.0,0.0
0.03574642911553383,-0.020175766199827194,9.783180236816406,-0.0035801626148735037,-9.05695935394897e-06,0.0027503853374144876,1.1349749565124512,2019-06-24 14:01:21:498,0.0,0.0,0.0
-0.024122314527630806,0.008561230264604092,9.807126998901367,0.001347888635638639,-0.004004774002213565,-0.0013785224002928185,1.1390800476074219,2019-06-24 14:01:21:502,0.0,0.0,0.0
-0.009753815829753876,-0.020175766199827194,9.840654373168945,0.001880650890817088,-9.05695935394897e-06,0.0028835759012090997,1.1449713706970215,2019-06-24 14:01:21:508,0.0,0.0,0.0
-0.0025695664808154106,0.015745479613542557,9.847838401794434,0.0001491734477046111,0.00411985064933211,0.0003529550265650132,1.1490793228149414,2019-06-24 14:01:21:512,0.0,0.0,0.0
-0.009753815829753876,0.01095598004758358,9.799942970275879,-0.0007831605801309015,-0.0012077721625267067,0.0007525267504581406,1.1549749374389648,2019-06-24 14:01:21:518,0.0,0.0,0.0
0.007009432185441256,0.008561230264604092,9.768811225891113,0.0012146980718440268,-0.0012077721625267067,0.0018180512608150393,1.159074306488037,2019-06-24 14:01:21:522,0.0,0.0,0.0
-0.009753815829753876,0.015745479613542557,9.823890686035156,0.0010815074430308332,-0.0028060589280620545,-0.0003129978574266295,1.1650209426879883,2019-06-24 14:01:21:528,0.0,0.0,0.0
-0.06962256133556366,-0.0034125184174627066,9.814311981201172,-0.0014491134641225444,-0.0029392494918566666,-0.00017980727737737192,1.1691169738769531,2019-06-24 14:01:21:532,0.0,0.0,0.0
-0.009753815829753876,-0.01059676706790924,9.831074714660645,0.0017474603270224759,0.0017224205010290888,0.002350813646030651,1.174978256225586,2019-06-24 14:01:21:538,0.0,0.0,0.0
-0.0073590655811131,0.003771730698645115,9.78078556060791,-0.005844402199381912,-0.0038715834384189522,0.0010189078780473654,1.1790781021118164,2019-06-24 14:01:21:542,0.0,0.0,0.0
0.0046146828681230545,0.02532447874546051,9.756837844848633,-0.001848685155506381,0.00039051476555509394,-0.0012453318364982061,1.1856718063354492,2019-06-24 14:01:21:548,0.0,0.0,0.0
0.011798931285738945,-0.0010177686344832182,9.83346939086914,-0.00451249656143579,-0.0004086286822311611,-0.001112141272703594,1.1893439292907715,2019-06-24 14:01:21:552,0.0,0.0,0.0
-0.0025695664808154106,0.022929728031158447,9.78078556060791,-0.001315922900327932,-0.0033388211832405036,0.0002197644465157556,1.19425630569458,2019-06-24 14:01:21:557,0.0,0.0,0.0
-0.016938064247369766,-0.0393337644636631,9.811917304992676,-0.00011720770426658147,-0.00014224753838729123,8.657387459382065e-05,1.1992530822753906,2019-06-24 14:01:21:562,0.0,0.0,0.0
-0.021727563813328743,0.022929728031158447,9.852627754211426,0.0036121283501842102,-0.0024064872366782175,0.0022176230822360385,1.204258918762207,2019-06-24 14:01:21:567,0.0,0.0,0.0
0.0213779304176569,0.027719227597117424,9.732890129089355,-0.0014491134641225444,0.003587088394153661,-0.005507430138000124,1.2092599868774414,2019-06-24 14:01:21:572,0.0,0.0,0.0
0.009404182434082031,-0.01778101734817028,9.83346939086914,1.5982868671268808e-05,-0.0022732966728836053,8.657387459382065e-05,1.214303970336914,2019-06-24 14:01:21:577,0.0,0.0,0.0
-0.028911812230944633,-0.008202017284929752,9.823890686035156,0.002946175531211149,0.0029211355751805994,0.002350813646030651,1.2192583084106445,2019-06-24 14:01:21:582,0.0,0.0,0.0
-0.0001748167269397527,0.01814022846519947,9.840654373168945,0.0001491734477046111,0.0001241336135839013,-0.0008457601451143693,1.2242579460144043,2019-06-24 14:01:21:587,0.0,0.0,0.0
0.007009432185441256,-0.0010177686344832182,9.814311981201172,-0.003047400359695054,0.0026547544475913746,-0.0009789507089089816,1.229245662689209,2019-06-24 14:01:21:592,0.0,0.0,0.0
0.05011492595076561,0.006166480481624603,9.843049049377441,0.004011700041568048,0.0011896582458506397,0.0024840042098252632,1.2342462539672852,2019-06-24 14:01:21:597,0.0,0.0,0.0
-0.004964316263794899,0.006166480481624603,9.835864067077637,1.5982868671268808e-05,0.001056467617037446,-0.006040192393178574,1.239243984222412,2019-06-24 14:01:21:602,0.0,0.0,0.0
0.016588430851697922,-0.012991516850888729,9.79275894165039,-0.0019818757193009935,0.0025215638837967624,-0.0015117129640874309,1.244248867034912,2019-06-24 14:01:21:607,0.0,0.0,0.0
0.0022199328523129225,0.01814022846519947,9.766416549682617,-0.0022482569769273807,-0.0012077721625267067,-0.002976809165828166,1.2492527961730957,2019-06-24 14:01:21:612,0.0,0.0,0.0
-0.0025695664808154106,-0.022570515051484108,9.835864067077637,0.0008151263154416085,-0.001740534417705156,-0.0013785224002928185,1.254305362701416,2019-06-24 14:01:21:617,0.0,0.0,0.0
-0.0001748167269397527,0.013350729830563068,9.802337646484375,0.0017474603270224759,-0.0024064872366782175,0.000885717314252753,1.2593069076538086,2019-06-24 14:01:21:622,0.0,0.0,0.0
-0.02651706337928772,0.022929728031158447,9.77120590209961,-0.004246115433846565,0.00039051476555509394,-0.001112141272703594,1.264256477355957,2019-06-24 14:01:21:627,0.0,0.0,0.0
-0.02651706337928772,0.0325087271630764,9.871786117553711,-0.002647828668311217,0.0027879450113859868,0.00461505323053906,1.2692546844482422,2019-06-24 14:01:21:632,0.0,0.0,0.0
-0.02651706337928772,0.0013769810320809484,9.790364265441895,-0.0009163511439255139,0.003720278957948273,0.002084432388404264,1.2742586135864258,2019-06-24 14:01:21:637,0.0,0.0,0.0
-0.009753815829753876,-0.0034125184174627066,9.74246883392334,-0.001315922900327932,-9.05695935394897e-06,0.0028835759012090997,1.2792530059814453,2019-06-24 14:01:21:642,0.0,0.0,0.0
0.026167429983615875,0.008561230264604092,9.797548294067383,-0.0007831605801309015,-0.0029392494918566666,-0.0012453318364982061,1.2842507362365723,2019-06-24 14:01:21:647,0.0,0.0,0.0
0.02856217883527279,0.01095598004758358,9.864601135253906,-0.00011720770426658147,0.0043862320369956595,-0.0023108563468551046,1.2892513275146484,2019-06-24 14:01:21:652,0.0,0.0,0.0
-0.024122314527630806,0.022929728031158447,9.797548294067383,0.001880650890817088,-0.0009413909699189009,0.0015516701332258143,1.2942509651184082,2019-06-24 14:01:21:657,0.0,0.0,0.0
-0.0073590655811131,-0.0010177686344832182,9.802337646484375,0.003079366095005761,-0.0022732966728836053,-0.0008457601451143693,1.299311637878418,2019-06-24 14:01:21:662,0.0,0.0,0.0
-0.03130656108260155,-0.027360014617443085,9.838258743286133,-0.0006499700163362892,-0.00014224753838729123,0.0007525267504581406,1.3049988746643066,2019-06-24 14:01:21:668,0.0,0.0,0.0
0.014193681068718433,0.020534979179501534,9.823890686035156,0.0020138414546117004,-0.0025396778004728297,0.0004861455903596255,1.3099570274353027,2019-06-24 14:01:21:673,0.0,0.0,0.0
0.033351678401231766,-0.0010177686344832182,9.845443725585938,0.0006819357516469962,-0.004004774002213565,-0.001112141272703594,1.314967155456543,2019-06-24 14:01:21:678,0.0,0.0,0.0
-0.009753815829753876,0.015745479613542557,9.82149600982666,-0.002381447540721993,0.00039051476555509394,-4.661670139177563e-05,1.3190722465515137,2019-06-24 14:01:21:682,0.0,0.0,0.0
-0.016938064247369766,-0.0010177686344832182,9.783180236816406,-0.0006499700163362892,-0.0016073438539105438,0.0031499570287983245,1.324965476989746,2019-06-24 14:01:21:688,0.0,0.0,0.0
0.011798931285738945,0.008561230264604092,9.814311981201172,0.0001491734477046111,-0.0022732966728836053,0.005147815485717509,1.3290643692016602,2019-06-24 14:01:21:692,0.0,0.0,0.0
0.018983181565999985,-0.005807267967611551,9.77120590209961,0.0009483168792362209,0.002121992192412926,8.657387459382065e-05,1.334963321685791,2019-06-24 14:01:21:698,0.0,0.0,0.0
0.014193681068718433,0.01095598004758358,9.807126998901367,0.00041555459154848093,-0.0029392494918566666,0.0006193361866635284,1.3390741348266602,2019-06-24 14:01:21:702,0.0,0.0,0.0
0.040535926818847656,-0.012991516850888729,9.795153617858887,0.0006819357516469962,0.00039051476555509394,0.0026171947736198754,1.3450088500976562,2019-06-24 14:01:21:708,0.0,0.0,0.0
0.026167429983615875,0.003771730698645115,9.852627754211426,-0.0019818757193009935,-0.0004086286822311611,0.00608014969235412,1.3499760627746582,2019-06-24 14:01:21:713,0.0,0.0,0.0
-0.004964316263794899,0.01095598004758358,9.811917304992676,-0.0021150662830956056,-0.0018737249814997682,-0.0023108563468551046,1.3540802001953125,2019-06-24 14:01:21:717,0.0,0.0,0.0
-0.0001748167269397527,0.034903477877378464,9.785574913024902,0.0005487451878523839,-0.003072440055651279,-0.005374239314131187,1.3599576950073242,2019-06-24 14:01:21:723,0.0,0.0,0.0
-0.0025695664808154106,0.008561230264604092,9.807126998901367,-0.0005167794200323863,-0.003472011747035116,-0.004575095931363514,1.3640799522399902,2019-06-24 14:01:21:727,0.0,0.0,0.0
0.0022199328523129225,0.008561230264604092,9.876575469970703,0.0010815074430308332,0.0005237053293497061,-0.002710428038238941,1.3699908256530762,2019-06-24 14:01:21:733,0.0,0.0,0.0
-0.009753815829753876,0.022929728031158447,9.802337646484375,-0.0019818757193009935,0.0027879450113859868,-0.0028436186020335537,1.374969482421875,2019-06-24 14:01:21:738,0.0,0.0,0.0
-0.0073590655811131,-0.0034125184174627066,9.783180236816406,-0.0014491134641225444,-0.001340962726321319,-0.0012453318364982061,1.3790664672851562,2019-06-24 14:01:21:742,0.0,0.0,0.0
0.033351678401231766,-0.015386266633868217,9.77120590209961,0.0008151263154416085,-0.0029392494918566666,-0.002976809165828166,1.3849868774414062,2019-06-24 14:01:21:748,0.0,0.0,0.0
0.0022199328523129225,-0.015386266633868217,9.790364265441895,0.0022802227122380877,-0.0022732966728836053,0.0002197644465157556,1.3891096115112305,2019-06-24 14:01:21:752,0.0,0.0,0.0
0.0213779304176569,-0.020175766199827194,9.766416549682617,-0.002381447540721993,0.0006568959256536091,0.003283147592592937,1.3949756622314453,2019-06-24 14:01:21:758,0.0,0.0,0.0
-0.016938064247369766,-0.0010177686344832182,9.799942970275879,-0.000383588856237774,-0.0022732966728836053,-0.004841477058952738,1.3990764617919922,2019-06-24 14:01:21:762,0.0,0.0,0.0
-0.014543314464390278,0.008561230264604092,9.790364265441895,-0.0019818757193009935,-0.0006750098423296765,-0.0019112846554712676,1.4049630165100098,2019-06-24 14:01:21:768,0.0,0.0,0.0
0.02377268113195896,0.006166480481624603,9.828680038452148,-0.003446972051078891,-0.0021401061090889927,0.0015516701332258143,1.4090728759765625,2019-06-24 14:01:21:772,0.0,0.0,0.0
-0.012148565612733364,0.008561230264604092,9.80952262878418,0.00414489060536266,0.0015892299372344764,0.0040822909753606106,1.414963722229004,2019-06-24 14:01:21:778,0.0,0.0,0.0
-0.0025695664808154106,0.013350729830563068,9.82149600982666,0.0014810791994332513,-0.004803917645055564,-0.0017780940916766552,1.4190645217895508,2019-06-24 14:01:21:782,0.0,0.0,0.0
-0.014543314464390278,-0.01059676706790924,9.828680038452148,1.5982868671268808e-05,0.0005237053293497061,-0.00404233393625939,1.424084186553955,2019-06-24 14:01:21:787,0.0,0.0,0.0
-0.01933281496167183,0.0325087271630764,9.843049049377441,-0.0007831605801309015,0.0015892299372344764,8.657387459382065e-05,1.4299755096435547,2019-06-24 14:01:21:793,0.0,0.0,0.0
-0.004964316263794899,0.015745479613542557,9.711337089538574,0.0002823640277538687,0.0005237053293497061,0.005281006309586446,1.4340906143188477,2019-06-24 14:01:21:797,0.0,0.0,0.0
-0.009753815829753876,0.01814022846519947,9.787969589233398,0.002679794403621924,-0.0014741532901159315,-0.0020444752192658802,1.439072608947754,2019-06-24 14:01:21:802,0.0,0.0,0.0
-0.03370131179690361,0.03969297558069229,9.804732322692871,0.0014810791994332513,-0.005869442155412462,0.0028835759012090997,1.4449682235717773,2019-06-24 14:01:21:808,0.0,0.0,0.0
-0.024122314527630806,0.008561230264604092,9.759232521057129,-0.0009163511439255139,0.002121992192412926,0.002084432388404264,1.4499616622924805,2019-06-24 14:01:21:813,0.0,0.0,0.0
0.014193681068718433,-0.0010177686344832182,9.85023307800293,0.0006819357516469962,-0.0004086286822311611,-0.00044618842122124184,1.4549689292907715,2019-06-24 14:01:21:818,0.0,0.0,0.0
0.026167429983615875,0.027719227597117424,9.78078556060791,-0.0006499700163362892,0.004519422340715947,0.0006193361866635284,1.4590682983398438,2019-06-24 14:01:21:822,0.0,0.0,0.0
-0.012148565612733364,0.008561230264604092,9.775995254516602,0.0014810791994332513,0.0011896582458506397,-0.0032431902934173906,1.4649620056152344,2019-06-24 14:01:21:828,0.0,0.0,0.0
-0.016938064247369766,-0.005807267967611551,9.83346939086914,-0.0006499700163362892,0.001056467617037446,-4.661670139177563e-05,1.4699897766113281,2019-06-24 14:01:21:833,0.0,0.0,0.0
-0.016938064247369766,0.022929728031158447,9.807126998901367,-0.001315922900327932,0.0026547544475913746,0.003416338156387549,1.4749712944030762,2019-06-24 14:01:21:838,0.0,0.0,0.0
-0.012148565612733364,0.008561230264604092,9.797548294067383,-0.0033137814872842794,0.0001241336135839013,-0.0017780940916766552,1.479100227355957,2019-06-24 14:01:21:842,0.0,0.0,0.0
-0.02651706337928772,0.042087726294994354,9.816706657409668,-0.0015823040279171567,-0.001740534417705156,0.0031499570287983245,1.484969139099121,2019-06-24 14:01:21:848,0.0,0.0,0.0
0.0022199328523129225,-0.012991516850888729,9.785574913024902,-0.0035801626148735037,-0.0020069155452943806,-0.0013785224002928185,1.4890661239624023,2019-06-24 14:01:21:852,0.0,0.0,0.0
-0.05285931006073952,-0.01059676706790924,9.797548294067383,0.0021470320184063126,-0.002672868364267442,0.0022176230822360385,1.4949555397033691,2019-06-24 14:01:21:858,0.0,0.0,0.0
-0.009753815829753876,0.01814022846519947,9.80952262878418,0.0001491734477046111,0.0013228488096452518,-0.0019112846554712676,1.4990744590759277,2019-06-24 14:01:21:862,0.0,0.0,0.0
-0.01933281496167183,-0.0010177686344832182,9.764021873474121,0.0012146980718440268,-0.0020069155452943806,-0.001644903527882043,1.5049676895141602,2019-06-24 14:01:21:868,0.0,0.0,0.0
-0.021727563813328743,-0.029754765331745148,9.831074714660645,-0.0031805909234896667,-0.001340962726321319,0.0006193361866635284,1.5090641975402832,2019-06-24 14:01:21:872,0.0,0.0,0.0
-0.009753815829753876,-0.020175766199827194,9.847838401794434,-0.0022482569769273807,-0.00014224753838729123,-0.0012453318364982061,1.5149612426757812,2019-06-24 14:01:21:878,0.0,0.0,0.0
-0.0073590655811131,0.003771730698645115,9.807126998901367,0.004011700041568048,0.0011896582458506397,0.003682719283976774,1.5200247764587402,2019-06-24 14:01:21:883,0.0,0.0,0.0
-0.03370131179690361,0.003771730698645115,9.773600578308105,0.001880650890817088,-0.0025396778004728297,-0.002577237474444329,1.5240998268127441,2019-06-24 14:01:21:887,0.0,0.0,0.0
-0.057648807764053345,-0.022570515051484108,9.80952262878418,0.0017474603270224759,0.00025732418550583624,-0.0008457601451143693,1.5299596786499023,2019-06-24 14:01:21:893,0.0,0.0,0.0
0.0046146828681230545,0.0013769810320809484,9.797548294067383,-0.0015823040279171567,-0.003205630619445891,-0.0009789507089089816,1.5340819358825684,2019-06-24 14:01:21:897,0.0,0.0,0.0
-0.03370131179690361,0.020534979179501534,9.797548294067383,0.0002823640277538687,-0.0014741532901159315,8.657387459382065e-05,1.539963722229004,2019-06-24 14:01:21:903,0.0,0.0,0.0
-0.009753815829753876,0.02532447874546051,9.79275894165039,-0.004379306257715503,0.003587088394153661,-0.00044618842122124184,1.5440797805786133,2019-06-24 14:01:21:907,0.0,0.0,0.0
0.0046146828681230545,-0.01059676706790924,9.78078556060791,-0.000383588856237774,0.0033207072665644363,0.000885717314252753,1.549952507019043,2019-06-24 14:01:21:913,0.0,0.0,0.0
0.0213779304176569,-0.020175766199827194,9.811917304992676,0.004278081169157272,0.0026547544475913746,0.00128528900563659,1.5540871620178223,2019-06-24 14:01:21:917,0.0,0.0,0.0
0.0046146828681230545,-0.0010177686344832182,9.802337646484375,-0.000383588856237774,0.0001241336135839013,0.0016848606970204267,1.560002326965332,2019-06-24 14:01:21:923,0.0,0.0,0.0
-0.0001748167269397527,0.0013769810320809484,9.797548294067383,0.0008151263154416085,-0.0012077721625267067,0.0031499570287983245,1.564192771911621,2019-06-24 14:01:21:927,0.0,0.0,0.0
0.009404182434082031,0.03729822486639023,9.802337646484375,1.5982868671268808e-05,0.0017224205010290888,-0.001644903527882043,1.569969654083252,2019-06-24 14:01:21:933,0.0,0.0,0.0
0.0022199328523129225,0.034903477877378464,9.775995254516602,-0.0022482569769273807,-0.00427115512980279,-0.002710428038238941,1.5740795135498047,2019-06-24 14:01:21:937,0.0,0.0,0.0
-0.03370131179690361,0.013350729830563068,9.725706100463867,0.002679794403621924,0.0001241336135839013,-0.0007125695813197571,1.579951286315918,2019-06-24 14:01:21:943,0.0,0.0,0.0
-0.024122314527630806,-0.012991516850888729,9.77120590209961,0.0022802227122380877,0.00025732418550583624,8.657387459382065e-05,1.5849637985229492,2019-06-24 14:01:21:948,0.0,0.0,0.0
-0.03130656108260155,-0.008202017284929752,9.814311981201172,0.001880650890817088,-0.001740534417705156,0.0018180512608150393,1.5890741348266602,2019-06-24 14:01:21:952,0.0,0.0,0.0
-0.03130656108260155,0.0325087271630764,9.823890686035156,0.0009483168792362209,0.0019888016286183133,-0.0020444752192658802,1.5949649810791016,2019-06-24 14:01:21:958,0.0,0.0,0.0
-0.016938064247369766,-0.020175766199827194,9.86220645904541,-0.00025039827618851643,-0.0009413909699189009,0.0002197644465157556,1.5999565124511719,2019-06-24 14:01:21:963,0.0,0.0,0.0
0.009404182434082031,0.01095598004758358,9.778390884399414,-0.005578021071792687,-9.05695935394897e-06,0.0026171947736198754,1.6040983200073242,2019-06-24 14:01:21:967,0.0,0.0,0.0
0.007009432185441256,0.006166480481624603,9.83346939086914,0.0014810791994332513,-0.00014224753838729123,0.003815909847771386,1.6100106239318848,2019-06-24 14:01:21:973,0.0,0.0,0.0
-0.014543314464390278,0.015745479613542557,9.802337646484375,-0.003979734306257341,0.001056467617037446,0.0003529550265650132,1.6140904426574707,2019-06-24 14:01:21:977,0.0,0.0,0.0
-0.03370131179690361,0.049271974712610245,9.795153617858887,-0.0014491134641225444,-0.0005418192460257735,8.657387459382065e-05,1.6199541091918945,2019-06-24 14:01:21:983,0.0,0.0,0.0
-0.016938064247369766,-0.0034125184174627066,9.82149600982666,-0.001715494591711769,-0.0029392494918566666,0.0003529550265650132,1.6240816116333008,2019-06-24 14:01:21:987,0.0,0.0,0.0
-0.014543314464390278,-0.015386266633868217,9.843049049377441,-0.003047400359695054,0.0033207072665644363,0.0011520984418419776,1.629958152770996,2019-06-24 14:01:21:993,0.0,0.0,0.0
0.026167429983615875,0.003771730698645115,9.79275894165039,-0.0007831605801309015,-0.004004774002213565,-0.003909143372464777,1.634079933166504,2019-06-24 14:01:21:997,0.0,0.0,0.0
-0.0025695664808154106,0.01095598004758358,9.799942970275879,-0.0009163511439255139,0.001056467617037446,0.0006193361866635284,1.6399521827697754,2019-06-24 14:01:22:003,0.0,0.0,0.0
-0.0025695664808154106,0.02532447874546051,9.8789701461792,0.00041555459154848093,0.00039051476555509394,8.657387459382065e-05,1.6449637413024902,2019-06-24 14:01:22:008,0.0,0.0,0.0
-0.0001748167269397527,0.01095598004758358,9.787969589233398,-0.00025039827618851643,-0.00427115512980279,0.0007525267504581406,1.6490869522094727,2019-06-24 14:01:22:012,0.0,0.0,0.0
0.016588430851697922,0.06364047527313232,9.823890686035156,0.0001491734477046111,-0.0020069155452943806,0.0003529550265650132,1.6541218757629395,2019-06-24 14:01:22:017,0.0,0.0,0.0
0.03814117982983589,-0.0034125184174627066,9.823890686035156,0.00041555459154848093,0.00025732418550583624,-0.00404233393625939,1.6599578857421875,2019-06-24 14:01:22:023,0.0,0.0,0.0
0.02377268113195896,0.0013769810320809484,9.756837844848633,0.0022802227122380877,0.0005237053293497061,0.0018180512608150393,1.6649651527404785,2019-06-24 14:01:22:028,0.0,0.0,0.0
-0.012148565612733364,-0.01778101734817028,9.843049049377441,-0.002914209795900442,0.0005237053293497061,0.0004861455903596255,1.6691021919250488,2019-06-24 14:01:22:032,0.0,0.0,0.0
0.0046146828681230545,-0.012991516850888729,9.807126998901367,0.0016142697632278635,-0.004404345693597402,-0.0036427622448755525,1.6740846633911133,2019-06-24 14:01:22:037,0.0,0.0,0.0
-0.028911812230944633,0.0013769810320809484,9.82149600982666,-0.000383588856237774,0.0029211355751805994,-4.661670139177563e-05,1.6799488067626953,2019-06-24 14:01:22:043,0.0,0.0,0.0
-0.0025695664808154106,0.008561230264604092,9.823890686035156,-0.001715494591711769,0.0005237053293497061,-0.0024440469106497167,1.6840825080871582,2019-06-24 14:01:22:047,0.0,0.0,0.0
0.0022199328523129225,0.034903477877378464,9.747259140014648,0.00041555459154848093,-0.0002754381184365489,8.657387459382065e-05,1.6899638175964355,2019-06-24 14:01:22:053,0.0,0.0,0.0
-0.009753815829753876,0.01095598004758358,9.756837844848633,-0.001315922900327932,-0.0012077721625267067,-0.0007125695813197571,1.6949858665466309,2019-06-24 14:01:22:058,0.0,0.0,0.0
-0.012148565612733364,0.020534979179501534,9.807126998901367,-0.0007831605801309015,0.0025215638837967624,-0.0013785224002928185,1.6999917030334473,2019-06-24 14:01:22:063,0.0,0.0,0.0
0.0046146828681230545,0.01095598004758358,9.852627754211426,-0.0021150662830956056,0.0009232770532428338,-0.00017980727737737192,1.704084873199463,2019-06-24 14:01:22:067,0.0,0.0,0.0
-0.009753815829753876,0.01814022846519947,9.831074714660645,-0.0007831605801309015,0.002255182756207538,0.0016848606970204267,1.7099542617797852,2019-06-24 14:01:22:073,0.0,0.0,0.0
-0.01933281496167183,0.003771730698645115,9.807126998901367,0.0006819357516469962,0.0013228488096452518,0.0007525267504581406,1.7140798568725586,2019-06-24 14:01:22:077,0.0,0.0,0.0
-0.024122314527630806,0.02532447874546051,9.785574913024902,-0.004246115433846565,-0.0009413909699189009,-0.001644903527882043,1.7199616432189941,2019-06-24 14:01:22:083,0.0,0.0,0.0
0.054904427379369736,0.02532447874546051,9.814311981201172,0.0021470320184063126,-0.0020069155452943806,-0.002710428038238941,1.7249689102172852,2019-06-24 14:01:22:088,0.0,0.0,0.0
0.0046146828681230545,0.008561230264604092,9.802337646484375,0.0014810791994332513,-0.0002754381184365489,-0.00044618842122124184,1.7290658950805664,2019-06-24 14:01:22:092,0.0,0.0,0.0
0.014193681068718433,0.022929728031158447,9.828680038452148,-0.001848685155506381,0.0005237053293497061,-0.0008457601451143693,1.7349543571472168,2019-06-24 14:01:22:098,0.0,0.0,0.0
-0.01933281496167183,0.01814022846519947,9.797548294067383,-0.0006499700163362892,0.0006568959256536091,-0.001112141272703594,1.7390947341918945,2019-06-24 14:01:22:102,0.0,0.0,0.0
-0.004964316263794899,0.003771730698645115,9.802337646484375,-0.00011720770426658147,0.0026547544475913746,0.0035495287201821614,1.7449846267700195,2019-06-24 14:01:22:108,0.0,0.0,0.0
-0.016938064247369766,-0.01059676706790924,9.78078556060791,0.003745318913978823,-0.0021401061090889927,-0.0009789507089089816,1.7490730285644531,2019-06-24 14:01:22:112,0.0,0.0,0.0
-0.0073590655811131,-0.0034125184174627066,9.783180236816406,0.005077224551924946,0.00039051476555509394,-0.0003129978574266295,1.754960060119629,2019-06-24 14:01:22:118,0.0,0.0,0.0
0.0046146828681230545,0.02532447874546051,9.845443725585938,0.003079366095005761,-0.0009413909699189009,0.0018180512608150393,1.7590723037719727,2019-06-24 14:01:22:122,0.0,0.0,0.0
-0.0073590655811131,0.006166480481624603,9.802337646484375,-0.0005167794200323863,-0.005869442155412462,0.002084432388404264,1.764963150024414,2019-06-24 14:01:22:128,0.0,0.0,0.0
-0.02651706337928772,-0.0010177686344832182,9.845443725585938,-0.0010495417077201262,-0.00014224753838729123,0.0004861455903596255,1.7690887451171875,2019-06-24 14:01:22:132,0.0,0.0,0.0
0.007009432185441256,0.008561230264604092,9.778390884399414,0.0024134132760327,0.003720278957948273,-0.0008457601451143693,1.7749595642089844,2019-06-24 14:01:22:138,0.0,0.0,0.0
-0.0073590655811131,0.006166480481624603,9.764021873474121,1.5982868671268808e-05,-0.0022732966728836053,-0.00017980727737737192,1.7800421714782715,2019-06-24 14:01:22:143,0.0,0.0,0.0
-0.0073590655811131,-0.005807267967611551,9.775995254516602,-0.001848685155506381,-0.0012077721625267067,0.0010189078780473654,1.7850275039672852,2019-06-24 14:01:22:148,0.0,0.0,0.0
-0.009753815829753876,0.027719227597117424,9.838258743286133,0.0017474603270224759,-9.05695935394897e-06,0.0003529550265650132,1.7890939712524414,2019-06-24 14:01:22:152,0.0,0.0,0.0
-0.01933281496167183,-0.0034125184174627066,9.790364265441895,0.0008151263154416085,-0.0004086286822311611,-0.003109999729622778,1.7949700355529785,2019-06-24 14:01:22:158,0.0,0.0,0.0
0.0046146828681230545,0.03969297558069229,9.795153617858887,0.001347888635638639,0.00039051476555509394,-4.661670139177563e-05,1.7990636825561523,2019-06-24 14:01:22:162,0.0,0.0,0.0
0.018983181565999985,0.042087726294994354,9.86220645904541,-0.0005167794200323863,0.0026547544475913746,0.002084432388404264,1.8049654960632324,2019-06-24 14:01:22:168,0.0,0.0,0.0
0.011798931285738945,-0.01059676706790924,9.799942970275879,0.0010815074430308332,-0.006668585538180136,-0.00044618842122124184,1.8090763092041016,2019-06-24 14:01:22:172,0.0,0.0,0.0
0.007009432185441256,0.003771730698645115,9.869390487670898,0.0020138414546117004,0.0019888016286183133,0.0018180512608150393,1.8149681091308594,2019-06-24 14:01:22:178,0.0,0.0,0.0
0.007009432185441256,-0.0034125184174627066,9.756837844848633,0.0021470320184063126,-0.0025396778004728297,-0.0028436186020335537,1.819951057434082,2019-06-24 14:01:22:183,0.0,0.0,0.0
0.014193681068718433,0.003771730698645115,9.804732322692871,-0.0006499700163362892,0.0027879450113859868,0.0016848606970204267,1.8241300582885742,2019-06-24 14:01:22:187,0.0,0.0,0.0
-0.021727563813328743,0.015745479613542557,9.80952262878418,0.0017474603270224759,-0.0046707268211866266,0.0026171947736198754,1.829981803894043,2019-06-24 14:01:22:193,0.0,0.0,0.0
-0.0073590655811131,-0.029754765331745148,9.814311981201172,0.00041555459154848093,-9.05695935394897e-06,-0.0021776657830604924,1.8340816497802734,2019-06-24 14:01:22:197,0.0,0.0,0.0
-0.014543314464390278,-0.008202017284929752,9.82149600982666,0.0008151263154416085,-0.003072440055651279,0.00128528900563659,1.839949131011963,2019-06-24 14:01:22:203,0.0,0.0,0.0
-0.012148565612733364,-0.01059676706790924,9.811917304992676,0.0005487451878523839,0.0006568959256536091,-0.0015117129640874309,1.8450722694396973,2019-06-24 14:01:22:208,0.0,0.0,0.0
-0.009753815829753876,0.03729822486639023,9.773600578308105,0.0016142697632278635,-0.0016073438539105438,0.002084432388404264,1.8490781784057617,2019-06-24 14:01:22:212,0.0,0.0,0.0
0.02377268113195896,-0.005807267967611551,9.816706657409668,-0.0010495417077201262,0.0005237053293497061,0.0024840042098252632,1.8549704551696777,2019-06-24 14:01:22:218,0.0,0.0,0.0
0.0022199328523129225,-0.01778101734817028,9.845443725585938,-0.0009163511439255139,0.0017224205010290888,0.00128528900563659,1.8599605560302734,2019-06-24 14:01:22:223,0.0,0.0,0.0
-0.0073590655811131,0.03729822486639023,9.814311981201172,0.001347888635638639,0.002121992192412926,-0.0020444752192658802,1.8649606704711914,2019-06-24 14:01:22:228,0.0,0.0,0.0
-0.03609606251120567,-0.0034125184174627066,9.766416549682617,-0.002514638104516605,-0.0028060589280620545,-0.0012453318364982061,1.8690929412841797,2019-06-24 14:01:22:232,0.0,0.0,0.0
-0.0001748167269397527,0.03969297558069229,9.871786117553711,-0.0021150662830956056,0.00411985064933211,0.0031499570287983245,1.8749799728393555,2019-06-24 14:01:22:238,0.0,0.0,0.0
-0.02651706337928772,0.01095598004758358,9.790364265441895,-0.0022482569769273807,0.0011896582458506397,-0.0021776657830604924,1.879065990447998,2019-06-24 14:01:22:242,0.0,0.0,0.0
0.011798931285738945,-0.015386266633868217,9.783180236816406,-0.00278101923210583,-0.0005418192460257735,-0.0009789507089089816,1.884969711303711,2019-06-24 14:01:22:248,0.0,0.0,0.0
-0.021727563813328743,0.015745479613542557,9.773600578308105,-0.004379306257715503,0.0011896582458506397,-0.0003129978574266295,1.8890776634216309,2019-06-24 14:01:22:252,0.0,0.0,0.0
-0.0025695664808154106,0.01095598004758358,9.831074714660645,-0.0007831605801309015,-0.0002754381184365489,0.003283147592592937,1.8949737548828125,2019-06-24 14:01:22:258,0.0,0.0,0.0
-0.024122314527630806,-0.005807267967611551,9.804732322692871,-0.003846543742462728,-0.0014741532901159315,-4.661670139177563e-05,1.899071216583252,2019-06-24 14:01:22:262,0.0,0.0,0.0
-0.0001748167269397527,0.02532447874546051,9.79275894165039,-0.0009163511439255139,-0.0005418192460257735,-0.002577237474444329,1.9049558639526367,2019-06-24 14:01:22:268,0.0,0.0,0.0
0.0022199328523129225,0.034903477877378464,9.816706657409668,-0.001715494591711769,-0.0022732966728836053,0.0018180512608150393,1.9090733528137207,2019-06-24 14:01:22:272,0.0,0.0,0.0
0.0046146828681230545,-0.015386266633868217,9.855022430419922,-0.002914209795900442,0.002121992192412926,-0.003909143372464777,1.914989948272705,2019-06-24 14:01:22:278,0.0,0.0,0.0
-0.016938064247369766,-0.012991516850888729,9.802337646484375,0.002546603839827312,-0.001340962726321319,0.003815909847771386,1.9199552536010742,2019-06-24 14:01:22:283,0.0,0.0,0.0
-0.012148565612733364,-0.0034125184174627066,9.790364265441895,0.0028129849674165368,0.0014560393734398642,-0.004575095931363514,1.9240765571594238,2019-06-24 14:01:22:287,0.0,0.0,0.0
-0.0025695664808154106,-0.0034125184174627066,9.790364265441895,-0.0031805909234896667,-0.0038715834384189522,0.002350813646030651,1.9299612045288086,2019-06-24 14:01:22:293,0.0,0.0,0.0
-0.043280310928821564,-0.005807267967611551,9.759232521057129,-0.0054448307680724,0.0011896582458506397,-0.0052410490104109,1.9349980354309082,2019-06-24 14:01:22:298,0.0,0.0,0.0
0.0022199328523129225,-0.0034125184174627066,9.905312538146973,-0.0019818757193009935,-0.0012077721625267067,-0.001112141272703594,1.939073085784912,2019-06-24 14:01:22:302,0.0,0.0,0.0
-0.014543314464390278,0.013350729830563068,9.773600578308105,0.0005487451878523839,0.0019888016286183133,0.0007525267504581406,1.9449682235717773,2019-06-24 14:01:22:308,0.0,0.0,0.0
0.033351678401231766,-0.012991516850888729,9.759232521057129,0.0020138414546117004,-0.0025396778004728297,8.657387459382065e-05,1.9499626159667969,2019-06-24 14:01:22:313,0.0,0.0,0.0
0.02856217883527279,0.020534979179501534,9.82149600982666,0.003079366095005761,0.0025215638837967624,0.0002197644465157556,1.954080581665039,2019-06-24 14:01:22:317,0.0,0.0,0.0
-0.0001748167269397527,0.022929728031158447,9.814311981201172,0.0002823640277538687,0.00025732418550583624,-0.00044618842122124184,1.9599785804748535,2019-06-24 14:01:22:323,0.0,0.0,0.0
-0.01933281496167183,0.008561230264604092,9.747259140014648,0.0005487451878523839,0.0009232770532428338,0.0007525267504581406,1.9640827178955078,2019-06-24 14:01:22:327,0.0,0.0,0.0
0.02856217883527279,-0.015386266633868217,9.790364265441895,-0.0010495417077201262,-0.0022732966728836053,-0.003109999729622778,1.9699811935424805,2019-06-24 14:01:22:333,0.0,0.0,0.0
-0.016938064247369766,-0.01778101734817028,9.79275894165039,-0.001715494591711769,-0.0012077721625267067,0.004215481539155223,1.9740781784057617,2019-06-24 14:01:22:337,0.0,0.0,0.0
0.02856217883527279,0.003771730698645115,9.864601135253906,0.0008151263154416085,-0.0012077721625267067,0.0019512418246096514,1.9799776077270508,2019-06-24 14:01:22:343,0.0,0.0,0.0
-0.021727563813328743,0.003771730698645115,9.787969589233398,-0.0015823040279171567,-0.0006750098423296765,-0.0028436186020335537,1.9840812683105469,2019-06-24 14:01:22:347,0.0,0.0,0.0
0.011798931285738945,0.003771730698645115,9.852627754211426,-0.0031805909234896667,-9.05695935394897e-06,-0.005773811265589349,1.989945411682129,2019-06-24 14:01:22:353,0.0,0.0,0.0
-0.009753815829753876,-0.012991516850888729,9.785574913024902,-0.0031805909234896667,-0.0012077721625267067,-0.0003129978574266295,1.99407958984375,2019-06-24 14:01:22:357,0.0,0.0,0.0
0.009404182434082031,-0.0034125184174627066,9.857417106628418,-0.00451249656143579,0.0007900864894482214,0.0010189078780473654,1.999985694885254,2019-06-24 14:01:22:363,0.0,0.0,0.0
-0.0073590655811131,-0.012991516850888729,9.787969589233398,-0.001315922900327932,-0.0012077721625267067,0.0003529550265650132,2.004985809326172,2019-06-24 14:01:22:368,0.0,0.0,0.0
0.0213779304176569,-0.0010177686344832182,9.79275894165039,-0.0037133531786681154,0.001056467617037446,-0.001644903527882043,2.009065628051758,2019-06-24 14:01:22:372,0.0,0.0,0.0
0.0046146828681230545,0.01814022846519947,9.775995254516602,-0.00278101923210583,0.001855611064823701,-0.0013785224002928185,2.0149636268615723,2019-06-24 14:01:22:378,0.0,0.0,0.0
0.018983181565999985,0.003771730698645115,9.874180793762207,-0.00011720770426658147,-0.0029392494918566666,0.005547387437175671,2.0190906524658203,2019-06-24 14:01:22:382,0.0,0.0,0.0
0.0022199328523129225,0.01095598004758358,9.869390487670898,0.0021470320184063126,0.0013228488096452518,0.0022176230822360385,2.0249853134155273,2019-06-24 14:01:22:388,0.0,0.0,0.0
-0.0073590655811131,0.022929728031158447,9.761627197265625,0.0005487451878523839,-0.0018737249814997682,-4.661670139177563e-05,2.0290679931640625,2019-06-24 14:01:22:392,0.0,0.0,0.0
-0.012148565612733364,0.008561230264604092,9.823890686035156,0.0028129849674165368,-0.0024064872366782175,0.00128528900563659,2.0349550247192383,2019-06-24 14:01:22:398,0.0,0.0,0.0
-0.016938064247369766,0.003771730698645115,9.754443168640137,0.0016142697632278635,-0.001740534417705156,0.0018180512608150393,2.0390682220458984,2019-06-24 14:01:22:402,0.0,0.0,0.0
-0.004964316263794899,-0.029754765331745148,9.823890686035156,-0.00011720770426658147,0.0013228488096452518,-0.0013785224002928185,2.044971466064453,2019-06-24 14:01:22:408,0.0,0.0,0.0
0.03574642911553383,0.006166480481624603,9.819101333618164,0.0020138414546117004,-0.0029392494918566666,-0.00017980727737737192,2.0490736961364746,2019-06-24 14:01:22:412,0.0,0.0,0.0
-0.009753815829753876,0.01814022846519947,9.783180236816406,-0.0037133531786681154,-0.002672868364267442,8.657387459382065e-05,2.054964542388916,2019-06-24 14:01:22:418,0.0,0.0,0.0
0.0213779304176569,0.006166480481624603,9.78078556060791,0.0036121283501842102,0.005185375419763333,0.0004861455903596255,2.059962272644043,2019-06-24 14:01:22:423,0.0,0.0,0.0
-0.016938064247369766,-0.01059676706790924,9.768811225891113,0.0010815074430308332,-0.003072440055651279,0.006879293075121794,2.064971923828125,2019-06-24 14:01:22:428,0.0,0.0,0.0
0.0022199328523129225,0.027719227597117424,9.838258743286133,-0.001715494591711769,0.002121992192412926,-0.0013785224002928185,2.0691003799438477,2019-06-24 14:01:22:432,0.0,0.0,0.0
-0.0073590655811131,-0.01059676706790924,9.783180236816406,0.0017474603270224759,0.0019888016286183133,0.005813768564764896,2.0749597549438477,2019-06-24 14:01:22:438,0.0,0.0,0.0
-0.0073590655811131,-0.020175766199827194,9.773600578308105,-0.0006499700163362892,0.0026547544475913746,-0.002577237474444329,2.079072952270508,2019-06-24 14:01:22:442,0.0,0.0,0.0
-0.0073590655811131,0.008561230264604092,9.802337646484375,-0.00011720770426658147,0.0001241336135839013,-0.0012453318364982061,2.0849690437316895,2019-06-24 14:01:22:448,0.0,0.0,0.0
0.040535926818847656,0.003771730698645115,9.785574913024902,-0.005844402199381912,-0.0021401061090889927,-0.00017980727737737192,2.089071750640869,2019-06-24 14:01:22:452,0.0,0.0,0.0
-0.028911812230944633,-0.0034125184174627066,9.847838401794434,-0.0010495417077201262,-0.0020069155452943806,-0.0036427622448755525,2.094970703125,2019-06-24 14:01:22:458,0.0,0.0,0.0
-0.004964316263794899,-0.012991516850888729,9.816706657409668,-0.0021150662830956056,-0.0005418192460257735,0.0015516701332258143,2.0990686416625977,2019-06-24 14:01:22:462,0.0,0.0,0.0
-0.014543314464390278,-0.01059676706790924,9.816706657409668,0.0021470320184063126,-0.0012077721625267067,-0.0019112846554712676,2.1049585342407227,2019-06-24 14:01:22:468,0.0,0.0,0.0
-0.043280310928821564,0.013350729830563068,9.847838401794434,1.5982868671268808e-05,-9.05695935394897e-06,-0.003376381117286328,2.1090755462646484,2019-06-24 14:01:22:472,0.0,0.0,0.0
0.047720178961753845,-0.041728515177965164,9.795153617858887,0.0001491734477046111,0.0001241336135839013,0.0026171947736198754,2.1149702072143555,2019-06-24 14:01:22:478,0.0,0.0,0.0
0.03574642911553383,-0.008202017284929752,9.807126998901367,0.00041555459154848093,-0.006002632459132749,-0.00044618842122124184,2.119957447052002,2019-06-24 14:01:22:483,0.0,0.0,0.0
-0.02651706337928772,0.01095598004758358,9.811917304992676,-0.0006499700163362892,-0.004137964566008177,0.0016848606970204267,2.125020980834961,2019-06-24 14:01:22:488,0.0,0.0,0.0
0.007009432185441256,-0.03214951604604721,9.764021873474121,0.0017474603270224759,0.0027879450113859868,0.0022176230822360385,2.1290740966796875,2019-06-24 14:01:22:492,0.0,0.0,0.0
0.007009432185441256,-0.005807267967611551,9.797548294067383,0.0016142697632278635,-0.0016073438539105438,0.0014184795694312021,2.1349992752075195,2019-06-24 14:01:22:498,0.0,0.0,0.0
-0.0001748167269397527,0.022929728031158447,9.852627754211426,-0.0031805909234896667,-9.05695935394897e-06,0.0006193361866635284,2.1390724182128906,2019-06-24 14:01:22:502,0.0,0.0,0.0
-0.0025695664808154106,0.01095598004758358,9.83346939086914,-0.002914209795900442,0.00039051476555509394,0.0003529550265650132,2.144960403442383,2019-06-24 14:01:22:508,0.0,0.0,0.0
-0.016938064247369766,0.0013769810320809484,9.775995254516602,0.002946175531211149,-0.0008082004061242886,0.0028835759012090997,2.149960994720459,2019-06-24 14:01:22:513,0.0,0.0,0.0
-0.021727563813328743,-0.03214951604604721,9.804732322692871,-0.001848685155506381,-0.0025396778004728297,-0.001112141272703594,2.1550025939941406,2019-06-24 14:01:22:518,0.0,0.0,0.0
0.033351678401231766,0.015745479613542557,9.75204849243164,0.0006819357516469962,0.002121992192412926,0.0018180512608150393,2.1599597930908203,2019-06-24 14:01:22:523,0.0,0.0,0.0
-0.016938064247369766,0.020534979179501534,9.828680038452148,0.0009483168792362209,0.0026547544475913746,-0.0003129978574266295,2.1640806198120117,2019-06-24 14:01:22:527,0.0,0.0,0.0
0.018983181565999985,-0.020175766199827194,9.847838401794434,-0.0035801626148735037,-0.003072440055651279,-0.0008457601451143693,2.169961929321289,2019-06-24 14:01:22:533,0.0,0.0,0.0
0.007009432185441256,-0.01059676706790924,9.787969589233398,0.0012146980718440268,-0.0028060589280620545,-0.0008457601451143693,2.1750831604003906,2019-06-24 14:01:22:538,0.0,0.0,0.0
-0.03130656108260155,0.04448247700929642,9.756837844848633,0.0038785094777734346,-0.001340962726321319,0.0007525267504581406,2.179098129272461,2019-06-24 14:01:22:542,0.0,0.0,0.0
-0.009753815829753876,-0.0010177686344832182,9.814311981201172,0.003345747222594986,-0.003205630619445891,0.0018180512608150393,2.1849679946899414,2019-06-24 14:01:22:548,0.0,0.0,0.0
-0.0025695664808154106,0.013350729830563068,9.814311981201172,-0.000383588856237774,-0.0020069155452943806,-0.0024440469106497167,2.1890640258789062,2019-06-24 14:01:22:552,0.0,0.0,0.0
0.007009432185441256,0.008561230264604092,9.855022430419922,0.0008151263154416085,-0.0016073438539105438,0.0024840042098252632,2.1949596405029297,2019-06-24 14:01:22:558,0.0,0.0,0.0
-0.0001748167269397527,0.0325087271630764,9.843049049377441,-0.003979734306257341,-0.0062690135867219735,-0.004441905627643227,2.1990928649902344,2019-06-24 14:01:22:562,0.0,0.0,0.0
-0.004964316263794899,0.01814022846519947,9.783180236816406,0.0016142697632278635,-0.0006750098423296765,-0.0012453318364982061,2.2049736976623535,2019-06-24 14:01:22:568,0.0,0.0,0.0
0.0022199328523129225,-0.008202017284929752,9.787969589233398,-0.00011720770426658147,-0.0008082004061242886,-0.0003129978574266295,2.209064483642578,2019-06-24 14:01:22:572,0.0,0.0,0.0
-0.01933281496167183,0.030113978311419487,9.799942970275879,0.0012146980718440268,-0.0009413909699189009,-0.00017980727737737192,2.214962959289551,2019-06-24 14:01:22:578,0.0,0.0,0.0
-0.024122314527630806,-0.0034125184174627066,9.816706657409668,0.0009483168792362209,0.0009232770532428338,8.657387459382065e-05,2.2190980911254883,2019-06-24 14:01:22:582,0.0,0.0,0.0
-0.009753815829753876,-0.027360014617443085,9.79275894165039,0.002946175531211149,-0.003072440055651279,-0.001644903527882043,2.2249889373779297,2019-06-24 14:01:22:588,0.0,0.0,0.0
0.033351678401231766,-0.005807267967611551,9.831074714660645,0.003345747222594986,-0.0006750098423296765,0.0040822909753606106,2.229951858520508,2019-06-24 14:01:22:593,0.0,0.0,0.0
-0.0001748167269397527,0.008561230264604092,9.831074714660645,0.0005487451878523839,-0.0037383928746243405,-0.0013785224002928185,2.2349600791931152,2019-06-24 14:01:22:598,0.0,0.0,0.0
-0.03130656108260155,0.03969297558069229,9.864601135253906,0.003345747222594986,-0.0038715834384189522,-0.0008457601451143693,2.239063262939453,2019-06-24 14:01:22:602,0.0,0.0,0.0
-0.004964316263794899,-0.008202017284929752,9.828680038452148,0.0008151263154416085,-9.05695935394897e-06,-0.0003129978574266295,2.244967460632324,2019-06-24 14:01:22:608,0.0,0.0,0.0
-0.0001748167269397527,-0.01059676706790924,9.804732322692871,0.0012146980718440268,-0.003472011747035116,0.0030167664650037123,2.2490735054016113,2019-06-24 14:01:22:612,0.0,0.0,0.0
-0.038490813225507736,-0.0010177686344832182,9.787969589233398,-0.001315922900327932,-0.0005418192460257735,0.0003529550265650132,2.2549633979797363,2019-06-24 14:01:22:618,0.0,0.0,0.0
0.009404182434082031,-0.027360014617443085,9.795153617858887,-0.001315922900327932,-0.0016073438539105438,-0.0009789507089089816,2.259068489074707,2019-06-24 14:01:22:622,0.0,0.0,0.0
0.033351678401231766,0.020534979179501534,9.835864067077637,-0.003047400359695054,0.00039051476555509394,0.0003529550265650132,2.2649717330932617,2019-06-24 14:01:22:628,0.0,0.0,0.0
-0.050464559346437454,0.027719227597117424,9.77120590209961,0.00041555459154848093,-0.0018737249814997682,-0.002577237474444329,2.269073486328125,2019-06-24 14:01:22:632,0.0,0.0,0.0
-0.03130656108260155,-0.008202017284929752,9.831074714660645,-0.000383588856237774,0.007582805568066354,-0.0009789507089089816,2.2749671936035156,2019-06-24 14:01:22:638,0.0,0.0,0.0
-0.03130656108260155,0.01814022846519947,9.816706657409668,0.0005487451878523839,-0.001740534417705156,-0.0028436186020335537,2.279961585998535,2019-06-24 14:01:22:643,0.0,0.0,0.0
-0.024122314527630806,0.04687722399830818,9.78078556060791,-0.0033137814872842794,-0.0010745815337135133,-0.0021776657830604924,2.2849678993225098,2019-06-24 14:01:22:648,0.0,0.0,0.0
-0.03370131179690361,0.020534979179501534,9.85023307800293,-0.001315922900327932,0.0030543261389752115,-0.0017780940916766552,2.289130210876465,2019-06-24 14:01:22:652,0.0,0.0,0.0
0.02377268113195896,0.006166480481624603,9.795153617858887,-0.005311639944203463,0.0015892299372344764,-0.0020444752192658802,2.2949752807617188,2019-06-24 14:01:22:658,0.0,0.0,0.0
-0.0025695664808154106,0.003771730698645115,9.787969589233398,0.0021470320184063126,-0.0021401061090889927,-0.002577237474444329,2.2999486923217773,2019-06-24 14:01:22:663,0.0,0.0,0.0
0.0046146828681230545,-0.012991516850888729,9.816706657409668,-0.002514638104516605,-0.0025396778004728297,-0.0020444752192658802,2.3040761947631836,2019-06-24 14:01:22:667,0.0,0.0,0.0
0.0046146828681230545,-0.0010177686344832182,9.764021873474121,-0.001715494591711769,-0.0002754381184365489,0.000885717314252753,2.3099679946899414,2019-06-24 14:01:22:673,0.0,0.0,0.0
-0.014543314464390278,-0.012991516850888729,9.866995811462402,-0.0035801626148735037,0.001056467617037446,0.0014184795694312021,2.314969539642334,2019-06-24 14:01:22:678,0.0,0.0,0.0
0.018983181565999985,-0.01778101734817028,9.747259140014648,-0.0010495417077201262,0.001855611064823701,-0.0005793790175251447,2.319064140319824,2019-06-24 14:01:22:682,0.0,0.0,0.0
0.030956929549574852,0.003771730698645115,9.823890686035156,-0.005311639944203463,0.0015892299372344764,0.0006193361866635284,2.3249568939208984,2019-06-24 14:01:22:688,0.0,0.0,0.0
0.0022199328523129225,0.006166480481624603,9.838258743286133,-0.0005167794200323863,-0.006801776362049074,-0.0032431902934173906,2.329073905944824,2019-06-24 14:01:22:692,0.0,0.0,0.0
-0.004964316263794899,0.03969297558069229,9.797548294067383,0.0009483168792362209,0.0023883733200021503,0.0027503853374144876,2.3350038528442383,2019-06-24 14:01:22:698,0.0,0.0,0.0
-0.016938064247369766,0.03729822486639023,9.787969589233398,-0.004246115433846565,-0.0009413909699189009,-0.0019112846554712676,2.33906888961792,2019-06-24 14:01:22:702,0.0,0.0,0.0
-0.0025695664808154106,-0.020175766199827194,9.802337646484375,0.0009483168792362209,-0.0005418192460257735,0.0016848606970204267,2.3449602127075195,2019-06-24 14:01:22:708,0.0,0.0,0.0
0.014193681068718433,0.02532447874546051,9.795153617858887,0.004544462296746496,0.004519422340715947,-0.0003129978574266295,2.3490753173828125,2019-06-24 14:01:22:712,0.0,0.0,0.0
0.0046146828681230545,-0.005807267967611551,9.83346939086914,0.0032125566588003737,-0.0010745815337135133,0.0004861455903596255,2.3550033569335938,2019-06-24 14:01:22:718,0.0,0.0,0.0
-0.0001748167269397527,0.008561230264604092,9.787969589233398,0.00414489060536266,-0.0021401061090889927,-0.0024440469106497167,2.359072685241699,2019-06-24 14:01:22:722,0.0,0.0,0.0
-0.016938064247369766,-0.0010177686344832182,9.840654373168945,-0.00025039827618851643,0.0006568959256536091,-0.004708286755232451,2.3649587631225586,2019-06-24 14:01:22:728,0.0,0.0,0.0
-0.014543314464390278,-0.005807267967611551,9.831074714660645,-0.0054448307680724,-0.004937107948775851,0.0018180512608150393,2.3690714836120605,2019-06-24 14:01:22:732,0.0,0.0,0.0
0.0022199328523129225,0.008561230264604092,9.831074714660645,0.0006819357516469962,0.0014560393734398642,0.0014184795694312021,2.3740949630737305,2019-06-24 14:01:22:737,0.0,0.0,0.0
-0.0073590655811131,0.013350729830563068,9.797548294067383,-0.0022482569769273807,-9.05695935394897e-06,0.0016848606970204267,2.379983901977539,2019-06-24 14:01:22:743,0.0,0.0,0.0
0.02856217883527279,0.022929728031158447,9.838258743286133,-0.0022482569769273807,0.0009232770532428338,0.0003529550265650132,2.38496732711792,2019-06-24 14:01:22:748,0.0,0.0,0.0
0.0022199328523129225,-0.012991516850888729,9.80952262878418,-0.0011827323365333196,-0.0025396778004728297,-0.002710428038238941,2.3899545669555664,2019-06-24 14:01:22:753,0.0,0.0,0.0
-0.016938064247369766,0.02532447874546051,9.826285362243652,0.0024134132760327,-0.0020069155452943806,-4.661670139177563e-05,2.3949942588806152,2019-06-24 14:01:22:758,0.0,0.0,0.0
-0.012148565612733364,-0.02496526576578617,9.75204849243164,0.0021470320184063126,0.003720278957948273,0.0026171947736198754,2.3990864753723145,2019-06-24 14:01:22:762,0.0,0.0,0.0
-0.014543314464390278,0.003771730698645115,9.744863510131836,-0.003979734306257341,-0.002672868364267442,-0.0017780940916766552,2.404970169067383,2019-06-24 14:01:22:768,0.0,0.0,0.0
-0.01933281496167183,-0.012991516850888729,9.773600578308105,0.00041555459154848093,0.001056467617037446,-0.0028436186020335537,2.409064292907715,2019-06-24 14:01:22:772,0.0,0.0,0.0
-0.021727563813328743,0.015745479613542557,9.756837844848633,0.0017474603270224759,0.0011896582458506397,-0.0009789507089089816,2.4149627685546875,2019-06-24 14:01:22:778,0.0,0.0,0.0
0.014193681068718433,-0.027360014617443085,9.811917304992676,-0.0006499700163362892,0.0017224205010290888,-4.661670139177563e-05,2.4199891090393066,2019-06-24 14:01:22:783,0.0,0.0,0.0
0.011798931285738945,-0.01778101734817028,9.790364265441895,0.0036121283501842102,0.0007900864894482214,-0.002976809165828166,2.4240903854370117,2019-06-24 14:01:22:787,0.0,0.0,0.0
-0.0408855602145195,0.0013769810320809484,9.876575469970703,-0.002914209795900442,0.002255182756207538,0.0007525267504581406,2.429952621459961,2019-06-24 14:01:22:793,0.0,0.0,0.0
0.011798931285738945,-0.029754765331745148,9.831074714660645,1.5982868671268808e-05,0.0007900864894482214,0.003815909847771386,2.434080123901367,2019-06-24 14:01:22:797,0.0,0.0,0.0
-0.02651706337928772,-0.020175766199827194,9.814311981201172,-0.0011827323365333196,0.0013228488096452518,-0.0015117129640874309,2.439979076385498,2019-06-24 14:01:22:803,0.0,0.0,0.0
-0.004964316263794899,0.0325087271630764,9.728100776672363,0.0016142697632278635,0.0007900864894482214,-0.003109999729622778,2.4449849128723145,2019-06-24 14:01:22:808,0.0,0.0,0.0
0.0046146828681230545,0.015745479613542557,9.819101333618164,0.0028129849674165368,0.002255182756207538,-0.001644903527882043,2.4490652084350586,2019-06-24 14:01:22:812,0.0,0.0,0.0
-0.016938064247369766,0.034903477877378464,9.790364265441895,1.5982868671268808e-05,-0.0029392494918566666,0.003682719283976774,2.4549617767333984,2019-06-24 14:01:22:818,0.0,0.0,0.0
-0.0025695664808154106,0.003771730698645115,9.831074714660645,-0.003446972051078891,-0.0005418192460257735,-0.0023108563468551046,2.4590682983398438,2019-06-24 14:01:22:822,0.0,0.0,0.0
-0.016938064247369766,0.01095598004758358,9.799942970275879,-0.0015823040279171567,0.0043862320369956595,-0.0032431902934173906,2.464972496032715,2019-06-24 14:01:22:828,0.0,0.0,0.0
0.009404182434082031,0.04687722399830818,9.85023307800293,-0.0009163511439255139,0.003587088394153661,0.00128528900563659,2.469074249267578,2019-06-24 14:01:22:832,0.0,0.0,0.0
-0.02651706337928772,0.003771730698645115,9.816706657409668,-0.0014491134641225444,0.0001241336135839013,-0.001644903527882043,2.4749631881713867,2019-06-24 14:01:22:838,0.0,0.0,0.0
-0.03130656108260155,0.01095598004758358,9.857417106628418,-0.002647828668311217,-0.001740534417705156,-0.0005793790175251447,2.479072093963623,2019-06-24 14:01:22:842,0.0,0.0,0.0
-0.01933281496167183,0.006166480481624603,9.823890686035156,0.0002823640277538687,-0.003205630619445891,0.003416338156387549,2.4840898513793945,2019-06-24 14:01:22:847,0.0,0.0,0.0
0.030956929549574852,0.05406147614121437,9.840654373168945,-0.0021150662830956056,0.0005237053293497061,0.0015516701332258143,2.4899535179138184,2019-06-24 14:01:22:853,0.0,0.0,0.0
-0.03130656108260155,0.006166480481624603,9.859811782836914,0.002946175531211149,-0.0004086286822311611,0.0024840042098252632,2.4940786361694336,2019-06-24 14:01:22:857,0.0,0.0,0.0
-0.02651706337928772,0.0013769810320809484,9.85023307800293,-0.0007831605801309015,-9.05695935394897e-06,-0.0028436186020335537,2.4999618530273438,2019-06-24 14:01:22:863,0.0,0.0,0.0
0.007009432185441256,0.013350729830563068,9.811917304992676,0.00041555459154848093,-9.05695935394897e-06,0.0019512418246096514,2.504969596862793,2019-06-24 14:01:22:868,0.0,0.0,0.0
-0.014543314464390278,0.008561230264604092,9.819101333618164,0.0028129849674165368,-0.001340962726321319,-0.00017980727737737192,2.509124755859375,2019-06-24 14:01:22:872,0.0,0.0,0.0
-0.02651706337928772,-0.01778101734817028,9.82149600982666,-0.003846543742462728,-0.0025396778004728297,0.0006193361866635284,2.514969825744629,2019-06-24 14:01:22:878,0.0,0.0,0.0
0.016588430851697922,0.0013769810320809484,9.799942970275879,-0.004246115433846565,0.0005237053293497061,0.0004861455903596255,2.51906681060791,2019-06-24 14:01:22:882,0.0,0.0,0.0
-0.016938064247369766,-0.008202017284929752,9.852627754211426,0.00041555459154848093,0.0009232770532428338,0.0016848606970204267,2.5249595642089844,2019-06-24 14:01:22:888,0.0,0.0,0.0
0.007009432185441256,-0.005807267967611551,9.74246883392334,0.0002823640277538687,-9.05695935394897e-06,0.000885717314252753,2.529078483581543,2019-06-24 14:01:22:892,0.0,0.0,0.0
0.026167429983615875,0.05166672542691231,9.764021873474121,0.00041555459154848093,-0.0014741532901159315,0.0035495287201821614,2.5349740982055664,2019-06-24 14:01:22:898,0.0,0.0,0.0
0.009404182434082031,0.003771730698645115,9.85023307800293,0.004011700041568048,-0.0028060589280620545,-0.0015117129640874309,2.539947509765625,2019-06-24 14:01:22:903,0.0,0.0,0.0
-0.01933281496167183,0.015745479613542557,9.831074714660645,0.0008151263154416085,-0.0002754381184365489,0.0003529550265650132,2.5440797805786133,2019-06-24 14:01:22:907,0.0,0.0,0.0
0.014193681068718433,0.008561230264604092,9.835864067077637,-0.002914209795900442,0.00025732418550583624,-0.0003129978574266295,2.550025463104248,2019-06-24 14:01:22:913,0.0,0.0,0.0
-0.014543314464390278,-0.005807267967611551,9.811917304992676,0.001347888635638639,0.0011896582458506397,0.002084432388404264,2.554997444152832,2019-06-24 14:01:22:918,0.0,0.0,0.0
-0.0025695664808154106,-0.005807267967611551,9.80952262878418,0.0009483168792362209,-0.001740534417705156,-0.0020444752192658802,2.5599536895751953,2019-06-24 14:01:22:923,0.0,0.0,0.0
-0.012148565612733364,-0.008202017284929752,9.871786117553711,0.0021470320184063126,0.0033207072665644363,0.0027503853374144876,2.5640811920166016,2019-06-24 14:01:22:927,0.0,0.0,0.0
0.016588430851697922,-0.0034125184174627066,9.785574913024902,-0.002381447540721993,0.001056467617037446,0.0019512418246096514,2.5700674057006836,2019-06-24 14:01:22:933,0.0,0.0,0.0
0.016588430851697922,-0.015386266633868217,9.859811782836914,0.004544462296746496,-0.0012077721625267067,0.0026171947736198754,2.5741100311279297,2019-06-24 14:01:22:937,0.0,0.0,0.0
-0.012148565612733364,-0.0010177686344832182,9.828680038452148,-0.00278101923210583,-0.001340962726321319,-0.005107858186541962,2.5799551010131836,2019-06-24 14:01:22:943,0.0,0.0,0.0
-0.03370131179690361,-0.041728515177965164,9.804732322692871,-0.0009163511439255139,-0.0016073438539105438,0.0022176230822360385,2.584078788757324,2019-06-24 14:01:22:947,0.0,0.0,0.0
0.009404182434082031,-0.027360014617443085,9.785574913024902,0.005876367934692619,-0.0018737249814997682,-0.0007125695813197571,2.589956283569336,2019-06-24 14:01:22:953,0.0,0.0,0.0
-0.02651706337928772,-0.01778101734817028,9.816706657409668,0.0008151263154416085,0.0009232770532428338,0.0014184795694312021,2.5940752029418945,2019-06-24 14:01:22:957,0.0,0.0,0.0
-0.03370131179690361,0.02532447874546051,9.778390884399414,0.0017474603270224759,-0.00427115512980279,-0.0009789507089089816,2.599978446960449,2019-06-24 14:01:22:963,0.0,0.0,0.0
-0.009753815829753876,0.01814022846519947,9.785574913024902,-0.0005167794200323863,0.005052184595894396,-0.0012453318364982061,2.604081153869629,2019-06-24 14:01:22:967,0.0,0.0,0.0
-0.016938064247369766,-0.0034125184174627066,9.826285362243652,-0.0014491134641225444,0.0027879450113859868,-0.0028436186020335537,2.609951972961426,2019-06-24 14:01:22:973,0.0,0.0,0.0
0.04293067753314972,0.020534979179501534,9.883759498596191,0.0008151263154416085,-0.0008082004061242886,-0.002976809165828166,2.6141185760498047,2019-06-24 14:01:22:977,0.0,0.0,0.0
-0.0001748167269397527,-0.01778101734817028,9.852627754211426,0.001880650890817088,-0.003205630619445891,0.002350813646030651,2.619980812072754,2019-06-24 14:01:22:983,0.0,0.0,0.0
-0.03370131179690361,0.03729822486639023,9.831074714660645,-0.003446972051078891,0.00025732418550583624,0.0007525267504581406,2.6249704360961914,2019-06-24 14:01:22:988,0.0,0.0,0.0
0.02856217883527279,0.01095598004758358,9.82149600982666,-0.0014491134641225444,0.0017224205010290888,-0.001644903527882043,2.6290645599365234,2019-06-24 14:01:22:992,0.0,0.0,0.0
0.009404182434082031,0.003771730698645115,9.797548294067383,-0.004912068512893952,-9.05695935394897e-06,-0.0024440469106497167,2.634967803955078,2019-06-24 14:01:22:998,0.0,0.0,0.0
-0.021727563813328743,0.013350729830563068,9.775995254516602,0.0009483168792362209,-0.0033388211832405036,0.0010189078780473654,2.6390724182128906,2019-06-24 14:01:23:002,0.0,0.0,0.0
0.016588430851697922,-0.008202017284929752,9.787969589233398,0.0010815074430308332,0.001855611064823701,0.0010189078780473654,2.6449742317199707,2019-06-24 14:01:23:008,0.0,0.0,0.0
-0.03370131179690361,0.013350729830563068,9.778390884399414,-0.0009163511439255139,0.0009232770532428338,-0.004841477058952738,2.6490707397460938,2019-06-24 14:01:23:012,0.0,0.0,0.0
-0.01933281496167183,-0.01059676706790924,9.799942970275879,0.00041555459154848093,0.004519422340715947,-0.004175524500054002,2.6549644470214844,2019-06-24 14:01:23:018,0.0,0.0,0.0
0.030956929549574852,0.003771730698645115,9.768811225891113,0.0017474603270224759,0.0005237053293497061,0.002350813646030651,2.6590709686279297,2019-06-24 14:01:23:022,0.0,0.0,0.0
-0.02651706337928772,0.01095598004758358,9.783180236816406,-0.0011827323365333196,-0.003605202310829728,-0.0008457601451143693,2.664984703063965,2019-06-24 14:01:23:028,0.0,0.0,0.0
0.009404182434082031,-0.02496526576578617,9.823890686035156,-0.00011720770426658147,-0.0018737249814997682,-0.003109999729622778,2.669064521789551,2019-06-24 14:01:23:032,0.0,0.0,0.0
0.016588430851697922,-0.012991516850888729,9.802337646484375,0.001347888635638639,-0.0008082004061242886,-4.661670139177563e-05,2.674985885620117,2019-06-24 14:01:23:038,0.0,0.0,0.0
-0.014543314464390278,-0.0010177686344832182,9.8789701461792,-0.0014491134641225444,0.004253041213126723,-0.0008457601451143693,2.679074287414551,2019-06-24 14:01:23:042,0.0,0.0,0.0
0.0022199328523129225,-0.01059676706790924,9.814311981201172,-0.0037133531786681154,-0.0029392494918566666,-0.0020444752192658802,2.6849632263183594,2019-06-24 14:01:23:048,0.0,0.0,0.0
0.0046146828681230545,-0.03214951604604721,9.816706657409668,0.00041555459154848093,-0.0005418192460257735,0.0010189078780473654,2.69008731842041,2019-06-24 14:01:23:053,0.0,0.0,0.0
-0.0001748167269397527,0.008561230264604092,9.787969589233398,-0.0035801626148735037,-0.003205630619445891,0.0011520984418419776,2.694094657897949,2019-06-24 14:01:23:057,0.0,0.0,0.0
-0.021727563813328743,0.013350729830563068,9.778390884399414,-0.003979734306257341,0.0005237053293497061,0.0026171947736198754,2.699960231781006,2019-06-24 14:01:23:063,0.0,0.0,0.0
0.009404182434082031,-0.005807267967611551,9.759232521057129,0.0001491734477046111,-0.00014224753838729123,0.0014184795694312021,2.7040786743164062,2019-06-24 14:01:23:067,0.0,0.0,0.0
-0.0073590655811131,-0.022570515051484108,9.79275894165039,0.002679794403621924,-0.0016073438539105438,0.0035495287201821614,2.7099485397338867,2019-06-24 14:01:23:073,0.0,0.0,0.0
-0.009753815829753876,-0.02496526576578617,9.775995254516602,-0.001848685155506381,-0.0038715834384189522,0.0031499570287983245,2.7140769958496094,2019-06-24 14:01:23:077,0.0,0.0,0.0
0.018983181565999985,0.013350729830563068,9.802337646484375,-0.0014491134641225444,-0.001740534417705156,0.0035495287201821614,2.7199621200561523,2019-06-24 14:01:23:083,0.0,0.0,0.0
-0.016938064247369766,0.03729822486639023,9.80952262878418,-0.0011827323365333196,-0.001740534417705156,0.003815909847771386,2.724954128265381,2019-06-24 14:01:23:088,0.0,0.0,0.0
-0.021727563813328743,0.027719227597117424,9.857417106628418,-0.0014491134641225444,0.0029211355751805994,0.002084432388404264,2.729060173034668,2019-06-24 14:01:23:092,0.0,0.0,0.0
-0.0073590655811131,0.01095598004758358,9.83346939086914,0.0038785094777734346,0.00678366218529868,0.0030167664650037123,2.7349777221679688,2019-06-24 14:01:23:098,0.0,0.0,0.0
0.011798931285738945,-0.012991516850888729,9.79275894165039,0.002946175531211149,-0.0021401061090889927,-0.0013785224002928185,2.739950180053711,2019-06-24 14:01:23:103,0.0,0.0,0.0
-0.01933281496167183,-0.022570515051484108,9.790364265441895,0.0014810791994332513,0.0034538978303590485,-0.00017980727737737192,2.744070053100586,2019-06-24 14:01:23:107,0.0,0.0,0.0
-0.0073590655811131,0.03969297558069229,9.78078556060791,0.002546603839827312,0.0013228488096452518,0.0004861455903596255,2.7491092681884766,2019-06-24 14:01:23:112,0.0,0.0,0.0
0.0022199328523129225,0.015745479613542557,9.855022430419922,-0.00025039827618851643,0.0006568959256536091,-0.00044618842122124184,2.754985809326172,2019-06-24 14:01:23:118,0.0,0.0,0.0
-0.03130656108260155,-0.008202017284929752,9.783180236816406,-0.001848685155506381,-0.003072440055651279,-0.0020444752192658802,2.759960174560547,2019-06-24 14:01:23:123,0.0,0.0,0.0
-0.0025695664808154106,-0.029754765331745148,9.80952262878418,-0.00278101923210583,0.0001241336135839013,0.000885717314252753,2.764960765838623,2019-06-24 14:01:23:128,0.0,0.0,0.0
0.014193681068718433,-0.048912763595581055,9.838258743286133,0.001880650890817088,0.0013228488096452518,-0.0049746678828216755,2.769073963165283,2019-06-24 14:01:23:132,0.0,0.0,0.0
0.007009432185441256,0.01814022846519947,9.864601135253906,-0.0010495417077201262,0.0027879450113859868,0.00128528900563659,2.7750134468078613,2019-06-24 14:01:23:138,0.0,0.0,0.0
-0.0001748167269397527,0.027719227597117424,9.783180236816406,0.004677653120615434,-0.0006750098423296765,-0.003775952808670165,2.7790870666503906,2019-06-24 14:01:23:142,0.0,0.0,0.0
-0.0025695664808154106,0.02532447874546051,9.823890686035156,-0.0005167794200323863,-0.001740534417705156,-0.00350957168108094,2.784975051879883,2019-06-24 14:01:23:148,0.0,0.0,0.0
-0.0001748167269397527,-0.01778101734817028,9.799942970275879,-0.002381447540721993,-0.0021401061090889927,0.0010189078780473654,2.789064407348633,2019-06-24 14:01:23:152,0.0,0.0,0.0
-0.0001748167269397527,-0.005807267967611551,9.823890686035156,0.0016142697632278635,0.0001241336135839013,0.0018180512608150393,2.7949705123901367,2019-06-24 14:01:23:158,0.0,0.0,0.0
0.0046146828681230545,0.03729822486639023,9.790364265441895,-0.0006499700163362892,0.00025732418550583624,-0.0009789507089089816,2.7990684509277344,2019-06-24 14:01:23:162,0.0,0.0,0.0
-0.024122314527630806,-0.0010177686344832182,9.795153617858887,0.0010815074430308332,-0.0010745815337135133,-0.00017980727737737192,2.8049683570861816,2019-06-24 14:01:23:168,0.0,0.0,0.0
-0.024122314527630806,-0.01778101734817028,9.82149600982666,0.0028129849674165368,0.0013228488096452518,0.0011520984418419776,2.8090734481811523,2019-06-24 14:01:23:172,0.0,0.0,0.0
0.007009432185441256,-0.01778101734817028,9.797548294067383,-0.0021150662830956056,-0.0014741532901159315,-0.0013785224002928185,2.8149681091308594,2019-06-24 14:01:23:178,0.0,0.0,0.0
-0.012148565612733364,0.003771730698645115,9.756837844848633,-0.0014491134641225444,-0.0018737249814997682,0.000885717314252753,2.819962501525879,2019-06-24 14:01:23:183,0.0,0.0,0.0
0.0022199328523129225,-0.01059676706790924,9.814311981201172,-0.001848685155506381,-0.0028060589280620545,8.657387459382065e-05,2.8240861892700195,2019-06-24 14:01:23:187,0.0,0.0,0.0
0.016588430851697922,0.027719227597117424,9.874180793762207,0.0005487451878523839,-0.0009413909699189009,-0.0024440469106497167,2.829954147338867,2019-06-24 14:01:23:193,0.0,0.0,0.0
-0.0073590655811131,0.015745479613542557,9.797548294067383,0.002546603839827312,-0.0025396778004728297,0.0015516701332258143,2.834959030151367,2019-06-24 14:01:23:198,0.0,0.0,0.0
0.030956929549574852,-0.03214951604604721,9.799942970275879,0.003345747222594986,-0.0004086286822311611,0.002350813646030651,2.8390884399414062,2019-06-24 14:01:23:202,0.0,0.0,0.0
0.007009432185441256,0.022929728031158447,9.823890686035156,-0.00025039827618851643,-0.0010745815337135133,-0.0019112846554712676,2.8449840545654297,2019-06-24 14:01:23:208,0.0,0.0,0.0
-0.01933281496167183,-0.0010177686344832182,9.847838401794434,0.0038785094777734346,0.0031875167027698237,-0.0017780940916766552,2.8490657806396484,2019-06-24 14:01:23:212,0.0,0.0,0.0
-0.05285931006073952,0.03969297558069229,9.840654373168945,-0.003846543742462728,0.004652613164584885,0.0024840042098252632,2.8549652099609375,2019-06-24 14:01:23:218,0.0,0.0,0.0
0.011798931285738945,0.01095598004758358,9.835864067077637,0.0012146980718440268,-0.00014224753838729123,0.0027503853374144876,2.859074115753174,2019-06-24 14:01:23:222,0.0,0.0,0.0
0.026167429983615875,-0.04412326216697693,9.799942970275879,0.0022802227122380877,0.00025732418550583624,-0.0024440469106497167,2.864966869354248,2019-06-24 14:01:23:228,0.0,0.0,0.0
0.0046146828681230545,0.0325087271630764,9.802337646484375,0.0024134132760327,-0.0012077721625267067,0.0016848606970204267,2.8690719604492188,2019-06-24 14:01:23:232,0.0,0.0,0.0
0.016588430851697922,-0.03214951604604721,9.831074714660645,0.0002823640277538687,0.0030543261389752115,0.0035495287201821614,2.8749842643737793,2019-06-24 14:01:23:238,0.0,0.0,0.0
-0.009753815829753876,-0.012991516850888729,9.773600578308105,-0.0005167794200323863,-0.0029392494918566666,-4.661670139177563e-05,2.8799610137939453,2019-06-24 14:01:23:243,0.0,0.0,0.0
0.03814117982983589,-0.008202017284929752,9.83346939086914,0.0005487451878523839,-0.0006750098423296765,0.0011520984418419776,2.8840789794921875,2019-06-24 14:01:23:247,0.0,0.0,0.0
0.0046146828681230545,-0.015386266633868217,9.847838401794434,0.0006819357516469962,-0.003605202310829728,0.0004861455903596255,2.889963150024414,2019-06-24 14:01:23:253,0.0,0.0,0.0
-0.021727563813328743,-0.0010177686344832182,9.735284805297852,0.006009558758561557,-0.0029392494918566666,-0.001644903527882043,2.8940792083740234,2019-06-24 14:01:23:257,0.0,0.0,0.0
-0.03370131179690361,0.0013769810320809484,9.732890129089355,0.004278081169157272,-0.005203489076365075,-0.0013785224002928185,2.899961471557617,2019-06-24 14:01:23:263,0.0,0.0,0.0
0.009404182434082031,0.0325087271630764,9.838258743286133,0.0014810791994332513,0.0001241336135839013,0.0002197644465157556,2.9049692153930664,2019-06-24 14:01:23:268,0.0,0.0,0.0
-0.038490813225507736,0.015745479613542557,9.843049049377441,0.001880650890817088,-0.0006750098423296765,-0.00044618842122124184,2.909998893737793,2019-06-24 14:01:23:273,0.0,0.0,0.0
-0.0025695664808154106,-0.012991516850888729,9.804732322692871,-0.0015823040279171567,-0.0016073438539105438,-0.001644903527882043,2.91408109664917,2019-06-24 14:01:23:277,0.0,0.0,0.0
-0.03130656108260155,0.006166480481624603,9.78078556060791,-0.002381447540721993,0.00039051476555509394,0.002350813646030651,2.919951915740967,2019-06-24 14:01:23:283,0.0,0.0,0.0
-0.012148565612733364,0.013350729830563068,9.79275894165039,1.5982868671268808e-05,-0.0016073438539105438,-0.004175524500054002,2.9249625205993652,2019-06-24 14:01:23:288,0.0,0.0,0.0
0.0046146828681230545,0.006166480481624603,9.795153617858887,0.0008151263154416085,-0.00014224753838729123,0.0048814343581282844,2.929074287414551,2019-06-24 14:01:23:292,0.0,0.0,0.0
-0.0073590655811131,0.01095598004758358,9.75204849243164,-0.001315922900327932,-0.0005418192460257735,0.0011520984418419776,2.934969902038574,2019-06-24 14:01:23:298,0.0,0.0,0.0
-0.012148565612733364,0.03729822486639023,9.790364265441895,-0.00025039827618851643,-0.0009413909699189009,0.0007525267504581406,2.9390649795532227,2019-06-24 14:01:23:302,0.0,0.0,0.0
0.0046146828681230545,0.0013769810320809484,9.895732879638672,0.0016142697632278635,0.003720278957948273,0.0019512418246096514,2.9449634552001953,2019-06-24 14:01:23:308,0.0,0.0,0.0
-0.0001748167269397527,0.008561230264604092,9.83346939086914,0.0005487451878523839,0.004253041213126723,0.003815909847771386,2.9499921798706055,2019-06-24 14:01:23:313,0.0,0.0,0.0
0.0213779304176569,-0.005807267967611551,9.843049049377441,-0.0015823040279171567,0.0001241336135839013,-0.0015117129640874309,2.954099655151367,2019-06-24 14:01:23:317,0.0,0.0,0.0
-0.03370131179690361,0.0013769810320809484,9.871786117553711,-0.004112924870051953,0.001855611064823701,-0.002577237474444329,2.9599528312683105,2019-06-24 14:01:23:323,0.0,0.0,0.0
-0.038490813225507736,-0.022570515051484108,9.744863510131836,-0.002514638104516605,0.0015892299372344764,0.0030167664650037123,2.964082717895508,2019-06-24 14:01:23:327,0.0,0.0,0.0
0.009404182434082031,-0.015386266633868217,9.85023307800293,0.003345747222594986,0.0014560393734398642,0.0006193361866635284,2.9700136184692383,2019-06-24 14:01:23:333,0.0,0.0,0.0
-0.004964316263794899,0.01095598004758358,9.819101333618164,-0.0037133531786681154,0.00039051476555509394,0.0007525267504581406,2.9741015434265137,2019-06-24 14:01:23:337,0.0,0.0,0.0
-0.01933281496167183,-0.022570515051484108,9.807126998901367,-0.00278101923210583,-0.0054698702039543,-0.005640620961869062,2.979952335357666,2019-06-24 14:01:23:343,0.0,0.0,0.0
-0.012148565612733364,0.01814022846519947,9.86220645904541,0.0016142697632278635,-0.0012077721625267067,0.003949100411565999,2.9849586486816406,2019-06-24 14:01:23:348,0.0,0.0,0.0
-0.0001748167269397527,0.006166480481624603,9.785574913024902,-0.002514638104516605,-0.0009413909699189009,0.0026171947736198754,2.989065170288086,2019-06-24 14:01:23:352,0.0,0.0,0.0
-0.012148565612733364,-0.022570515051484108,9.814311981201172,0.0016142697632278635,0.0011896582458506397,-0.002577237474444329,2.9949851036071777,2019-06-24 14:01:23:358,0.0,0.0,0.0
0.0046146828681230545,-0.01778101734817028,9.759232521057129,-0.0005167794200323863,0.00039051476555509394,-0.002976809165828166,2.999976634979248,2019-06-24 14:01:23:363,0.0,0.0,0.0
0.011798931285738945,0.030113978311419487,9.883759498596191,-0.002914209795900442,-0.00693496666576936,0.0006193361866635284,3.004077911376953,2019-06-24 14:01:23:367,0.0,0.0,0.0
0.009404182434082031,0.04687722399830818,9.835864067077637,-0.0037133531786681154,0.0026547544475913746,0.0007525267504581406,3.0099525451660156,2019-06-24 14:01:23:373,0.0,0.0,0.0
0.007009432185441256,0.0013769810320809484,9.718522071838379,-0.001715494591711769,-0.0025396778004728297,0.0003529550265650132,3.0140762329101562,2019-06-24 14:01:23:377,0.0,0.0,0.0
0.0213779304176569,0.027719227597117424,9.768811225891113,-0.002514638104516605,0.0007900864894482214,-0.003376381117286328,3.0199780464172363,2019-06-24 14:01:23:383,0.0,0.0,0.0
-0.0073590655811131,0.008561230264604092,9.78078556060791,0.0017474603270224759,-0.0022732966728836053,0.0019512418246096514,3.0240797996520996,2019-06-24 14:01:23:387,0.0,0.0,0.0
-0.0025695664808154106,0.022929728031158447,9.802337646484375,0.00041555459154848093,-0.0004086286822311611,-0.004441905627643227,3.0299530029296875,2019-06-24 14:01:23:393,0.0,0.0,0.0
0.03814117982983589,0.04687722399830818,9.826285362243652,-0.003047400359695054,-0.001340962726321319,-0.0005793790175251447,3.0349621772766113,2019-06-24 14:01:23:398,0.0,0.0,0.0
-0.012148565612733364,-0.05130751058459282,9.78078556060791,-0.0005167794200323863,-0.005336679900234013,-0.001644903527882043,3.039083480834961,2019-06-24 14:01:23:402,0.0,0.0,0.0
-0.0073590655811131,-0.01059676706790924,9.831074714660645,1.5982868671268808e-05,0.004253041213126723,-0.0023108563468551046,3.0449705123901367,2019-06-24 14:01:23:408,0.0,0.0,0.0
-0.016938064247369766,0.030113978311419487,9.797548294067383,0.0028129849674165368,-9.05695935394897e-06,-0.001644903527882043,3.0490665435791016,2019-06-24 14:01:23:412,0.0,0.0,0.0
-0.03609606251120567,-0.01778101734817028,9.790364265441895,-0.0011827323365333196,0.00025732418550583624,-0.002976809165828166,3.054962158203125,2019-06-24 14:01:23:418,0.0,0.0,0.0
0.016588430851697922,-0.0034125184174627066,9.778390884399414,0.0012146980718440268,0.0014560393734398642,0.0015516701332258143,3.0590858459472656,2019-06-24 14:01:23:422,0.0,0.0,0.0
0.018983181565999985,0.006166480481624603,9.804732322692871,0.0005487451878523839,0.0013228488096452518,-0.0007125695813197571,3.0649709701538086,2019-06-24 14:01:23:428,0.0,0.0,0.0
-0.01933281496167183,0.0325087271630764,9.761627197265625,-0.001848685155506381,-0.0012077721625267067,-0.004841477058952738,3.069070816040039,2019-06-24 14:01:23:432,0.0,0.0,0.0
0.0046146828681230545,0.034903477877378464,9.864601135253906,0.004677653120615434,0.0029211355751805994,0.003416338156387549,3.074970245361328,2019-06-24 14:01:23:438,0.0,0.0,0.0
-0.03130656108260155,0.013350729830563068,9.783180236816406,1.5982868671268808e-05,-0.0010745815337135133,0.0014184795694312021,3.079071521759033,2019-06-24 14:01:23:442,0.0,0.0,0.0
0.0022199328523129225,-0.0034125184174627066,9.78078556060791,0.0010815074430308332,0.0029211355751805994,0.003815909847771386,3.084962844848633,2019-06-24 14:01:23:448,0.0,0.0,0.0
-0.021727563813328743,-0.05130751058459282,9.804732322692871,0.0005487451878523839,-0.003472011747035116,-0.005107858186541962,3.0899553298950195,2019-06-24 14:01:23:453,0.0,0.0,0.0
-0.016938064247369766,0.006166480481624603,9.86220645904541,-0.000383588856237774,0.0014560393734398642,-4.661670139177563e-05,3.094101905822754,2019-06-24 14:01:23:457,0.0,0.0,0.0
0.030956929549574852,-0.027360014617443085,9.804732322692871,-0.001715494591711769,0.001056467617037446,-0.0032431902934173906,3.099977493286133,2019-06-24 14:01:23:463,0.0,0.0,0.0
-0.03370131179690361,0.013350729830563068,9.838258743286133,0.0022802227122380877,-0.00427115512980279,0.00461505323053906,3.104970932006836,2019-06-24 14:01:23:468,0.0,0.0,0.0
-0.0025695664808154106,0.022929728031158447,9.840654373168945,-0.0033137814872842794,-9.05695935394897e-06,0.0016848606970204267,3.109072208404541,2019-06-24 14:01:23:472,0.0,0.0,0.0
0.0046146828681230545,0.006166480481624603,9.814311981201172,0.0001491734477046111,0.0009232770532428338,-0.0023108563468551046,3.114962577819824,2019-06-24 14:01:23:478,0.0,0.0,0.0
-0.0025695664808154106,0.022929728031158447,9.797548294067383,-0.002514638104516605,-0.0018737249814997682,-0.0017780940916766552,3.1190690994262695,2019-06-24 14:01:23:482,0.0,0.0,0.0
-0.0025695664808154106,0.022929728031158447,9.82149600982666,-0.002647828668311217,-0.0006750098423296765,0.0006193361866635284,3.1249685287475586,2019-06-24 14:01:23:488,0.0,0.0,0.0
-0.01933281496167183,-0.0034125184174627066,9.783180236816406,0.0022802227122380877,0.0005237053293497061,0.0015516701332258143,3.1290693283081055,2019-06-24 14:01:23:492,0.0,0.0,0.0
-0.024122314527630806,-0.0010177686344832182,9.840654373168945,-0.00278101923210583,-0.002672868364267442,-0.0028436186020335537,3.1349620819091797,2019-06-24 14:01:23:498,0.0,0.0,0.0
-0.0001748167269397527,-0.022570515051484108,9.790364265441895,-0.001848685155506381,-0.001340962726321319,0.0014184795694312021,3.1390886306762695,2019-06-24 14:01:23:502,0.0,0.0,0.0
-0.0025695664808154106,-0.0010177686344832182,9.78078556060791,0.005609986807103395,-0.0012077721625267067,-0.0023108563468551046,3.144974708557129,2019-06-24 14:01:23:508,0.0,0.0,0.0
0.03814117982983589,-0.0034125184174627066,9.807126998901367,0.0032125566588003737,0.0001241336135839013,0.0016848606970204267,3.149991989135742,2019-06-24 14:01:23:513,0.0,0.0,0.0
-0.016938064247369766,0.003771730698645115,9.831074714660645,-0.004912068512893952,-0.0014741532901159315,0.000885717314252753,3.154083251953125,2019-06-24 14:01:23:517,0.0,0.0,0.0
-0.016938064247369766,-0.0034125184174627066,9.775995254516602,-0.0033137814872842794,0.0007900864894482214,0.002084432388404264,3.1599526405334473,2019-06-24 14:01:23:523,0.0,0.0,0.0
-0.03130656108260155,-0.008202017284929752,9.871786117553711,-0.0014491134641225444,0.0013228488096452518,0.006479721123663631,3.164325714111328,2019-06-24 14:01:23:527,0.0,0.0,0.0
-0.009753815829753876,0.006166480481624603,9.799942970275879,0.003745318913978823,0.0013228488096452518,0.0004861455903596255,3.1700005531311035,2019-06-24 14:01:23:533,0.0,0.0,0.0
0.011798931285738945,0.020534979179501534,9.816706657409668,-0.001315922900327932,0.0034538978303590485,0.00461505323053906,3.174093246459961,2019-06-24 14:01:23:537,0.0,0.0,0.0
-0.012148565612733364,-0.008202017284929752,9.807126998901367,0.0012146980718440268,0.0005237053293497061,0.0010189078780473654,3.1799468994140625,2019-06-24 14:01:23:543,0.0,0.0,0.0
0.0022199328523129225,0.020534979179501534,9.819101333618164,0.004278081169157272,0.0033207072665644363,-0.0021776657830604924,3.1849889755249023,2019-06-24 14:01:23:548,0.0,0.0,0.0
-0.0025695664808154106,0.0013769810320809484,9.831074714660645,0.0012146980718440268,-0.0006750098423296765,0.0015516701332258143,3.1890621185302734,2019-06-24 14:01:23:552,0.0,0.0,0.0
0.016588430851697922,-0.03214951604604721,9.80952262878418,0.0010815074430308332,0.002255182756207538,0.0004861455903596255,3.1949710845947266,2019-06-24 14:01:23:558,0.0,0.0,0.0
-0.0025695664808154106,-0.01059676706790924,9.790364265441895,0.0022802227122380877,-0.0024064872366782175,-0.005640620961869062,3.19905948638916,2019-06-24 14:01:23:562,0.0,0.0,0.0
-0.012148565612733364,0.020534979179501534,9.811917304992676,-0.0011827323365333196,0.0009232770532428338,-0.004708286755232451,3.204956531524658,2019-06-24 14:01:23:568,0.0,0.0,0.0
0.030956929549574852,-0.012991516850888729,9.797548294067383,-0.0015823040279171567,-0.0005418192460257735,-0.0012453318364982061,3.2090654373168945,2019-06-24 14:01:23:572,0.0,0.0,0.0
-0.0025695664808154106,0.02532447874546051,9.77120590209961,-0.0005167794200323863,-9.05695935394897e-06,-0.0024440469106497167,3.2149581909179688,2019-06-24 14:01:23:578,0.0,0.0,0.0
-0.012148565612733364,0.006166480481624603,9.807126998901367,0.0005487451878523839,-0.0028060589280620545,0.0003529550265650132,3.2190585136413574,2019-06-24 14:01:23:582,0.0,0.0,0.0
-0.03609606251120567,0.008561230264604092,9.855022430419922,0.0020138414546117004,0.001056467617037446,-0.0013785224002928185,3.2249698638916016,2019-06-24 14:01:23:588,0.0,0.0,0.0
-0.009753815829753876,0.008561230264604092,9.828680038452148,0.0010815074430308332,0.00025732418550583624,-0.0019112846554712676,3.2290878295898438,2019-06-24 14:01:23:592,0.0,0.0,0.0
0.014193681068718433,-0.0010177686344832182,9.831074714660645,0.0001491734477046111,0.0013228488096452518,0.0007525267504581406,3.2349929809570312,2019-06-24 14:01:23:598,0.0,0.0,0.0
-0.0025695664808154106,0.0325087271630764,9.811917304992676,0.00041555459154848093,-0.0006750098423296765,-0.004441905627643227,3.2390832901000977,2019-06-24 14:01:23:602,0.0,0.0,0.0
-0.0025695664808154106,-0.03693901374936104,9.807126998901367,0.0010815074430308332,-0.0008082004061242886,0.005014625181997222,3.244967460632324,2019-06-24 14:01:23:608,0.0,0.0,0.0
0.011798931285738945,0.008561230264604092,9.843049049377441,-0.006110783326971137,0.002255182756207538,-0.0007125695813197571,3.2490639686584473,2019-06-24 14:01:23:612,0.0,0.0,0.0
0.030956929549574852,0.0013769810320809484,9.773600578308105,-0.000383588856237774,-0.0020069155452943806,0.0048814343581282844,3.254087448120117,2019-06-24 14:01:23:617,0.0,0.0,0.0
0.009404182434082031,-0.01778101734817028,9.831074714660645,0.0036121283501842102,-0.0006750098423296765,-0.001112141272703594,3.2599611282348633,2019-06-24 14:01:23:623,0.0,0.0,0.0
-0.004964316263794899,0.008561230264604092,9.785574913024902,0.001880650890817088,-0.0018737249814997682,0.0014184795694312021,3.264963150024414,2019-06-24 14:01:23:628,0.0,0.0,0.0
