ACCELEROMETER X (m/s²),ACCELEROMETER Y (m/s²),ACCELEROMETER Z (m/s²),GYROSCOPE X (rad/s),GYROSCOPE Y (rad/s),GYROSCOPE Z (rad/s),Time since start in ms ,YYYY-MO-DD HH-MI-SS_SSS,MagX,MagY,MagZ
0.03706114739179611,0.029539236798882484,9.809572219848633,-0.0008010081156793797,-0.002880113011569021,-0.0015506046087154575,0.0,2019-06-24 13:57:02:644,0.0,0.0,0.0
0.04185064509510994,0.02714448794722557,9.76407241821289,-0.0026656760088039516,0.00031646081208528944,0.0001808728018877288,0.004118442535400391,2019-06-24 13:57:02:648,0.0,0.0,0.0
0.07777189463376999,0.022354988381266594,9.843098640441895,-0.0005346269555808644,-8.311091993516073e-05,0.003111065254133135,0.010005950927734375,2019-06-24 13:57:02:654,0.0,0.0,0.0
0.025087397545576096,0.017565488815307617,9.823941230773926,-0.003731200779235175,-0.00048268263570096557,-0.0016837951725100697,0.014110565185546875,2019-06-24 13:57:02:658,0.0,0.0,0.0
0.07298239320516586,0.04630248621106148,9.847887992858887,0.003061518494438702,5.0079656050435554e-05,-0.004081225450850254,0.01999521255493164,2019-06-24 13:57:02:664,0.0,0.0,0.0
0.07298239320516586,0.05348673462867737,9.857467651367188,0.0021291844178392533,0.0017815571113538964,-0.0022165575577256817,0.024112701416015625,2019-06-24 13:57:02:668,0.0,0.0,0.0
0.09932463616132736,0.01277598924934864,9.831125259399414,-0.002266104317420115,5.0079656050435554e-05,-0.0004850800658492686,0.029998779296875,2019-06-24 13:57:02:674,0.0,0.0,0.0
0.07298239320516586,0.017565488815307617,9.8502836227417,0.0013300410350715797,-0.001148635552201899,-0.002349748121520294,0.03410911560058594,2019-06-24 13:57:02:678,0.0,0.0,0.0
0.044245395809412,0.017565488815307617,9.82154655456543,-0.0008010081156793797,0.0008492230997730292,-0.004747178269823315,0.0400090217590332,2019-06-24 13:57:02:684,0.0,0.0,0.0
0.04185064509510994,0.04151298478245735,9.790414810180664,0.002262375111671028,-0.001148635552201899,-0.00035188950205465634,0.04414033889770508,2019-06-24 13:57:02:688,0.0,0.0,0.0
0.05142964422702789,0.024749737232923508,9.778440475463867,0.002262375111671028,-0.002880113011569021,0.003777018333180522,0.049126625061035156,2019-06-24 13:57:02:693,0.0,0.0,0.0
0.044245395809412,0.003196990815922618,9.797598838806152,0.00026451647595074535,-0.00394563752192592,0.0005804445420355017,0.05499267578125,2019-06-24 13:57:02:699,0.0,0.0,0.0
0.05142964422702789,0.005591740366071463,9.811966896057129,-0.00199972318983089,-0.0006158732320048685,-0.003814844323261029,0.05911445617675781,2019-06-24 13:57:02:703,0.0,0.0,0.0
0.08735089004039764,0.04151298478245735,9.799993515014648,-0.0013337703708578288,-0.0012818261159965112,-0.0011510329173316206,0.0650014877319336,2019-06-24 13:57:02:709,0.0,0.0,0.0
0.06819289177656174,0.036723487079143524,9.78322982788086,-0.0030652477001877885,-0.0014150166797911234,-0.0016837951725100697,0.06911945343017578,2019-06-24 13:57:02:713,0.0,0.0,0.0
0.032271645963191986,0.06067098304629326,9.802388191223145,-0.001866532626036278,0.0008492230997730292,0.0001808728018877288,0.0749979019165039,2019-06-24 13:57:02:719,0.0,0.0,0.0
0.10411413758993149,-0.0039872583001852036,9.807177543640137,0.004526614956253763,0.0013819854199700597,0.0001808728018877288,0.07911348342895508,2019-06-24 13:57:02:723,0.0,0.0,0.0
0.06579814106225967,0.01996023952960968,9.776045799255371,-1.8646680201139888e-06,-0.0019477789349695727,-0.005013559397412539,0.08500480651855469,2019-06-24 13:57:02:729,0.0,0.0,0.0
0.06819289177656174,0.01277598924934864,9.74251937866211,-0.003731200779235175,-0.0026137318839797967,-0.0036816537594664173,0.08911895751953125,2019-06-24 13:57:02:733,0.0,0.0,0.0
0.07298239320516586,0.03911823779344559,9.869441032409668,-0.0026656760088039516,0.00018327023203603183,0.0005804445420355017,0.09501838684082031,2019-06-24 13:57:02:739,0.0,0.0,0.0
0.04185064509510994,0.058276232331991196,9.831125259399414,-0.0017333420622416655,0.002713891187953345,-0.00021869892200539868,0.09999990463256836,2019-06-24 13:57:02:744,0.0,0.0,0.0
0.07298239320516586,-0.0039872583001852036,9.79280948638916,0.0007972787798931306,0.0020479382389431214,0.0027114935627492983,0.1041111946105957,2019-06-24 13:57:02:748,0.0,0.0,0.0
0.08495613932609558,0.03911823779344559,9.749703407287598,-0.0012005798070632164,-0.0010154449233887055,-0.000884651789742396,0.11000347137451172,2019-06-24 13:57:02:754,0.0,0.0,0.0
0.058613892644643784,0.003196990815922618,9.78322982788086,-0.001866532626036278,-0.0008822543595940932,-0.0015506046087154575,0.11500024795532227,2019-06-24 13:57:02:759,0.0,0.0,0.0
0.07298239320516586,-0.018355756998062134,9.752098083496094,0.0017296127264554166,-0.0035460658305420827,4.768222590213253e-05,0.11910390853881836,2019-06-24 13:57:02:763,0.0,0.0,0.0
0.07777189463376999,0.043907735496759415,9.82154655456543,0.0025287562392602527,-0.0032796847029528584,-0.00035188950205465634,0.12498664855957031,2019-06-24 13:57:02:769,0.0,0.0,0.0
0.046640146523714066,0.015170739032328129,9.80478286743164,-0.0013337703708578288,-0.00048268263570096557,0.003777018333180522,0.12912321090698242,2019-06-24 13:57:02:773,0.0,0.0,0.0
0.05142964422702789,0.015170739032328129,9.75449275970459,0.0014632315988661918,-0.00341287526674747,-0.007544180369584498,0.13506269454956055,2019-06-24 13:57:02:779,0.0,0.0,0.0
0.07537714391946793,0.01277598924934864,9.819151878356934,-0.0013337703708578288,-0.0030133035753636336,-0.0010178423535370084,0.13912582397460938,2019-06-24 13:57:02:783,0.0,0.0,0.0
0.06819289177656174,0.05348673462867737,9.816756248474121,-0.0013337703708578288,0.00298027231554257,-0.00328208206808258,0.14499855041503906,2019-06-24 13:57:02:789,0.0,0.0,0.0
0.08974564075469971,0.007986490614712238,9.843098640441895,-0.0039975819068243995,-0.005943496238919429,-0.000884651789742396,0.14911460876464844,2019-06-24 13:57:02:793,0.0,0.0,0.0
0.08495613932609558,0.01277598924934864,9.788020133972168,-0.001866532626036278,-0.001681397807380348,0.001246397361008563,0.1549973487854004,2019-06-24 13:57:02:799,0.0,0.0,0.0
0.06819289177656174,0.03911823779344559,9.811966896057129,-0.0031984382639824007,-0.0018145883711749606,-0.0030157009404933556,0.15911245346069336,2019-06-24 13:57:02:803,0.0,0.0,0.0
0.025087397545576096,0.024749737232923508,9.809572219848633,-1.8646680201139888e-06,0.004578559081077917,-0.001816985736304682,0.16499900817871094,2019-06-24 13:57:02:809,0.0,0.0,0.0
0.025087397545576096,0.022354988381266594,9.831125259399414,0.0013300410350715797,-0.001681397807380348,0.002977874690338523,0.1691150665283203,2019-06-24 13:57:02:813,0.0,0.0,0.0
0.08495613932609558,0.043907735496759415,9.797598838806152,0.0005308976197946153,0.0016483665475592842,0.006041258177763256,0.17502212524414062,2019-06-24 13:57:02:819,0.0,0.0,0.0
0.07537714391946793,0.03432873636484146,9.8502836227417,-0.0031984382639824007,-0.0007490637957994808,0.0032442558179277474,0.17914056777954102,2019-06-24 13:57:02:823,0.0,0.0,0.0
0.058613892644643784,0.051091983914375305,9.79280948638916,0.0013300410350715797,0.003113462879337182,0.0019123501799816246,0.18500423431396484,2019-06-24 13:57:02:829,0.0,0.0,0.0
0.08256138861179352,0.010381239466369152,9.79280948638916,0.0018628032902500288,0.0012487948561754473,4.768222590213253e-05,0.18999958038330078,2019-06-24 13:57:02:834,0.0,0.0,0.0
0.09214039146900177,0.0319339856505394,9.797598838806152,0.00026451647595074535,0.0021811288027377335,-0.00021869892200539868,0.19411134719848633,2019-06-24 13:57:02:838,0.0,0.0,0.0
0.02748214825987816,0.010381239466369152,9.831125259399414,0.00013132590402881037,0.0048449402086671416,0.003111065254133135,0.20000457763671875,2019-06-24 13:57:02:844,0.0,0.0,0.0
0.044245395809412,0.015170739032328129,9.747308731079102,-0.001866532626036278,0.0005828419721838047,-0.0036816537594664173,0.20411014556884766,2019-06-24 13:57:02:848,0.0,0.0,0.0
0.03466639667749405,0.029539236798882484,9.814361572265625,-0.0023992948812147272,0.002713891187953345,-0.000884651789742396,0.20999956130981445,2019-06-24 13:57:02:854,0.0,0.0,0.0
0.046640146523714066,0.02714448794722557,9.802388191223145,-0.0009341986794739918,-0.0008822543595940932,0.003377446641796685,0.2141108512878418,2019-06-24 13:57:02:858,0.0,0.0,0.0
0.05142964422702789,-0.0039872583001852036,9.78322982788086,0.0013300410350715797,0.00417898738969408,0.00044725394573159877,0.2200002670288086,2019-06-24 13:57:02:864,0.0,0.0,0.0
0.03945589438080788,0.03432873636484146,9.730545997619629,-0.0012005798070632164,-0.0026137318839797967,0.0025783029989546857,0.22411537170410156,2019-06-24 13:57:02:868,0.0,0.0,0.0
0.044245395809412,0.003196990815922618,9.847887992858887,0.0025287562392602527,-0.0030133035753636336,-0.002749319812904131,0.23000526428222656,2019-06-24 13:57:02:874,0.0,0.0,0.0
0.07777189463376999,0.05588148534297943,9.814361572265625,-0.0017333420622416655,-0.0023473507563905724,-0.0010178423535370084,0.23410749435424805,2019-06-24 13:57:02:878,0.0,0.0,0.0
0.06340339034795761,0.02714448794722557,9.84549331665039,0.0005308976197946153,-0.00341287526674747,-0.005279940525001765,0.24000215530395508,2019-06-24 13:57:02:884,0.0,0.0,0.0
0.07537714391946793,0.010381239466369152,9.816756248474121,-0.0014669609346524412,0.0005828419721838047,0.0008468256696247262,0.2441096305847168,2019-06-24 13:57:02:888,0.0,0.0,0.0
0.044245395809412,0.024749737232923508,9.778440475463867,-0.004397153598208236,0.002713891187953345,-0.005413131348870701,0.2499995231628418,2019-06-24 13:57:02:894,0.0,0.0,0.0
0.0705876424908638,0.017565488815307617,9.879019737243652,-0.001866532626036278,-0.002080969498764185,0.00044725394573159877,0.25499868392944336,2019-06-24 13:57:02:899,0.0,0.0,0.0
0.0705876424908638,0.043907735496759415,9.778440475463867,0.0006640882160985182,-0.003812446958131307,0.00044725394573159877,0.25911712646484375,2019-06-24 13:57:02:903,0.0,0.0,0.0
0.08495613932609558,0.022354988381266594,9.788020133972168,0.0017296127264554166,-0.0036792563943366953,0.0011132067972139507,0.2649965286254883,2019-06-24 13:57:02:909,0.0,0.0,0.0
0.06819289177656174,0.06306573003530502,9.87423038482666,-0.002798866572598564,-0.001681397807380348,-0.004880369093692253,0.27002716064453125,2019-06-24 13:57:02:914,0.0,0.0,0.0
0.06579814106225967,-0.01596100628376007,9.835914611816406,0.00465980525997405,-0.0022141601925959598,0.0005804445420355017,0.2741117477416992,2019-06-24 13:57:02:918,0.0,0.0,0.0
0.046640146523714066,0.0008022411493584514,9.826335906982422,0.0010636599074823549,0.0008492230997730292,0.004709352019668483,0.2799992561340332,2019-06-24 13:57:02:924,0.0,0.0,0.0
0.08016663789749146,0.015170739032328129,9.871835708618164,-0.003331629087851338,0.0037794156983102438,0.0013795879248031755,0.28411102294921875,2019-06-24 13:57:02:928,0.0,0.0,0.0
0.053824394941329956,0.03911823779344559,9.816756248474121,0.0006640882160985182,-0.004345209213309757,0.001246397361008563,0.29000186920166016,2019-06-24 13:57:02:934,0.0,0.0,0.0
0.04903489351272583,0.01277598924934864,9.776045799255371,0.0034610901858225388,-0.0006158732320048685,-0.000884651789742396,0.29410886764526367,2019-06-24 13:57:02:938,0.0,0.0,0.0
0.04903489351272583,-0.01596100628376007,9.788020133972168,0.00013132590402881037,0.0005828419721838047,0.005108923971126645,0.29998779296875,2019-06-24 13:57:02:944,0.0,0.0,0.0
0.044245395809412,0.022354988381266594,9.80478286743164,0.0005308976197946153,-0.0019477789349695727,-8.550835008346375e-05,0.30410051345825195,2019-06-24 13:57:02:948,0.0,0.0,0.0
0.08256138861179352,0.043907735496759415,9.802388191223145,0.0009304693436877427,0.00018327023203603183,-0.0030157009404933556,0.31000709533691406,2019-06-24 13:57:02:954,0.0,0.0,0.0
0.08016663789749146,0.010381239466369152,9.823941230773926,-0.004929915853386686,0.005111321336256366,-0.0024829386853149065,0.31413936614990234,2019-06-24 13:57:02:958,0.0,0.0,0.0
0.017903149127960205,0.010381239466369152,9.835914611816406,-0.0008010081156793797,0.0005828419721838047,0.0036438277693859092,0.3200063705444336,2019-06-24 13:57:02:964,0.0,0.0,0.0
0.09453514218330383,0.015170739032328129,9.80478286743164,-0.0025324854450093394,-0.002080969498764185,0.0027114935627492983,0.32411766052246094,2019-06-24 13:57:02:968,0.0,0.0,0.0
0.06340339034795761,0.0319339856505394,9.776045799255371,0.00013132590402881037,0.0011156042923808351,-0.0014174140449208453,0.3299999237060547,2019-06-24 13:57:02:974,0.0,0.0,0.0
0.017903149127960205,0.051091983914375305,9.78322982788086,0.00039770705600000294,0.0008492230997730292,-0.00328208206808258,0.33499956130981445,2019-06-24 13:57:02:979,0.0,0.0,0.0
0.08495613932609558,-0.020750505849719048,9.778440475463867,-0.0002682458117369945,-0.0036792563943366953,-0.003415272631877192,0.3391127586364746,2019-06-24 13:57:02:983,0.0,0.0,0.0
0.046640146523714066,0.02714448794722557,9.797598838806152,-0.0008010081156793797,-0.002880113011569021,-0.0010178423535370084,0.34499406814575195,2019-06-24 13:57:02:989,0.0,0.0,0.0
0.053824394941329956,0.03432873636484146,9.795204162597656,0.0018628032902500288,0.003912606262104856,-0.00021869892200539868,0.34911251068115234,2019-06-24 13:57:02:993,0.0,0.0,0.0
0.09214039146900177,-0.0015925085172057152,9.788020133972168,-0.0017333420622416655,0.0009824136635676417,-0.002882510376698743,0.3549990653991699,2019-06-24 13:57:02:999,0.0,0.0,0.0
0.025087397545576096,0.06067098304629326,9.76407241821289,0.0010636599074823549,0.0016483665475592842,0.002178731307570849,0.35911989212036133,2019-06-24 13:57:03:003,0.0,0.0,0.0
0.06100864335894585,0.010381239466369152,9.79280948638916,-0.002266104317420115,-0.0036792563943366953,0.001246397361008563,0.3650054931640625,2019-06-24 13:57:03:009,0.0,0.0,0.0
0.07537714391946793,0.06785523146390915,9.773651123046875,-0.004397153598208236,0.0004496513758799017,-0.005945893604049151,0.3691129684448242,2019-06-24 13:57:03:013,0.0,0.0,0.0
0.07537714391946793,0.0008022411493584514,9.867046356201172,-1.8646680201139888e-06,-0.004078828085720532,-0.0010178423535370084,0.3750009536743164,2019-06-24 13:57:03:019,0.0,0.0,0.0
0.08735089004039764,0.0008022411493584514,9.752098083496094,0.00026451647595074535,-0.0032796847029528584,-0.004480797142234091,0.37911510467529297,2019-06-24 13:57:03:023,0.0,0.0,0.0
0.06819289177656174,0.04151298478245735,9.790414810180664,-0.001866532626036278,-0.004478399777104369,-0.00035188950205465634,0.3849945068359375,2019-06-24 13:57:03:029,0.0,0.0,0.0
0.06340339034795761,0.04869723320007324,9.840703964233398,-0.003731200779235175,-0.002080969498764185,0.0007136351058301139,0.38910961151123047,2019-06-24 13:57:03:033,0.0,0.0,0.0
0.05621914565563202,0.015170739032328129,9.780835151672363,-0.0012005798070632164,-0.0010154449233887055,-0.0004850800658492686,0.39499998092651367,2019-06-24 13:57:03:039,0.0,0.0,0.0
0.053824394941329956,0.01996023952960968,9.79280948638916,-0.002266104317420115,-0.00394563752192592,0.0007136351058301139,0.39911985397338867,2019-06-24 13:57:03:043,0.0,0.0,0.0
0.05621914565563202,0.029539236798882484,9.799993515014648,-0.0009341986794739918,0.00444536877735763,0.00044725394573159877,0.4041099548339844,2019-06-24 13:57:03:048,0.0,0.0,0.0
0.044245395809412,0.029539236798882484,9.780835151672363,-0.0014669609346524412,-0.001681397807380348,0.004576161715948195,0.4100360870361328,2019-06-24 13:57:03:054,0.0,0.0,0.0
0.08256138861179352,0.017565488815307617,9.843098640441895,0.0034610901858225388,0.0007160325359784169,-0.003948034887055641,0.41411495208740234,2019-06-24 13:57:03:058,0.0,0.0,0.0
0.058613892644643784,-0.025540005415678024,9.814361572265625,0.0005308976197946153,0.001914747675148509,-0.005013559397412539,0.4199981689453125,2019-06-24 13:57:03:064,0.0,0.0,0.0
0.044245395809412,-0.01596100628376007,9.82154655456543,0.00292832793064409,-0.001681397807380348,-0.0011510329173316206,0.4249992370605469,2019-06-24 13:57:03:069,0.0,0.0,0.0
0.07298239320516586,0.015170739032328129,9.759283065795898,-0.00013505523981505952,-0.0007490637957994808,0.0009800162334193385,0.42911434173583984,2019-06-24 13:57:03:073,0.0,0.0,0.0
0.03706114739179611,0.04869723320007324,9.835914611816406,-0.0006678175518847673,-0.00034949207190635323,0.0007136351058301139,0.4349985122680664,2019-06-24 13:57:03:079,0.0,0.0,0.0
0.07298239320516586,0.022354988381266594,9.79280948638916,-0.004263963034413624,0.00031646081208528944,-0.0019501763000992945,0.43910932540893555,2019-06-24 13:57:03:083,0.0,0.0,0.0
0.058613892644643784,0.005591740366071463,9.83351993560791,-0.0009341986794739918,0.0004496513758799017,-0.005413131348870701,0.4449930191040039,2019-06-24 13:57:03:089,0.0,0.0,0.0
0.06579814106225967,0.010381239466369152,9.795204162597656,-0.0017333420622416655,0.0005828419721838047,0.001246397361008563,0.44911623001098633,2019-06-24 13:57:03:093,0.0,0.0,0.0
0.08256138861179352,0.01996023952960968,9.78322982788086,-0.00013505523981505952,-0.0007490637957994808,-0.001816985736304682,0.45502281188964844,2019-06-24 13:57:03:099,0.0,0.0,0.0
0.06579814106225967,0.015170739032328129,9.752098083496094,-0.004530343901928523,0.0004496513758799017,0.00044725394573159877,0.4591207504272461,2019-06-24 13:57:03:103,0.0,0.0,0.0
0.08974564075469971,0.0319339856505394,9.737730026245117,-0.002932057136393176,0.002447510060364121,0.0024451124351600735,0.4641118049621582,2019-06-24 13:57:03:108,0.0,0.0,0.0
0.10411413758993149,0.02714448794722557,9.776045799255371,-1.8646680201139888e-06,0.004312177953488693,-0.0016837951725100697,0.46999454498291016,2019-06-24 13:57:03:114,0.0,0.0,0.0
0.10650888830423355,-0.03511900454759598,9.732940673828125,0.0038606618772063757,-0.0014150166797911234,-0.0020833668638939066,0.4741091728210449,2019-06-24 13:57:03:118,0.0,0.0,0.0
0.053824394941329956,0.029539236798882484,9.749703407287598,0.0018628032902500288,0.002314319496569508,0.003111065254133135,0.4799990653991699,2019-06-24 13:57:03:124,0.0,0.0,0.0
0.058613892644643784,0.010381239466369152,9.795204162597656,0.0010636599074823549,-0.0036792563943366953,-0.0006182706621531716,0.48410940170288086,2019-06-24 13:57:03:128,0.0,0.0,0.0
0.053824394941329956,0.06546048074960709,9.799993515014648,-0.0016001514984470533,-0.0032796847029528584,0.0024451124351600735,0.48999691009521484,2019-06-24 13:57:03:134,0.0,0.0,0.0
0.07298239320516586,0.007986490614712238,9.799993515014648,-0.0012005798070632164,0.0021811288027377335,0.0025783029989546857,0.4941401481628418,2019-06-24 13:57:03:138,0.0,0.0,0.0
0.06100864335894585,0.029539236798882484,9.80478286743164,0.0035942807496171514,0.0016483665475592842,-8.550835008346375e-05,0.5000152587890625,2019-06-24 13:57:03:144,0.0,0.0,0.0
0.046640146523714066,0.01996023952960968,9.838309288024902,-0.0054626781085651355,0.0028470817517479577,-0.0004850800658492686,0.5041112899780273,2019-06-24 13:57:03:148,0.0,0.0,0.0
0.053824394941329956,0.04630248621106148,9.823941230773926,-0.002266104317420115,0.0005828419721838047,-0.0014174140449208453,0.5099973678588867,2019-06-24 13:57:03:154,0.0,0.0,0.0
0.04185064509510994,0.036723487079143524,9.771256446838379,0.0021291844178392533,-0.0042120186495151445,0.0008468256696247262,0.5141091346740723,2019-06-24 13:57:03:158,0.0,0.0,0.0
0.03706114739179611,0.051091983914375305,9.881415367126465,0.001596422162660804,-0.002080969498764185,0.003777018333180522,0.5199966430664062,2019-06-24 13:57:03:164,0.0,0.0,0.0
0.053824394941329956,-0.018355756998062134,9.780835151672363,-0.0006678175518847673,0.00018327023203603183,0.002045540743776237,0.5250005722045898,2019-06-24 13:57:03:169,0.0,0.0,0.0
0.08016663789749146,0.015170739032328129,9.814361572265625,-0.00199972318983089,-8.311091993516073e-05,0.0035106372055912975,0.5291166305541992,2019-06-24 13:57:03:173,0.0,0.0,0.0
0.05621914565563202,0.06067098304629326,9.831125259399414,-0.003464819651645951,0.002713891187953345,0.002977874690338523,0.5349979400634766,2019-06-24 13:57:03:179,0.0,0.0,0.0
0.08735089004039764,0.010381239466369152,9.799993515014648,-0.00013505523981505952,-0.00048268263570096557,0.0015127784885977877,0.5391311645507812,2019-06-24 13:57:03:183,0.0,0.0,0.0
0.04903489351272583,-0.013566257432103157,9.749703407287598,0.0014632315988661918,-0.0019477789349695727,0.001246397361008563,0.545008659362793,2019-06-24 13:57:03:189,0.0,0.0,0.0
0.029876897111535072,0.022354988381266594,9.819151878356934,-0.003331629087851338,-0.004744780904693593,-0.0014174140449208453,0.5491046905517578,2019-06-24 13:57:03:193,0.0,0.0,0.0
0.06819289177656174,0.01277598924934864,9.788020133972168,-0.00040143639178625206,0.002580700624158733,0.0035106372055912975,0.5549888610839844,2019-06-24 13:57:03:199,0.0,0.0,0.0
0.06100864335894585,0.051091983914375305,9.826335906982422,-0.0012005798070632164,-0.002080969498764185,0.0017791596161870122,0.5591092109680176,2019-06-24 13:57:03:203,0.0,0.0,0.0
0.04903489351272583,0.03911823779344559,9.819151878356934,0.0007972787798931306,0.0009824136635676417,-0.0004850800658492686,0.5649971961975098,2019-06-24 13:57:03:209,0.0,0.0,0.0
0.08256138861179352,0.0008022411493584514,9.790414810180664,-0.00013505523981505952,0.0004496513758799017,-0.0036816537594664173,0.5691075325012207,2019-06-24 13:57:03:213,0.0,0.0,0.0
0.06819289177656174,0.02714448794722557,9.76407241821289,-0.0021329137536255025,-0.0014150166797911234,0.001246397361008563,0.5749940872192383,2019-06-24 13:57:03:219,0.0,0.0,0.0
0.04903489351272583,0.02714448794722557,9.75449275970459,0.0023955656754656406,0.0028470817517479577,-0.006345465035358663,0.5791139602661133,2019-06-24 13:57:03:223,0.0,0.0,0.0
0.025087397545576096,0.03432873636484146,9.797598838806152,-0.0012005798070632164,-0.001148635552201899,-0.0004850800658492686,0.5841245651245117,2019-06-24 13:57:03:228,0.0,0.0,0.0
0.03466639667749405,-0.0015925085172057152,9.82154655456543,0.0010636599074823549,0.0009824136635676417,-0.00328208206808258,0.5900068283081055,2019-06-24 13:57:03:234,0.0,0.0,0.0
0.07298239320516586,0.0319339856505394,9.737730026245117,0.00026451647595074535,0.0011156042923808351,0.0015127784885977877,0.5941095352172852,2019-06-24 13:57:03:238,0.0,0.0,0.0
0.06579814106225967,0.0008022411493584514,9.790414810180664,0.0011968504712769673,-0.0015482072435857358,-0.005279940525001765,0.6000051498413086,2019-06-24 13:57:03:244,0.0,0.0,0.0
0.05621914565563202,0.024749737232923508,9.828730583190918,0.0005308976197946153,0.001914747675148509,-0.0024829386853149065,0.6041102409362793,2019-06-24 13:57:03:248,0.0,0.0,0.0
0.053824394941329956,0.010381239466369152,9.744914054870605,0.0006640882160985182,-0.0022141601925959598,0.003111065254133135,0.6099972724914551,2019-06-24 13:57:03:254,0.0,0.0,0.0
0.09932463616132736,0.07264473289251328,9.816756248474121,0.003327899622027926,-0.006609448797818165,0.0017791596161870122,0.6141119003295898,2019-06-24 13:57:03:258,0.0,0.0,0.0
0.06340339034795761,0.01277598924934864,9.80478286743164,0.0050593772114322115,-0.0018145883711749606,-0.000884651789742396,0.6199994087219238,2019-06-24 13:57:03:264,0.0,0.0,0.0
0.06340339034795761,-0.0039872583001852036,9.766467094421387,-0.00040143639178625206,-0.0012818261159965112,-0.0022165575577256817,0.6241083145141602,2019-06-24 13:57:03:268,0.0,0.0,0.0
0.1160878837108612,0.0008022411493584514,9.74251937866211,0.0023955656754656406,0.0011156042923808351,-0.0015506046087154575,0.630030632019043,2019-06-24 13:57:03:274,0.0,0.0,0.0
0.058613892644643784,0.0319339856505394,9.823941230773926,-0.002266104317420115,-0.0023473507563905724,-0.004880369093692253,0.6341156959533691,2019-06-24 13:57:03:278,0.0,0.0,0.0
0.06819289177656174,0.01996023952960968,9.75449275970459,0.0021291844178392533,0.005111321336256366,0.0016459690523923998,0.6399993896484375,2019-06-24 13:57:03:284,0.0,0.0,0.0
0.12087738513946533,0.0319339856505394,9.768861770629883,-0.0031984382639824007,0.001914747675148509,-0.004214416014644866,0.6441116333007812,2019-06-24 13:57:03:288,0.0,0.0,0.0
0.044245395809412,0.02714448794722557,9.843098640441895,0.00292832793064409,0.0011156042923808351,0.0008468256696247262,0.6499948501586914,2019-06-24 13:57:03:294,0.0,0.0,0.0
0.07537714391946793,0.017565488815307617,9.852678298950195,-0.001866532626036278,0.0009824136635676417,-0.0007514612259477838,0.6541104316711426,2019-06-24 13:57:03:298,0.0,0.0,0.0
0.053824394941329956,0.007986490614712238,9.795204162597656,0.00039770705600000294,-0.00034949207190635323,-0.0016837951725100697,0.6599969863891602,2019-06-24 13:57:03:304,0.0,0.0,0.0
0.03945589438080788,0.02714448794722557,9.756888389587402,0.0014632315988661918,-0.0007490637957994808,-0.002882510376698743,0.6649971008300781,2019-06-24 13:57:03:309,0.0,0.0,0.0
0.04903489351272583,0.029539236798882484,9.785624504089355,-0.0006678175518847673,-0.0012818261159965112,-0.005279940525001765,0.6691169738769531,2019-06-24 13:57:03:313,0.0,0.0,0.0
0.11129838973283768,0.04630248621106148,9.814361572265625,-0.0014669609346524412,0.0008492230997730292,-0.0036816537594664173,0.6750226020812988,2019-06-24 13:57:03:319,0.0,0.0,0.0
0.06819289177656174,0.007986490614712238,9.797598838806152,0.0013300410350715797,-0.00048268263570096557,0.0017791596161870122,0.6791143417358398,2019-06-24 13:57:03:323,0.0,0.0,0.0
0.06579814106225967,0.0319339856505394,9.826335906982422,-0.0039975819068243995,0.005377702463845591,0.0016459690523923998,0.6841106414794922,2019-06-24 13:57:03:328,0.0,0.0,0.0
0.058613892644643784,0.02714448794722557,9.749703407287598,-0.0005346269555808644,0.0040457968258994685,-0.0020833668638939066,0.6891207695007324,2019-06-24 13:57:03:333,0.0,0.0,0.0
0.07298239320516586,0.01996023952960968,9.809572219848633,-0.00199972318983089,-0.001148635552201899,-0.0007514612259477838,0.6941099166870117,2019-06-24 13:57:03:338,0.0,0.0,0.0
0.03706114739179611,0.0008022411493584514,9.771256446838379,0.0009304693436877427,0.003113462879337182,0.0028446841265439104,0.6999921798706055,2019-06-24 13:57:03:344,0.0,0.0,0.0
0.04185064509510994,0.043907735496759415,9.79280948638916,0.001995993854044641,0.0004496513758799017,0.0025783029989546857,0.7049961090087891,2019-06-24 13:57:03:349,0.0,0.0,0.0
0.05142964422702789,0.015170739032328129,9.785624504089355,-0.0014669609346524412,-0.00034949207190635323,0.002045540743776237,0.7099990844726562,2019-06-24 13:57:03:354,0.0,0.0,0.0
0.06100864335894585,0.017565488815307617,9.823941230773926,0.0009304693436877427,0.00031646081208528944,0.0019123501799816246,0.7141304016113281,2019-06-24 13:57:03:358,0.0,0.0,0.0
0.06340339034795761,0.05348673462867737,9.87423038482666,0.004792996083842987,0.0008492230997730292,0.002977874690338523,0.7200350761413574,2019-06-24 13:57:03:364,0.0,0.0,0.0
0.053824394941329956,0.03911823779344559,9.807177543640137,-0.003464819651645951,-0.001148635552201899,0.0025783029989546857,0.7241287231445312,2019-06-24 13:57:03:368,0.0,0.0,0.0
0.06819289177656174,-0.0015925085172057152,9.790414810180664,0.0025287562392602527,0.0017815571113538964,-0.00021869892200539868,0.7299990653991699,2019-06-24 13:57:03:374,0.0,0.0,0.0
0.08256138861179352,0.003196990815922618,9.737730026245117,-0.00199972318983089,0.0008492230997730292,-0.005279940525001765,0.7341108322143555,2019-06-24 13:57:03:378,0.0,0.0,0.0
0.04903489351272583,0.0319339856505394,9.76407241821289,0.002262375111671028,-0.002746922447774409,-0.000884651789742396,0.7399959564208984,2019-06-24 13:57:03:384,0.0,0.0,0.0
0.058613892644643784,0.017565488815307617,9.871835708618164,0.0014632315988661918,-0.0012818261159965112,-0.003415272631877192,0.744110107421875,2019-06-24 13:57:03:388,0.0,0.0,0.0
0.06579814106225967,0.04151298478245735,9.828730583190918,0.00013132590402881037,0.0011156042923808351,-0.0004850800658492686,0.7500195503234863,2019-06-24 13:57:03:394,0.0,0.0,0.0
0.022692648693919182,0.029539236798882484,9.83351993560791,-0.00199972318983089,-0.00034949207190635323,-0.003814844323261029,0.7541117668151855,2019-06-24 13:57:03:398,0.0,0.0,0.0
0.07777189463376999,-0.0015925085172057152,9.735335350036621,-0.00013505523981505952,0.0004496513758799017,-0.0004850800658492686,0.7600069046020508,2019-06-24 13:57:03:404,0.0,0.0,0.0
0.06819289177656174,0.022354988381266594,9.83351993560791,-0.0006678175518847673,0.0008492230997730292,-0.001284223481126233,0.7650580406188965,2019-06-24 13:57:03:409,0.0,0.0,0.0
0.058613892644643784,0.03432873636484146,9.826335906982422,-0.0008010081156793797,-0.0007490637957994808,0.0024451124351600735,0.7691307067871094,2019-06-24 13:57:03:413,0.0,0.0,0.0
0.07298239320516586,0.029539236798882484,9.84549331665039,-0.0038643913430297877,-0.0042120186495151445,0.002977874690338523,0.7749996185302734,2019-06-24 13:57:03:419,0.0,0.0,0.0
0.06340339034795761,-0.01596100628376007,9.771256446838379,-0.0017333420622416655,0.0016483665475592842,0.0028446841265439104,0.7791099548339844,2019-06-24 13:57:03:423,0.0,0.0,0.0
0.06579814106225967,0.022354988381266594,9.797598838806152,-0.00013505523981505952,-0.003812446958131307,4.768222590213253e-05,0.7849998474121094,2019-06-24 13:57:03:429,0.0,0.0,0.0
0.046640146523714066,0.07264473289251328,9.831125259399414,-0.0008010081156793797,0.0009824136635676417,-0.001284223481126233,0.7900047302246094,2019-06-24 13:57:03:434,0.0,0.0,0.0
0.07777189463376999,0.017565488815307617,9.823941230773926,0.0010636599074823549,0.0009824136635676417,-0.0020833668638939066,0.7941093444824219,2019-06-24 13:57:03:438,0.0,0.0,0.0
0.08256138861179352,0.010381239466369152,9.886204719543457,0.0005308976197946153,-0.004078828085720532,-0.0030157009404933556,0.7999920845031738,2019-06-24 13:57:03:444,0.0,0.0,0.0
0.058613892644643784,0.017565488815307617,9.811966896057129,0.00292832793064409,0.0017815571113538964,-0.001816985736304682,0.8041181564331055,2019-06-24 13:57:03:448,0.0,0.0,0.0
0.08974564075469971,0.029539236798882484,9.79280948638916,0.0009304693436877427,-0.0030133035753636336,0.0032442558179277474,0.8100004196166992,2019-06-24 13:57:03:454,0.0,0.0,0.0
0.08016663789749146,0.04630248621106148,9.78322982788086,0.0017296127264554166,-0.0024805413201851845,-0.0026161292491095186,0.8141260147094727,2019-06-24 13:57:03:458,0.0,0.0,0.0
0.09214039146900177,0.0319339856505394,9.852678298950195,0.0009304693436877427,-0.0010154449233887055,0.0013795879248031755,0.820004940032959,2019-06-24 13:57:03:464,0.0,0.0,0.0
0.08256138861179352,0.003196990815922618,9.773651123046875,0.00026451647595074535,-0.0014150166797911234,-0.0022165575577256817,0.8241114616394043,2019-06-24 13:57:03:468,0.0,0.0,0.0
0.07298239320516586,0.07982897758483887,9.799993515014648,-0.004397153598208236,0.00298027231554257,-0.0031488915042879673,0.8299980163574219,2019-06-24 13:57:03:474,0.0,0.0,0.0
0.04903489351272583,0.0008022411493584514,9.730545997619629,0.002262375111671028,-0.0023473507563905724,0.0016459690523923998,0.8349990844726562,2019-06-24 13:57:03:479,0.0,0.0,0.0
0.044245395809412,0.04869723320007324,9.752098083496094,-0.0017333420622416655,-0.0035460658305420827,-0.004347606578439478,0.8391084671020508,2019-06-24 13:57:03:483,0.0,0.0,0.0
0.044245395809412,0.04151298478245735,9.807177543640137,-0.0026656760088039516,0.003379844006926407,-0.0004850800658492686,0.844111442565918,2019-06-24 13:57:03:488,0.0,0.0,0.0
0.046640146523714066,0.051091983914375305,9.847887992858887,-0.0026656760088039516,-0.00341287526674747,-0.001284223481126233,0.8500471115112305,2019-06-24 13:57:03:494,0.0,0.0,0.0
0.06100864335894585,-0.013566257432103157,9.811966896057129,-0.0008010081156793797,0.0020479382389431214,0.0007136351058301139,0.8541154861450195,2019-06-24 13:57:03:498,0.0,0.0,0.0
0.05621914565563202,0.051091983914375305,9.79280948638916,-0.0031984382639824007,-0.00034949207190635323,-8.550835008346375e-05,0.8600053787231445,2019-06-24 13:57:03:504,0.0,0.0,0.0
0.044245395809412,0.022354988381266594,9.811966896057129,-0.0023992948812147272,-0.0019477789349695727,0.003910208896975134,0.864112377166748,2019-06-24 13:57:03:508,0.0,0.0,0.0
0.02029789797961712,0.005591740366071463,9.776045799255371,0.0014632315988661918,-0.001681397807380348,-0.0010178423535370084,0.8699989318847656,2019-06-24 13:57:03:514,0.0,0.0,0.0
0.053824394941329956,0.0008022411493584514,9.780835151672363,-0.006661393442790971,-0.0014150166797911234,-0.001284223481126233,0.8741121292114258,2019-06-24 13:57:03:518,0.0,0.0,0.0
0.08256138861179352,0.010381239466369152,9.747308731079102,0.0025287562392602527,0.003113462879337182,0.0023119218713654613,0.8800020217895508,2019-06-24 13:57:03:524,0.0,0.0,0.0
0.053824394941329956,0.022354988381266594,9.785624504089355,-0.0014669609346524412,-0.0030133035753636336,0.0009800162334193385,0.8841094970703125,2019-06-24 13:57:03:528,0.0,0.0,0.0
0.046640146523714066,0.05588148534297943,9.855072975158691,-0.0013337703708578288,-0.001148635552201899,-0.001816985736304682,0.8900213241577148,2019-06-24 13:57:03:534,0.0,0.0,0.0
0.053824394941329956,0.029539236798882484,9.811966896057129,0.0010636599074823549,-0.0024805413201851845,-0.001284223481126233,0.8941278457641602,2019-06-24 13:57:03:538,0.0,0.0,0.0
0.08735089004039764,0.029539236798882484,9.79280948638916,0.0006640882160985182,-0.004478399777104369,-0.0020833668638939066,0.8999977111816406,2019-06-24 13:57:03:544,0.0,0.0,0.0
0.04903489351272583,0.02714448794722557,9.826335906982422,-0.0031984382639824007,-0.002080969498764185,0.0019123501799816246,0.9041304588317871,2019-06-24 13:57:03:548,0.0,0.0,0.0
0.044245395809412,0.029539236798882484,9.82154655456543,-0.0013337703708578288,0.0028470817517479577,-0.003814844323261029,0.9100027084350586,2019-06-24 13:57:03:554,0.0,0.0,0.0
0.07537714391946793,0.043907735496759415,9.776045799255371,0.004526614956253763,-0.0060766865426397166,0.004176590024564358,0.9149980545043945,2019-06-24 13:57:03:559,0.0,0.0,0.0
0.08016663789749146,0.029539236798882484,9.75449275970459,-0.0002682458117369945,-0.00048268263570096557,0.003777018333180522,0.9191131591796875,2019-06-24 13:57:03:563,0.0,0.0,0.0
0.04903489351272583,0.04151298478245735,9.79280948638916,-0.0026656760088039516,0.002713891187953345,0.0011132067972139507,0.9249944686889648,2019-06-24 13:57:03:569,0.0,0.0,0.0
0.06819289177656174,0.003196990815922618,9.819151878356934,-0.0008010081156793797,0.002314319496569508,-0.0026161292491095186,0.9291133880615234,2019-06-24 13:57:03:573,0.0,0.0,0.0
0.08974564075469971,0.03911823779344559,9.773651123046875,0.0009304693436877427,-0.0035460658305420827,-0.000884651789742396,0.9350061416625977,2019-06-24 13:57:03:579,0.0,0.0,0.0
0.025087397545576096,0.022354988381266594,9.840703964233398,0.00612490172178911,-0.0018145883711749606,-8.550835008346375e-05,0.939117431640625,2019-06-24 13:57:03:583,0.0,0.0,0.0
0.029876897111535072,0.015170739032328129,9.76407241821289,-0.0009341986794739918,0.001515175983764672,-0.004480797142234091,0.945063591003418,2019-06-24 13:57:03:589,0.0,0.0,0.0
0.08016663789749146,-0.006382008083164692,9.725756645202637,0.00013132590402881037,0.0028470817517479577,-0.0010178423535370084,0.9491443634033203,2019-06-24 13:57:03:593,0.0,0.0,0.0
0.06579814106225967,0.010381239466369152,9.756888389587402,-0.0005346269555808644,-0.00034949207190635323,0.0011132067972139507,0.9549994468688965,2019-06-24 13:57:03:599,0.0,0.0,0.0
0.06100864335894585,0.03432873636484146,9.776045799255371,-0.0002682458117369945,-0.0015482072435857358,0.0009800162334193385,0.9591169357299805,2019-06-24 13:57:03:603,0.0,0.0,0.0
0.08016663789749146,0.024749737232923508,9.79280948638916,0.00039770705600000294,0.0016483665475592842,0.0007136351058301139,0.9649972915649414,2019-06-24 13:57:03:609,0.0,0.0,0.0
0.05621914565563202,0.05348673462867737,9.749703407287598,0.001596422162660804,-0.00394563752192592,-0.004747178269823315,0.969109058380127,2019-06-24 13:57:03:613,0.0,0.0,0.0
0.025087397545576096,0.024749737232923508,9.807177543640137,-0.005063106157106973,-0.0026137318839797967,-0.0011510329173316206,0.974998950958252,2019-06-24 13:57:03:619,0.0,0.0,0.0
0.04185064509510994,0.0319339856505394,9.847887992858887,0.0021291844178392533,0.0016483665475592842,-0.0007514612259477838,0.9791221618652344,2019-06-24 13:57:03:623,0.0,0.0,0.0
0.08735089004039764,0.036723487079143524,9.826335906982422,-0.002798866572598564,-0.0019477789349695727,0.0001808728018877288,0.9849996566772461,2019-06-24 13:57:03:629,0.0,0.0,0.0
0.07777189463376999,0.024749737232923508,9.766467094421387,-0.0026656760088039516,-0.002746922447774409,0.004309780588358971,0.989130973815918,2019-06-24 13:57:03:633,0.0,0.0,0.0
0.07537714391946793,0.10138172656297684,9.809572219848633,0.0021291844178392533,0.001914747675148509,0.0016459690523923998,0.9941244125366211,2019-06-24 13:57:03:638,0.0,0.0,0.0
0.03945589438080788,0.036723487079143524,9.788020133972168,0.0005308976197946153,-0.0018145883711749606,-0.0020833668638939066,0.9999990463256836,2019-06-24 13:57:03:644,0.0,0.0,0.0
0.08495613932609558,0.02714448794722557,9.778440475463867,-0.00040143639178625206,-0.0008822543595940932,0.0007136351058301139,1.004110336303711,2019-06-24 13:57:03:648,0.0,0.0,0.0
0.03945589438080788,0.04869723320007324,9.823941230773926,-0.0016001514984470533,-0.002080969498764185,-0.0004850800658492686,1.0099997520446777,2019-06-24 13:57:03:654,0.0,0.0,0.0
0.05621914565563202,0.051091983914375305,9.79280948638916,-0.002266104317420115,-0.006609448797818165,0.0001808728018877288,1.0149965286254883,2019-06-24 13:57:03:659,0.0,0.0,0.0
0.06100864335894585,0.0319339856505394,9.852678298950195,0.001995993854044641,-0.003812446958131307,-0.002349748121520294,1.019108772277832,2019-06-24 13:57:03:663,0.0,0.0,0.0
0.06819289177656174,0.02714448794722557,9.835914611816406,0.0017296127264554166,0.003379844006926407,-0.003948034887055641,1.0241317749023438,2019-06-24 13:57:03:668,0.0,0.0,0.0
0.06579814106225967,0.015170739032328129,9.840703964233398,0.0025287562392602527,0.001914747675148509,-0.0019501763000992945,1.029994010925293,2019-06-24 13:57:03:674,0.0,0.0,0.0
0.04903489351272583,0.01277598924934864,9.78322982788086,-0.002798866572598564,-0.0007490637957994808,-0.0019501763000992945,1.0341167449951172,2019-06-24 13:57:03:678,0.0,0.0,0.0
0.029876897111535072,0.03432873636484146,9.847887992858887,-0.00199972318983089,-0.0008822543595940932,-0.00035188950205465634,1.0399999618530273,2019-06-24 13:57:03:684,0.0,0.0,0.0
0.03706114739179611,0.04630248621106148,9.795204162597656,-0.0025324854450093394,-0.00341287526674747,-0.003948034887055641,1.0450000762939453,2019-06-24 13:57:03:689,0.0,0.0,0.0
0.08974564075469971,0.017565488815307617,9.761677742004395,-0.003464819651645951,-0.0006158732320048685,0.00031406338193698644,1.0491065979003906,2019-06-24 13:57:03:693,0.0,0.0,0.0
0.044245395809412,0.015170739032328129,9.788020133972168,-0.0005346269555808644,0.0007160325359784169,-0.00021869892200539868,1.0549907684326172,2019-06-24 13:57:03:699,0.0,0.0,0.0
0.06340339034795761,0.01277598924934864,9.766467094421387,-0.0023992948812147272,0.00031646081208528944,0.0009800162334193385,1.059112548828125,2019-06-24 13:57:03:703,0.0,0.0,0.0
0.025087397545576096,0.017565488815307617,9.831125259399414,-1.8646680201139888e-06,0.00031646081208528944,-0.0011510329173316206,1.0641140937805176,2019-06-24 13:57:03:708,0.0,0.0,0.0
0.04185064509510994,0.01996023952960968,9.737730026245117,0.001995993854044641,0.00031646081208528944,0.0001808728018877288,1.070021629333496,2019-06-24 13:57:03:714,0.0,0.0,0.0
0.06819289177656174,0.036723487079143524,9.79280948638916,-0.0023992948812147272,0.003113462879337182,-0.0016837951725100697,1.0741114616394043,2019-06-24 13:57:03:718,0.0,0.0,0.0
0.03945589438080788,0.07503948360681534,9.843098640441895,0.00026451647595074535,-0.002746922447774409,-0.0030157009404933556,1.080002784729004,2019-06-24 13:57:03:724,0.0,0.0,0.0
0.058613892644643784,0.03432873636484146,9.840703964233398,0.00026451647595074535,-0.0012818261159965112,-0.002882510376698743,1.0841121673583984,2019-06-24 13:57:03:728,0.0,0.0,0.0
0.017903149127960205,-0.0015925085172057152,9.838309288024902,0.0031947090582333144,-0.004345209213309757,0.003777018333180522,1.0899972915649414,2019-06-24 13:57:03:734,0.0,0.0,0.0
0.013113649562001228,0.007986490614712238,9.785624504089355,0.0010636599074823549,0.0037794156983102438,0.0017791596161870122,1.0949935913085938,2019-06-24 13:57:03:739,0.0,0.0,0.0
0.08016663789749146,0.005591740366071463,9.749703407287598,-0.0017333420622416655,0.0012487948561754473,0.0019123501799816246,1.099116325378418,2019-06-24 13:57:03:743,0.0,0.0,0.0
0.05621914565563202,-0.006382008083164692,9.819151878356934,0.001995993854044641,-0.0010154449233887055,0.0013795879248031755,1.1049938201904297,2019-06-24 13:57:03:749,0.0,0.0,0.0
0.06340339034795761,0.02714448794722557,9.816756248474121,-0.0006678175518847673,0.0016483665475592842,0.0023119218713654613,1.1091156005859375,2019-06-24 13:57:03:753,0.0,0.0,0.0
0.06819289177656174,0.015170739032328129,9.847887992858887,0.00292832793064409,-0.002080969498764185,0.0007136351058301139,1.115002155303955,2019-06-24 13:57:03:759,0.0,0.0,0.0
0.03706114739179611,0.022354988381266594,9.807177543640137,0.0021291844178392533,0.0012487948561754473,-0.00021869892200539868,1.1191191673278809,2019-06-24 13:57:03:763,0.0,0.0,0.0
0.06579814106225967,-0.0015925085172057152,9.785624504089355,0.0054589486427417235,0.00018327023203603183,-0.0026161292491095186,1.1250219345092773,2019-06-24 13:57:03:769,0.0,0.0,0.0
0.06579814106225967,-0.011171507649123669,9.816756248474121,-0.0010673892432686042,-0.0023473507563905724,0.0005804445420355017,1.1291170120239258,2019-06-24 13:57:03:773,0.0,0.0,0.0
0.058613892644643784,0.04151298478245735,9.802388191223145,0.0025287562392602527,-0.0042120186495151445,-0.000884651789742396,1.1349987983703613,2019-06-24 13:57:03:779,0.0,0.0,0.0
0.06340339034795761,0.022354988381266594,9.82154655456543,0.0014632315988661918,0.0012487948561754473,0.00044725394573159877,1.139113426208496,2019-06-24 13:57:03:783,0.0,0.0,0.0
0.046640146523714066,0.06067098304629326,9.835914611816406,-0.0023992948812147272,0.00018327023203603183,-0.0015506046087154575,1.144996166229248,2019-06-24 13:57:03:789,0.0,0.0,0.0
0.04903489351272583,0.036723487079143524,9.838309288024902,-0.00040143639178625206,0.0007160325359784169,-0.003948034887055641,1.1491098403930664,2019-06-24 13:57:03:793,0.0,0.0,0.0
0.09453514218330383,0.036723487079143524,9.788020133972168,-0.001866532626036278,0.0004496513758799017,0.00044725394573159877,1.1550064086914062,2019-06-24 13:57:03:799,0.0,0.0,0.0
0.06100864335894585,0.051091983914375305,9.881415367126465,0.0011968504712769673,0.002713891187953345,0.003777018333180522,1.1591110229492188,2019-06-24 13:57:03:803,0.0,0.0,0.0
0.053824394941329956,0.022354988381266594,9.807177543640137,-0.0013337703708578288,0.0012487948561754473,0.0001808728018877288,1.164992332458496,2019-06-24 13:57:03:809,0.0,0.0,0.0
0.08016663789749146,0.010381239466369152,9.814361572265625,-0.0017333420622416655,-0.0015482072435857358,-0.0010178423535370084,1.170027256011963,2019-06-24 13:57:03:814,0.0,0.0,0.0
0.058613892644643784,0.022354988381266594,9.799993515014648,-0.0014669609346524412,-0.0022141601925959598,-0.002882510376698743,1.174112319946289,2019-06-24 13:57:03:818,0.0,0.0,0.0
0.06579814106225967,0.04630248621106148,9.814361572265625,0.00013132590402881037,0.0004496513758799017,0.0027114935627492983,1.1799993515014648,2019-06-24 13:57:03:824,0.0,0.0,0.0
0.07777189463376999,0.0008022411493584514,9.776045799255371,-0.0017333420622416655,0.00018327023203603183,0.0005804445420355017,1.184114933013916,2019-06-24 13:57:03:828,0.0,0.0,0.0
0.09932463616132736,0.015170739032328129,9.788020133972168,0.0021291844178392533,-0.001148635552201899,0.0017791596161870122,1.1900062561035156,2019-06-24 13:57:03:834,0.0,0.0,0.0
0.046640146523714066,0.017565488815307617,9.819151878356934,0.00013132590402881037,-0.00048268263570096557,-0.0019501763000992945,1.1941108703613281,2019-06-24 13:57:03:838,0.0,0.0,0.0
0.058613892644643784,-0.02314525656402111,9.814361572265625,0.0014632315988661918,0.0005828419721838047,-0.0019501763000992945,1.199995994567871,2019-06-24 13:57:03:844,0.0,0.0,0.0
0.06819289177656174,0.017565488815307617,9.788020133972168,-0.0025324854450093394,0.00018327023203603183,0.0001808728018877288,1.2041349411010742,2019-06-24 13:57:03:848,0.0,0.0,0.0
0.06100864335894585,0.043907735496759415,9.811966896057129,0.0013300410350715797,-0.0015482072435857358,0.003777018333180522,1.2100272178649902,2019-06-24 13:57:03:854,0.0,0.0,0.0
0.053824394941329956,0.04869723320007324,9.838309288024902,-0.0054626781085651355,-0.00048268263570096557,-0.0020833668638939066,1.214123249053955,2019-06-24 13:57:03:858,0.0,0.0,0.0
0.05621914565563202,0.024749737232923508,9.814361572265625,0.0006640882160985182,-0.0006158732320048685,-0.0007514612259477838,1.2200002670288086,2019-06-24 13:57:03:864,0.0,0.0,0.0
0.053824394941329956,0.024749737232923508,9.80478286743164,0.0034610901858225388,-0.002880113011569021,-0.005279940525001765,1.2249956130981445,2019-06-24 13:57:03:869,0.0,0.0,0.0
0.05142964422702789,0.029539236798882484,9.797598838806152,-0.0017333420622416655,-0.0014150166797911234,-8.550835008346375e-05,1.2299995422363281,2019-06-24 13:57:03:874,0.0,0.0,0.0
0.07298239320516586,0.017565488815307617,9.807177543640137,0.0027951373668494775,0.001914747675148509,0.0025783029989546857,1.2349987030029297,2019-06-24 13:57:03:879,0.0,0.0,0.0
0.08735089004039764,0.06067098304629326,9.802388191223145,-0.0021329137536255025,-0.001148635552201899,-0.0036816537594664173,1.2391090393066406,2019-06-24 13:57:03:883,0.0,0.0,0.0
0.06100864335894585,0.01277598924934864,9.79280948638916,0.00292832793064409,0.00018327023203603183,0.00044725394573159877,1.2450237274169922,2019-06-24 13:57:03:889,0.0,0.0,0.0
0.0705876424908638,0.005591740366071463,9.840703964233398,-0.0005346269555808644,-0.00048268263570096557,-0.0026161292491095186,1.249124526977539,2019-06-24 13:57:03:893,0.0,0.0,0.0
0.07298239320516586,0.003196990815922618,9.74251937866211,-0.0016001514984470533,-0.004478399777104369,-0.000884651789742396,1.2549982070922852,2019-06-24 13:57:03:899,0.0,0.0,0.0
0.08016663789749146,0.0008022411493584514,9.82154655456543,0.00013132590402881037,0.0020479382389431214,0.0007136351058301139,1.2591142654418945,2019-06-24 13:57:03:903,0.0,0.0,0.0
0.032271645963191986,0.003196990815922618,9.778440475463867,-0.004663534725797461,0.00031646081208528944,-0.00035188950205465634,1.2650156021118164,2019-06-24 13:57:03:909,0.0,0.0,0.0
0.08495613932609558,0.06067098304629326,9.802388191223145,-0.00013505523981505952,-0.0010154449233887055,-0.0024829386853149065,1.2691078186035156,2019-06-24 13:57:03:913,0.0,0.0,0.0
0.06819289177656174,-0.0015925085172057152,9.819151878356934,-0.0014669609346524412,-0.00021630149185709568,-0.002882510376698743,1.274998664855957,2019-06-24 13:57:03:919,0.0,0.0,0.0
0.0705876424908638,0.0008022411493584514,9.86225700378418,0.006391282849378335,-0.0014150166797911234,0.008039116374608116,1.2791166305541992,2019-06-24 13:57:03:923,0.0,0.0,0.0
0.053824394941329956,0.04869723320007324,9.814361572265625,-0.00013505523981505952,0.00018327023203603183,0.0017791596161870122,1.284998893737793,2019-06-24 13:57:03:929,0.0,0.0,0.0
0.06579814106225967,0.03432873636484146,9.819151878356934,0.0009304693436877427,-0.00048268263570096557,0.0017791596161870122,1.2891321182250977,2019-06-24 13:57:03:933,0.0,0.0,0.0
0.025087397545576096,0.04151298478245735,9.752098083496094,0.0038606618772063757,0.00018327023203603183,-0.002349748121520294,1.2950091361999512,2019-06-24 13:57:03:939,0.0,0.0,0.0
0.032271645963191986,0.029539236798882484,9.847887992858887,0.0011968504712769673,-0.0015482072435857358,-0.0030157009404933556,1.2991056442260742,2019-06-24 13:57:03:943,0.0,0.0,0.0
0.058613892644643784,0.036723487079143524,9.819151878356934,-0.0030652477001877885,0.002713891187953345,-0.0020833668638939066,1.3049883842468262,2019-06-24 13:57:03:949,0.0,0.0,0.0
0.06819289177656174,0.017565488815307617,9.807177543640137,0.0018628032902500288,-0.003146494139158246,0.005108923971126645,1.3091373443603516,2019-06-24 13:57:03:953,0.0,0.0,0.0
0.05142964422702789,0.017565488815307617,9.790414810180664,-0.001866532626036278,0.001914747675148509,-8.550835008346375e-05,1.3141918182373047,2019-06-24 13:57:03:958,0.0,0.0,0.0
0.058613892644643784,0.01277598924934864,9.795204162597656,-0.0010673892432686042,-0.0008822543595940932,-0.003948034887055641,1.320023536682129,2019-06-24 13:57:03:964,0.0,0.0,0.0
0.07298239320516586,0.015170739032328129,9.795204162597656,0.0017296127264554166,0.0007160325359784169,-8.550835008346375e-05,1.3249998092651367,2019-06-24 13:57:03:969,0.0,0.0,0.0
0.07298239320516586,0.0319339856505394,9.740124702453613,-0.0014669609346524412,0.00031646081208528944,0.0005804445420355017,1.3291172981262207,2019-06-24 13:57:03:973,0.0,0.0,0.0
0.07777189463376999,0.029539236798882484,9.80478286743164,0.0011968504712769673,-0.0007490637957994808,-0.00021869892200539868,1.3350019454956055,2019-06-24 13:57:03:979,0.0,0.0,0.0
0.04185064509510994,0.01996023952960968,9.747308731079102,-0.0008010081156793797,0.00031646081208528944,-0.0020833668638939066,1.3391203880310059,2019-06-24 13:57:03:983,0.0,0.0,0.0
0.02748214825987816,0.01277598924934864,9.799993515014648,-0.0013337703708578288,0.00031646081208528944,0.0019123501799816246,1.344996452331543,2019-06-24 13:57:03:989,0.0,0.0,0.0
0.058613892644643784,0.02714448794722557,9.814361572265625,0.0023955656754656406,-8.311091993516073e-05,0.0001808728018877288,1.349111557006836,2019-06-24 13:57:03:993,0.0,0.0,0.0
0.05142964422702789,0.029539236798882484,9.785624504089355,-0.0025324854450093394,-0.0022141601925959598,0.0015127784885977877,1.354987621307373,2019-06-24 13:57:03:999,0.0,0.0,0.0
0.09453514218330383,0.003196990815922618,9.776045799255371,-0.002266104317420115,0.0020479382389431214,0.0009800162334193385,1.359999656677246,2019-06-24 13:57:04:004,0.0,0.0,0.0
0.05621914565563202,0.07503948360681534,9.826335906982422,0.0023955656754656406,0.0012487948561754473,-0.004214416014644866,1.3650217056274414,2019-06-24 13:57:04:009,0.0,0.0,0.0
0.06579814106225967,0.03911823779344559,9.735335350036621,0.0018628032902500288,0.0011156042923808351,-0.0011510329173316206,1.3691158294677734,2019-06-24 13:57:04:013,0.0,0.0,0.0
0.04185064509510994,0.036723487079143524,9.706598281860352,0.00013132590402881037,-0.0008822543595940932,-0.002349748121520294,1.3749923706054688,2019-06-24 13:57:04:019,0.0,0.0,0.0
0.06819289177656174,0.02714448794722557,9.756888389587402,0.0006640882160985182,-0.0010154449233887055,0.0007136351058301139,1.3800287246704102,2019-06-24 13:57:04:024,0.0,0.0,0.0
0.013113649562001228,0.02714448794722557,9.773651123046875,0.0013300410350715797,0.0007160325359784169,-0.0019501763000992945,1.384110927581787,2019-06-24 13:57:04:028,0.0,0.0,0.0
0.08974564075469971,0.007986490614712238,9.847887992858887,0.0009304693436877427,0.0017815571113538964,-0.00035188950205465634,1.389998435974121,2019-06-24 13:57:04:034,0.0,0.0,0.0
0.06579814106225967,0.022354988381266594,9.847887992858887,0.0018628032902500288,0.0020479382389431214,-0.001284223481126233,1.3941106796264648,2019-06-24 13:57:04:038,0.0,0.0,0.0
0.03706114739179611,0.022354988381266594,9.828730583190918,0.0010636599074823549,-0.0006158732320048685,0.002178731307570849,1.4000005722045898,2019-06-24 13:57:04:044,0.0,0.0,0.0
0.06100864335894585,0.022354988381266594,9.776045799255371,0.003327899622027926,-0.0008822543595940932,-0.0020833668638939066,1.4050655364990234,2019-06-24 13:57:04:049,0.0,0.0,0.0
0.08735089004039764,0.04630248621106148,9.819151878356934,-0.00040143639178625206,0.0005828419721838047,-8.550835008346375e-05,1.4091310501098633,2019-06-24 13:57:04:053,0.0,0.0,0.0
0.06340339034795761,0.024749737232923508,9.831125259399414,0.0017296127264554166,-0.0014150166797911234,-0.0004850800658492686,1.4149980545043945,2019-06-24 13:57:04:059,0.0,0.0,0.0
0.032271645963191986,0.024749737232923508,9.778440475463867,-0.0030652477001877885,0.0007160325359784169,-0.003415272631877192,1.419114589691162,2019-06-24 13:57:04:063,0.0,0.0,0.0
0.04903489351272583,0.07024998217821121,9.859862327575684,-0.0016001514984470533,-0.00048268263570096557,-0.0007514612259477838,1.4241323471069336,2019-06-24 13:57:04:068,0.0,0.0,0.0
0.09214039146900177,0.015170739032328129,9.814361572265625,-0.004130772470619012,-0.0042120186495151445,0.0015127784885977877,1.4300003051757812,2019-06-24 13:57:04:074,0.0,0.0,0.0
0.07777189463376999,0.02714448794722557,9.79280948638916,-0.0002682458117369945,0.003912606262104856,-0.001284223481126233,1.4341106414794922,2019-06-24 13:57:04:078,0.0,0.0,0.0
0.07298239320516586,0.029539236798882484,9.84549331665039,-0.0039975819068243995,-0.0024805413201851845,-0.0014174140449208453,1.4399995803833008,2019-06-24 13:57:04:084,0.0,0.0,0.0
0.046640146523714066,0.04151298478245735,9.83351993560791,-0.004263963034413624,0.00031646081208528944,-0.005013559397412539,1.4441099166870117,2019-06-24 13:57:04:088,0.0,0.0,0.0
0.058613892644643784,0.036723487079143524,9.799993515014648,-0.00199972318983089,-0.0026137318839797967,0.005108923971126645,1.4500079154968262,2019-06-24 13:57:04:094,0.0,0.0,0.0
0.046640146523714066,0.051091983914375305,9.749703407287598,0.0010636599074823549,-0.0006158732320048685,-0.0007514612259477838,1.4550142288208008,2019-06-24 13:57:04:099,0.0,0.0,0.0
0.07777189463376999,0.005591740366071463,9.819151878356934,0.0023955656754656406,-0.00034949207190635323,0.0009800162334193385,1.459113597869873,2019-06-24 13:57:04:103,0.0,0.0,0.0
0.08016663789749146,0.015170739032328129,9.76407241821289,0.004792996083842987,-0.0036792563943366953,0.004309780588358971,1.465057373046875,2019-06-24 13:57:04:109,0.0,0.0,0.0
0.09453514218330383,0.024749737232923508,9.823941230773926,-0.0017333420622416655,0.0017815571113538964,-0.0024829386853149065,1.469125747680664,2019-06-24 13:57:04:113,0.0,0.0,0.0
0.03706114739179611,0.058276232331991196,9.795204162597656,-0.0006678175518847673,-0.0030133035753636336,0.0009800162334193385,1.4750003814697266,2019-06-24 13:57:04:119,0.0,0.0,0.0
0.08974564075469971,0.03911823779344559,9.835914611816406,-0.0014669609346524412,-0.0010154449233887055,-0.0014174140449208453,1.4791183471679688,2019-06-24 13:57:04:123,0.0,0.0,0.0
0.053824394941329956,0.051091983914375305,9.795204162597656,-0.0005346269555808644,0.0005828419721838047,0.00031406338193698644,1.4841070175170898,2019-06-24 13:57:04:128,0.0,0.0,0.0
0.022692648693919182,0.043907735496759415,9.78322982788086,-0.0013337703708578288,0.002580700624158733,0.0024451124351600735,1.4899978637695312,2019-06-24 13:57:04:134,0.0,0.0,0.0
0.07298239320516586,0.007986490614712238,9.828730583190918,-0.0002682458117369945,-0.0026137318839797967,-0.0004850800658492686,1.4941143989562988,2019-06-24 13:57:04:138,0.0,0.0,0.0
0.04185064509510994,0.017565488815307617,9.826335906982422,-0.0005346269555808644,-0.0019477789349695727,-0.002749319812904131,1.5000057220458984,2019-06-24 13:57:04:144,0.0,0.0,0.0
0.06819289177656174,0.01996023952960968,9.768861770629883,0.003061518494438702,-0.001148635552201899,0.0035106372055912975,1.5041093826293945,2019-06-24 13:57:04:148,0.0,0.0,0.0
0.07777189463376999,0.02714448794722557,9.74251937866211,0.00039770705600000294,-0.005543924287461267,0.0015127784885977877,1.5100011825561523,2019-06-24 13:57:04:154,0.0,0.0,0.0
0.06579814106225967,0.0319339856505394,9.773651123046875,-0.0008010081156793797,-0.0026137318839797967,0.001246397361008563,1.5141162872314453,2019-06-24 13:57:04:158,0.0,0.0,0.0
0.058613892644643784,0.007986490614712238,9.843098640441895,-0.0012005798070632164,-0.001148635552201899,-0.0026161292491095186,1.5199990272521973,2019-06-24 13:57:04:164,0.0,0.0,0.0
0.03945589438080788,-0.011171507649123669,9.780835151672363,-0.0013337703708578288,0.0028470817517479577,-0.005546321652590989,1.52410888671875,2019-06-24 13:57:04:168,0.0,0.0,0.0
0.06100864335894585,0.036723487079143524,9.807177543640137,-0.0039975819068243995,0.0035130345707210186,0.003910208896975134,1.5299997329711914,2019-06-24 13:57:04:174,0.0,0.0,0.0
0.06100864335894585,0.01996023952960968,9.771256446838379,-0.0025324854450093394,0.0037794156983102438,0.0017791596161870122,1.5341095924377441,2019-06-24 13:57:04:178,0.0,0.0,0.0
0.03945589438080788,-0.0015925085172057152,9.752098083496094,0.004393424132384824,0.0016483665475592842,-0.005279940525001765,1.5400218963623047,2019-06-24 13:57:04:184,0.0,0.0,0.0
0.03706114739179611,0.05348673462867737,9.79280948638916,-0.0021329137536255025,-8.311091993516073e-05,-0.0007514612259477838,1.5450029373168945,2019-06-24 13:57:04:189,0.0,0.0,0.0
0.06340339034795761,0.029539236798882484,9.785624504089355,-0.0008010081156793797,0.00031646081208528944,-0.0020833668638939066,1.5491023063659668,2019-06-24 13:57:04:193,0.0,0.0,0.0
0.04903489351272583,0.005591740366071463,9.797598838806152,-0.004663534725797461,0.004578559081077917,-0.0016837951725100697,1.55499267578125,2019-06-24 13:57:04:199,0.0,0.0,0.0
0.053824394941329956,0.02714448794722557,9.82154655456543,-0.005595868932434072,-0.002080969498764185,-8.550835008346375e-05,1.5600051879882812,2019-06-24 13:57:04:204,0.0,0.0,0.0
0.053824394941329956,0.04869723320007324,9.802388191223145,0.0041270430047956,-0.0014150166797911234,0.0024451124351600735,1.5641098022460938,2019-06-24 13:57:04:208,0.0,0.0,0.0
0.053824394941329956,0.06546048074960709,9.811966896057129,-0.0006678175518847673,-0.0006158732320048685,-0.0010178423535370084,1.570002555847168,2019-06-24 13:57:04:214,0.0,0.0,0.0
0.06100864335894585,0.01277598924934864,9.816756248474121,-0.0008010081156793797,-0.002880113011569021,-0.0004850800658492686,1.574110984802246,2019-06-24 13:57:04:218,0.0,0.0,0.0
0.08735089004039764,-0.011171507649123669,9.75449275970459,-0.0014669609346524412,0.0035130345707210186,0.0015127784885977877,1.5799980163574219,2019-06-24 13:57:04:224,0.0,0.0,0.0
0.03466639667749405,0.024749737232923508,9.749703407287598,-0.00013505523981505952,0.005510893287714528,0.0025783029989546857,1.5841331481933594,2019-06-24 13:57:04:228,0.0,0.0,0.0
0.044245395809412,0.029539236798882484,9.778440475463867,-0.0012005798070632164,-0.0006158732320048685,-0.000884651789742396,1.5899944305419922,2019-06-24 13:57:04:234,0.0,0.0,0.0
0.06340339034795761,0.024749737232923508,9.74251937866211,0.00039770705600000294,-0.004078828085720532,-0.003814844323261029,1.5941109657287598,2019-06-24 13:57:04:238,0.0,0.0,0.0
0.03466639667749405,0.01277598924934864,9.82154655456543,-0.0009341986794739918,0.0009824136635676417,0.0028446841265439104,1.6000242233276367,2019-06-24 13:57:04:244,0.0,0.0,0.0
0.05142964422702789,0.02714448794722557,9.835914611816406,-0.0002682458117369945,0.0009824136635676417,0.0011132067972139507,1.604111671447754,2019-06-24 13:57:04:248,0.0,0.0,0.0
0.06100864335894585,-0.0015925085172057152,9.759283065795898,0.005991710897920172,-0.006343067670228941,0.00031406338193698644,1.6099939346313477,2019-06-24 13:57:04:254,0.0,0.0,0.0
0.07537714391946793,0.0319339856505394,9.76407241821289,0.0009304693436877427,-0.0012818261159965112,-0.00328208206808258,1.614995002746582,2019-06-24 13:57:04:259,0.0,0.0,0.0
0.06100864335894585,0.06067098304629326,9.785624504089355,0.0010636599074823549,-0.0008822543595940932,-0.0010178423535370084,1.619110107421875,2019-06-24 13:57:04:263,0.0,0.0,0.0
0.08016663789749146,0.007986490614712238,9.756888389587402,-0.004929915853386686,0.0008492230997730292,-0.004480797142234091,1.6250247955322266,2019-06-24 13:57:04:269,0.0,0.0,0.0
0.05142964422702789,0.043907735496759415,9.728151321411133,-0.003464819651645951,0.0012487948561754473,-8.550835008346375e-05,1.6291313171386719,2019-06-24 13:57:04:273,0.0,0.0,0.0
0.07537714391946793,0.02714448794722557,9.809572219848633,-1.8646680201139888e-06,-0.0015482072435857358,-0.004081225450850254,1.634995460510254,2019-06-24 13:57:04:279,0.0,0.0,0.0
0.0969298854470253,-0.006382008083164692,9.83351993560791,-0.0006678175518847673,-0.00034949207190635323,-0.002349748121520294,1.639108657836914,2019-06-24 13:57:04:283,0.0,0.0,0.0
0.07537714391946793,0.03911823779344559,9.778440475463867,-0.0006678175518847673,-0.0026137318839797967,-0.00021869892200539868,1.6441335678100586,2019-06-24 13:57:04:288,0.0,0.0,0.0
0.03945589438080788,0.017565488815307617,9.826335906982422,-0.0002682458117369945,-0.0010154449233887055,0.003111065254133135,1.6500024795532227,2019-06-24 13:57:04:294,0.0,0.0,0.0
0.058613892644643784,0.017565488815307617,9.80478286743164,-0.00199972318983089,-0.002880113011569021,-0.0030157009404933556,1.6550230979919434,2019-06-24 13:57:04:299,0.0,0.0,0.0
0.058613892644643784,0.017565488815307617,9.835914611816406,-0.00199972318983089,0.002580700624158733,-0.0014174140449208453,1.6600008010864258,2019-06-24 13:57:04:304,0.0,0.0,0.0
0.08735089004039764,0.017565488815307617,9.773651123046875,-0.00040143639178625206,0.0021811288027377335,0.0024451124351600735,1.6641111373901367,2019-06-24 13:57:04:308,0.0,0.0,0.0
0.07777189463376999,0.04151298478245735,9.799993515014648,-0.0038643913430297877,0.002314319496569508,0.00044725394573159877,1.6699953079223633,2019-06-24 13:57:04:314,0.0,0.0,0.0
0.06819289177656174,0.029539236798882484,9.761677742004395,0.00039770705600000294,-0.0019477789349695727,-0.0019501763000992945,1.674999713897705,2019-06-24 13:57:04:319,0.0,0.0,0.0
0.053824394941329956,0.0319339856505394,9.759283065795898,0.0005308976197946153,-0.002080969498764185,0.0027114935627492983,1.6791391372680664,2019-06-24 13:57:04:323,0.0,0.0,0.0
0.058613892644643784,0.03911823779344559,9.807177543640137,0.0011968504712769673,-0.0007490637957994808,-0.00328208206808258,1.6850166320800781,2019-06-24 13:57:04:329,0.0,0.0,0.0
0.02748214825987816,0.024749737232923508,9.831125259399414,-0.0038643913430297877,0.001515175983764672,-0.0004850800658492686,1.690014362335205,2019-06-24 13:57:04:334,0.0,0.0,0.0
0.05142964422702789,0.07024998217821121,9.780835151672363,-0.0008010081156793797,-0.001148635552201899,-0.0015506046087154575,1.69411039352417,2019-06-24 13:57:04:338,0.0,0.0,0.0
0.06100864335894585,0.017565488815307617,9.814361572265625,-0.0030652477001877885,-0.002080969498764185,0.0007136351058301139,1.699995994567871,2019-06-24 13:57:04:344,0.0,0.0,0.0
0.07298239320516586,0.005591740366071463,9.797598838806152,-0.0017333420622416655,0.0040457968258994685,0.005908067353894319,1.7041082382202148,2019-06-24 13:57:04:348,0.0,0.0,0.0
0.07298239320516586,0.007986490614712238,9.799993515014648,0.0011968504712769673,0.0021811288027377335,4.768222590213253e-05,1.7099967002868652,2019-06-24 13:57:04:354,0.0,0.0,0.0
0.053824394941329956,0.017565488815307617,9.735335350036621,-0.0025324854450093394,0.001515175983764672,-0.003415272631877192,1.7150006294250488,2019-06-24 13:57:04:359,0.0,0.0,0.0
0.053824394941329956,0.003196990815922618,9.816756248474121,-1.8646680201139888e-06,-0.0026137318839797967,0.004043399460769747,1.719113826751709,2019-06-24 13:57:04:363,0.0,0.0,0.0
0.046640146523714066,0.04151298478245735,9.725756645202637,0.0009304693436877427,-0.0008822543595940932,0.0015127784885977877,1.7250242233276367,2019-06-24 13:57:04:369,0.0,0.0,0.0
0.05621914565563202,0.0008022411493584514,9.8502836227417,-0.002266104317420115,0.0004496513758799017,0.0028446841265439104,1.729123592376709,2019-06-24 13:57:04:373,0.0,0.0,0.0
0.08974564075469971,-0.030329504981637,9.766467094421387,-0.0016001514984470533,-0.0014150166797911234,0.0019123501799816246,1.7350006103515625,2019-06-24 13:57:04:379,0.0,0.0,0.0
0.03945589438080788,0.0319339856505394,9.847887992858887,0.00026451647595074535,0.001515175983764672,0.0008468256696247262,1.7391090393066406,2019-06-24 13:57:04:383,0.0,0.0,0.0
0.11129838973283768,0.029539236798882484,9.811966896057129,0.002661946803054865,0.0009824136635676417,0.00031406338193698644,1.7449989318847656,2019-06-24 13:57:04:389,0.0,0.0,0.0
0.058613892644643784,0.01277598924934864,9.838309288024902,0.006391282849378335,0.0013819854199700597,0.0017791596161870122,1.75,2019-06-24 13:57:04:394,0.0,0.0,0.0
0.05142964422702789,0.017565488815307617,9.816756248474121,0.0014632315988661918,0.002314319496569508,-0.0022165575577256817,1.7541379928588867,2019-06-24 13:57:04:398,0.0,0.0,0.0
0.08495613932609558,0.058276232331991196,9.790414810180664,-0.0039975819068243995,-0.0050111620322828175,0.00031406338193698644,1.759995937347412,2019-06-24 13:57:04:404,0.0,0.0,0.0
0.08495613932609558,0.022354988381266594,9.843098640441895,-0.004929915853386686,-0.003146494139158246,-0.0035484631956718047,1.7641286849975586,2019-06-24 13:57:04:408,0.0,0.0,0.0
0.06340339034795761,0.01996023952960968,9.864651679992676,-0.0005346269555808644,-0.0024805413201851845,0.0016459690523923998,1.7700085639953613,2019-06-24 13:57:04:414,0.0,0.0,0.0
0.07537714391946793,-0.030329504981637,9.79280948638916,-0.002266104317420115,-0.0023473507563905724,-0.0010178423535370084,1.7741179466247559,2019-06-24 13:57:04:418,0.0,0.0,0.0
0.0705876424908638,0.017565488815307617,9.843098640441895,-0.0014669609346524412,0.004312177953488693,0.006041258177763256,1.7799997329711914,2019-06-24 13:57:04:424,0.0,0.0,0.0
0.02748214825987816,0.010381239466369152,9.773651123046875,-0.002266104317420115,0.001914747675148509,-0.0020833668638939066,1.784109115600586,2019-06-24 13:57:04:428,0.0,0.0,0.0
0.07537714391946793,0.007986490614712238,9.831125259399414,-0.0006678175518847673,-0.0010154449233887055,-8.550835008346375e-05,1.7899994850158691,2019-06-24 13:57:04:434,0.0,0.0,0.0
0.07777189463376999,0.05348673462867737,9.747308731079102,0.002661946803054865,-0.0018145883711749606,-0.0019501763000992945,1.7941102981567383,2019-06-24 13:57:04:438,0.0,0.0,0.0
0.08495613932609558,0.0319339856505394,9.778440475463867,0.00013132590402881037,-0.0019477789349695727,-0.0004850800658492686,1.7999906539916992,2019-06-24 13:57:04:444,0.0,0.0,0.0
0.053824394941329956,0.005591740366071463,9.811966896057129,-0.004530343901928523,0.0007160325359784169,0.0001808728018877288,1.8041019439697266,2019-06-24 13:57:04:448,0.0,0.0,0.0
0.046640146523714066,0.02714448794722557,9.819151878356934,0.004393424132384824,-0.0006158732320048685,-0.0004850800658492686,1.8100080490112305,2019-06-24 13:57:04:454,0.0,0.0,0.0
0.06100864335894585,0.024749737232923508,9.799993515014648,0.003061518494438702,0.0004496513758799017,0.0011132067972139507,1.8141164779663086,2019-06-24 13:57:04:458,0.0,0.0,0.0
0.053824394941329956,0.01996023952960968,9.797598838806152,-0.0023992948812147272,-0.0018145883711749606,-0.0007514612259477838,1.820023536682129,2019-06-24 13:57:04:464,0.0,0.0,0.0
0.06579814106225967,0.01277598924934864,9.802388191223145,0.0006640882160985182,0.002580700624158733,-8.550835008346375e-05,1.8241114616394043,2019-06-24 13:57:04:468,0.0,0.0,0.0
0.05621914565563202,-0.006382008083164692,9.766467094421387,0.00039770705600000294,-0.00341287526674747,-0.00021869892200539868,1.8299989700317383,2019-06-24 13:57:04:474,0.0,0.0,0.0
0.05621914565563202,0.03911823779344559,9.802388191223145,-0.004663534725797461,0.002580700624158733,0.0025783029989546857,1.834996223449707,2019-06-24 13:57:04:479,0.0,0.0,0.0
0.07777189463376999,0.036723487079143524,9.857467651367188,0.0034610901858225388,0.002447510060364121,0.005108923971126645,1.8402667045593262,2019-06-24 13:57:04:484,0.0,0.0,0.0
0.05621914565563202,0.04151298478245735,9.744914054870605,-0.0008010081156793797,0.001914747675148509,-0.005546321652590989,1.8441548347473145,2019-06-24 13:57:04:488,0.0,0.0,0.0
0.0705876424908638,-0.00877675786614418,9.78322982788086,0.00013132590402881037,-0.002746922447774409,4.768222590213253e-05,1.8500051498413086,2019-06-24 13:57:04:494,0.0,0.0,0.0
0.03706114739179611,0.024749737232923508,9.79280948638916,0.00039770705600000294,0.0008492230997730292,0.0001808728018877288,1.854116439819336,2019-06-24 13:57:04:498,0.0,0.0,0.0
0.06100864335894585,0.04869723320007324,9.732940673828125,-0.0021329137536255025,0.00031646081208528944,0.0017791596161870122,1.860032558441162,2019-06-24 13:57:04:504,0.0,0.0,0.0
0.06579814106225967,0.0319339856505394,9.780835151672363,0.0031947090582333144,-0.004478399777104369,-0.004081225450850254,1.8641233444213867,2019-06-24 13:57:04:508,0.0,0.0,0.0
0.06819289177656174,0.03432873636484146,9.828730583190918,0.0009304693436877427,-0.0006158732320048685,-0.00035188950205465634,1.8699965476989746,2019-06-24 13:57:04:514,0.0,0.0,0.0
0.03945589438080788,0.03911823779344559,9.776045799255371,-0.0010673892432686042,0.0009824136635676417,4.768222590213253e-05,1.8741025924682617,2019-06-24 13:57:04:518,0.0,0.0,0.0
0.06340339034795761,0.01996023952960968,9.823941230773926,0.0017296127264554166,0.0013819854199700597,-0.0022165575577256817,1.8799958229064941,2019-06-24 13:57:04:524,0.0,0.0,0.0
0.09932463616132736,0.022354988381266594,9.759283065795898,0.0017296127264554166,0.0011156042923808351,-0.0016837951725100697,1.8841047286987305,2019-06-24 13:57:04:528,0.0,0.0,0.0
0.029876897111535072,0.03911823779344559,9.776045799255371,-0.0008010081156793797,-8.311091993516073e-05,-0.002349748121520294,1.8899922370910645,2019-06-24 13:57:04:534,0.0,0.0,0.0
0.04903489351272583,0.01996023952960968,9.826335906982422,-0.002798866572598564,0.0032466534431317942,-0.0019501763000992945,1.894998550415039,2019-06-24 13:57:04:539,0.0,0.0,0.0
0.09932463616132736,0.08222372829914093,9.864651679992676,-0.0008010081156793797,-0.0036792563943366953,-0.0016837951725100697,1.8991384506225586,2019-06-24 13:57:04:543,0.0,0.0,0.0
0.03706114739179611,0.017565488815307617,9.797598838806152,0.0017296127264554166,0.001515175983764672,0.0025783029989546857,1.905008316040039,2019-06-24 13:57:04:549,0.0,0.0,0.0
0.04903489351272583,-0.0039872583001852036,9.859862327575684,-0.00040143639178625206,0.0009824136635676417,0.004442970892079258,1.9100046157836914,2019-06-24 13:57:04:554,0.0,0.0,0.0
0.0705876424908638,0.022354988381266594,9.828730583190918,-1.8646680201139888e-06,0.0032466534431317942,0.002045540743776237,1.914991855621338,2019-06-24 13:57:04:559,0.0,0.0,0.0
0.017903149127960205,0.017565488815307617,9.74251937866211,-0.0008010081156793797,0.0021811288027377335,4.768222590213253e-05,1.9191112518310547,2019-06-24 13:57:04:563,0.0,0.0,0.0
0.06340339034795761,0.01277598924934864,9.84549331665039,0.00026451647595074535,-0.004078828085720532,-0.004480797142234091,1.9250006675720215,2019-06-24 13:57:04:569,0.0,0.0,0.0
0.058613892644643784,0.03911823779344559,9.802388191223145,-0.002932057136393176,-0.003146494139158246,-0.002349748121520294,1.929107666015625,2019-06-24 13:57:04:573,0.0,0.0,0.0
0.046640146523714066,0.022354988381266594,9.83351993560791,-0.00040143639178625206,-0.0010154449233887055,0.00031406338193698644,1.934992790222168,2019-06-24 13:57:04:579,0.0,0.0,0.0
0.08016663789749146,0.03432873636484146,9.852678298950195,0.004792996083842987,-0.002080969498764185,-0.002749319812904131,1.9391164779663086,2019-06-24 13:57:04:583,0.0,0.0,0.0
0.03466639667749405,0.06067098304629326,9.828730583190918,-1.8646680201139888e-06,-0.00048268263570096557,0.0017791596161870122,1.9441423416137695,2019-06-24 13:57:04:588,0.0,0.0,0.0
0.017903149127960205,0.058276232331991196,9.823941230773926,-0.0012005798070632164,0.0008492230997730292,-0.0031488915042879673,1.950089454650879,2019-06-24 13:57:04:594,0.0,0.0,0.0
0.06819289177656174,0.02714448794722557,9.814361572265625,-0.004929915853386686,0.0035130345707210186,-0.004747178269823315,1.9541349411010742,2019-06-24 13:57:04:598,0.0,0.0,0.0
0.05142964422702789,0.03432873636484146,9.766467094421387,-1.8646680201139888e-06,-0.002080969498764185,0.0016459690523923998,1.959991455078125,2019-06-24 13:57:04:604,0.0,0.0,0.0
0.053824394941329956,0.017565488815307617,9.776045799255371,-0.005063106157106973,-0.0022141601925959598,-0.0014174140449208453,1.9649972915649414,2019-06-24 13:57:04:609,0.0,0.0,0.0
0.06100864335894585,0.01996023952960968,9.790414810180664,0.0018628032902500288,-0.0036792563943366953,-0.0007514612259477838,1.9691104888916016,2019-06-24 13:57:04:613,0.0,0.0,0.0
0.08495613932609558,-0.006382008083164692,9.799993515014648,-0.0016001514984470533,-0.0022141601925959598,0.00031406338193698644,1.9749994277954102,2019-06-24 13:57:04:619,0.0,0.0,0.0
0.09932463616132736,0.007986490614712238,9.759283065795898,-0.0012005798070632164,-0.0015482072435857358,-0.003415272631877192,1.9791040420532227,2019-06-24 13:57:04:623,0.0,0.0,0.0
0.0705876424908638,-0.006382008083164692,9.838309288024902,-0.0013337703708578288,-0.00034949207190635323,-0.0004850800658492686,1.9850091934204102,2019-06-24 13:57:04:629,0.0,0.0,0.0
0.07298239320516586,0.005591740366071463,9.785624504089355,-0.001866532626036278,0.0009824136635676417,-0.001284223481126233,1.9891228675842285,2019-06-24 13:57:04:633,0.0,0.0,0.0
0.05621914565563202,0.029539236798882484,9.797598838806152,0.0009304693436877427,-0.0014150166797911234,-0.00035188950205465634,1.9949989318847656,2019-06-24 13:57:04:639,0.0,0.0,0.0
0.09214039146900177,0.036723487079143524,9.823941230773926,0.00013132590402881037,0.0005828419721838047,-0.005812702780180213,1.9991164207458496,2019-06-24 13:57:04:643,0.0,0.0,0.0
0.05621914565563202,0.03432873636484146,9.811966896057129,0.0005308976197946153,0.002713891187953345,-0.002882510376698743,2.0049991607666016,2019-06-24 13:57:04:649,0.0,0.0,0.0
0.08495613932609558,0.02714448794722557,9.809572219848633,-0.00199972318983089,-0.0008822543595940932,-0.002882510376698743,2.0091171264648438,2019-06-24 13:57:04:653,0.0,0.0,0.0
0.11369313299655914,0.003196990815922618,9.809572219848633,0.0017296127264554166,0.001914747675148509,-0.00021869892200539868,2.0150012969970703,2019-06-24 13:57:04:659,0.0,0.0,0.0
0.06100864335894585,0.03432873636484146,9.831125259399414,0.00013132590402881037,-0.00034949207190635323,-0.0007514612259477838,2.019993782043457,2019-06-24 13:57:04:664,0.0,0.0,0.0
0.005929400213062763,0.022354988381266594,9.84549331665039,-0.0012005798070632164,-8.311091993516073e-05,-0.004347606578439478,2.0241012573242188,2019-06-24 13:57:04:668,0.0,0.0,0.0
0.058613892644643784,0.04630248621106148,9.828730583190918,-0.0023992948812147272,0.003113462879337182,0.0008468256696247262,2.0300164222717285,2019-06-24 13:57:04:674,0.0,0.0,0.0
0.06340339034795761,0.003196990815922618,9.823941230773926,0.0038606618772063757,-0.0010154449233887055,0.0011132067972139507,2.0341153144836426,2019-06-24 13:57:04:678,0.0,0.0,0.0
0.0705876424908638,0.010381239466369152,9.859862327575684,0.0007972787798931306,-0.0023473507563905724,0.0013795879248031755,2.039139747619629,2019-06-24 13:57:04:683,0.0,0.0,0.0
0.05621914565563202,0.058276232331991196,9.869441032409668,-0.00013505523981505952,0.002314319496569508,0.0013795879248031755,2.0449934005737305,2019-06-24 13:57:04:689,0.0,0.0,0.0
0.06579814106225967,0.024749737232923508,9.780835151672363,-0.006395012315201746,0.005377702463845591,4.768222590213253e-05,2.049105644226074,2019-06-24 13:57:04:693,0.0,0.0,0.0
0.06579814106225967,0.010381239466369152,9.826335906982422,0.0017296127264554166,0.003113462879337182,-0.0035484631956718047,2.0550198554992676,2019-06-24 13:57:04:699,0.0,0.0,0.0
0.03706114739179611,0.017565488815307617,9.747308731079102,-0.0009341986794739918,0.006975989229380939,-0.004880369093692253,2.059115409851074,2019-06-24 13:57:04:703,0.0,0.0,0.0
0.053824394941329956,0.024749737232923508,9.799993515014648,-0.002266104317420115,0.00018327023203603183,-0.006611846162947887,2.065000057220459,2019-06-24 13:57:04:709,0.0,0.0,0.0
0.053824394941329956,0.007986490614712238,9.857467651367188,-0.0006678175518847673,-0.0018145883711749606,0.0011132067972139507,2.0691046714782715,2019-06-24 13:57:04:713,0.0,0.0,0.0
0.07298239320516586,0.010381239466369152,9.788020133972168,-0.004530343901928523,0.00298027231554257,0.00031406338193698644,2.0750064849853516,2019-06-24 13:57:04:719,0.0,0.0,0.0
0.03706114739179611,0.007986490614712238,9.819151878356934,-0.0025324854450093394,-0.0026137318839797967,0.005908067353894319,2.079117774963379,2019-06-24 13:57:04:723,0.0,0.0,0.0
0.07777189463376999,0.01996023952960968,9.759283065795898,-1.8646680201139888e-06,0.002447510060364121,0.00044725394573159877,2.0850181579589844,2019-06-24 13:57:04:729,0.0,0.0,0.0
0.06819289177656174,-0.006382008083164692,9.780835151672363,-0.0002682458117369945,0.0005828419721838047,0.0016459690523923998,2.089110851287842,2019-06-24 13:57:04:733,0.0,0.0,0.0
0.04185064509510994,0.010381239466369152,9.802388191223145,-0.00040143639178625206,0.0011156042923808351,-0.001816985736304682,2.094994068145752,2019-06-24 13:57:04:739,0.0,0.0,0.0
0.008324149996042252,0.03911823779344559,9.773651123046875,-0.001866532626036278,-0.0010154449233887055,-0.004747178269823315,2.0991153717041016,2019-06-24 13:57:04:743,0.0,0.0,0.0
0.08016663789749146,-0.039908502250909805,9.766467094421387,0.003327899622027926,-0.0042120186495151445,0.0011132067972139507,2.1049985885620117,2019-06-24 13:57:04:749,0.0,0.0,0.0
0.05142964422702789,-0.04230325296521187,9.797598838806152,-0.0014669609346524412,-0.00048268263570096557,-0.0030157009404933556,2.10910701751709,2019-06-24 13:57:04:753,0.0,0.0,0.0
0.09453514218330383,0.024749737232923508,9.835914611816406,-0.0008010081156793797,-0.00048268263570096557,-0.0015506046087154575,2.1149935722351074,2019-06-24 13:57:04:759,0.0,0.0,0.0
0.09214039146900177,0.03432873636484146,9.831125259399414,-0.0025324854450093394,-0.0032796847029528584,-0.0024829386853149065,2.119145393371582,2019-06-24 13:57:04:763,0.0,0.0,0.0
0.044245395809412,0.029539236798882484,9.823941230773926,0.0013300410350715797,-0.0010154449233887055,0.0024451124351600735,2.1242246627807617,2019-06-24 13:57:04:768,0.0,0.0,0.0
0.06100864335894585,0.04869723320007324,9.752098083496094,-0.002932057136393176,0.0017815571113538964,-0.003814844323261029,2.1300048828125,2019-06-24 13:57:04:774,0.0,0.0,0.0
0.044245395809412,0.005591740366071463,9.785624504089355,0.00039770705600000294,-0.0022141601925959598,0.00044725394573159877,2.1341047286987305,2019-06-24 13:57:04:778,0.0,0.0,0.0
0.09932463616132736,-0.0039872583001852036,9.76407241821289,-0.00013505523981505952,-0.006209877366508654,0.0008468256696247262,2.1399989128112793,2019-06-24 13:57:04:784,0.0,0.0,0.0
0.05621914565563202,0.01277598924934864,9.840703964233398,-1.8646680201139888e-06,0.003113462879337182,0.001246397361008563,2.1441097259521484,2019-06-24 13:57:04:788,0.0,0.0,0.0
0.08256138861179352,0.03432873636484146,9.828730583190918,0.003327899622027926,-0.0006158732320048685,-0.0022165575577256817,2.1499900817871094,2019-06-24 13:57:04:794,0.0,0.0,0.0
0.06100864335894585,0.007986490614712238,9.814361572265625,-0.00013505523981505952,-0.0015482072435857358,0.0032442558179277474,2.154127597808838,2019-06-24 13:57:04:798,0.0,0.0,0.0
0.07537714391946793,-0.011171507649123669,9.816756248474121,-0.0030652477001877885,0.0012487948561754473,-0.0060790839077694385,2.160043716430664,2019-06-24 13:57:04:804,0.0,0.0,0.0
0.015508399344980717,0.024749737232923508,9.761677742004395,-0.0026656760088039516,-0.002746922447774409,0.0011132067972139507,2.164125919342041,2019-06-24 13:57:04:808,0.0,0.0,0.0
0.06100864335894585,0.02714448794722557,9.773651123046875,-0.0021329137536255025,-0.005277543159872043,0.0028446841265439104,2.170073986053467,2019-06-24 13:57:04:814,0.0,0.0,0.0
0.05621914565563202,0.0319339856505394,9.807177543640137,0.0014632315988661918,-0.0015482072435857358,0.0016459690523923998,2.1741113662719727,2019-06-24 13:57:04:818,0.0,0.0,0.0
0.08256138861179352,0.01996023952960968,9.840703964233398,-0.0038643913430297877,0.002447510060364121,0.0017791596161870122,2.1799888610839844,2019-06-24 13:57:04:824,0.0,0.0,0.0
0.07298239320516586,0.051091983914375305,9.771256446838379,-0.0013337703708578288,-0.0024805413201851845,-0.003415272631877192,2.1841049194335938,2019-06-24 13:57:04:828,0.0,0.0,0.0
0.08495613932609558,0.04630248621106148,9.809572219848633,0.0017296127264554166,0.0011156042923808351,-0.0011510329173316206,2.190000534057617,2019-06-24 13:57:04:834,0.0,0.0,0.0
0.0969298854470253,0.03432873636484146,9.778440475463867,-0.0026656760088039516,-0.0006158732320048685,0.0028446841265439104,2.1941113471984863,2019-06-24 13:57:04:838,0.0,0.0,0.0
0.02029789797961712,0.036723487079143524,9.773651123046875,-0.00013505523981505952,0.005111321336256366,0.0005804445420355017,2.199991226196289,2019-06-24 13:57:04:844,0.0,0.0,0.0
0.046640146523714066,0.02714448794722557,9.831125259399414,0.00026451647595074535,-0.0014150166797911234,0.0009800162334193385,2.2051095962524414,2019-06-24 13:57:04:849,0.0,0.0,0.0
0.053824394941329956,0.024749737232923508,9.766467094421387,-0.0021329137536255025,-0.0042120186495151445,-0.005146750221281477,2.2091188430786133,2019-06-24 13:57:04:853,0.0,0.0,0.0
0.07298239320516586,-0.013566257432103157,9.799993515014648,-0.0023992948812147272,0.003912606262104856,-0.0031488915042879673,2.2149906158447266,2019-06-24 13:57:04:859,0.0,0.0,0.0
0.06340339034795761,0.017565488815307617,9.78322982788086,-0.001866532626036278,0.0017815571113538964,-0.001284223481126233,2.2199997901916504,2019-06-24 13:57:04:864,0.0,0.0,0.0
0.0705876424908638,0.051091983914375305,9.835914611816406,-0.003331629087851338,0.0005828419721838047,-0.005146750221281477,2.2241201400756836,2019-06-24 13:57:04:868,0.0,0.0,0.0
0.058613892644643784,0.03911823779344559,9.790414810180664,-0.0013337703708578288,0.0037794156983102438,-0.003415272631877192,2.2300047874450684,2019-06-24 13:57:04:874,0.0,0.0,0.0
0.04903489351272583,0.003196990815922618,9.828730583190918,0.00292832793064409,0.003912606262104856,0.0007136351058301139,2.2341079711914062,2019-06-24 13:57:04:878,0.0,0.0,0.0
0.08256138861179352,0.003196990815922618,9.831125259399414,-0.0006678175518847673,-0.0006158732320048685,-0.0019501763000992945,2.2399988174438477,2019-06-24 13:57:04:884,0.0,0.0,0.0
0.046640146523714066,0.04151298478245735,9.819151878356934,-0.0016001514984470533,-0.001681397807380348,-0.00035188950205465634,2.2441091537475586,2019-06-24 13:57:04:888,0.0,0.0,0.0
0.02748214825987816,0.03911823779344559,9.857467651367188,0.0017296127264554166,-0.0010154449233887055,-8.550835008346375e-05,2.2500643730163574,2019-06-24 13:57:04:894,0.0,0.0,0.0
0.08016663789749146,0.04869723320007324,9.766467094421387,-0.0017333420622416655,-0.0015482072435857358,0.003777018333180522,2.2541351318359375,2019-06-24 13:57:04:898,0.0,0.0,0.0
0.06819289177656174,0.003196990815922618,9.802388191223145,-0.00013505523981505952,0.00018327023203603183,4.768222590213253e-05,2.2599916458129883,2019-06-24 13:57:04:904,0.0,0.0,0.0
0.029876897111535072,0.017565488815307617,9.879019737243652,-0.002266104317420115,-0.0022141601925959598,-0.0035484631956718047,2.264105796813965,2019-06-24 13:57:04:908,0.0,0.0,0.0
0.06819289177656174,0.017565488815307617,9.816756248474121,-0.0016001514984470533,-0.0024805413201851845,-8.550835008346375e-05,2.2700157165527344,2019-06-24 13:57:04:914,0.0,0.0,0.0
0.05621914565563202,0.036723487079143524,9.843098640441895,0.0011968504712769673,-0.00021630149185709568,0.001246397361008563,2.2750120162963867,2019-06-24 13:57:04:919,0.0,0.0,0.0
0.044245395809412,0.007986490614712238,9.773651123046875,-0.0010673892432686042,-0.0015482072435857358,0.0011132067972139507,2.279107093811035,2019-06-24 13:57:04:923,0.0,0.0,0.0
0.07298239320516586,0.03911823779344559,9.766467094421387,-0.0017333420622416655,-0.0023473507563905724,0.00031406338193698644,2.2849855422973633,2019-06-24 13:57:04:929,0.0,0.0,0.0
0.06340339034795761,0.022354988381266594,9.749703407287598,0.0023955656754656406,0.0009824136635676417,-0.00035188950205465634,2.289112091064453,2019-06-24 13:57:04:933,0.0,0.0,0.0
0.0705876424908638,0.01277598924934864,9.749703407287598,-0.0016001514984470533,-0.0012818261159965112,-0.00328208206808258,2.2950544357299805,2019-06-24 13:57:04:939,0.0,0.0,0.0
0.03706114739179611,0.04151298478245735,9.778440475463867,0.0023955656754656406,-0.0010154449233887055,0.0001808728018877288,2.299109935760498,2019-06-24 13:57:04:943,0.0,0.0,0.0
0.06819289177656174,-0.018355756998062134,9.752098083496094,-0.00040143639178625206,-8.311091993516073e-05,0.0009800162334193385,2.304989814758301,2019-06-24 13:57:04:949,0.0,0.0,0.0
0.04903489351272583,0.022354988381266594,9.823941230773926,0.002262375111671028,5.0079656050435554e-05,-0.0020833668638939066,2.3091135025024414,2019-06-24 13:57:04:953,0.0,0.0,0.0
0.06579814106225967,0.05348673462867737,9.788020133972168,-0.0008010081156793797,0.002713891187953345,-8.550835008346375e-05,2.3141465187072754,2019-06-24 13:57:04:958,0.0,0.0,0.0
0.07777189463376999,0.04869723320007324,9.855072975158691,0.00026451647595074535,0.00018327023203603183,0.0032442558179277474,2.319991111755371,2019-06-24 13:57:04:964,0.0,0.0,0.0
0.053824394941329956,0.03432873636484146,9.84549331665039,0.0007972787798931306,-0.0018145883711749606,0.0024451124351600735,2.324106216430664,2019-06-24 13:57:04:968,0.0,0.0,0.0
0.053824394941329956,0.029539236798882484,9.773651123046875,0.0025287562392602527,-0.001148635552201899,-0.0014174140449208453,2.32999849319458,2019-06-24 13:57:04:974,0.0,0.0,0.0
0.08256138861179352,0.02714448794722557,9.811966896057129,0.001995993854044641,-0.0008822543595940932,4.768222590213253e-05,2.334108352661133,2019-06-24 13:57:04:978,0.0,0.0,0.0
0.03706114739179611,0.024749737232923508,9.828730583190918,0.0034610901858225388,0.001515175983764672,0.0001808728018877288,2.3391456604003906,2019-06-24 13:57:04:983,0.0,0.0,0.0
0.04185064509510994,0.04151298478245735,9.797598838806152,-0.0012005798070632164,-0.0019477789349695727,-0.004214416014644866,2.3450002670288086,2019-06-24 13:57:04:989,0.0,0.0,0.0
0.06100864335894585,0.029539236798882484,9.766467094421387,-0.0009341986794739918,-8.311091993516073e-05,-0.005413131348870701,2.3500070571899414,2019-06-24 13:57:04:994,0.0,0.0,0.0
0.053824394941329956,0.036723487079143524,9.80478286743164,0.003727471313411763,0.0007160325359784169,-0.0019501763000992945,2.3541088104248047,2019-06-24 13:57:04:998,0.0,0.0,0.0
0.06579814106225967,-0.0015925085172057152,9.780835151672363,0.0006640882160985182,-8.311091993516073e-05,-0.0007514612259477838,2.359147071838379,2019-06-24 13:57:05:003,0.0,0.0,0.0
0.03466639667749405,0.04869723320007324,9.84549331665039,-0.0017333420622416655,-0.00048268263570096557,-0.0006182706621531716,2.36411190032959,2019-06-24 13:57:05:008,0.0,0.0,0.0
0.05621914565563202,0.06785523146390915,9.740124702453613,0.0007972787798931306,5.0079656050435554e-05,-0.00021869892200539868,2.369992256164551,2019-06-24 13:57:05:014,0.0,0.0,0.0
0.032271645963191986,0.03432873636484146,9.799993515014648,-0.0023992948812147272,-0.0015482072435857358,-0.0024829386853149065,2.3749923706054688,2019-06-24 13:57:05:019,0.0,0.0,0.0
0.06819289177656174,0.036723487079143524,9.79280948638916,-0.0009341986794739918,0.00417898738969408,-0.003415272631877192,2.379117012023926,2019-06-24 13:57:05:023,0.0,0.0,0.0
0.053824394941329956,0.01996023952960968,9.780835151672363,-0.0010673892432686042,0.0040457968258994685,0.0008468256696247262,2.3850269317626953,2019-06-24 13:57:05:029,0.0,0.0,0.0
0.06100864335894585,-0.030329504981637,9.771256446838379,-0.0006678175518847673,0.0028470817517479577,-0.002882510376698743,2.3891124725341797,2019-06-24 13:57:05:033,0.0,0.0,0.0
0.05142964422702789,0.024749737232923508,9.847887992858887,-0.0012005798070632164,-8.311091993516073e-05,-0.0020833668638939066,2.3949923515319824,2019-06-24 13:57:05:039,0.0,0.0,0.0
0.07537714391946793,0.03911823779344559,9.799993515014648,-0.003598010215440563,-0.0006158732320048685,0.0007136351058301139,2.4000158309936523,2019-06-24 13:57:05:044,0.0,0.0,0.0
0.08016663789749146,0.04869723320007324,9.84549331665039,-0.002932057136393176,0.0004496513758799017,0.004309780588358971,2.4050073623657227,2019-06-24 13:57:05:049,0.0,0.0,0.0
0.06100864335894585,0.05588148534297943,9.766467094421387,0.00013132590402881037,-0.003812446958131307,-0.0016837951725100697,2.4091053009033203,2019-06-24 13:57:05:053,0.0,0.0,0.0
0.058613892644643784,0.03432873636484146,9.831125259399414,-0.0021329137536255025,-8.311091993516073e-05,-0.005679512476459926,2.414999008178711,2019-06-24 13:57:05:059,0.0,0.0,0.0
0.05621914565563202,0.036723487079143524,9.778440475463867,0.00039770705600000294,0.0009824136635676417,0.0017791596161870122,2.419114112854004,2019-06-24 13:57:05:063,0.0,0.0,0.0
0.04185064509510994,0.029539236798882484,9.78322982788086,0.0021291844178392533,0.002447510060364121,-0.0020833668638939066,2.4250144958496094,2019-06-24 13:57:05:069,0.0,0.0,0.0
0.053824394941329956,0.003196990815922618,9.799993515014648,-0.0010673892432686042,0.00031646081208528944,-0.0004850800658492686,2.4300107955932617,2019-06-24 13:57:05:074,0.0,0.0,0.0
0.053824394941329956,0.017565488815307617,9.886204719543457,-0.002266104317420115,0.0005828419721838047,0.0025783029989546857,2.4349942207336426,2019-06-24 13:57:05:079,0.0,0.0,0.0
0.07777189463376999,0.022354988381266594,9.790414810180664,-0.00199972318983089,-0.0019477789349695727,-0.002882510376698743,2.4391164779663086,2019-06-24 13:57:05:083,0.0,0.0,0.0
0.058613892644643784,0.0319339856505394,9.82154655456543,-0.0013337703708578288,-0.001681397807380348,0.002045540743776237,2.4452366828918457,2019-06-24 13:57:05:089,0.0,0.0,0.0
0.06340339034795761,0.01996023952960968,9.828730583190918,0.0005308976197946153,0.0004496513758799017,0.0001808728018877288,2.449122428894043,2019-06-24 13:57:05:093,0.0,0.0,0.0
0.06340339034795761,0.03432873636484146,9.790414810180664,-0.0023992948812147272,-0.0018145883711749606,-0.0004850800658492686,2.4549975395202637,2019-06-24 13:57:05:099,0.0,0.0,0.0
0.08495613932609558,0.01996023952960968,9.807177543640137,-0.002266104317420115,-0.0012818261159965112,-8.550835008346375e-05,2.459113121032715,2019-06-24 13:57:05:103,0.0,0.0,0.0
0.06340339034795761,-0.02314525656402111,9.749703407287598,-0.0002682458117369945,-0.0006158732320048685,-0.000884651789742396,2.4650001525878906,2019-06-24 13:57:05:109,0.0,0.0,0.0
0.04185064509510994,0.01996023952960968,9.795204162597656,0.003061518494438702,0.0016483665475592842,0.0007136351058301139,2.469106674194336,2019-06-24 13:57:05:113,0.0,0.0,0.0
0.044245395809412,0.005591740366071463,9.819151878356934,0.00039770705600000294,-0.007808164132044002,0.0023119218713654613,2.4741430282592773,2019-06-24 13:57:05:118,0.0,0.0,0.0
0.0969298854470253,0.029539236798882484,9.771256446838379,0.002262375111671028,-0.0022141601925959598,-0.0011510329173316206,2.4799928665161133,2019-06-24 13:57:05:124,0.0,0.0,0.0
0.10650888830423355,0.05588148534297943,9.843098640441895,0.00026451647595074535,0.0016483665475592842,-0.0019501763000992945,2.484990119934082,2019-06-24 13:57:05:129,0.0,0.0,0.0
0.03706114739179611,-0.00877675786614418,9.840703964233398,-0.0013337703708578288,-0.005543924287461267,-0.0015506046087154575,2.4891180992126465,2019-06-24 13:57:05:133,0.0,0.0,0.0
0.07298239320516586,0.029539236798882484,9.778440475463867,0.00292832793064409,0.00031646081208528944,0.00044725394573159877,2.4950008392333984,2019-06-24 13:57:05:139,0.0,0.0,0.0
0.05142964422702789,0.007986490614712238,9.785624504089355,0.002661946803054865,-0.0010154449233887055,-0.001816985736304682,2.4991068840026855,2019-06-24 13:57:05:143,0.0,0.0,0.0
0.044245395809412,0.01996023952960968,9.778440475463867,-0.0009341986794739918,-0.001148635552201899,0.002178731307570849,2.505000114440918,2019-06-24 13:57:05:149,0.0,0.0,0.0
0.08495613932609558,0.024749737232923508,9.802388191223145,-0.0005346269555808644,-0.0006158732320048685,-0.0019501763000992945,2.5091147422790527,2019-06-24 13:57:05:153,0.0,0.0,0.0
0.02748214825987816,0.0319339856505394,9.795204162597656,0.0005308976197946153,-0.0012818261159965112,-0.0019501763000992945,2.514115333557129,2019-06-24 13:57:05:158,0.0,0.0,0.0
0.053824394941329956,0.029539236798882484,9.809572219848633,-0.00199972318983089,-0.0012818261159965112,4.768222590213253e-05,2.5191469192504883,2019-06-24 13:57:05:163,0.0,0.0,0.0
0.07298239320516586,0.007986490614712238,9.814361572265625,0.0010636599074823549,-0.00341287526674747,0.0016459690523923998,2.524996280670166,2019-06-24 13:57:05:169,0.0,0.0,0.0
0.058613892644643784,0.03432873636484146,9.86225700378418,-0.0002682458117369945,-0.0006158732320048685,-0.0016837951725100697,2.529109001159668,2019-06-24 13:57:05:173,0.0,0.0,0.0
0.06100864335894585,0.02714448794722557,9.82154655456543,0.0021291844178392533,-0.001681397807380348,-0.0019501763000992945,2.5341434478759766,2019-06-24 13:57:05:178,0.0,0.0,0.0
0.08974564075469971,0.03432873636484146,9.773651123046875,-0.0021329137536255025,-0.0024805413201851845,0.0027114935627492983,2.5399932861328125,2019-06-24 13:57:05:184,0.0,0.0,0.0
0.06340339034795761,0.05588148534297943,9.768861770629883,0.0023955656754656406,-0.0012818261159965112,0.00031406338193698644,2.544099807739258,2019-06-24 13:57:05:188,0.0,0.0,0.0
0.04185064509510994,-0.03511900454759598,9.838309288024902,-0.0010673892432686042,-0.0007490637957994808,0.0035106372055912975,2.550001621246338,2019-06-24 13:57:05:194,0.0,0.0,0.0
0.04903489351272583,0.01996023952960968,9.80478286743164,-0.0008010081156793797,-0.0014150166797911234,-0.0014174140449208453,2.554110050201416,2019-06-24 13:57:05:198,0.0,0.0,0.0
0.022692648693919182,-0.0015925085172057152,9.811966896057129,0.0005308976197946153,5.0079656050435554e-05,0.0019123501799816246,2.5600156784057617,2019-06-24 13:57:05:204,0.0,0.0,0.0
0.08256138861179352,0.0008022411493584514,9.735335350036621,0.0013300410350715797,-0.006209877366508654,-0.0007514612259477838,2.56412410736084,2019-06-24 13:57:05:208,0.0,0.0,0.0
0.008324149996042252,0.06067098304629326,9.855072975158691,-0.00572905923615436,-0.00048268263570096557,-0.003814844323261029,2.569993019104004,2019-06-24 13:57:05:214,0.0,0.0,0.0
0.058613892644643784,0.003196990815922618,9.799993515014648,-0.0023992948812147272,0.0013819854199700597,0.002977874690338523,2.574106216430664,2019-06-24 13:57:05:218,0.0,0.0,0.0
0.07537714391946793,0.04630248621106148,9.826335906982422,-0.0012005798070632164,0.0011156042923808351,-0.0026161292491095186,2.5800228118896484,2019-06-24 13:57:05:224,0.0,0.0,0.0
0.04903489351272583,0.04869723320007324,9.82154655456543,-0.0008010081156793797,0.0017815571113538964,0.002977874690338523,2.5841102600097656,2019-06-24 13:57:05:228,0.0,0.0,0.0
0.10411413758993149,0.05588148534297943,9.790414810180664,0.0014632315988661918,-0.0050111620322828175,-0.0010178423535370084,2.589999198913574,2019-06-24 13:57:05:234,0.0,0.0,0.0
0.04185064509510994,-0.01596100628376007,9.816756248474121,-0.004130772470619012,0.001914747675148509,-0.001816985736304682,2.594109535217285,2019-06-24 13:57:05:238,0.0,0.0,0.0
0.05621914565563202,0.01277598924934864,9.759283065795898,0.002661946803054865,5.0079656050435554e-05,-0.0016837951725100697,2.599992275238037,2019-06-24 13:57:05:244,0.0,0.0,0.0
0.03706114739179611,0.029539236798882484,9.766467094421387,-0.0002682458117369945,-0.0026137318839797967,0.0015127784885977877,2.6041107177734375,2019-06-24 13:57:05:248,0.0,0.0,0.0
0.0705876424908638,0.022354988381266594,9.790414810180664,-0.005995440363743585,-0.0022141601925959598,0.0005804445420355017,2.6100053787231445,2019-06-24 13:57:05:254,0.0,0.0,0.0
0.053824394941329956,0.02714448794722557,9.811966896057129,0.001596422162660804,-0.00034949207190635323,-0.00021869892200539868,2.614109992980957,2019-06-24 13:57:05:258,0.0,0.0,0.0
0.03945589438080788,0.04151298478245735,9.759283065795898,-0.003598010215440563,-0.0006158732320048685,-0.001284223481126233,2.6199965476989746,2019-06-24 13:57:05:264,0.0,0.0,0.0
0.05142964422702789,0.01996023952960968,9.78322982788086,0.0010636599074823549,-0.002746922447774409,0.0008468256696247262,2.6241073608398438,2019-06-24 13:57:05:268,0.0,0.0,0.0
0.046640146523714066,0.029539236798882484,9.843098640441895,0.00039770705600000294,-0.0035460658305420827,-8.550835008346375e-05,2.6300015449523926,2019-06-24 13:57:05:274,0.0,0.0,0.0
0.03945589438080788,0.022354988381266594,9.814361572265625,-0.0006678175518847673,0.0028470817517479577,-0.00035188950205465634,2.6350197792053223,2019-06-24 13:57:05:279,0.0,0.0,0.0
0.04185064509510994,0.04151298478245735,9.809572219848633,-0.0030652477001877885,0.0011156042923808351,-0.005546321652590989,2.639115333557129,2019-06-24 13:57:05:283,0.0,0.0,0.0
0.06819289177656174,-0.011171507649123669,9.888599395751953,0.0010636599074823549,-0.004078828085720532,-0.0035484631956718047,2.6441102027893066,2019-06-24 13:57:05:288,0.0,0.0,0.0
0.046640146523714066,0.005591740366071463,9.89099407196045,0.003327899622027926,-0.004611590600973306,-0.000884651789742396,2.649998188018799,2019-06-24 13:57:05:294,0.0,0.0,0.0
0.09932463616132736,0.022354988381266594,9.869441032409668,-0.0030652477001877885,0.006176845846613265,-0.00035188950205465634,2.6550140380859375,2019-06-24 13:57:05:299,0.0,0.0,0.0
0.10171938687562943,0.022354988381266594,9.771256446838379,-0.002932057136393176,-0.0014150166797911234,-0.0031488915042879673,2.660013198852539,2019-06-24 13:57:05:304,0.0,0.0,0.0
0.08735089004039764,0.04630248621106148,9.797598838806152,0.0007972787798931306,-0.0018145883711749606,-0.003948034887055641,2.664109706878662,2019-06-24 13:57:05:308,0.0,0.0,0.0
0.07537714391946793,-0.013566257432103157,9.819151878356934,-0.0023992948812147272,-0.0008822543595940932,-0.004480797142234091,2.6700000762939453,2019-06-24 13:57:05:314,0.0,0.0,0.0
0.08016663789749146,0.07503948360681534,9.799993515014648,0.00039770705600000294,-0.005410733983740979,0.0028446841265439104,2.6741065979003906,2019-06-24 13:57:05:318,0.0,0.0,0.0
0.07777189463376999,0.04630248621106148,9.780835151672363,-0.0013337703708578288,0.0008492230997730292,-0.0007514612259477838,2.68001651763916,2019-06-24 13:57:05:324,0.0,0.0,0.0
0.06100864335894585,0.058276232331991196,9.84549331665039,0.0011968504712769673,-0.0022141601925959598,0.0001808728018877288,2.684112548828125,2019-06-24 13:57:05:328,0.0,0.0,0.0
0.05142964422702789,0.0319339856505394,9.759283065795898,-0.0010673892432686042,0.0005828419721838047,0.0013795879248031755,2.69000244140625,2019-06-24 13:57:05:334,0.0,0.0,0.0
0.07298239320516586,0.029539236798882484,9.790414810180664,0.00013132590402881037,0.00417898738969408,-0.0016837951725100697,2.694108486175537,2019-06-24 13:57:05:338,0.0,0.0,0.0
0.058613892644643784,0.043907735496759415,9.79280948638916,0.001995993854044641,-0.0030133035753636336,0.0024451124351600735,2.7000179290771484,2019-06-24 13:57:05:344,0.0,0.0,0.0
0.05621914565563202,0.010381239466369152,9.816756248474121,0.0005308976197946153,-0.0024805413201851845,-0.002749319812904131,2.7041125297546387,2019-06-24 13:57:05:348,0.0,0.0,0.0
0.03706114739179611,0.0008022411493584514,9.773651123046875,0.0023955656754656406,0.0013819854199700597,0.0023119218713654613,2.710000991821289,2019-06-24 13:57:05:354,0.0,0.0,0.0
0.07298239320516586,0.02714448794722557,9.766467094421387,-0.0025324854450093394,0.0004496513758799017,-0.0030157009404933556,2.7141075134277344,2019-06-24 13:57:05:358,0.0,0.0,0.0
0.03466639667749405,-0.00877675786614418,9.823941230773926,-0.003464819651645951,0.0013819854199700597,-0.004613987966103028,2.7200117111206055,2019-06-24 13:57:05:364,0.0,0.0,0.0
0.05621914565563202,0.04151298478245735,9.835914611816406,0.0035942807496171514,0.002580700624158733,-0.003814844323261029,2.724123954772949,2019-06-24 13:57:05:368,0.0,0.0,0.0
0.08495613932609558,0.04151298478245735,9.82154655456543,-0.0006678175518847673,0.0012487948561754473,0.0015127784885977877,2.729999542236328,2019-06-24 13:57:05:374,0.0,0.0,0.0
0.032271645963191986,0.029539236798882484,9.797598838806152,-0.002932057136393176,-0.0018145883711749606,-0.0035484631956718047,2.73410701751709,2019-06-24 13:57:05:378,0.0,0.0,0.0
0.032271645963191986,0.04630248621106148,9.778440475463867,-0.0025324854450093394,-0.0014150166797911234,-0.003415272631877192,2.7400121688842773,2019-06-24 13:57:05:384,0.0,0.0,0.0
0.03945589438080788,-0.013566257432103157,9.809572219848633,-0.0030652477001877885,-0.0019477789349695727,-0.0035484631956718047,2.745007038116455,2019-06-24 13:57:05:389,0.0,0.0,0.0
0.046640146523714066,-0.011171507649123669,9.831125259399414,0.0021291844178392533,0.0020479382389431214,-0.0030157009404933556,2.749113082885742,2019-06-24 13:57:05:393,0.0,0.0,0.0
0.053824394941329956,0.043907735496759415,9.816756248474121,0.0007972787798931306,-0.0008822543595940932,-0.001816985736304682,2.755000114440918,2019-06-24 13:57:05:399,0.0,0.0,0.0
0.053824394941329956,0.036723487079143524,9.814361572265625,-0.0002682458117369945,0.0004496513758799017,-0.004347606578439478,2.7591123580932617,2019-06-24 13:57:05:403,0.0,0.0,0.0
0.053824394941329956,0.005591740366071463,9.773651123046875,0.0027951373668494775,-0.0007490637957994808,0.0017791596161870122,2.765005588531494,2019-06-24 13:57:05:409,0.0,0.0,0.0
0.046640146523714066,0.01277598924934864,9.826335906982422,0.001995993854044641,0.002713891187953345,0.0009800162334193385,2.769120216369629,2019-06-24 13:57:05:413,0.0,0.0,0.0
0.07537714391946793,0.036723487079143524,9.852678298950195,0.0018628032902500288,0.0007160325359784169,0.0007136351058301139,2.774998188018799,2019-06-24 13:57:05:419,0.0,0.0,0.0
0.11848263442516327,0.005591740366071463,9.809572219848633,-0.002266104317420115,-0.002080969498764185,-0.0024829386853149065,2.779111862182617,2019-06-24 13:57:05:423,0.0,0.0,0.0
0.04903489351272583,0.003196990815922618,9.76407241821289,0.001995993854044641,0.0009824136635676417,-0.0060790839077694385,2.7849998474121094,2019-06-24 13:57:05:429,0.0,0.0,0.0
0.04185064509510994,0.022354988381266594,9.795204162597656,-0.0025324854450093394,-0.0042120186495151445,-8.550835008346375e-05,2.789116382598877,2019-06-24 13:57:05:433,0.0,0.0,0.0
0.03466639667749405,-0.013566257432103157,9.790414810180664,-0.001866532626036278,-0.00341287526674747,-0.0024829386853149065,2.7941107749938965,2019-06-24 13:57:05:438,0.0,0.0,0.0
0.0035346506629139185,0.03911823779344559,9.761677742004395,-0.0014669609346524412,0.0008492230997730292,-0.00021869892200539868,2.799990653991699,2019-06-24 13:57:05:444,0.0,0.0,0.0
0.058613892644643784,0.07264473289251328,9.766467094421387,-0.0010673892432686042,-0.002080969498764185,-0.001816985736304682,2.804103374481201,2019-06-24 13:57:05:448,0.0,0.0,0.0
0.05621914565563202,0.029539236798882484,9.838309288024902,-0.005329487284696197,-0.00394563752192592,-0.0019501763000992945,2.810089111328125,2019-06-24 13:57:05:454,0.0,0.0,0.0
0.08495613932609558,0.017565488815307617,9.831125259399414,-0.003598010215440563,-0.00341287526674747,0.003777018333180522,2.815127372741699,2019-06-24 13:57:05:459,0.0,0.0,0.0
0.03706114739179611,0.010381239466369152,9.771256446838379,-0.005862250060023297,-0.003146494139158246,-0.001816985736304682,2.8191184997558594,2019-06-24 13:57:05:463,0.0,0.0,0.0
0.08256138861179352,0.04630248621106148,9.766467094421387,-0.0005346269555808644,0.002447510060364121,-0.0024829386853149065,2.8249921798706055,2019-06-24 13:57:05:469,0.0,0.0,0.0
0.02748214825987816,0.029539236798882484,9.799993515014648,0.004393424132384824,-0.002080969498764185,-0.00035188950205465634,2.829123020172119,2019-06-24 13:57:05:473,0.0,0.0,0.0
0.11129838973283768,0.015170739032328129,9.807177543640137,0.002262375111671028,-0.001681397807380348,-0.0010178423535370084,2.8350000381469727,2019-06-24 13:57:05:479,0.0,0.0,0.0
0.058613892644643784,0.003196990815922618,9.886204719543457,-0.001866532626036278,-0.0007490637957994808,0.0013795879248031755,2.8391103744506836,2019-06-24 13:57:05:483,0.0,0.0,0.0
0.07537714391946793,0.029539236798882484,9.797598838806152,-1.8646680201139888e-06,-0.0015482072435857358,0.0035106372055912975,2.844111919403076,2019-06-24 13:57:05:488,0.0,0.0,0.0
0.05621914565563202,0.017565488815307617,9.78322982788086,-0.002266104317420115,-0.0018145883711749606,-0.0010178423535370084,2.84999942779541,2019-06-24 13:57:05:494,0.0,0.0,0.0
0.053824394941329956,0.02714448794722557,9.797598838806152,0.00292832793064409,-0.0007490637957994808,-0.0004850800658492686,2.8541297912597656,2019-06-24 13:57:05:498,0.0,0.0,0.0
0.046640146523714066,0.03432873636484146,9.82154655456543,0.0006640882160985182,-0.0018145883711749606,0.0011132067972139507,2.859999656677246,2019-06-24 13:57:05:504,0.0,0.0,0.0
0.06340339034795761,0.017565488815307617,9.728151321411133,-0.0012005798070632164,0.002713891187953345,-0.004081225450850254,2.864105701446533,2019-06-24 13:57:05:508,0.0,0.0,0.0
0.046640146523714066,0.01996023952960968,9.74251937866211,0.0025287562392602527,0.0016483665475592842,0.0015127784885977877,2.8699989318847656,2019-06-24 13:57:05:514,0.0,0.0,0.0
0.044245395809412,0.010381239466369152,9.76407241821289,0.0005308976197946153,-0.0014150166797911234,-0.001816985736304682,2.875020980834961,2019-06-24 13:57:05:519,0.0,0.0,0.0
0.07298239320516586,0.024749737232923508,9.802388191223145,0.00026451647595074535,0.0012487948561754473,-0.0016837951725100697,2.8791122436523438,2019-06-24 13:57:05:523,0.0,0.0,0.0
0.046640146523714066,0.05348673462867737,9.788020133972168,-0.002266104317420115,-0.0042120186495151445,-0.001816985736304682,2.8849949836730957,2019-06-24 13:57:05:529,0.0,0.0,0.0
0.022692648693919182,0.010381239466369152,9.83351993560791,-0.00519629698097591,-0.00034949207190635323,-0.002749319812904131,2.8891096115112305,2019-06-24 13:57:05:533,0.0,0.0,0.0
0.06100864335894585,0.03911823779344559,9.843098640441895,0.002661946803054865,-8.311091993516073e-05,0.0013795879248031755,2.8950538635253906,2019-06-24 13:57:05:539,0.0,0.0,0.0
0.044245395809412,-0.006382008083164692,9.79280948638916,-0.0012005798070632164,-0.0018145883711749606,-0.0035484631956718047,2.8991241455078125,2019-06-24 13:57:05:543,0.0,0.0,0.0
0.05621914565563202,0.01277598924934864,9.855072975158691,0.0011968504712769673,-0.0019477789349695727,-0.001284223481126233,2.9049997329711914,2019-06-24 13:57:05:549,0.0,0.0,0.0
0.029876897111535072,0.04630248621106148,9.847887992858887,0.0023955656754656406,-0.001148635552201899,0.0028446841265439104,2.9091134071350098,2019-06-24 13:57:05:553,0.0,0.0,0.0
0.08974564075469971,-0.03511900454759598,9.78322982788086,-0.0009341986794739918,-0.0014150166797911234,-0.0007514612259477838,2.9149980545043945,2019-06-24 13:57:05:559,0.0,0.0,0.0
0.07537714391946793,-0.020750505849719048,9.871835708618164,0.0009304693436877427,-0.0008822543595940932,0.005908067353894319,2.919109344482422,2019-06-24 13:57:05:563,0.0,0.0,0.0
0.02029789797961712,0.022354988381266594,9.816756248474121,-0.003731200779235175,0.0017815571113538964,0.0016459690523923998,2.9250059127807617,2019-06-24 13:57:05:569,0.0,0.0,0.0
0.053824394941329956,-0.027934754267334938,9.799993515014648,0.005192567515152499,5.0079656050435554e-05,0.0036438277693859092,2.929117202758789,2019-06-24 13:57:05:573,0.0,0.0,0.0
0.07777189463376999,0.01996023952960968,9.780835151672363,0.0007972787798931306,0.0009824136635676417,-0.0014174140449208453,2.934999465942383,2019-06-24 13:57:05:579,0.0,0.0,0.0
0.06100864335894585,0.07024998217821121,9.723361015319824,0.0009304693436877427,-0.0007490637957994808,0.001246397361008563,2.939133644104004,2019-06-24 13:57:05:583,0.0,0.0,0.0
0.053824394941329956,-0.018355756998062134,9.785624504089355,0.0009304693436877427,0.002314319496569508,0.003777018333180522,2.94500732421875,2019-06-24 13:57:05:589,0.0,0.0,0.0
0.058613892644643784,-0.0039872583001852036,9.78322982788086,0.004260233568590213,0.0005828419721838047,-0.00021869892200539868,2.949108123779297,2019-06-24 13:57:05:593,0.0,0.0,0.0
0.04903489351272583,-0.006382008083164692,9.780835151672363,-0.0009341986794739918,-0.00394563752192592,0.0017791596161870122,2.9541091918945312,2019-06-24 13:57:05:598,0.0,0.0,0.0
0.029876897111535072,0.015170739032328129,9.819151878356934,-0.0012005798070632164,-0.0010154449233887055,-0.004214416014644866,2.9600019454956055,2019-06-24 13:57:05:604,0.0,0.0,0.0
0.11369313299655914,0.007986490614712238,9.823941230773926,-0.0017333420622416655,-8.311091993516073e-05,0.0017791596161870122,2.964111328125,2019-06-24 13:57:05:608,0.0,0.0,0.0
0.05142964422702789,-0.018355756998062134,9.790414810180664,-0.0016001514984470533,-0.0008822543595940932,0.0011132067972139507,2.9691271781921387,2019-06-24 13:57:05:613,0.0,0.0,0.0
0.04185064509510994,0.024749737232923508,9.785624504089355,-0.0030652477001877885,-0.0008822543595940932,-0.003415272631877192,2.9749984741210938,2019-06-24 13:57:05:619,0.0,0.0,0.0
0.06579814106225967,0.03432873636484146,9.797598838806152,0.0010636599074823549,0.00018327023203603183,-0.002349748121520294,2.979116916656494,2019-06-24 13:57:05:623,0.0,0.0,0.0
0.07777189463376999,-0.0015925085172057152,9.807177543640137,0.0010636599074823549,-0.001148635552201899,0.003910208896975134,2.9841179847717285,2019-06-24 13:57:05:628,0.0,0.0,0.0
0.04903489351272583,0.043907735496759415,9.828730583190918,-0.005595868932434072,-0.00021630149185709568,0.0009800162334193385,2.9900083541870117,2019-06-24 13:57:05:634,0.0,0.0,0.0
0.03706114739179611,0.02714448794722557,9.819151878356934,-0.0008010081156793797,-0.0035460658305420827,-0.005413131348870701,2.994112014770508,2019-06-24 13:57:05:638,0.0,0.0,0.0
0.053824394941329956,0.043907735496759415,9.76407241821289,0.0011968504712769673,0.0012487948561754473,-0.004347606578439478,2.999997615814209,2019-06-24 13:57:05:644,0.0,0.0,0.0
0.04903489351272583,0.007986490614712238,9.749703407287598,-0.0005346269555808644,-0.0018145883711749606,-0.0006182706621531716,3.004110336303711,2019-06-24 13:57:05:648,0.0,0.0,0.0
0.032271645963191986,-0.0015925085172057152,9.816756248474121,0.001995993854044641,0.0007160325359784169,0.001246397361008563,3.0099987983703613,2019-06-24 13:57:05:654,0.0,0.0,0.0
0.05142964422702789,0.0319339856505394,9.797598838806152,-0.0026656760088039516,-0.002746922447774409,-0.003948034887055641,3.014131546020508,2019-06-24 13:57:05:658,0.0,0.0,0.0
0.04903489351272583,0.01996023952960968,9.82154655456543,0.005991710897920172,-0.0019477789349695727,-0.004081225450850254,3.019996166229248,2019-06-24 13:57:05:664,0.0,0.0,0.0
0.06340339034795761,0.0008022411493584514,9.826335906982422,0.002262375111671028,5.0079656050435554e-05,0.00031406338193698644,3.0241098403930664,2019-06-24 13:57:05:668,0.0,0.0,0.0
0.05621914565563202,-0.0039872583001852036,9.802388191223145,-0.0023992948812147272,-0.0010154449233887055,0.0013795879248031755,3.0300140380859375,2019-06-24 13:57:05:674,0.0,0.0,0.0
0.05142964422702789,0.022354988381266594,9.814361572265625,-0.00199972318983089,0.0013819854199700597,0.0009800162334193385,3.034111499786377,2019-06-24 13:57:05:678,0.0,0.0,0.0
0.07777189463376999,0.024749737232923508,9.802388191223145,0.002661946803054865,0.0009824136635676417,-8.550835008346375e-05,3.039997100830078,2019-06-24 13:57:05:684,0.0,0.0,0.0
0.022692648693919182,0.02714448794722557,9.778440475463867,0.001995993854044641,-0.0019477789349695727,-0.004347606578439478,3.0441102981567383,2019-06-24 13:57:05:688,0.0,0.0,0.0
0.05142964422702789,0.04630248621106148,9.802388191223145,-0.00013505523981505952,-0.0022141601925959598,-0.003948034887055641,3.049990177154541,2019-06-24 13:57:05:694,0.0,0.0,0.0
0.08016663789749146,0.06306573003530502,9.797598838806152,-0.00040143639178625206,-0.002746922447774409,0.003777018333180522,3.054123878479004,2019-06-24 13:57:05:698,0.0,0.0,0.0
0.07298239320516586,0.03911823779344559,9.919731140136719,0.0014632315988661918,0.002314319496569508,-0.003814844323261029,3.0600147247314453,2019-06-24 13:57:05:704,0.0,0.0,0.0
0.06340339034795761,0.0008022411493584514,9.785624504089355,-0.004263963034413624,-0.0012818261159965112,4.768222590213253e-05,3.0641088485717773,2019-06-24 13:57:05:708,0.0,0.0,0.0
0.02748214825987816,0.036723487079143524,9.859862327575684,0.0017296127264554166,-0.00048268263570096557,-0.0006182706621531716,3.070005416870117,2019-06-24 13:57:05:714,0.0,0.0,0.0
0.03466639667749405,0.03911823779344559,9.857467651367188,-0.00199972318983089,-0.00034949207190635323,-0.0010178423535370084,3.074126720428467,2019-06-24 13:57:05:718,0.0,0.0,0.0
0.029876897111535072,0.003196990815922618,9.778440475463867,0.0010636599074823549,0.0020479382389431214,-0.0011510329173316206,3.0799999237060547,2019-06-24 13:57:05:724,0.0,0.0,0.0
0.03945589438080788,0.02714448794722557,9.82154655456543,0.0010636599074823549,-0.00021630149185709568,0.0017791596161870122,3.084109306335449,2019-06-24 13:57:05:728,0.0,0.0,0.0
0.08974564075469971,0.007986490614712238,9.79280948638916,0.0023955656754656406,-0.002080969498764185,0.0009800162334193385,3.0900001525878906,2019-06-24 13:57:05:734,0.0,0.0,0.0
0.044245395809412,0.01277598924934864,9.859862327575684,0.0011968504712769673,-0.0010154449233887055,-0.0019501763000992945,3.094991683959961,2019-06-24 13:57:05:739,0.0,0.0,0.0
0.08256138861179352,0.043907735496759415,9.795204162597656,0.0006640882160985182,-0.00394563752192592,-0.002749319812904131,3.099123954772949,2019-06-24 13:57:05:743,0.0,0.0,0.0
0.08016663789749146,0.04151298478245735,9.807177543640137,-0.0005346269555808644,-0.005277543159872043,0.0023119218713654613,3.105006217956543,2019-06-24 13:57:05:749,0.0,0.0,0.0
0.07298239320516586,0.06785523146390915,9.78322982788086,-0.0008010081156793797,0.002314319496569508,0.004309780588358971,3.1091084480285645,2019-06-24 13:57:05:753,0.0,0.0,0.0
0.017903149127960205,0.03432873636484146,9.819151878356934,-0.001866532626036278,-0.004744780904693593,-0.002882510376698743,3.115056037902832,2019-06-24 13:57:05:759,0.0,0.0,0.0
0.04185064509510994,0.007986490614712238,9.811966896057129,0.004926186387563274,-0.0036792563943366953,0.003910208896975134,3.1191253662109375,2019-06-24 13:57:05:763,0.0,0.0,0.0
0.046640146523714066,0.05348673462867737,9.752098083496094,-0.0026656760088039516,0.0016483665475592842,-0.0014174140449208453,3.1249990463256836,2019-06-24 13:57:05:769,0.0,0.0,0.0
0.04903489351272583,0.022354988381266594,9.788020133972168,0.0013300410350715797,0.0012487948561754473,0.0025783029989546857,3.12910795211792,2019-06-24 13:57:05:773,0.0,0.0,0.0
0.05142964422702789,0.007986490614712238,9.8502836227417,0.003727471313411763,0.0008492230997730292,0.005108923971126645,3.1349968910217285,2019-06-24 13:57:05:779,0.0,0.0,0.0
0.07537714391946793,0.022354988381266594,9.795204162597656,-0.002798866572598564,-0.0006158732320048685,-0.0011510329173316206,3.139110565185547,2019-06-24 13:57:05:783,0.0,0.0,0.0
0.06819289177656174,0.06785523146390915,9.852678298950195,0.0013300410350715797,0.0028470817517479577,-0.004347606578439478,3.1441197395324707,2019-06-24 13:57:05:788,0.0,0.0,0.0
0.06100864335894585,-0.00877675786614418,9.83351993560791,0.0035942807496171514,-0.0007490637957994808,-0.0011510329173316206,3.150002956390381,2019-06-24 13:57:05:794,0.0,0.0,0.0
0.06100864335894585,0.0008022411493584514,9.778440475463867,-0.0017333420622416655,0.00031646081208528944,0.0024451124351600735,3.154110908508301,2019-06-24 13:57:05:798,0.0,0.0,0.0
0.07537714391946793,0.010381239466369152,9.82154655456543,-0.0017333420622416655,0.0004496513758799017,-0.00035188950205465634,3.1600213050842285,2019-06-24 13:57:05:804,0.0,0.0,0.0
0.06579814106225967,0.04151298478245735,9.797598838806152,-0.0006678175518847673,-0.0030133035753636336,0.0016459690523923998,3.1641159057617188,2019-06-24 13:57:05:808,0.0,0.0,0.0
0.04185064509510994,0.015170739032328129,9.795204162597656,0.0035942807496171514,0.0021811288027377335,0.0001808728018877288,3.1700010299682617,2019-06-24 13:57:05:814,0.0,0.0,0.0
0.06100864335894585,-0.0015925085172057152,9.826335906982422,0.0017296127264554166,0.0040457968258994685,0.0023119218713654613,3.1741113662719727,2019-06-24 13:57:05:818,0.0,0.0,0.0
0.07298239320516586,0.036723487079143524,9.778440475463867,0.0005308976197946153,0.002713891187953345,0.0024451124351600735,3.1799983978271484,2019-06-24 13:57:05:824,0.0,0.0,0.0
0.005929400213062763,0.010381239466369152,9.749703407287598,-0.0023992948812147272,-0.004078828085720532,-0.002349748121520294,3.184107780456543,2019-06-24 13:57:05:828,0.0,0.0,0.0
0.11129838973283768,0.010381239466369152,9.83351993560791,-0.0008010081156793797,-0.0007490637957994808,0.0016459690523923998,3.1900196075439453,2019-06-24 13:57:05:834,0.0,0.0,0.0
0.044245395809412,0.01996023952960968,9.78322982788086,-0.002266104317420115,-0.0023473507563905724,-0.0030157009404933556,3.1941094398498535,2019-06-24 13:57:05:838,0.0,0.0,0.0
0.09453514218330383,0.01996023952960968,9.780835151672363,0.0010636599074823549,0.001914747675148509,0.0013795879248031755,3.1999993324279785,2019-06-24 13:57:05:844,0.0,0.0,0.0
0.09453514218330383,0.010381239466369152,9.776045799255371,0.0009304693436877427,-0.0019477789349695727,-0.0014174140449208453,3.2041096687316895,2019-06-24 13:57:05:848,0.0,0.0,0.0
0.017903149127960205,0.02714448794722557,9.785624504089355,-0.004130772470619012,0.0004496513758799017,0.002178731307570849,3.2100210189819336,2019-06-24 13:57:05:854,0.0,0.0,0.0
0.06100864335894585,0.022354988381266594,9.797598838806152,0.00026451647595074535,0.0021811288027377335,-0.00021869892200539868,3.214109420776367,2019-06-24 13:57:05:858,0.0,0.0,0.0
0.07777189463376999,-0.006382008083164692,9.809572219848633,0.0007972787798931306,-0.0010154449233887055,-0.005945893604049151,3.219999313354492,2019-06-24 13:57:05:864,0.0,0.0,0.0
0.03466639667749405,0.022354988381266594,9.778440475463867,-0.004663534725797461,0.003379844006926407,0.00031406338193698644,3.2241086959838867,2019-06-24 13:57:05:868,0.0,0.0,0.0
0.07777189463376999,0.01277598924934864,9.807177543640137,-0.00013505523981505952,0.0011156042923808351,0.0016459690523923998,3.2300243377685547,2019-06-24 13:57:05:874,0.0,0.0,0.0
0.0705876424908638,0.036723487079143524,9.907756805419922,0.0025287562392602527,-8.311091993516073e-05,-0.0035484631956718047,3.234119415283203,2019-06-24 13:57:05:878,0.0,0.0,0.0
0.044245395809412,0.01277598924934864,9.80478286743164,-0.004929915853386686,0.0004496513758799017,0.001246397361008563,3.239992618560791,2019-06-24 13:57:05:884,0.0,0.0,0.0
0.06100864335894585,0.005591740366071463,9.776045799255371,-0.0006678175518847673,-0.0018145883711749606,0.002045540743776237,3.2441048622131348,2019-06-24 13:57:05:888,0.0,0.0,0.0
0.06100864335894585,0.01996023952960968,9.776045799255371,0.0021291844178392533,-0.0008822543595940932,-0.003948034887055641,3.250027656555176,2019-06-24 13:57:05:894,0.0,0.0,0.0
0.029876897111535072,0.010381239466369152,9.749703407287598,0.006258092025509397,0.001914747675148509,-0.004480797142234091,3.254129409790039,2019-06-24 13:57:05:898,0.0,0.0,0.0
0.04185064509510994,0.003196990815922618,9.799993515014648,0.0010636599074823549,0.0009824136635676417,-0.00035188950205465634,3.2600250244140625,2019-06-24 13:57:05:904,0.0,0.0,0.0
0.07298239320516586,0.01996023952960968,9.852678298950195,-0.003598010215440563,-0.0036792563943366953,0.0011132067972139507,3.2641053199768066,2019-06-24 13:57:05:908,0.0,0.0,0.0
0.053824394941329956,0.03432873636484146,9.869441032409668,0.0025287562392602527,-0.004478399777104369,0.00684040156053093,3.2699999809265137,2019-06-24 13:57:05:914,0.0,0.0,0.0
0.058613892644643784,-0.0039872583001852036,9.790414810180664,0.003727471313411763,-0.0024805413201851845,-0.003948034887055641,3.274110794067383,2019-06-24 13:57:05:918,0.0,0.0,0.0
0.05142964422702789,-0.0039872583001852036,9.83351993560791,0.0006640882160985182,-0.0015482072435857358,4.768222590213253e-05,3.279995918273926,2019-06-24 13:57:05:924,0.0,0.0,0.0
0.02748214825987816,0.003196990815922618,9.807177543640137,-0.002798866572598564,0.0056440835914348154,0.0007136351058301139,3.2841100692749023,2019-06-24 13:57:05:928,0.0,0.0,0.0
0.09453514218330383,0.005591740366071463,9.809572219848633,-0.0009341986794739918,-0.00021630149185709568,0.0024451124351600735,3.289999485015869,2019-06-24 13:57:05:934,0.0,0.0,0.0
0.06340339034795761,0.04630248621106148,9.807177543640137,0.0007972787798931306,-0.0014150166797911234,-0.0010178423535370084,3.2941102981567383,2019-06-24 13:57:05:938,0.0,0.0,0.0
