ACCELEROMETER X (m/s²),ACCELEROMETER Y (m/s²),ACCELEROMETER Z (m/s²),GYROSCOPE X (rad/s),GYROSCOPE Y (rad/s),GYROSCOPE Z (rad/s),Time since start in ms ,YYYY-MO-DD HH-MI-SS_SSS
2.015886962890625,-9.103812561035156,0.6266726989746093,0.03863947552201261,-0.029042360495586353,-0.00786562027211651,0.0,2019-06-20 16:21:39:555
2.0266607055664063,-9.078673828125,0.5895631408691406,0.03957158190354034,-0.02877604438657843,-0.008398252490132357,0.005120038986206055,2019-06-20 16:21:39:560
2.036237365722656,-9.055929260253906,0.5763952331542969,0.03943842384903638,-0.029175518550090315,-0.007332988054100662,0.009984016418457031,2019-06-20 16:21:39:565
1.9991278076171874,-9.084659240722656,0.6350522766113281,0.039837898012548265,-0.028642886332074468,-0.008398252490132357,0.015104055404663086,2019-06-20 16:21:39:570
2.033843200683594,-9.10740380859375,0.5740010681152343,0.040503688285068076,-0.030773415204137854,-0.008930884708148205,0.019968032836914062,2019-06-20 16:21:39:575
2.045814025878906,-9.066703002929687,0.6135047912597656,0.04103632050308392,-0.03170552158566559,-0.00786562027211651,0.025088071823120117,2019-06-20 16:21:39:580
2.044616943359375,-9.08825048828125,0.6099135437011719,0.04143579466659581,-0.030906573258641816,-0.008531410544636318,0.029952049255371094,2019-06-20 16:21:39:585
2.0230694580078126,-9.077476745605468,0.6254756164550781,0.04223474299361958,-0.029841308822610123,-0.009862991089675938,0.03507208824157715,2019-06-20 16:21:39:590
2.0087044677734376,-9.077476745605468,0.6446289367675782,0.04196842688461166,-0.029974466877114084,-0.010528781362195748,0.039936065673828125,2019-06-20 16:21:39:595
2.036237365722656,-9.076279663085938,0.6063222961425782,0.04156895272109977,-0.03037394104062597,-0.009862991089675938,0.04505610466003418,2019-06-20 16:21:39:600
2.045814025878906,-9.06071759033203,0.6051252136230468,0.04143579466659581,-0.030107624931618046,-0.008797726653644243,0.049920082092285156,2019-06-20 16:21:39:605
2.0410256958007813,-9.071491333007812,0.5883660583496093,0.041302636612091846,-0.029308676604594276,-0.008398252490132357,0.05504012107849121,2019-06-20 16:21:39:610
2.0434198608398435,-9.04994384765625,0.6075193786621094,0.041702110775603735,-0.02877604438657843,-0.008930884708148205,0.05990409851074219,2019-06-20 16:21:39:615
2.0398286132812498,-9.042761352539062,0.6099135437011719,0.04090316244857996,-0.028376570223066545,-0.008398252490132357,0.06502413749694824,2019-06-20 16:21:39:620
2.05898193359375,-9.057126342773437,0.5835777282714844,0.03930526579453242,-0.028376570223066545,-0.008398252490132357,0.06988811492919922,2019-06-20 16:21:39:625
2.064967346191406,-9.04994384765625,0.6422347717285156,0.039704739958044306,-0.028376570223066545,-0.00933035887166009,0.07500815391540527,2019-06-20 16:21:39:630
2.0661644287109375,-9.075082580566406,0.6362493591308593,0.03943842384903638,-0.028642886332074468,-0.00786562027211651,0.08012819290161133,2019-06-20 16:21:39:635
2.05898193359375,-9.063111755371093,0.6242785339355469,0.03943842384903638,-0.028376570223066545,-0.008131936381124433,0.0849921703338623,2019-06-20 16:21:39:640
2.072149841308594,-9.023608032226562,0.6506143493652343,0.039704739958044306,-0.028509728277570506,-0.008131936381124433,0.09011220932006836,2019-06-20 16:21:39:645
2.115244812011719,-9.043958435058594,0.6302639465332031,0.03877263357651657,-0.027178147732530883,-0.006267723618068967,0.09497618675231934,2019-06-20 16:21:39:650
2.082923583984375,-9.048746765136718,0.6374464416503907,0.038905791631020537,-0.02704498967802692,-0.0050693011275333094,0.10009598731994629,2019-06-20 16:21:39:655
2.0769381713867188,-9.058323425292969,0.5859718933105469,0.03930526579453242,-0.025846567187491266,-0.0050693011275333094,0.10496020317077637,2019-06-20 16:21:39:660
2.0673615112304686,-9.048746765136718,0.5907602233886718,0.03863947552201261,-0.025713409132987305,-0.004669826964021424,0.11008000373840332,2019-06-20 16:21:39:665
2.103273986816406,-9.035578857421875,0.5883660583496093,0.039038949685524495,-0.02544709302397938,-0.0040040366915016145,0.1149439811706543,2019-06-20 16:21:39:670
2.064967346191406,-9.06071759033203,0.5763952331542969,0.03863947552201261,-0.02611288329649919,-0.004270352800509538,0.12006402015686035,2019-06-20 16:21:39:675
2.086514831542969,-9.071491333007812,0.5548477478027344,0.03943842384903638,-0.025846567187491266,-0.002805614200965957,0.12492799758911133,2019-06-20 16:21:39:680
2.086514831542969,-9.061914672851563,0.5704098205566406,0.039837898012548265,-0.023849196369931835,-0.0020066658739421855,0.13004803657531738,2019-06-20 16:21:39:685
2.064967346191406,-9.0403671875,0.5644244079589844,0.03957158190354034,-0.023183406097412027,-0.0016071917104302999,0.13491201400756836,2019-06-20 16:21:39:690
2.0661644287109375,-9.048746765136718,0.5883660583496093,0.039704739958044306,-0.02344972220641995,-0.0004087692198946427,0.14003205299377441,2019-06-20 16:21:39:695
2.062573181152344,-9.063111755371093,0.5955485534667969,0.04143579466659581,-0.024115512478939758,-0.00014245311088671893,0.1448960304260254,2019-06-20 16:21:39:700
2.0673615112304686,-9.053535095214844,0.5943514709472656,0.04103632050308392,-0.024781302751459573,0.00012386299812120486,0.15001606941223145,2019-06-20 16:21:39:705
2.0553906860351563,-9.043958435058594,0.5895631408691406,0.04156895272109977,-0.02464814469695561,0.0005233371616330906,0.1551361083984375,2019-06-20 16:21:39:710
2.062573181152344,-9.057126342773437,0.5572419128417969,0.04183526883010769,-0.025846567187491266,-0.00027561116539068085,0.16000008583068848,2019-06-20 16:21:39:715
2.072149841308594,-9.075082580566406,0.5955485534667969,0.04223474299361958,-0.026778673569018998,0.001055969379648938,0.16512012481689453,2019-06-20 16:21:39:720
2.0697556762695313,-9.071491333007812,0.6338551940917969,0.04223474299361958,-0.025979725241995228,0.0015886015976647857,0.1699841022491455,2019-06-20 16:21:39:725
2.045814025878906,-9.072688415527344,0.6147018737792969,0.04303369132064335,-0.026379199405507113,0.0019880757611766718,0.17510414123535156,2019-06-20 16:21:39:730
2.017084045410156,-9.078673828125,0.6314610290527344,0.042501059102627504,-0.026512357460011075,0.001322285488656862,0.17996811866760254,2019-06-20 16:21:39:735
2.005113220214844,-9.06909716796875,0.6123077087402343,0.04183526883010769,-0.02771077995054673,0.0015886015976647857,0.1850881576538086,2019-06-20 16:21:39:740
2.0110986328125,-9.083462158203124,0.6374464416503907,0.042367901048123546,-0.028243412168562583,0.0019880757611766718,0.18995213508605957,2019-06-20 16:21:39:745
2.0087044677734376,-9.084659240722656,0.6302639465332031,0.04343316548415524,-0.027444463841538806,0.0009228113251449763,0.19507217407226562,2019-06-20 16:21:39:750
2.00152197265625,-9.08825048828125,0.6637822570800781,0.04263421715713147,-0.027577621896042768,-0.00027561116539068085,0.1999361515045166,2019-06-20 16:21:39:755
1.9943394775390624,-9.075082580566406,0.6170960388183594,0.04223474299361958,-0.02771077995054673,-0.0016071917104302999,0.20505619049072266,2019-06-20 16:21:39:760
1.9763832397460936,-9.101418395996093,0.5883660583496093,0.04183526883010769,-0.026512357460011075,-0.0021398239284461476,0.20992016792297363,2019-06-20 16:21:39:765
1.9847628173828125,-9.093038818359375,0.6518114318847656,0.041302636612091846,-0.02771077995054673,-0.0021398239284461476,0.2150402069091797,2019-06-20 16:21:39:770
1.9943394775390624,-9.076279663085938,0.6302639465332031,0.04103632050308392,-0.027178147732530883,-0.003205088364477843,0.21990418434143066,2019-06-20 16:21:39:775
1.9751861572265625,-9.081067993164062,0.6158989562988281,0.04196842688461166,-0.026645515514515036,-0.0040040366915016145,0.22502398490905762,2019-06-20 16:21:39:780
1.9811715698242187,-9.082265075683594,0.6147018737792969,0.04143579466659581,-0.025979725241995228,-0.005202459182037272,0.2298882007598877,2019-06-20 16:21:39:785
2.0122957153320313,-9.082265075683594,0.6099135437011719,0.04156895272109977,-0.027577621896042768,-0.005202459182037272,0.23500800132751465,2019-06-20 16:21:39:790
2.00152197265625,-9.066703002929687,0.6039281311035156,0.042101584939115616,-0.02771077995054673,-0.007599304163108585,0.2401280403137207,2019-06-20 16:21:39:795
2.0039161376953123,-9.076279663085938,0.6182931213378906,0.04143579466659581,-0.028376570223066545,-0.00786562027211651,0.24499201774597168,2019-06-20 16:21:39:800
1.9979307250976561,-9.115783386230468,0.6254756164550781,0.04156895272109977,-0.028243412168562583,-0.007998778326620472,0.25011205673217773,2019-06-20 16:21:39:805
2.002719055175781,-9.110995056152344,0.6374464416503907,0.04116947855758789,-0.02811025411405862,-0.008398252490132357,0.2549760341644287,2019-06-20 16:21:39:810
2.0146898803710935,-9.087053405761718,0.6470231018066406,0.04103632050308392,-0.026645515514515036,-0.009729833035171977,0.26009607315063477,2019-06-20 16:21:39:815
2.007507385253906,-9.077476745605468,0.6398406066894531,0.04010421412155619,-0.02624604135100315,-0.010795097471203672,0.26496005058288574,2019-06-20 16:21:39:820
2.005113220214844,-9.052338012695312,0.6123077087402343,0.039837898012548265,-0.027311305787034845,-0.010528781362195748,0.2700800895690918,2019-06-20 16:21:39:825
2.0434198608398435,-9.048746765136718,0.6338551940917969,0.04037053023056411,-0.027178147732530883,-0.010262465253187823,0.2749440670013428,2019-06-20 16:21:39:830
1.9979307250976561,-9.070294250488281,0.5859718933105469,0.040636846339572034,-0.02797709605955466,-0.010795097471203672,0.28006410598754883,2019-06-20 16:21:39:835
2.0242665405273437,-9.082265075683594,0.5919573059082031,0.041302636612091846,-0.028642886332074468,-0.010528781362195748,0.2849280834197998,2019-06-20 16:21:39:840
2.0290548706054685,-9.053535095214844,0.6577968444824218,0.04037053023056411,-0.029042360495586353,-0.010395623307691787,0.29004812240600586,2019-06-20 16:21:39:845
2.0757410888671877,-9.055929260253906,0.6589939270019531,0.03943842384903638,-0.028243412168562583,-0.009729833035171977,0.29491209983825684,2019-06-20 16:21:39:850
2.05898193359375,-9.051140930175782,0.6290668640136718,0.039837898012548265,-0.02890920244108239,-0.009197200817156128,0.3000321388244629,2019-06-20 16:21:39:855
2.0553906860351563,-9.042761352539062,0.6075193786621094,0.03997105606705223,-0.028642886332074468,-0.00933035887166009,0.30489611625671387,2019-06-20 16:21:39:860
2.0577848510742185,-9.024805114746094,0.6003368835449219,0.03930526579453242,-0.029441834659098238,-0.00933035887166009,0.3100161552429199,2019-06-20 16:21:39:865
2.0757410888671877,-9.055929260253906,0.6182931213378906,0.03863947552201261,-0.029175518550090315,-0.008531410544636318,0.315136194229126,2019-06-20 16:21:39:870
2.05898193359375,-9.072688415527344,0.6194902038574218,0.039038949685524495,-0.028509728277570506,-0.008265094435628395,0.32000017166137695,2019-06-20 16:21:39:875
2.05898193359375,-9.048746765136718,0.6206872863769531,0.038905791631020537,-0.02877604438657843,-0.0074661461086046235,0.325120210647583,2019-06-20 16:21:39:880
2.063770263671875,-9.026002197265624,0.6230814514160156,0.03877263357651657,-0.029042360495586353,-0.0070666719450927385,0.329984188079834,2019-06-20 16:21:39:885
2.07813525390625,-9.04994384765625,0.6218843688964844,0.039704739958044306,-0.028642886332074468,-0.006933513890588777,0.33510398864746094,2019-06-20 16:21:39:890
2.0901060791015627,-9.042761352539062,0.6350522766113281,0.039704739958044306,-0.027444463841538806,-0.0057350914000531186,0.339968204498291,2019-06-20 16:21:39:895
2.072149841308594,-9.045155517578126,0.6206872863769531,0.03957158190354034,-0.029308676604594276,-0.004802985018525386,0.34508800506591797,2019-06-20 16:21:39:900
2.0709527587890624,-9.037973022460937,0.6314610290527344,0.04037053023056411,-0.028376570223066545,-0.0044035108550135,0.34995198249816895,2019-06-20 16:21:39:905
2.0901060791015627,-9.047549682617188,0.5979427185058593,0.039837898012548265,-0.029175518550090315,-0.004936143073029348,0.355072021484375,2019-06-20 16:21:39:910
2.0697556762695313,-9.042761352539062,0.5859718933105469,0.04010421412155619,-0.028642886332074468,-0.0036045625279897287,0.359935998916626,2019-06-20 16:21:39:915
2.0877119140625,-9.06071759033203,0.5895631408691406,0.04090316244857996,-0.028509728277570506,-0.0013408756014223761,0.36505603790283203,2019-06-20 16:21:39:920
2.0901060791015627,-9.052338012695312,0.5632273254394531,0.040770004394076,-0.02797709605955466,-0.0006750853289025666,0.369920015335083,2019-06-20 16:21:39:925
2.1128506469726562,-9.03917010498047,0.5967456359863281,0.04023737217606015,-0.027178147732530883,0.0007896532706410145,0.37504005432128906,2019-06-20 16:21:39:930
2.0769381713867188,-9.023608032226562,0.6278697814941406,0.040503688285068076,-0.027577621896042768,0.0018549177066727097,0.37990403175354004,2019-06-20 16:21:39:935
2.060179016113281,-9.067900085449219,0.6218843688964844,0.04010421412155619,-0.02771077995054673,0.0021212338156806334,0.3850240707397461,2019-06-20 16:21:39:940
2.0757410888671877,-9.034381774902343,0.6218843688964844,0.04037053023056411,-0.027577621896042768,0.003452814360720253,0.39014410972595215,2019-06-20 16:21:39:945
2.072149841308594,-9.035578857421875,0.6398406066894531,0.040636846339572034,-0.02704498967802692,0.004784394905759872,0.3950080871582031,2019-06-20 16:21:39:950
2.0805294189453125,-9.078673828125,0.6218843688964844,0.04037053023056411,-0.026645515514515036,0.005050711014767796,0.4001281261444092,2019-06-20 16:21:39:955
2.0673615112304686,-9.079870910644532,0.6182931213378906,0.04023737217606015,-0.02531393496947542,0.005183869069271757,0.40499210357666016,2019-06-20 16:21:39:960
2.015886962890625,-9.067900085449219,0.6398406066894531,0.039837898012548265,-0.024781302751459573,0.00465123685125591,0.4101121425628662,2019-06-20 16:21:39:965
2.0122957153320313,-9.061914672851563,0.5967456359863281,0.03930526579453242,-0.025846567187491266,0.004251762687744024,0.4149761199951172,2019-06-20 16:21:39:970
1.9979307250976561,-9.070294250488281,0.6230814514160156,0.03917210774002846,-0.025846567187491266,0.0035859724152242146,0.42009615898132324,2019-06-20 16:21:39:975
1.977580322265625,-9.078673828125,0.6170960388183594,0.039704739958044306,-0.025580251078483343,0.0038522885242321388,0.4249601364135742,2019-06-20 16:21:39:980
1.9859598999023438,-9.077476745605468,0.6087164611816406,0.040636846339572034,-0.026512357460011075,0.0021212338156806334,0.4300801753997803,2019-06-20 16:21:39:985
1.9871569824218749,-9.084659240722656,0.6147018737792969,0.03997105606705223,-0.026645515514515036,0.0003901791071291287,0.43494415283203125,2019-06-20 16:21:39:990
1.9715949096679688,-9.105009643554688,0.6554026794433594,0.03863947552201261,-0.024781302751459573,-0.0005419272743986046,0.4400641918182373,2019-06-20 16:21:39:995
1.9883540649414062,-9.110995056152344,0.6218843688964844,0.03863947552201261,-0.02424867053344372,-9.295056382757028e-06,0.4449281692504883,2019-06-20 16:21:40:000
1.9979307250976561,-9.101418395996093,0.6613880920410156,0.03863947552201261,-0.025713409132987305,-0.0014740336559263382,0.45004820823669434,2019-06-20 16:21:40:005
2.005113220214844,-9.051140930175782,0.6589939270019531,0.037840527194988836,-0.02531393496947542,-0.0016071917104302999,0.4549121856689453,2019-06-20 16:21:40:010
2.0087044677734376,-9.079870910644532,0.6458260192871094,0.03677526275895714,-0.02424867053344372,-0.0008082433834065285,0.46003198623657227,2019-06-20 16:21:40:015
2.0266607055664063,-9.077476745605468,0.6051252136230468,0.03730789497697299,-0.024115512478939758,-0.0014740336559263382,0.46489620208740234,2019-06-20 16:21:40:020
2.0386315307617187,-9.058323425292969,0.6482201843261719,0.03770736914048488,-0.023050248042908065,-0.0013408756014223761,0.4700160026550293,2019-06-20 16:21:40:025
2.035040283203125,-9.066703002929687,0.6266726989746093,0.036375788595445255,-0.023183406097412027,-0.0009414014379104903,0.47513604164123535,2019-06-20 16:21:40:030
2.033843200683594,-9.06909716796875,0.6254756164550781,0.03570999832292545,-0.02251761582489222,-0.0012077175469184143,0.48000001907348633,2019-06-20 16:21:40:035
2.019478210449219,-9.064308837890625,0.5967456359863281,0.03677526275895714,-0.022251299715884295,-0.0006750853289025666,0.4851200580596924,2019-06-20 16:21:40:040
2.045814025878906,-9.072688415527344,0.6123077087402343,0.03584315637742941,-0.022251299715884295,-0.001740349764934262,0.48998403549194336,2019-06-20 16:21:40:045
2.0266607055664063,-9.076279663085938,0.6218843688964844,0.035576840268421485,-0.022384457770388257,-0.0024061400374540713,0.4951040744781494,2019-06-20 16:21:40:050
2.005113220214844,-9.096630065917969,0.6075193786621094,0.03544368221391753,-0.02198498360687637,-0.0020066658739421855,0.4999680519104004,2019-06-20 16:21:40:055
1.9895511474609375,-9.077476745605468,0.5979427185058593,0.035576840268421485,-0.02278393193390014,-0.001740349764934262,0.5050880908966064,2019-06-20 16:21:40:060
2.002719055175781,-9.085856323242187,0.5859718933105469,0.037041578867965066,-0.022917089988404103,-0.0025392980919580334,0.5099520683288574,2019-06-20 16:21:40:065
1.9979307250976561,-9.061914672851563,0.5895631408691406,0.03744105303147695,-0.02145235138886052,-0.0034714044734857666,0.5150721073150635,2019-06-20 16:21:40:070
1.9931423950195313,-9.067900085449219,0.6242785339355469,0.03730789497697299,-0.023183406097412027,-0.003071930309973881,0.5199360847473145,2019-06-20 16:21:40:075
1.9715949096679688,-9.071491333007812,0.5692127380371094,0.038240001358500725,-0.02424867053344372,-0.0037377205824936904,0.5250561237335205,2019-06-20 16:21:40:080
1.9871569824218749,-9.076279663085938,0.5859718933105469,0.038240001358500725,-0.02624604135100315,-0.004536668909517462,0.5299201011657715,2019-06-20 16:21:40:085
1.9955365600585937,-9.096630065917969,0.5991398010253907,0.03837315941300468,-0.026645515514515036,-0.0050693011275333094,0.5350401401519775,2019-06-20 16:21:40:090
1.9763832397460936,-9.094235900878907,0.5943514709472656,0.038905791631020537,-0.026778673569018998,-0.006933513890588777,0.5399041175842285,2019-06-20 16:21:40:095
1.9907482299804686,-9.06071759033203,0.5811835632324218,0.03957158190354034,-0.026379199405507113,-0.006800355836084815,0.5450241565704346,2019-06-20 16:21:40:100
1.9787774047851563,-9.065505920410157,0.5787893981933594,0.03877263357651657,-0.02691183162352296,-0.006667197781580852,0.5498881340026855,2019-06-20 16:21:40:105
1.9787774047851563,-9.065505920410157,0.5787893981933594,0.03877263357651657,-0.02691183162352296,-0.006667197781580852,0.5529601573944092,2019-06-20 16:21:40:108
2.015886962890625,-9.057126342773437,0.6565997619628906,0.03943842384903638,-0.027444463841538806,-0.008265094435628395,0.5601282119750977,2019-06-20 16:21:40:115
2.015886962890625,-9.057126342773437,0.6565997619628906,0.03943842384903638,-0.027444463841538806,-0.008265094435628395,0.5629441738128662,2019-06-20 16:21:40:118
2.0099015502929687,-9.065505920410157,0.5644244079589844,0.04090316244857996,-0.02877604438657843,-0.008797726653644243,0.5701119899749756,2019-06-20 16:21:40:125
2.0099015502929687,-9.065505920410157,0.5644244079589844,0.04090316244857996,-0.02877604438657843,-0.008797726653644243,0.5729281902313232,2019-06-20 16:21:40:128
2.0374344482421876,-9.058323425292969,0.5811835632324218,0.040770004394076,-0.0295749927136022,-0.008930884708148205,0.5800960063934326,2019-06-20 16:21:40:135
2.0374344482421876,-9.058323425292969,0.5811835632324218,0.040770004394076,-0.0295749927136022,-0.008930884708148205,0.5829122066497803,2019-06-20 16:21:40:138
2.0410256958007813,-9.046352600097656,0.6099135437011719,0.041702110775603735,-0.02797709605955466,-0.007998778326620472,0.5900800228118896,2019-06-20 16:21:40:145
2.0410256958007813,-9.046352600097656,0.6099135437011719,0.041702110775603735,-0.02797709605955466,-0.007998778326620472,0.5928959846496582,2019-06-20 16:21:40:148
2.031449035644531,-9.0595205078125,0.6446289367675782,0.040503688285068076,-0.02797709605955466,-0.008398252490132357,0.6000640392303467,2019-06-20 16:21:40:155
2.036237365722656,-9.071491333007812,0.6446289367675782,0.04023737217606015,-0.028243412168562583,-0.0070666719450927385,0.6049280166625977,2019-06-20 16:21:40:160
2.05898193359375,-9.082265075683594,0.6266726989746093,0.040636846339572034,-0.028642886332074468,-0.006800355836084815,0.6100480556488037,2019-06-20 16:21:40:165
2.0410256958007813,-9.073885498046875,0.6206872863769531,0.040503688285068076,-0.029974466877114084,-0.0070666719450927385,0.6149120330810547,2019-06-20 16:21:40:170
2.060179016113281,-9.0595205078125,0.6075193786621094,0.03943842384903638,-0.026645515514515036,-0.006134565563565005,0.6200320720672607,2019-06-20 16:21:40:175
2.0374344482421876,-9.070294250488281,0.6111106262207031,0.03943842384903638,-0.02704498967802692,-0.005468775291045195,0.6248960494995117,2019-06-20 16:21:40:180
2.0110986328125,-9.070294250488281,0.6206872863769531,0.03930526579453242,-0.029042360495586353,-0.004669826964021424,0.6300160884857178,2019-06-20 16:21:40:185
2.0254636230468748,-9.077476745605468,0.6470231018066406,0.04037053023056411,-0.028376570223066545,-0.004536668909517462,0.6351361274719238,2019-06-20 16:21:40:190
1.9931423950195313,-9.079870910644532,0.5895631408691406,0.040503688285068076,-0.026778673569018998,-0.005601933345549157,0.6400001049041748,2019-06-20 16:21:40:195
1.9739890747070312,-9.083462158203124,0.5476652526855469,0.041702110775603735,-0.02624604135100315,-0.006667197781580852,0.6451201438903809,2019-06-20 16:21:40:200
1.96321533203125,-9.085856323242187,0.5644244079589844,0.040770004394076,-0.02771077995054673,-0.006933513890588777,0.6499841213226318,2019-06-20 16:21:40:205
1.968003662109375,-9.103812561035156,0.6230814514160156,0.040770004394076,-0.028642886332074468,-0.0077324622176125485,0.6551041603088379,2019-06-20 16:21:40:210
1.9620182495117187,-9.093038818359375,0.5763952331542969,0.04223474299361958,-0.02811025411405862,-0.008797726653644243,0.6599681377410889,2019-06-20 16:21:40:215
1.9380765991210938,-9.119374633789063,0.5895631408691406,0.042367901048123546,-0.029308676604594276,-0.010129307198683862,0.6650881767272949,2019-06-20 16:21:40:220
1.9524415893554687,-9.103812561035156,0.5728039855957031,0.04290053326613939,-0.029042360495586353,-0.01066193941669971,0.6699521541595459,2019-06-20 16:21:40:225
1.9787774047851563,-9.085856323242187,0.6039281311035156,0.04263421715713147,-0.029974466877114084,-0.01212667801624329,0.675072193145752,2019-06-20 16:21:40:230
1.9727919921875,-9.073885498046875,0.5751981506347656,0.042501059102627504,-0.03037394104062597,-0.013724574670290833,0.6799361705780029,2019-06-20 16:21:40:235
1.9883540649414062,-9.06909716796875,0.5943514709472656,0.04303369132064335,-0.029974466877114084,-0.013591416615786871,0.685056209564209,2019-06-20 16:21:40:240
1.9763832397460936,-9.090644653320313,0.6087164611816406,0.04290053326613939,-0.029308676604594276,-0.014124048833802718,0.68992018699646,2019-06-20 16:21:40:245
1.9596240844726562,-9.0595205078125,0.6099135437011719,0.04223474299361958,-0.030240782986122008,-0.015322471324338376,0.6950399875640869,2019-06-20 16:21:40:250
1.9943394775390624,-9.067900085449219,0.6170960388183594,0.04263421715713147,-0.03050709909512993,-0.016387735760370073,0.699904203414917,2019-06-20 16:21:40:255
2.0087044677734376,-9.079870910644532,0.6326581115722656,0.04383263964766712,-0.03170552158566559,-0.016787209923881958,0.705024003982544,2019-06-20 16:21:40:260
2.021872375488281,-9.073885498046875,0.6314610290527344,0.04290053326613939,-0.032104995749177474,-0.016654051869377996,0.7098879814147949,2019-06-20 16:21:40:265
2.007507385253906,-9.066703002929687,0.5931543884277344,0.042367901048123546,-0.03330341823971313,-0.016387735760370073,0.715008020401001,2019-06-20 16:21:40:270
2.015886962890625,-9.067900085449219,0.6697676696777344,0.04196842688461166,-0.032903944076201244,-0.016520893814874035,0.720128059387207,2019-06-20 16:21:40:275
2.0230694580078126,-9.055929260253906,0.6829355773925782,0.042101584939115616,-0.03250446991268936,-0.015988261596858185,0.724992036819458,2019-06-20 16:21:40:280
2.0422227783203124,-9.058323425292969,0.6494172668457031,0.04156895272109977,-0.03223815380368144,-0.016121419651362146,0.7301120758056641,2019-06-20 16:21:40:285
2.0613760986328122,-9.06071759033203,0.5740010681152343,0.04156895272109977,-0.031306047422153704,-0.01625457770586611,0.734976053237915,2019-06-20 16:21:40:290
2.072149841308594,-9.034381774902343,0.6147018737792969,0.04143579466659581,-0.03117288936764974,-0.0155887874333463,0.7400960922241211,2019-06-20 16:21:40:295
2.0841206665039063,-9.065505920410157,0.6637822570800781,0.04090316244857996,-0.031306047422153704,-0.015189313269834415,0.7449600696563721,2019-06-20 16:21:40:300
2.0901060791015627,-9.055929260253906,0.6302639465332031,0.040636846339572034,-0.03037394104062597,-0.014390364942810641,0.7500801086425781,2019-06-20 16:21:40:305
2.0685585937499997,-9.065505920410157,0.6925122375488281,0.03997105606705223,-0.029974466877114084,-0.013990890779298756,0.7549440860748291,2019-06-20 16:21:40:310
2.082923583984375,-9.046352600097656,0.6793443298339844,0.03930526579453242,-0.03050709909512993,-0.01345825856128291,0.7600641250610352,2019-06-20 16:21:40:315
2.0853177490234374,-9.048746765136718,0.6099135437011719,0.038905791631020537,-0.029308676604594276,-0.012792468288763102,0.7649281024932861,2019-06-20 16:21:40:320
2.0793323364257814,-9.041564270019531,0.6158989562988281,0.03850631746750865,-0.028376570223066545,-0.01212667801624329,0.7700481414794922,2019-06-20 16:21:40:325
2.0673615112304686,-9.033184692382813,0.5883660583496093,0.038240001358500725,-0.026778673569018998,-0.011594045798227443,0.7749121189117432,2019-06-20 16:21:40:330
2.0853177490234374,-9.037973022460937,0.6290668640136718,0.038240001358500725,-0.026778673569018998,-0.010262465253187823,0.7800321578979492,2019-06-20 16:21:40:335
2.082923583984375,-9.046352600097656,0.5883660583496093,0.03863947552201261,-0.02624604135100315,-0.009596674980668015,0.7848961353302002,2019-06-20 16:21:40:340
2.092500244140625,-9.067900085449219,0.6158989562988281,0.03850631746750865,-0.02624604135100315,-0.009197200817156128,0.7900161743164062,2019-06-20 16:21:40:345
2.0817265014648436,-9.0595205078125,0.6051252136230468,0.03863947552201261,-0.02691183162352296,-0.008398252490132357,0.7951362133026123,2019-06-20 16:21:40:350
2.0877119140625,-9.036775939941405,0.6123077087402343,0.03957158190354034,-0.025180776914971458,-0.0071998299995967,0.8000001907348633,2019-06-20 16:21:40:355
2.0913031616210938,-9.066703002929687,0.6374464416503907,0.039038949685524495,-0.02544709302397938,-0.00653403972707689,0.8051199913024902,2019-06-20 16:21:40:360
2.102076904296875,-9.04994384765625,0.6446289367675782,0.03810684330399676,-0.025047618860467497,-0.0038708786369976524,0.8099842071533203,2019-06-20 16:21:40:365
2.1092593994140625,-9.057126342773437,0.6278697814941406,0.038905791631020537,-0.024914460805963535,-0.0033382464189818046,0.8151040077209473,2019-06-20 16:21:40:370
2.0769381713867188,-9.028396362304687,0.6182931213378906,0.03810684330399676,-0.022251299715884295,-0.002938772255469919,0.8199679851531982,2019-06-20 16:21:40:375
2.07813525390625,-9.03198760986328,0.6410376892089844,0.0369084208134611,-0.022384457770388257,-0.0022729819829501096,0.8250880241394043,2019-06-20 16:21:40:380
2.0697556762695313,-9.053535095214844,0.6577968444824218,0.03664210470445318,-0.020919719170844675,-0.0009414014379104903,0.8299520015716553,2019-06-20 16:21:40:385
2.060179016113281,-9.042761352539062,0.6123077087402343,0.03597631443193337,-0.02065340306183675,0.0003901791071291287,0.8350720405578613,2019-06-20 16:21:40:390
2.035040283203125,-9.0403671875,0.6290668640136718,0.03504420805040564,-0.02038708695282883,-0.00014245311088671893,0.8399360179901123,2019-06-20 16:21:40:395
2.0434198608398435,-9.043958435058594,0.6422347717285156,0.03544368221391753,-0.019321822516797132,-0.00027561116539068085,0.8450560569763184,2019-06-20 16:21:40:400
2.0517994384765625,-9.067900085449219,0.6230814514160156,0.034777891941397715,-0.019721296680309017,-9.295056382757028e-06,0.8499200344085693,2019-06-20 16:21:40:405
2.0122957153320313,-9.066703002929687,0.5847748107910156,0.03504420805040564,-0.017457609753741665,0.0005233371616330906,0.8550400733947754,2019-06-20 16:21:40:410
2.0242665405273437,-9.073885498046875,0.5847748107910156,0.03491104999590168,-0.016658661426717895,0.0002570210526251668,0.8599040508270264,2019-06-20 16:21:40:415
1.9991278076171874,-9.08825048828125,0.5704098205566406,0.03451157583238979,-0.017590767808245627,-0.0006750853289025666,0.8650240898132324,2019-06-20 16:21:40:420
1.9859598999023438,-9.102615478515625,0.5560448303222656,0.03531052415941356,-0.01705813559022978,-0.0008082433834065285,0.8698880672454834,2019-06-20 16:21:40:425
2.019478210449219,-9.100221313476561,0.5883660583496093,0.034777891941397715,-0.01705813559022978,-0.0020066658739421855,0.8750081062316895,2019-06-20 16:21:40:430
2.0266607055664063,-9.093038818359375,0.6027310485839844,0.03464473388689375,-0.016658661426717895,-0.0025392980919580334,0.8801281452178955,2019-06-20 16:21:40:435
1.9979307250976561,-9.094235900878907,0.5943514709472656,0.03397894361437394,-0.01625918726320601,-0.0033382464189818046,0.8849921226501465,2019-06-20 16:21:40:440
1.9751861572265625,-9.08825048828125,0.6170960388183594,0.03451157583238979,-0.016126029208702045,-0.0034714044734857666,0.8901121616363525,2019-06-20 16:21:40:445
1.9835657348632811,-9.077476745605468,0.6015339660644531,0.033712627505366015,-0.015593396990686199,-0.0044035108550135,0.8949761390686035,2019-06-20 16:21:40:450
1.9739890747070312,-9.06071759033203,0.6051252136230468,0.0351773661049096,-0.015193922827174314,-0.004669826964021424,0.9000961780548096,2019-06-20 16:21:40:455
2.02067529296875,-9.079870910644532,0.6111106262207031,0.0351773661049096,-0.013729184227630732,-0.004669826964021424,0.9049601554870605,2019-06-20 16:21:40:460
2.030251953125,-9.070294250488281,0.5799864807128906,0.03384578555986998,-0.014394974500150544,-0.005335617236541234,0.9100801944732666,2019-06-20 16:21:40:465
2.00152197265625,-9.066703002929687,0.5955485534667969,0.03531052415941356,-0.01572655504519016,-0.005868249454557082,0.9149441719055176,2019-06-20 16:21:40:470
2.0134927978515624,-9.048746765136718,0.6123077087402343,0.03584315637742941,-0.015193922827174314,-0.005335617236541234,0.9200642108917236,2019-06-20 16:21:40:475
2.0326461181640623,-9.06071759033203,0.5536506652832031,0.03570999832292545,-0.015460238936182237,-0.005601933345549157,0.9249281883239746,2019-06-20 16:21:40:480
2.021872375488281,-9.108600891113282,0.5680156555175782,0.03584315637742941,-0.014661290609158467,-0.006001407509061044,0.9300479888916016,2019-06-20 16:21:40:485
2.0110986328125,-9.101418395996093,0.5859718933105469,0.0351773661049096,-0.016126029208702045,-0.005601933345549157,0.9349122047424316,2019-06-20 16:21:40:490
2.0290548706054685,-9.066703002929687,0.6015339660644531,0.03584315637742941,-0.017191293644733742,-0.005202459182037272,0.9400320053100586,2019-06-20 16:21:40:495
2.0134927978515624,-9.0978271484375,0.5919573059082031,0.03610947248643733,-0.01625918726320601,-0.0050693011275333094,0.9448959827423096,2019-06-20 16:21:40:500
2.0254636230468748,-9.084659240722656,0.6075193786621094,0.035576840268421485,-0.016525503372213934,-0.0044035108550135,0.9500160217285156,2019-06-20 16:21:40:505
2.0099015502929687,-9.072688415527344,0.6075193786621094,0.03610947248643733,-0.016791819481221857,-0.004936143073029348,0.9551360607147217,2019-06-20 16:21:40:510
2.0254636230468748,-9.082265075683594,0.5931543884277344,0.037041578867965066,-0.017990241971757512,-0.005868249454557082,0.9600000381469727,2019-06-20 16:21:40:515
2.0182811279296873,-9.081067993164062,0.6266726989746093,0.03770736914048488,-0.018656032244277324,-0.006134565563565005,0.9651200771331787,2019-06-20 16:21:40:520
2.0099015502929687,-9.075082580566406,0.6206872863769531,0.03877263357651657,-0.019721296680309017,-0.006001407509061044,0.9699840545654297,2019-06-20 16:21:40:525
1.9931423950195313,-9.072688415527344,0.6003368835449219,0.038905791631020537,-0.02198498360687637,-0.005202459182037272,0.9751040935516357,2019-06-20 16:21:40:530
2.006310302734375,-9.052338012695312,0.6003368835449219,0.03957158190354034,-0.02278393193390014,-0.005202459182037272,0.9799680709838867,2019-06-20 16:21:40:535
2.019478210449219,-9.085856323242187,0.5943514709472656,0.039837898012548265,-0.023716038315427873,-0.005601933345549157,0.9850881099700928,2019-06-20 16:21:40:540
2.0134927978515624,-9.08825048828125,0.6075193786621094,0.040770004394076,-0.023316564151915988,-0.005601933345549157,0.9899520874023438,2019-06-20 16:21:40:545
1.996733642578125,-9.079870910644532,0.5907602233886718,0.04090316244857996,-0.02531393496947542,-0.005202459182037272,0.9950721263885498,2019-06-20 16:21:40:550
1.9943394775390624,-9.076279663085938,0.5740010681152343,0.04303369132064335,-0.026778673569018998,-0.005202459182037272,0.9999361038208008,2019-06-20 16:21:40:555
1.9943394775390624,-9.06909716796875,0.5979427185058593,0.04369948159316316,-0.029175518550090315,-0.004936143073029348,1.0050561428070068,2019-06-20 16:21:40:560
2.0254636230468748,-9.072688415527344,0.6326581115722656,0.04343316548415524,-0.028376570223066545,-0.005202459182037272,1.0099201202392578,2019-06-20 16:21:40:565
2.015886962890625,-9.066703002929687,0.6518114318847656,0.04369948159316316,-0.02877604438657843,-0.004936143073029348,1.0150401592254639,2019-06-20 16:21:40:570
2.0386315307617187,-9.065505920410157,0.6063222961425782,0.044098955756675044,-0.029308676604594276,-0.004936143073029348,1.0199041366577148,2019-06-20 16:21:40:575
2.0230694580078126,-9.070294250488281,0.6302639465332031,0.04436527186568297,-0.029974466877114084,-0.004802985018525386,1.025024175643921,2019-06-20 16:21:40:580
2.02067529296875,-9.067900085449219,0.6075193786621094,0.04436527186568297,-0.029441834659098238,-0.0036045625279897287,1.030144214630127,2019-06-20 16:21:40:585
2.0039161376953123,-9.061914672851563,0.6015339660644531,0.044764746029194856,-0.030107624931618046,-0.0034714044734857666,1.035008192062378,2019-06-20 16:21:40:590
1.9871569824218749,-9.054732177734374,0.6206872863769531,0.044764746029194856,-0.03117288936764974,-0.004669826964021424,1.0401279926300049,2019-06-20 16:21:40:595
2.019478210449219,-9.018819702148438,0.6051252136230468,0.04543053630171467,-0.032770786021697286,-0.0037377205824936904,1.044992208480835,2019-06-20 16:21:40:600
2.021872375488281,-9.043958435058594,0.6158989562988281,0.04503106213820278,-0.0341023665667369,-0.002938772255469919,1.050112009048462,2019-06-20 16:21:40:605
2.015886962890625,-9.054732177734374,0.6182931213378906,0.04489790408369882,-0.03370289240322502,-0.003205088364477843,1.054975986480713,2019-06-20 16:21:40:610
2.0110986328125,-9.082265075683594,0.6099135437011719,0.04583001046522655,-0.03383605045772898,-0.002672456146461995,1.060096025466919,2019-06-20 16:21:40:615
1.9943394775390624,-9.043958435058594,0.6242785339355469,0.04569685241072259,-0.034768156839256714,-0.002938772255469919,1.06496000289917,2019-06-20 16:21:40:620
2.019478210449219,-9.03917010498047,0.6338551940917969,0.045563694356218626,-0.035034475028859244,-0.0025392980919580334,1.070080041885376,2019-06-20 16:21:40:625
2.031449035644531,-9.041564270019531,0.5847748107910156,0.04543053630171467,-0.034768156839256714,-0.0018735078194382236,1.074944019317627,2019-06-20 16:21:40:630
2.0326461181640623,-9.048746765136718,0.5668185729980468,0.04569685241072259,-0.03609973946489094,-0.0014740336559263382,1.080064058303833,2019-06-20 16:21:40:635
2.035040283203125,-9.045155517578126,0.5979427185058593,0.04622948462873844,-0.0351676330833632,-0.0006750853289025666,1.084928035736084,2019-06-20 16:21:40:640
2.044616943359375,-9.065505920410157,0.6494172668457031,0.045963168519730514,-0.034768156839256714,0.0011891274341529002,1.09004807472229,2019-06-20 16:21:40:645
2.062573181152344,-9.065505920410157,0.6589939270019531,0.04569685241072259,-0.034768156839256714,0.001055969379648938,1.094912052154541,2019-06-20 16:21:40:650
2.0697556762695313,-9.064308837890625,0.6206872863769531,0.0446315879746909,-0.034768156839256714,0.0003901791071291287,1.100032091140747,2019-06-20 16:21:40:655
2.0410256958007813,-9.087053405761718,0.6458260192871094,0.044764746029194856,-0.033569734348721056,0.0015886015976647857,1.104896068572998,2019-06-20 16:21:40:660
2.0697556762695313,-9.04994384765625,0.6266726989746093,0.043965797702171086,-0.03383605045772898,0.0007896532706410145,1.110016107559204,2019-06-20 16:21:40:665
2.017084045410156,-9.064308837890625,0.6218843688964844,0.04343316548415524,-0.03490131489376067,0.001322285488656862,1.1151361465454102,2019-06-20 16:21:40:670
1.9787774047851563,-9.06909716796875,0.6123077087402343,0.04423211381117901,-0.032903944076201244,0.001322285488656862,1.1200001239776611,2019-06-20 16:21:40:675
1.9907482299804686,-9.075082580566406,0.6290668640136718,0.04383263964766712,-0.03370289240322502,0.0009228113251449763,1.1251201629638672,2019-06-20 16:21:40:680
1.9560328369140625,-9.070294250488281,0.6506143493652343,0.04343316548415524,-0.03383605045772898,0.0002570210526251668,1.1299841403961182,2019-06-20 16:21:40:685
1.9656094970703124,-9.06071759033203,0.6266726989746093,0.04369948159316316,-0.033969208512232944,0.0005233371616330906,1.1351041793823242,2019-06-20 16:21:40:690
1.9644124145507813,-9.073885498046875,0.6027310485839844,0.04369948159316316,-0.03570026530137905,-9.295056382757028e-06,1.1399681568145752,2019-06-20 16:21:40:695
1.9859598999023438,-9.051140930175782,0.6206872863769531,0.04383263964766712,-0.034768156839256714,-0.00027561116539068085,1.1450881958007812,2019-06-20 16:21:40:700
1.9955365600585937,-9.0595205078125,0.6206872863769531,0.043300007429651274,-0.033969208512232944,-9.295056382757028e-06,1.1499521732330322,2019-06-20 16:21:40:705
2.0039161376953123,-9.075082580566406,0.6230814514160156,0.042367901048123546,-0.03383605045772898,-0.0010745594924144524,1.1550722122192383,2019-06-20 16:21:40:710
2.006310302734375,-9.085856323242187,0.6326581115722656,0.04196842688461166,-0.03383605045772898,-0.0012077175469184143,1.1599361896514893,2019-06-20 16:21:40:715
1.9859598999023438,-9.102615478515625,0.6350522766113281,0.04223474299361958,-0.03383605045772898,-0.0009414014379104903,1.1650559902191162,2019-06-20 16:21:40:720
1.9751861572265625,-9.095432983398437,0.6135047912597656,0.04276737521163543,-0.033569734348721056,-0.0016071917104302999,1.1699202060699463,2019-06-20 16:21:40:725
2.00152197265625,-9.094235900878907,0.6194902038574218,0.04196842688461166,-0.03330341823971313,-0.0022729819829501096,1.1750400066375732,2019-06-20 16:21:40:730
2.0266607055664063,-9.112192138671874,0.5895631408691406,0.04143579466659581,-0.034368682675744826,-0.0033382464189818046,1.1799039840698242,2019-06-20 16:21:40:735
1.9847628173828125,-9.115783386230468,0.6314610290527344,0.040636846339572034,-0.0341023665667369,-0.004270352800509538,1.1850240230560303,2019-06-20 16:21:40:740
1.98236865234375,-9.073885498046875,0.6206872863769531,0.03997105606705223,-0.03303710213070521,-0.004669826964021424,1.1898880004882812,2019-06-20 16:21:40:745
1.9871569824218749,-9.094235900878907,0.6182931213378906,0.03997105606705223,-0.032104995749177474,-0.0057350914000531186,1.1950080394744873,2019-06-20 16:21:40:750
2.0003248901367185,-9.094235900878907,0.6218843688964844,0.039837898012548265,-0.03157236353116163,-0.00653403972707689,1.2001280784606934,2019-06-20 16:21:40:755
1.9787774047851563,-9.08825048828125,0.6003368835449219,0.03997105606705223,-0.03143920547665766,-0.007332988054100662,1.2049920558929443,2019-06-20 16:21:40:760
1.9751861572265625,-9.06909716796875,0.6266726989746093,0.038905791631020537,-0.032104995749177474,-0.008398252490132357,1.2101120948791504,2019-06-20 16:21:40:765
1.9608211669921876,-9.083462158203124,0.6350522766113281,0.03837315941300468,-0.030640257149633893,-0.008398252490132357,1.2149760723114014,2019-06-20 16:21:40:770
2.002719055175781,-9.100221313476561,0.6422347717285156,0.03877263357651657,-0.03117288936764974,-0.008664568599140282,1.2200961112976074,2019-06-20 16:21:40:775
2.0146898803710935,-9.082265075683594,0.6003368835449219,0.03877263357651657,-0.03117288936764974,-0.009197200817156128,1.2249600887298584,2019-06-20 16:21:40:780
2.0146898803710935,-9.084659240722656,0.6027310485839844,0.03930526579453242,-0.02970815076810616,-0.008797726653644243,1.2300801277160645,2019-06-20 16:21:40:785
2.005113220214844,-9.079870910644532,0.6230814514160156,0.03837315941300468,-0.028509728277570506,-0.010528781362195748,1.2349441051483154,2019-06-20 16:21:40:790
2.002719055175781,-9.078673828125,0.6039281311035156,0.039038949685524495,-0.029042360495586353,-0.010528781362195748,1.2400641441345215,2019-06-20 16:21:40:795
1.9835657348632811,-9.077476745605468,0.6027310485839844,0.038905791631020537,-0.02784393800505069,-0.010528781362195748,1.2449281215667725,2019-06-20 16:21:40:800
2.0290548706054685,-9.055929260253906,0.6158989562988281,0.03863947552201261,-0.027577621896042768,-0.01066193941669971,1.2500481605529785,2019-06-20 16:21:40:805
2.0099015502929687,-9.075082580566406,0.6039281311035156,0.03850631746750865,-0.027444463841538806,-0.009862991089675938,1.2549121379852295,2019-06-20 16:21:40:810
2.0266607055664063,-9.070294250488281,0.6565997619628906,0.037840527194988836,-0.025580251078483343,-0.010795097471203672,1.2600321769714355,2019-06-20 16:21:40:815
2.015886962890625,-9.093038818359375,0.6242785339355469,0.038240001358500725,-0.026645515514515036,-0.010928255525707633,1.2648961544036865,2019-06-20 16:21:40:820
2.017084045410156,-9.077476745605468,0.6015339660644531,0.03744105303147695,-0.026645515514515036,-0.010262465253187823,1.2700161933898926,2019-06-20 16:21:40:825
2.0182811279296873,-9.075082580566406,0.6254756164550781,0.03744105303147695,-0.02544709302397938,-0.0099961491441799,1.2751359939575195,2019-06-20 16:21:40:830
1.9955365600585937,-9.0595205078125,0.5967456359863281,0.03877263357651657,-0.025713409132987305,-0.010262465253187823,1.2800002098083496,2019-06-20 16:21:40:835
1.9895511474609375,-9.081067993164062,0.6170960388183594,0.039704739958044306,-0.025846567187491266,-0.0099961491441799,1.2851200103759766,2019-06-20 16:21:40:840
1.9919453125,-9.071491333007812,0.6111106262207031,0.038905791631020537,-0.025713409132987305,-0.01066193941669971,1.2899839878082275,2019-06-20 16:21:40:845
2.019478210449219,-9.0595205078125,0.5835777282714844,0.038240001358500725,-0.02531393496947542,-0.011061413580211595,1.2951040267944336,2019-06-20 16:21:40:850
1.9895511474609375,-9.083462158203124,0.6015339660644531,0.03877263357651657,-0.025047618860467497,-0.010528781362195748,1.2999680042266846,2019-06-20 16:21:40:855
1.9955365600585937,-9.083462158203124,0.6350522766113281,0.038905791631020537,-0.02544709302397938,-0.010528781362195748,1.3050880432128906,2019-06-20 16:21:40:860
2.0134927978515624,-9.075082580566406,0.6326581115722656,0.039038949685524495,-0.025047618860467497,-0.01132772968921952,1.3099520206451416,2019-06-20 16:21:40:865
2.0087044677734376,-9.077476745605468,0.5931543884277344,0.03997105606705223,-0.02438182858794769,-0.010795097471203672,1.3150720596313477,2019-06-20 16:21:40:870
2.005113220214844,-9.06071759033203,0.6111106262207031,0.03930526579453242,-0.02438182858794769,-0.011194571634715558,1.3199360370635986,2019-06-20 16:21:40:875
2.0134927978515624,-9.057126342773437,0.5907602233886718,0.039704739958044306,-0.02464814469695561,-0.011993519961739328,1.3250560760498047,2019-06-20 16:21:40:880
2.0278577880859374,-9.0403671875,0.6063222961425782,0.04037053023056411,-0.024115512478939758,-0.011993519961739328,1.3299200534820557,2019-06-20 16:21:40:885
2.0266607055664063,-9.083462158203124,0.5692127380371094,0.04023737217606015,-0.023982354424435796,-0.011993519961739328,1.3350400924682617,2019-06-20 16:21:40:890
1.9991278076171874,-9.072688415527344,0.5787893981933594,0.04103632050308392,-0.023982354424435796,-0.010928255525707633,1.3399040699005127,2019-06-20 16:21:40:895
2.0146898803710935,-9.078673828125,0.6589939270019531,0.04143579466659581,-0.02451498664245165,-0.011061413580211595,1.3450241088867188,2019-06-20 16:21:40:900
2.0398286132812498,-9.076279663085938,0.6434318542480468,0.040770004394076,-0.023982354424435796,-0.010795097471203672,1.3498880863189697,2019-06-20 16:21:40:905
2.0122957153320313,-9.082265075683594,0.6338551940917969,0.04023737217606015,-0.02464814469695561,-0.010262465253187823,1.3550081253051758,2019-06-20 16:21:40:910
2.0374344482421876,-9.071491333007812,0.6338551940917969,0.04023737217606015,-0.02438182858794769,-0.010795097471203672,1.3601281642913818,2019-06-20 16:21:40:915
2.048208190917969,-9.051140930175782,0.6099135437011719,0.040503688285068076,-0.02544709302397938,-0.009729833035171977,1.3649921417236328,2019-06-20 16:21:40:920
2.0230694580078126,-9.08944757080078,0.6170960388183594,0.040770004394076,-0.025713409132987305,-0.009463516926164052,1.3701121807098389,2019-06-20 16:21:40:925
2.0099015502929687,-9.084659240722656,0.6075193786621094,0.03997105606705223,-0.02531393496947542,-0.009463516926164052,1.3749761581420898,2019-06-20 16:21:40:930
2.0254636230468748,-9.061914672851563,0.6314610290527344,0.038905791631020537,-0.02531393496947542,-0.009197200817156128,1.380096197128296,2019-06-20 16:21:40:935
1.9895511474609375,-9.072688415527344,0.6302639465332031,0.03850631746750865,-0.024781302751459573,-0.009463516926164052,1.3849601745605469,2019-06-20 16:21:40:940
2.015886962890625,-9.101418395996093,0.6589939270019531,0.03850631746750865,-0.02438182858794769,-0.009463516926164052,1.390080213546753,2019-06-20 16:21:40:945
2.0087044677734376,-9.078673828125,0.6135047912597656,0.038240001358500725,-0.024914460805963535,-0.009064042762652167,1.394944190979004,2019-06-20 16:21:40:950
2.006310302734375,-9.087053405761718,0.5907602233886718,0.03917210774002846,-0.025580251078483343,-0.008531410544636318,1.4000639915466309,2019-06-20 16:21:40:955
1.9692007446289062,-9.084659240722656,0.6314610290527344,0.03957158190354034,-0.025979725241995228,-0.0099961491441799,1.404928207397461,2019-06-20 16:21:40:960
1.9703978271484375,-9.096630065917969,0.6374464416503907,0.03917210774002846,-0.02624604135100315,-0.011061413580211595,1.410048007965088,2019-06-20 16:21:40:965
1.9644124145507813,-9.087053405761718,0.5883660583496093,0.0379736852494928,-0.026645515514515036,-0.011860361907235367,1.4149119853973389,2019-06-20 16:21:40:970
1.96321533203125,-9.103812561035156,0.6206872863769531,0.039038949685524495,-0.026512357460011075,-0.012392994125251213,1.420032024383545,2019-06-20 16:21:40:975
1.9727919921875,-9.12655712890625,0.6218843688964844,0.03930526579453242,-0.025180776914971458,-0.013058784397771025,1.424896001815796,2019-06-20 16:21:40:980
1.9608211669921876,-9.105009643554688,0.5931543884277344,0.039837898012548265,-0.02611288329649919,-0.013857732724794795,1.430016040802002,2019-06-20 16:21:40:985
1.9895511474609375,-9.085856323242187,0.5811835632324218,0.04023737217606015,-0.027311305787034845,-0.015189313269834415,1.435136079788208,2019-06-20 16:21:40:990
2.0099015502929687,-9.091841735839843,0.5847748107910156,0.040636846339572034,-0.028642886332074468,-0.014922997160826491,1.440000057220459,2019-06-20 16:21:40:995
1.9883540649414062,-9.082265075683594,0.6386435241699219,0.040636846339572034,-0.028243412168562583,-0.015988261596858185,1.445120096206665,2019-06-20 16:21:41:000
2.007507385253906,-9.058323425292969,0.6182931213378906,0.04037053023056411,-0.02771077995054673,-0.016787209923881958,1.449984073638916,2019-06-20 16:21:41:005
2.007507385253906,-9.081067993164062,0.6147018737792969,0.040503688285068076,-0.02771077995054673,-0.017453000196401766,1.455104112625122,2019-06-20 16:21:41:010
1.9955365600585937,-9.072688415527344,0.6266726989746093,0.04090316244857996,-0.027311305787034845,-0.01705352603288988,1.459968090057373,2019-06-20 16:21:41:015
1.9931423950195313,-9.077476745605468,0.5895631408691406,0.041302636612091846,-0.028376570223066545,-0.017453000196401766,1.465088129043579,2019-06-20 16:21:41:020
1.996733642578125,-9.076279663085938,0.6542055969238281,0.039837898012548265,-0.02970815076810616,-0.017985633454714916,1.46995210647583,2019-06-20 16:21:41:025
2.02067529296875,-9.085856323242187,0.6542055969238281,0.04116947855758789,-0.029042360495586353,-0.017319842141897804,1.4750721454620361,2019-06-20 16:21:41:030
2.0553906860351563,-9.072688415527344,0.6589939270019531,0.04143579466659581,-0.029308676604594276,-0.017852475400210954,1.479936122894287,2019-06-20 16:21:41:035
2.0410256958007813,-9.063111755371093,0.6565997619628906,0.04156895272109977,-0.02890920244108239,-0.017852475400210954,1.4850561618804932,2019-06-20 16:21:41:040
2.0470111083984373,-9.054732177734374,0.6314610290527344,0.04116947855758789,-0.029308676604594276,-0.016654051869377996,1.4901762008666992,2019-06-20 16:21:41:045
2.044616943359375,-9.0595205078125,0.6230814514160156,0.04090316244857996,-0.029042360495586353,-0.01692036797838592,1.4950401782989502,2019-06-20 16:21:41:050
2.0565877685546874,-9.070294250488281,0.5763952331542969,0.04116947855758789,-0.029441834659098238,-0.017186684087393843,1.4999041557312012,2019-06-20 16:21:41:055
2.0494052734375,-9.076279663085938,0.6075193786621094,0.040636846339572034,-0.02970815076810616,-0.016787209923881958,1.5050241947174072,2019-06-20 16:21:41:060
2.0494052734375,-9.04994384765625,0.6254756164550781,0.039837898012548265,-0.02970815076810616,-0.016121419651362146,1.5098881721496582,2019-06-20 16:21:41:065
2.074544006347656,-9.048746765136718,0.6051252136230468,0.040770004394076,-0.029175518550090315,-0.014922997160826491,1.5150082111358643,2019-06-20 16:21:41:070
2.086514831542969,-9.06071759033203,0.6147018737792969,0.04103632050308392,-0.02811025411405862,-0.013990890779298756,1.5201280117034912,2019-06-20 16:21:41:075
2.1056681518554687,-9.079870910644532,0.5728039855957031,0.040636846339572034,-0.02811025411405862,-0.013191942452274986,1.5249919891357422,2019-06-20 16:21:41:080
2.0960914916992186,-9.065505920410157,0.6230814514160156,0.040636846339572034,-0.02811025411405862,-0.01212667801624329,1.5301120281219482,2019-06-20 16:21:41:085
2.0841206665039063,-9.04994384765625,0.6314610290527344,0.040770004394076,-0.02890920244108239,-0.01265931023425914,1.5349760055541992,2019-06-20 16:21:41:090
2.092500244140625,-9.058323425292969,0.6135047912597656,0.04010421412155619,-0.02811025411405862,-0.011061413580211595,1.5400960445404053,2019-06-20 16:21:41:095
2.0757410888671877,-9.034381774902343,0.5680156555175782,0.040503688285068076,-0.026379199405507113,-0.0099961491441799,1.5449600219726562,2019-06-20 16:21:41:100
2.073346923828125,-9.0403671875,0.5787893981933594,0.03930526579453242,-0.026379199405507113,-0.009463516926164052,1.5500800609588623,2019-06-20 16:21:41:105
2.0948944091796875,-9.036775939941405,0.5763952331542969,0.03917210774002846,-0.02624604135100315,-0.008265094435628395,1.5549440383911133,2019-06-20 16:21:41:110
2.086514831542969,-9.0595205078125,0.6111106262207031,0.03917210774002846,-0.02611288329649919,-0.00653403972707689,1.5600640773773193,2019-06-20 16:21:41:115
2.0793323364257814,-9.051140930175782,0.6003368835449219,0.03917210774002846,-0.024115512478939758,-0.005335617236541234,1.5649280548095703,2019-06-20 16:21:41:120
2.0673615112304686,-9.06909716796875,0.6470231018066406,0.03877263357651657,-0.024115512478939758,-0.005202459182037272,1.5700480937957764,2019-06-20 16:21:41:125
2.0529965209960936,-9.023608032226562,0.6075193786621094,0.03930526579453242,-0.024115512478939758,-0.0034714044734857666,1.5749120712280273,2019-06-20 16:21:41:130
2.0565877685546874,-9.036775939941405,0.5883660583496093,0.03877263357651657,-0.025180776914971458,-0.003071930309973881,1.5800321102142334,2019-06-20 16:21:41:135
2.073346923828125,-9.051140930175782,0.6063222961425782,0.03877263357651657,-0.023050248042908065,-0.002672456146461995,1.5848960876464844,2019-06-20 16:21:41:140
2.033843200683594,-9.046352600097656,0.6290668640136718,0.03810684330399676,-0.023050248042908065,-0.0025392980919580334,1.5900161266326904,2019-06-20 16:21:41:145
2.033843200683594,-9.03917010498047,0.6051252136230468,0.037840527194988836,-0.02358288026092391,-0.0022729819829501096,1.5951361656188965,2019-06-20 16:21:41:150
2.0386315307617187,-9.067900085449219,0.6051252136230468,0.038905791631020537,-0.02344972220641995,-0.0010745594924144524,1.6000001430511475,2019-06-20 16:21:41:155
2.050602355957031,-9.075082580566406,0.6206872863769531,0.03837315941300468,-0.02278393193390014,-0.00014245311088671893,1.6051201820373535,2019-06-20 16:21:41:160
2.050602355957031,-9.071491333007812,0.6123077087402343,0.038905791631020537,-0.023183406097412027,-0.0006750853289025666,1.6099841594696045,2019-06-20 16:21:41:165
2.019478210449219,-9.082265075683594,0.5716069030761719,0.03877263357651657,-0.022917089988404103,-0.0012077175469184143,1.6151041984558105,2019-06-20 16:21:41:170
2.031449035644531,-9.099024230957031,0.5716069030761719,0.039038949685524495,-0.021585509443364483,-0.0008082433834065285,1.6199681758880615,2019-06-20 16:21:41:175
2.00152197265625,-9.079870910644532,0.6075193786621094,0.03863947552201261,-0.02265077387939618,-0.00014245311088671893,1.6250882148742676,2019-06-20 16:21:41:180
2.002719055175781,-9.0978271484375,0.5991398010253907,0.03837315941300468,-0.023050248042908065,-0.0020066658739421855,1.6299521923065186,2019-06-20 16:21:41:185
1.9835657348632811,-9.083462158203124,0.5632273254394531,0.03850631746750865,-0.022384457770388257,-0.0016071917104302999,1.6350719928741455,2019-06-20 16:21:41:190
2.0099015502929687,-9.11698046875,0.5728039855957031,0.03930526579453242,-0.023050248042908065,-0.0020066658739421855,1.6399362087249756,2019-06-20 16:21:41:195
1.9919453125,-9.093038818359375,0.5883660583496093,0.039704739958044306,-0.02344972220641995,-0.002805614200965957,1.6450560092926025,2019-06-20 16:21:41:200
1.9991278076171874,-9.071491333007812,0.6099135437011719,0.03957158190354034,-0.02265077387939618,-0.0021398239284461476,1.6499199867248535,2019-06-20 16:21:41:205
1.9847628173828125,-9.083462158203124,0.6158989562988281,0.040770004394076,-0.022917089988404103,-0.0025392980919580334,1.6550400257110596,2019-06-20 16:21:41:210
1.9895511474609375,-9.113389221191406,0.6386435241699219,0.04037053023056411,-0.02344972220641995,-0.002938772255469919,1.6599040031433105,2019-06-20 16:21:41:215
1.9524415893554687,-9.073885498046875,0.6338551940917969,0.039704739958044306,-0.022118141661380333,-0.0040040366915016145,1.6650240421295166,2019-06-20 16:21:41:220
1.9931423950195313,-9.084659240722656,0.6230814514160156,0.039837898012548265,-0.02358288026092391,-0.004802985018525386,1.6698880195617676,2019-06-20 16:21:41:225
1.9931423950195313,-9.06909716796875,0.6111106262207031,0.03997105606705223,-0.023183406097412027,-0.0044035108550135,1.6750080585479736,2019-06-20 16:21:41:230
1.9835657348632811,-9.075082580566406,0.6063222961425782,0.03957158190354034,-0.023316564151915988,-0.004270352800509538,1.6801280975341797,2019-06-20 16:21:41:235
1.9835657348632811,-9.093038818359375,0.6027310485839844,0.04023737217606015,-0.023183406097412027,-0.0057350914000531186,1.6849920749664307,2019-06-20 16:21:41:240
1.98236865234375,-9.08944757080078,0.6266726989746093,0.040636846339572034,-0.025047618860467497,-0.0064008816725729285,1.6901121139526367,2019-06-20 16:21:41:245
1.9871569824218749,-9.0978271484375,0.5883660583496093,0.04023737217606015,-0.025979725241995228,-0.005468775291045195,1.6949760913848877,2019-06-20 16:21:41:250
1.9979307250976561,-9.077476745605468,0.6350522766113281,0.04116947855758789,-0.025580251078483343,-0.00653403972707689,1.7000961303710938,2019-06-20 16:21:41:255
1.9991278076171874,-9.077476745605468,0.6613880920410156,0.04090316244857996,-0.025979725241995228,-0.0070666719450927385,1.7049601078033447,2019-06-20 16:21:41:260
1.9835657348632811,-9.094235900878907,0.6147018737792969,0.040770004394076,-0.02531393496947542,-0.0070666719450927385,1.7100801467895508,2019-06-20 16:21:41:265
1.9883540649414062,-9.075082580566406,0.6123077087402343,0.04037053023056411,-0.02531393496947542,-0.007599304163108585,1.7149441242218018,2019-06-20 16:21:41:270
2.0278577880859374,-9.06909716796875,0.6003368835449219,0.04023737217606015,-0.02611288329649919,-0.008398252490132357,1.7200641632080078,2019-06-20 16:21:41:275
2.0003248901367185,-9.065505920410157,0.6326581115722656,0.039837898012548265,-0.026379199405507113,-0.008930884708148205,1.7249281406402588,2019-06-20 16:21:41:280
1.9847628173828125,-9.045155517578126,0.6147018737792969,0.04037053023056411,-0.026645515514515036,-0.008531410544636318,1.7300481796264648,2019-06-20 16:21:41:285
1.9847628173828125,-9.083462158203124,0.6027310485839844,0.04156895272109977,-0.02691183162352296,-0.008664568599140282,1.7349121570587158,2019-06-20 16:21:41:290
1.9979307250976561,-9.077476745605468,0.6458260192871094,0.04116947855758789,-0.027444463841538806,-0.008664568599140282,1.7400321960449219,2019-06-20 16:21:41:295
1.9847628173828125,-9.083462158203124,0.5979427185058593,0.04103632050308392,-0.02784393800505069,-0.010395623307691787,1.7448961734771729,2019-06-20 16:21:41:300
1.9811715698242187,-9.075082580566406,0.6111106262207031,0.04010421412155619,-0.027444463841538806,-0.010395623307691787,1.750016212463379,2019-06-20 16:21:41:305
2.0039161376953123,-9.08825048828125,0.6099135437011719,0.040636846339572034,-0.026778673569018998,-0.01132772968921952,1.7551360130310059,2019-06-20 16:21:41:310
2.0134927978515624,-9.070294250488281,0.5955485534667969,0.04037053023056411,-0.028243412168562583,-0.01132772968921952,1.7599999904632568,2019-06-20 16:21:41:315
2.0494052734375,-9.075082580566406,0.6147018737792969,0.04023737217606015,-0.028509728277570506,-0.009862991089675938,1.765120029449463,2019-06-20 16:21:41:320
2.0374344482421876,-9.081067993164062,0.6290668640136718,0.040770004394076,-0.028243412168562583,-0.010395623307691787,1.7699840068817139,2019-06-20 16:21:41:325
2.02067529296875,-9.082265075683594,0.6266726989746093,0.040636846339572034,-0.02797709605955466,-0.011460887743723482,1.77510404586792,2019-06-20 16:21:41:330
2.0146898803710935,-9.052338012695312,0.6314610290527344,0.04090316244857996,-0.0295749927136022,-0.01066193941669971,1.779968023300171,2019-06-20 16:21:41:335
1.996733642578125,-9.073885498046875,0.6362493591308593,0.039704739958044306,-0.02877604438657843,-0.010395623307691787,1.785088062286377,2019-06-20 16:21:41:340
2.0230694580078126,-9.070294250488281,0.6314610290527344,0.03957158190354034,-0.028642886332074468,-0.010928255525707633,1.789952039718628,2019-06-20 16:21:41:345
2.0087044677734376,-9.054732177734374,0.6494172668457031,0.040503688285068076,-0.028642886332074468,-0.010528781362195748,1.795072078704834,2019-06-20 16:21:41:350
2.0254636230468748,-9.070294250488281,0.6482201843261719,0.040503688285068076,-0.02811025411405862,-0.010262465253187823,1.799936056137085,2019-06-20 16:21:41:355
2.0374344482421876,-9.087053405761718,0.6422347717285156,0.040770004394076,-0.02797709605955466,-0.0099961491441799,1.805056095123291,2019-06-20 16:21:41:360
2.0134927978515624,-9.072688415527344,0.6338551940917969,0.040770004394076,-0.027577621896042768,-0.009463516926164052,1.809920072555542,2019-06-20 16:21:41:365
1.9907482299804686,-9.065505920410157,0.6278697814941406,0.04103632050308392,-0.027444463841538806,-0.00933035887166009,1.815040111541748,2019-06-20 16:21:41:370
2.006310302734375,-9.057126342773437,0.6314610290527344,0.03957158190354034,-0.02771077995054673,-0.009729833035171977,1.819904088973999,2019-06-20 16:21:41:375
2.0374344482421876,-9.072688415527344,0.5620302429199219,0.039704739958044306,-0.02877604438657843,-0.009197200817156128,1.825024127960205,2019-06-20 16:21:41:380
2.0122957153320313,-9.081067993164062,0.5632273254394531,0.04010421412155619,-0.02811025411405862,-0.009463516926164052,1.829888105392456,2019-06-20 16:21:41:385
2.00152197265625,-9.063111755371093,0.5799864807128906,0.039704739958044306,-0.029042360495586353,-0.00933035887166009,1.835008144378662,2019-06-20 16:21:41:390
2.0230694580078126,-9.078673828125,0.5859718933105469,0.04010421412155619,-0.02970815076810616,-0.00933035887166009,1.8401281833648682,2019-06-20 16:21:41:395
2.0134927978515624,-9.052338012695312,0.6194902038574218,0.04037053023056411,-0.0295749927136022,-0.00933035887166009,1.8449921607971191,2019-06-20 16:21:41:400
2.031449035644531,-9.06071759033203,0.6685705871582031,0.040636846339572034,-0.030773415204137854,-0.008930884708148205,1.8501121997833252,2019-06-20 16:21:41:405
2.036237365722656,-9.071491333007812,0.6182931213378906,0.04103632050308392,-0.030240782986122008,-0.008930884708148205,1.8549761772155762,2019-06-20 16:21:41:410
2.036237365722656,-9.072688415527344,0.6362493591308593,0.040636846339572034,-0.030107624931618046,-0.008131936381124433,1.8600962162017822,2019-06-20 16:21:41:415
2.0003248901367185,-9.083462158203124,0.6182931213378906,0.04023737217606015,-0.029441834659098238,-0.008531410544636318,1.8649601936340332,2019-06-20 16:21:41:420
2.0110986328125,-9.079870910644532,0.5799864807128906,0.040503688285068076,-0.029042360495586353,-0.008531410544636318,1.8700799942016602,2019-06-20 16:21:41:425
2.0254636230468748,-9.053535095214844,0.5931543884277344,0.04090316244857996,-0.029308676604594276,-0.007599304163108585,1.8749442100524902,2019-06-20 16:21:41:430
2.0290548706054685,-9.070294250488281,0.5943514709472656,0.041302636612091846,-0.028642886332074468,-0.007332988054100662,1.8800640106201172,2019-06-20 16:21:41:435
2.0182811279296873,-9.067900085449219,0.6326581115722656,0.04037053023056411,-0.02811025411405862,-0.00786562027211651,1.8849279880523682,2019-06-20 16:21:41:440
2.015886962890625,-9.071491333007812,0.6482201843261719,0.04037053023056411,-0.02877604438657843,-0.008398252490132357,1.8900480270385742,2019-06-20 16:21:41:445
2.050602355957031,-9.083462158203124,0.6542055969238281,0.04090316244857996,-0.028642886332074468,-0.00786562027211651,1.8949120044708252,2019-06-20 16:21:41:450
2.0709527587890624,-9.064308837890625,0.5991398010253907,0.04090316244857996,-0.02797709605955466,-0.0070666719450927385,1.9000320434570312,2019-06-20 16:21:41:455
2.050602355957031,-9.067900085449219,0.5979427185058593,0.04090316244857996,-0.02811025411405862,-0.0071998299995967,1.9048960208892822,2019-06-20 16:21:41:460
2.0410256958007813,-9.090644653320313,0.6290668640136718,0.04103632050308392,-0.026778673569018998,-0.005868249454557082,1.9100160598754883,2019-06-20 16:21:41:465
2.048208190917969,-9.079870910644532,0.6494172668457031,0.03930526579453242,-0.025580251078483343,-0.006134565563565005,1.9151360988616943,2019-06-20 16:21:41:470
2.031449035644531,-9.06071759033203,0.6757530822753907,0.038905791631020537,-0.024914460805963535,-0.005468775291045195,1.9200000762939453,2019-06-20 16:21:41:475
2.0290548706054685,-9.054732177734374,0.6697676696777344,0.03850631746750865,-0.024781302751459573,-0.0050693011275333094,1.9251201152801514,2019-06-20 16:21:41:480
2.021872375488281,-9.070294250488281,0.6278697814941406,0.03770736914048488,-0.023716038315427873,-0.0050693011275333094,1.9299840927124023,2019-06-20 16:21:41:485
2.0110986328125,-9.06909716796875,0.6015339660644531,0.037840527194988836,-0.023183406097412027,-0.004137194746005576,1.9351041316986084,2019-06-20 16:21:41:490
2.017084045410156,-9.079870910644532,0.5524535827636718,0.03810684330399676,-0.02344972220641995,-0.0036045625279897287,1.9399681091308594,2019-06-20 16:21:41:495
2.0374344482421876,-9.064308837890625,0.5883660583496093,0.03850631746750865,-0.024115512478939758,-0.003205088364477843,1.9450881481170654,2019-06-20 16:21:41:500
2.0410256958007813,-9.072688415527344,0.5895631408691406,0.038240001358500725,-0.02451498664245165,-0.002805614200965957,1.9499521255493164,2019-06-20 16:21:41:505
2.0326461181640623,-9.047549682617188,0.6147018737792969,0.037041578867965066,-0.022917089988404103,-0.003071930309973881,1.9550721645355225,2019-06-20 16:21:41:510
2.0122957153320313,-9.0403671875,0.6051252136230468,0.037174736922469025,-0.02344972220641995,-0.003205088364477843,1.9599361419677734,2019-06-20 16:21:41:515
2.030251953125,-9.046352600097656,0.6290668640136718,0.037174736922469025,-0.02251761582489222,-0.002805614200965957,1.9650561809539795,2019-06-20 16:21:41:520
2.035040283203125,-9.061914672851563,0.6087164611816406,0.03677526275895714,-0.022384457770388257,-0.0036045625279897287,1.9699201583862305,2019-06-20 16:21:41:525
2.005113220214844,-9.084659240722656,0.5931543884277344,0.036375788595445255,-0.022251299715884295,-0.002938772255469919,1.9750401973724365,2019-06-20 16:21:41:530
2.0326461181640623,-9.103812561035156,0.6063222961425782,0.03610947248643733,-0.023050248042908065,-0.0044035108550135,1.9799041748046875,2019-06-20 16:21:41:535
1.9991278076171874,-9.105009643554688,0.6135047912597656,0.03664210470445318,-0.023183406097412027,-0.0040040366915016145,1.9850242137908936,2019-06-20 16:21:41:540
2.0182811279296873,-9.093038818359375,0.6314610290527344,0.037174736922469025,-0.022384457770388257,-0.0037377205824936904,1.9898881912231445,2019-06-20 16:21:41:545
1.9919453125,-9.083462158203124,0.6170960388183594,0.037840527194988836,-0.022917089988404103,-0.004669826964021424,1.9950079917907715,2019-06-20 16:21:41:550
1.9847628173828125,-9.078673828125,0.6123077087402343,0.03757421108598091,-0.023183406097412027,-0.005335617236541234,2.0001280307769775,2019-06-20 16:21:41:555
2.0122957153320313,-9.093038818359375,0.6027310485839844,0.03877263357651657,-0.02251761582489222,-0.005468775291045195,2.0049920082092285,2019-06-20 16:21:41:560
2.015886962890625,-9.102615478515625,0.6087164611816406,0.03957158190354034,-0.02251761582489222,-0.005335617236541234,2.0101120471954346,2019-06-20 16:21:41:565
1.996733642578125,-9.0978271484375,0.5560448303222656,0.039038949685524495,-0.023183406097412027,-0.0057350914000531186,2.0149760246276855,2019-06-20 16:21:41:570
1.9907482299804686,-9.087053405761718,0.5775923156738281,0.03863947552201261,-0.023982354424435796,-0.005868249454557082,2.0200960636138916,2019-06-20 16:21:41:575
2.002719055175781,-9.067900085449219,0.5656214904785156,0.03837315941300468,-0.023982354424435796,-0.0057350914000531186,2.0249600410461426,2019-06-20 16:21:41:580
1.9883540649414062,-9.078673828125,0.5728039855957031,0.03930526579453242,-0.02451498664245165,-0.006667197781580852,2.0300800800323486,2019-06-20 16:21:41:585
1.9835657348632811,-9.061914672851563,0.6206872863769531,0.039704739958044306,-0.02464814469695561,-0.006267723618068967,2.0349440574645996,2019-06-20 16:21:41:590
1.98236865234375,-9.071491333007812,0.5919573059082031,0.04103632050308392,-0.024914460805963535,-0.006800355836084815,2.0400640964508057,2019-06-20 16:21:41:595
1.9835657348632811,-9.072688415527344,0.6254756164550781,0.04143579466659581,-0.026645515514515036,-0.007332988054100662,2.0449280738830566,2019-06-20 16:21:41:600
1.9727919921875,-9.101418395996093,0.6206872863769531,0.04196842688461166,-0.025846567187491266,-0.006800355836084815,2.0500481128692627,2019-06-20 16:21:41:605
1.9859598999023438,-9.08944757080078,0.6458260192871094,0.04156895272109977,-0.027444463841538806,-0.0074661461086046235,2.0549120903015137,2019-06-20 16:21:41:610
1.9799744873046874,-9.071491333007812,0.6051252136230468,0.041302636612091846,-0.02797709605955466,-0.008664568599140282,2.0600321292877197,2019-06-20 16:21:41:615
1.9871569824218749,-9.070294250488281,0.5967456359863281,0.040636846339572034,-0.027311305787034845,-0.008265094435628395,2.0648961067199707,2019-06-20 16:21:41:620
1.9931423950195313,-9.082265075683594,0.6051252136230468,0.041302636612091846,-0.027311305787034845,-0.008265094435628395,2.0700161457061768,2019-06-20 16:21:41:625
1.9847628173828125,-9.063111755371093,0.5979427185058593,0.04276737521163543,-0.028509728277570506,-0.008664568599140282,2.075136184692383,2019-06-20 16:21:41:630
1.9560328369140625,-9.096630065917969,0.5799864807128906,0.042101584939115616,-0.0295749927136022,-0.00933035887166009,2.080000162124634,2019-06-20 16:21:41:635
1.9859598999023438,-9.095432983398437,0.6182931213378906,0.04263421715713147,-0.02970815076810616,-0.009596674980668015,2.08512020111084,2019-06-20 16:21:41:640
1.9847628173828125,-9.100221313476561,0.6242785339355469,0.04276737521163543,-0.030107624931618046,-0.010528781362195748,2.089984178543091,2019-06-20 16:21:41:645
1.9464561767578124,-9.078673828125,0.5740010681152343,0.04263421715713147,-0.029841308822610123,-0.010395623307691787,2.095104217529297,2019-06-20 16:21:41:650
1.9859598999023438,-9.08944757080078,0.5644244079589844,0.04276737521163543,-0.02970815076810616,-0.0099961491441799,2.099968194961548,2019-06-20 16:21:41:655
1.9871569824218749,-9.076279663085938,0.6099135437011719,0.043166849375147316,-0.03037394104062597,-0.011194571634715558,2.105087995529175,2019-06-20 16:21:41:660
2.006310302734375,-9.058323425292969,0.6182931213378906,0.04383263964766712,-0.03050709909512993,-0.011460887743723482,2.109952211380005,2019-06-20 16:21:41:665
2.0230694580078126,-9.053535095214844,0.6458260192871094,0.04343316548415524,-0.03157236353116163,-0.011993519961739328,2.115072011947632,2019-06-20 16:21:41:670
2.0134927978515624,-9.077476745605468,0.6470231018066406,0.04290053326613939,-0.032903944076201244,-0.011594045798227443,2.119935989379883,2019-06-20 16:21:41:675
2.0099015502929687,-9.067900085449219,0.6350522766113281,0.04276737521163543,-0.03370289240322502,-0.011594045798227443,2.125056028366089,2019-06-20 16:21:41:680
2.030251953125,-9.085856323242187,0.6613880920410156,0.04156895272109977,-0.032903944076201244,-0.010528781362195748,2.12992000579834,2019-06-20 16:21:41:685
2.0374344482421876,-9.070294250488281,0.6386435241699219,0.042501059102627504,-0.032770786021697286,-0.010129307198683862,2.135040044784546,2019-06-20 16:21:41:690
2.017084045410156,-9.075082580566406,0.6063222961425782,0.042367901048123546,-0.032903944076201244,-0.011061413580211595,2.139904022216797,2019-06-20 16:21:41:695
2.0099015502929687,-9.06909716796875,0.6218843688964844,0.042101584939115616,-0.03170552158566559,-0.011860361907235367,2.145024061203003,2019-06-20 16:21:41:700
2.017084045410156,-9.054732177734374,0.6338551940917969,0.041702110775603735,-0.030906573258641816,-0.010928255525707633,2.149888038635254,2019-06-20 16:21:41:705
2.0374344482421876,-9.08944757080078,0.6099135437011719,0.04156895272109977,-0.0323713118581854,-0.010928255525707633,2.15500807762146,2019-06-20 16:21:41:710
2.0039161376953123,-9.090644653320313,0.6374464416503907,0.04143579466659581,-0.03303710213070521,-0.01066193941669971,2.160128116607666,2019-06-20 16:21:41:715
2.0494052734375,-9.06909716796875,0.6362493591308593,0.041302636612091846,-0.0323713118581854,-0.010262465253187823,2.164992094039917,2019-06-20 16:21:41:720
2.019478210449219,-9.04994384765625,0.5955485534667969,0.041702110775603735,-0.03117288936764974,-0.010395623307691787,2.170112133026123,2019-06-20 16:21:41:725
2.0146898803710935,-9.072688415527344,0.6123077087402343,0.04263421715713147,-0.0323713118581854,-0.010528781362195748,2.174976110458374,2019-06-20 16:21:41:730
2.0278577880859374,-9.053535095214844,0.5919573059082031,0.04156895272109977,-0.03183867964016955,-0.0099961491441799,2.18009614944458,2019-06-20 16:21:41:735
2.0087044677734376,-9.06071759033203,0.5787893981933594,0.04103632050308392,-0.03170552158566559,-0.009197200817156128,2.184960126876831,2019-06-20 16:21:41:740
2.0410256958007813,-9.071491333007812,0.5895631408691406,0.041302636612091846,-0.03050709909512993,-0.00933035887166009,2.190080165863037,2019-06-20 16:21:41:745
2.0182811279296873,-9.095432983398437,0.6350522766113281,0.042101584939115616,-0.03117288936764974,-0.010528781362195748,2.194944143295288,2019-06-20 16:21:41:750
2.0254636230468748,-9.090644653320313,0.5979427185058593,0.040636846339572034,-0.03117288936764974,-0.009862991089675938,2.200064182281494,2019-06-20 16:21:41:755
2.02067529296875,-9.101418395996093,0.5871689758300781,0.04090316244857996,-0.03157236353116163,-0.010795097471203672,2.204928159713745,2019-06-20 16:21:41:760
2.0122957153320313,-9.073885498046875,0.5943514709472656,0.041302636612091846,-0.03157236353116163,-0.009463516926164052,2.210048198699951,2019-06-20 16:21:41:765
2.031449035644531,-9.076279663085938,0.6099135437011719,0.04023737217606015,-0.032104995749177474,-0.009463516926164052,2.214912176132202,2019-06-20 16:21:41:770
2.0182811279296873,-9.077476745605468,0.5991398010253907,0.04037053023056411,-0.030773415204137854,-0.009729833035171977,2.220032215118408,2019-06-20 16:21:41:775
2.017084045410156,-9.063111755371093,0.6266726989746093,0.04037053023056411,-0.030906573258641816,-0.009197200817156128,2.224896192550659,2019-06-20 16:21:41:780
2.0099015502929687,-9.070294250488281,0.5464681701660156,0.04103632050308392,-0.031306047422153704,-0.009463516926164052,2.230015993118286,2019-06-20 16:21:41:785
2.0087044677734376,-9.099024230957031,0.5955485534667969,0.040503688285068076,-0.029841308822610123,-0.009197200817156128,2.235136032104492,2019-06-20 16:21:41:790
2.015886962890625,-9.06909716796875,0.6242785339355469,0.04023737217606015,-0.029841308822610123,-0.009197200817156128,2.240000009536743,2019-06-20 16:21:41:795
2.0230694580078126,-9.052338012695312,0.6075193786621094,0.04037053023056411,-0.02811025411405862,-0.008531410544636318,2.245120048522949,2019-06-20 16:21:41:800
2.002719055175781,-9.051140930175782,0.6266726989746093,0.040503688285068076,-0.02811025411405862,-0.008398252490132357,2.2499840259552,2019-06-20 16:21:41:805
2.0266607055664063,-9.029593444824219,0.6123077087402343,0.039704739958044306,-0.028642886332074468,-0.00933035887166009,2.2551040649414062,2019-06-20 16:21:41:810
2.0410256958007813,-9.033184692382813,0.6434318542480468,0.039704739958044306,-0.028376570223066545,-0.009463516926164052,2.2599680423736572,2019-06-20 16:21:41:815
2.045814025878906,-9.042761352539062,0.6482201843261719,0.03917210774002846,-0.02691183162352296,-0.00786562027211651,2.2650880813598633,2019-06-20 16:21:41:820
2.0470111083984373,-9.033184692382813,0.5955485534667969,0.03863947552201261,-0.027311305787034845,-0.007599304163108585,2.2699520587921143,2019-06-20 16:21:41:825
2.015886962890625,-9.06071759033203,0.6182931213378906,0.03943842384903638,-0.029042360495586353,-0.0071998299995967,2.2750720977783203,2019-06-20 16:21:41:830
2.0494052734375,-9.06071759033203,0.6266726989746093,0.03877263357651657,-0.026778673569018998,-0.0070666719450927385,2.2799360752105713,2019-06-20 16:21:41:835
2.0553906860351563,-9.043958435058594,0.6182931213378906,0.03850631746750865,-0.02611288329649919,-0.006933513890588777,2.2850561141967773,2019-06-20 16:21:41:840
2.045814025878906,-9.066703002929687,0.6147018737792969,0.03850631746750865,-0.026512357460011075,-0.005868249454557082,2.2899200916290283,2019-06-20 16:21:41:845
2.0290548706054685,-9.063111755371093,0.6135047912597656,0.038905791631020537,-0.026379199405507113,-0.004936143073029348,2.2950401306152344,2019-06-20 16:21:41:850
2.0099015502929687,-9.0595205078125,0.6075193786621094,0.03930526579453242,-0.02544709302397938,-0.004802985018525386,2.2999041080474854,2019-06-20 16:21:41:855
2.0134927978515624,-9.071491333007812,0.6158989562988281,0.03810684330399676,-0.024914460805963535,-0.004270352800509538,2.3050241470336914,2019-06-20 16:21:41:860
2.0146898803710935,-9.077476745605468,0.5895631408691406,0.0379736852494928,-0.025580251078483343,-0.005468775291045195,2.3098881244659424,2019-06-20 16:21:41:865
2.005113220214844,-9.04994384765625,0.6051252136230468,0.03863947552201261,-0.025979725241995228,-0.0050693011275333094,2.3150081634521484,2019-06-20 16:21:41:870
2.006310302734375,-9.055929260253906,0.6075193786621094,0.03957158190354034,-0.02544709302397938,-0.005335617236541234,2.3201282024383545,2019-06-20 16:21:41:875
2.002719055175781,-9.057126342773437,0.5704098205566406,0.039837898012548265,-0.025180776914971458,-0.005202459182037272,2.3249921798706055,2019-06-20 16:21:41:880
2.015886962890625,-9.066703002929687,0.5823806457519531,0.03930526579453242,-0.025979725241995228,-0.0057350914000531186,2.3301119804382324,2019-06-20 16:21:41:885
1.9895511474609375,-9.063111755371093,0.6135047912597656,0.038905791631020537,-0.02624604135100315,-0.005601933345549157,2.3349761962890625,2019-06-20 16:21:41:890
2.015886962890625,-9.06071759033203,0.5895631408691406,0.03957158190354034,-0.02531393496947542,-0.006001407509061044,2.3400959968566895,2019-06-20 16:21:41:895
2.0290548706054685,-9.054732177734374,0.5548477478027344,0.03943842384903638,-0.02624604135100315,-0.005601933345549157,2.3449602127075195,2019-06-20 16:21:41:900
2.031449035644531,-9.046352600097656,0.5584389953613281,0.039837898012548265,-0.025846567187491266,-0.004669826964021424,2.3500800132751465,2019-06-20 16:21:41:905
2.006310302734375,-9.045155517578126,0.5560448303222656,0.04023737217606015,-0.026379199405507113,-0.005335617236541234,2.3549439907073975,2019-06-20 16:21:41:910
2.0182811279296873,-9.042761352539062,0.5991398010253907,0.03957158190354034,-0.02624604135100315,-0.004936143073029348,2.3600640296936035,2019-06-20 16:21:41:915
2.035040283203125,-9.042761352539062,0.5967456359863281,0.039704739958044306,-0.02611288329649919,-0.004669826964021424,2.3649280071258545,2019-06-20 16:21:41:920
2.035040283203125,-9.081067993164062,0.6147018737792969,0.03930526579453242,-0.025979725241995228,-0.004936143073029348,2.3700480461120605,2019-06-20 16:21:41:925
2.035040283203125,-9.077476745605468,0.6099135437011719,0.03957158190354034,-0.02464814469695561,-0.004802985018525386,2.3749120235443115,2019-06-20 16:21:41:930
2.02067529296875,-9.064308837890625,0.6206872863769531,0.03877263357651657,-0.025713409132987305,-0.005202459182037272,2.3800320625305176,2019-06-20 16:21:41:935
2.0134927978515624,-9.037973022460937,0.6194902038574218,0.039837898012548265,-0.025979725241995228,-0.0044035108550135,2.3848960399627686,2019-06-20 16:21:41:940
1.9895511474609375,-9.077476745605468,0.6254756164550781,0.04023737217606015,-0.026645515514515036,-0.0050693011275333094,2.3900160789489746,2019-06-20 16:21:41:945
2.005113220214844,-9.054732177734374,0.5847748107910156,0.04037053023056411,-0.025979725241995228,-0.004936143073029348,2.3951361179351807,2019-06-20 16:21:41:950
2.00152197265625,-9.071491333007812,0.5763952331542969,0.039837898012548265,-0.027178147732530883,-0.006134565563565005,2.4000000953674316,2019-06-20 16:21:41:955
1.9692007446289062,-9.077476745605468,0.5943514709472656,0.04090316244857996,-0.02611288329649919,-0.006001407509061044,2.4051201343536377,2019-06-20 16:21:41:960
1.9620182495117187,-9.08944757080078,0.6087164611816406,0.041702110775603735,-0.02704498967802692,-0.0064008816725729285,2.4099841117858887,2019-06-20 16:21:41:965
1.9692007446289062,-9.072688415527344,0.6027310485839844,0.04143579466659581,-0.027577621896042768,-0.006933513890588777,2.4151041507720947,2019-06-20 16:21:41:970
1.9979307250976561,-9.075082580566406,0.6266726989746093,0.03997105606705223,-0.02691183162352296,-0.008265094435628395,2.4199681282043457,2019-06-20 16:21:41:975
1.9991278076171874,-9.057126342773437,0.5644244079589844,0.04103632050308392,-0.02611288329649919,-0.007998778326620472,2.4250881671905518,2019-06-20 16:21:41:980
2.0134927978515624,-9.079870910644532,0.6266726989746093,0.04103632050308392,-0.02624604135100315,-0.0070666719450927385,2.4299521446228027,2019-06-20 16:21:41:985
2.005113220214844,-9.061914672851563,0.6458260192871094,0.040770004394076,-0.026512357460011075,-0.006800355836084815,2.435072183609009,2019-06-20 16:21:41:990
2.019478210449219,-9.066703002929687,0.6278697814941406,0.04156895272109977,-0.026512357460011075,-0.007332988054100662,2.4399361610412598,2019-06-20 16:21:41:995
2.0099015502929687,-9.087053405761718,0.6470231018066406,0.04090316244857996,-0.02704498967802692,-0.007599304163108585,2.445056200027466,2019-06-20 16:21:42:000
2.0182811279296873,-9.081067993164062,0.6362493591308593,0.040503688285068076,-0.027178147732530883,-0.00786562027211651,2.449920177459717,2019-06-20 16:21:42:005
2.0290548706054685,-9.091841735839843,0.6206872863769531,0.040636846339572034,-0.026379199405507113,-0.0077324622176125485,2.455040216445923,2019-06-20 16:21:42:010
2.021872375488281,-9.079870910644532,0.6075193786621094,0.038905791631020537,-0.025979725241995228,-0.006800355836084815,2.459904193878174,2019-06-20 16:21:42:015
2.0110986328125,-9.076279663085938,0.6182931213378906,0.039038949685524495,-0.02624604135100315,-0.007599304163108585,2.465023994445801,2019-06-20 16:21:42:020
1.996733642578125,-9.073885498046875,0.5919573059082031,0.0379736852494928,-0.025846567187491266,-0.006933513890588777,2.469888210296631,2019-06-20 16:21:42:025
2.002719055175781,-9.073885498046875,0.6099135437011719,0.03850631746750865,-0.026512357460011075,-0.0074661461086046235,2.475008010864258,2019-06-20 16:21:42:030
2.005113220214844,-9.083462158203124,0.6398406066894531,0.03930526579453242,-0.026379199405507113,-0.00786562027211651,2.480128049850464,2019-06-20 16:21:42:035
2.0003248901367185,-9.099024230957031,0.6123077087402343,0.03930526579453242,-0.026512357460011075,-0.007599304163108585,2.484992027282715,2019-06-20 16:21:42:040
1.9763832397460936,-9.099024230957031,0.6099135437011719,0.038905791631020537,-0.025580251078483343,-0.008131936381124433,2.490112066268921,2019-06-20 16:21:42:045
1.9799744873046874,-9.079870910644532,0.6266726989746093,0.039038949685524495,-0.025979725241995228,-0.00786562027211651,2.494976043701172,2019-06-20 16:21:42:050
1.9991278076171874,-9.063111755371093,0.6601910095214844,0.03930526579453242,-0.026379199405507113,-0.009197200817156128,2.500096082687378,2019-06-20 16:21:42:055
1.9931423950195313,-9.053535095214844,0.6362493591308593,0.039038949685524495,-0.026379199405507113,-0.008664568599140282,2.504960060119629,2019-06-20 16:21:42:060
2.0278577880859374,-9.079870910644532,0.6422347717285156,0.03917210774002846,-0.027178147732530883,-0.009596674980668015,2.510080099105835,2019-06-20 16:21:42:065
2.0254636230468748,-9.084659240722656,0.6410376892089844,0.039704739958044306,-0.02624604135100315,-0.0099961491441799,2.514944076538086,2019-06-20 16:21:42:070
1.9991278076171874,-9.077476745605468,0.5967456359863281,0.03943842384903638,-0.02704498967802692,-0.009862991089675938,2.520064115524292,2019-06-20 16:21:42:075
2.02067529296875,-9.054732177734374,0.6027310485839844,0.03877263357651657,-0.02704498967802692,-0.009596674980668015,2.524928092956543,2019-06-20 16:21:42:080
2.0087044677734376,-9.073885498046875,0.6087164611816406,0.03917210774002846,-0.02691183162352296,-0.009862991089675938,2.530048131942749,2019-06-20 16:21:42:085
2.0146898803710935,-9.073885498046875,0.6003368835449219,0.03943842384903638,-0.026379199405507113,-0.009197200817156128,2.534912109375,2019-06-20 16:21:42:090
2.0470111083984373,-9.057126342773437,0.5859718933105469,0.039837898012548265,-0.02611288329649919,-0.008398252490132357,2.540032148361206,2019-06-20 16:21:42:095
2.082923583984375,-9.064308837890625,0.6194902038574218,0.04010421412155619,-0.02704498967802692,-0.008265094435628395,2.544896125793457,2019-06-20 16:21:42:100
2.0853177490234374,-9.084659240722656,0.6039281311035156,0.03957158190354034,-0.027178147732530883,-0.008131936381124433,2.550016164779663,2019-06-20 16:21:42:105
2.0697556762695313,-9.073885498046875,0.6254756164550781,0.04010421412155619,-0.027577621896042768,-0.007332988054100662,2.555136203765869,2019-06-20 16:21:42:110
2.0577848510742185,-9.0595205078125,0.6506143493652343,0.03957158190354034,-0.027444463841538806,-0.006667197781580852,2.56000018119812,2019-06-20 16:21:42:115
2.0470111083984373,-9.081067993164062,0.6410376892089844,0.03917210774002846,-0.027178147732530883,-0.006667197781580852,2.565119981765747,2019-06-20 16:21:42:120
2.050602355957031,-9.041564270019531,0.6362493591308593,0.03917210774002846,-0.02704498967802692,-0.005202459182037272,2.569984197616577,2019-06-20 16:21:42:125
2.0278577880859374,-9.064308837890625,0.6111106262207031,0.038905791631020537,-0.02784393800505069,-0.004270352800509538,2.575103998184204,2019-06-20 16:21:42:130
2.0517994384765625,-9.042761352539062,0.6087164611816406,0.03850631746750865,-0.02624604135100315,-0.0034714044734857666,2.579968214035034,2019-06-20 16:21:42:135
2.063770263671875,-9.04994384765625,0.5680156555175782,0.03917210774002846,-0.026645515514515036,-0.0018735078194382236,2.585088014602661,2019-06-20 16:21:42:140
2.062573181152344,-9.043958435058594,0.6338551940917969,0.03997105606705223,-0.026645515514515036,-0.0010745594924144524,2.589951992034912,2019-06-20 16:21:42:145
2.0565877685546874,-9.067900085449219,0.6003368835449219,0.039704739958044306,-0.026645515514515036,-9.295056382757028e-06,2.595072031021118,2019-06-20 16:21:42:150
2.048208190917969,-9.054732177734374,0.6123077087402343,0.03997105606705223,-0.02704498967802692,0.0002570210526251668,2.599936008453369,2019-06-20 16:21:42:155
2.0757410888671877,-9.047549682617188,0.6182931213378906,0.03943842384903638,-0.025713409132987305,0.0002570210526251668,2.605056047439575,2019-06-20 16:21:42:160
2.063770263671875,-9.048746765136718,0.6099135437011719,0.03877263357651657,-0.026645515514515036,0.0014554435431608239,2.609920024871826,2019-06-20 16:21:42:165
2.0769381713867188,-9.065505920410157,0.6206872863769531,0.03917210774002846,-0.02544709302397938,0.0023875499246885576,2.6150400638580322,2019-06-20 16:21:42:170
2.0529965209960936,-9.051140930175782,0.5991398010253907,0.03957158190354034,-0.024781302751459573,0.0026538660336964813,2.619904041290283,2019-06-20 16:21:42:175
2.0410256958007813,-9.051140930175782,0.6266726989746093,0.039038949685524495,-0.025580251078483343,0.0025207079791925192,2.6250240802764893,2019-06-20 16:21:42:180
2.050602355957031,-9.058323425292969,0.5955485534667969,0.03957158190354034,-0.02611288329649919,0.0037191304697281762,2.6301441192626953,2019-06-20 16:21:42:185
2.050602355957031,-9.077476745605468,0.6326581115722656,0.03930526579453242,-0.024914460805963535,0.004118604633240062,2.6350080966949463,2019-06-20 16:21:42:190
2.002719055175781,-9.084659240722656,0.5943514709472656,0.039038949685524495,-0.023716038315427873,0.004518078796751947,2.6401281356811523,2019-06-20 16:21:42:195
1.9727919921875,-9.034381774902343,0.6123077087402343,0.038905791631020537,-0.023849196369931835,0.004784394905759872,2.6449921131134033,2019-06-20 16:21:42:200
1.9883540649414062,-9.048746765136718,0.5751981506347656,0.03930526579453242,-0.02358288026092391,0.005050711014767796,2.6501121520996094,2019-06-20 16:21:42:205
1.9907482299804686,-9.04994384765625,0.5967456359863281,0.03930526579453242,-0.02464814469695561,0.0058496593417915665,2.6549761295318604,2019-06-20 16:21:42:210
2.0266607055664063,-9.083462158203124,0.6075193786621094,0.03917210774002846,-0.024781302751459573,0.005450185178279681,2.6600961685180664,2019-06-20 16:21:42:215
2.006310302734375,-9.084659240722656,0.6374464416503907,0.03850631746750865,-0.02344972220641995,0.005982817396295529,2.6649601459503174,2019-06-20 16:21:42:220
1.9835657348632811,-9.079870910644532,0.6398406066894531,0.03877263357651657,-0.024914460805963535,0.005716501287287605,2.6700801849365234,2019-06-20 16:21:42:225
1.9727919921875,-9.06909716796875,0.6039281311035156,0.038905791631020537,-0.02464814469695561,0.005583343232783643,2.6749441623687744,2019-06-20 16:21:42:230
1.9656094970703124,-9.085856323242187,0.5931543884277344,0.03917210774002846,-0.025580251078483343,0.004251762687744024,2.6800642013549805,2019-06-20 16:21:42:235
1.9739890747070312,-9.075082580566406,0.6063222961425782,0.03957158190354034,-0.024115512478939758,0.004118604633240062,2.6849281787872314,2019-06-20 16:21:42:240
1.9656094970703124,-9.065505920410157,0.6087164611816406,0.03957158190354034,-0.026512357460011075,0.004384920742247986,2.6900482177734375,2019-06-20 16:21:42:245
1.9883540649414062,-9.073885498046875,0.6482201843261719,0.039038949685524495,-0.025979725241995228,0.0029201821427044046,2.6949121952056885,2019-06-20 16:21:42:250
1.9955365600585937,-9.119374633789063,0.5931543884277344,0.039038949685524495,-0.025846567187491266,0.0029201821427044046,2.7000319957733154,2019-06-20 16:21:42:255
1.9656094970703124,-9.078673828125,0.6063222961425782,0.038905791631020537,-0.025580251078483343,0.003053340197208367,2.7048962116241455,2019-06-20 16:21:42:260
1.9703978271484375,-9.099024230957031,0.6027310485839844,0.038905791631020537,-0.025979725241995228,0.0037191304697281762,2.7100160121917725,2019-06-20 16:21:42:265
1.9727919921875,-9.095432983398437,0.6194902038574218,0.03930526579453242,-0.02624604135100315,0.0038522885242321388,2.7151360511779785,2019-06-20 16:21:42:270
2.0003248901367185,-9.109797973632812,0.6147018737792969,0.04010421412155619,-0.025713409132987305,0.0026538660336964813,2.7200000286102295,2019-06-20 16:21:42:275
1.9751861572265625,-9.079870910644532,0.6290668640136718,0.039704739958044306,-0.025180776914971458,0.0029201821427044046,2.7251200675964355,2019-06-20 16:21:42:280
1.9727919921875,-9.110995056152344,0.6446289367675782,0.03943842384903638,-0.02624604135100315,0.0015886015976647857,2.7299840450286865,2019-06-20 16:21:42:285
1.94406201171875,-9.113389221191406,0.6075193786621094,0.038905791631020537,-0.026645515514515036,0.0014554435431608239,2.7351040840148926,2019-06-20 16:21:42:290
1.9476532592773437,-9.0978271484375,0.6063222961425782,0.03877263357651657,-0.026512357460011075,0.0011891274341529002,2.7399680614471436,2019-06-20 16:21:42:295
1.9715949096679688,-9.105009643554688,0.5620302429199219,0.03837315941300468,-0.025979725241995228,0.0002570210526251668,2.7450881004333496,2019-06-20 16:21:42:300
1.9895511474609375,-9.10740380859375,0.6003368835449219,0.03957158190354034,-0.026379199405507113,-9.295056382757028e-06,2.7499520778656006,2019-06-20 16:21:42:305
1.9883540649414062,-9.11698046875,0.6170960388183594,0.039704739958044306,-0.02691183162352296,0.0003901791071291287,2.7550721168518066,2019-06-20 16:21:42:310
2.006310302734375,-9.090644653320313,0.6051252136230468,0.03943842384903638,-0.027311305787034845,0.001055969379648938,2.7599360942840576,2019-06-20 16:21:42:315
2.0087044677734376,-9.054732177734374,0.5823806457519531,0.03930526579453242,-0.026645515514515036,0.001322285488656862,2.7650561332702637,2019-06-20 16:21:42:320
2.0122957153320313,-9.070294250488281,0.6410376892089844,0.03917210774002846,-0.026379199405507113,0.0011891274341529002,2.7699201107025146,2019-06-20 16:21:42:325
2.006310302734375,-9.06071759033203,0.6230814514160156,0.039038949685524495,-0.02624604135100315,0.0003901791071291287,2.7750401496887207,2019-06-20 16:21:42:330
2.021872375488281,-9.08825048828125,0.5907602233886718,0.03917210774002846,-0.027311305787034845,-0.0005419272743986046,2.7799041271209717,2019-06-20 16:21:42:335
2.02067529296875,-9.066703002929687,0.6123077087402343,0.04023737217606015,-0.026778673569018998,0.0002570210526251668,2.7850241661071777,2019-06-20 16:21:42:340
2.015886962890625,-9.073885498046875,0.6027310485839844,0.03997105606705223,-0.02704498967802692,0.00012386299812120486,2.7898881435394287,2019-06-20 16:21:42:345
2.005113220214844,-9.063111755371093,0.5775923156738281,0.03943842384903638,-0.027444463841538806,0.0006564952161370526,2.7950081825256348,2019-06-20 16:21:42:350
1.9859598999023438,-9.071491333007812,0.5991398010253907,0.039038949685524495,-0.027311305787034845,-0.00027561116539068085,2.8001279830932617,2019-06-20 16:21:42:355
1.9835657348632811,-9.064308837890625,0.6350522766113281,0.03863947552201261,-0.027178147732530883,0.0005233371616330906,2.804992198944092,2019-06-20 16:21:42:360
2.002719055175781,-9.063111755371093,0.6458260192871094,0.03943842384903638,-0.027444463841538806,0.0009228113251449763,2.8101119995117188,2019-06-20 16:21:42:365
1.9751861572265625,-9.079870910644532,0.6326581115722656,0.038905791631020537,-0.027444463841538806,0.001055969379648938,2.814976215362549,2019-06-20 16:21:42:370
1.9727919921875,-9.073885498046875,0.5979427185058593,0.038240001358500725,-0.027444463841538806,0.001322285488656862,2.820096015930176,2019-06-20 16:21:42:375
1.9787774047851563,-9.066703002929687,0.5919573059082031,0.038905791631020537,-0.026778673569018998,0.001055969379648938,2.8249599933624268,2019-06-20 16:21:42:380
1.9608211669921876,-9.057126342773437,0.6039281311035156,0.03943842384903638,-0.02691183162352296,0.0015886015976647857,2.830080032348633,2019-06-20 16:21:42:385
1.9919453125,-9.064308837890625,0.6290668640136718,0.03943842384903638,-0.02624604135100315,0.0011891274341529002,2.834944009780884,2019-06-20 16:21:42:390
1.9739890747070312,-9.083462158203124,0.5943514709472656,0.040503688285068076,-0.026778673569018998,0.001055969379648938,2.84006404876709,2019-06-20 16:21:42:395
1.9608211669921876,-9.096630065917969,0.6075193786621094,0.03917210774002846,-0.028243412168562583,0.0002570210526251668,2.844928026199341,2019-06-20 16:21:42:400
1.9787774047851563,-9.100221313476561,0.6051252136230468,0.040503688285068076,-0.02797709605955466,-0.0012077175469184143,2.850048065185547,2019-06-20 16:21:42:405
1.9620182495117187,-9.071491333007812,0.6218843688964844,0.041302636612091846,-0.02811025411405862,-0.0009414014379104903,2.854912042617798,2019-06-20 16:21:42:410
1.9763832397460936,-9.084659240722656,0.6099135437011719,0.04103632050308392,-0.028509728277570506,-0.0009414014379104903,2.860032081604004,2019-06-20 16:21:42:415
1.9608211669921876,-9.079870910644532,0.6158989562988281,0.04103632050308392,-0.0295749927136022,-0.0006750853289025666,2.864896059036255,2019-06-20 16:21:42:420
1.9608211669921876,-9.08944757080078,0.6147018737792969,0.040503688285068076,-0.02811025411405862,-0.0008082433834065285,2.870016098022461,2019-06-20 16:21:42:425
1.9644124145507813,-9.082265075683594,0.6290668640136718,0.03957158190354034,-0.02784393800505069,-0.0010745594924144524,2.875136137008667,2019-06-20 16:21:42:430
1.9739890747070312,-9.085856323242187,0.6733589172363281,0.04023737217606015,-0.02784393800505069,-0.0024061400374540713,2.880000114440918,2019-06-20 16:21:42:435
1.9656094970703124,-9.112192138671874,0.6649793395996093,0.04116947855758789,-0.027444463841538806,-0.0021398239284461476,2.885120153427124,2019-06-20 16:21:42:440
1.9787774047851563,-9.109797973632812,0.6242785339355469,0.04116947855758789,-0.027444463841538806,-0.0020066658739421855,2.889984130859375,2019-06-20 16:21:42:445
1.9692007446289062,-9.075082580566406,0.6542055969238281,0.04143579466659581,-0.027178147732530883,-0.0016071917104302999,2.895104169845581,2019-06-20 16:21:42:450
1.9763832397460936,-9.067900085449219,0.6111106262207031,0.041302636612091846,-0.02704498967802692,-0.002805614200965957,2.899968147277832,2019-06-20 16:21:42:455
1.9847628173828125,-9.096630065917969,0.6147018737792969,0.040636846339572034,-0.02784393800505069,-0.002805614200965957,2.905088186264038,2019-06-20 16:21:42:460
1.996733642578125,-9.090644653320313,0.5775923156738281,0.04116947855758789,-0.027444463841538806,-0.004270352800509538,2.909952163696289,2019-06-20 16:21:42:465
1.9907482299804686,-9.075082580566406,0.5728039855957031,0.040636846339572034,-0.027577621896042768,-0.004137194746005576,2.915072202682495,2019-06-20 16:21:42:470
1.9835657348632811,-9.083462158203124,0.5919573059082031,0.04023737217606015,-0.027178147732530883,-0.0037377205824936904,2.919936180114746,2019-06-20 16:21:42:475
2.0110986328125,-9.084659240722656,0.6194902038574218,0.039837898012548265,-0.027311305787034845,-0.0036045625279897287,2.925055980682373,2019-06-20 16:21:42:480
2.0087044677734376,-9.091841735839843,0.6589939270019531,0.04010421412155619,-0.026512357460011075,-0.0050693011275333094,2.929920196533203,2019-06-20 16:21:42:485
1.9835657348632811,-9.08944757080078,0.5955485534667969,0.040503688285068076,-0.027178147732530883,-0.004270352800509538,2.93503999710083,2019-06-20 16:21:42:490
1.98236865234375,-9.06071759033203,0.6147018737792969,0.04037053023056411,-0.02691183162352296,-0.0050693011275333094,2.93990421295166,2019-06-20 16:21:42:495
1.9871569824218749,-9.06909716796875,0.6015339660644531,0.04103632050308392,-0.026778673569018998,-0.004936143073029348,2.945024013519287,2019-06-20 16:21:42:500
1.9907482299804686,-9.083462158203124,0.6302639465332031,0.04090316244857996,-0.027178147732530883,-0.0037377205824936904,2.949887990951538,2019-06-20 16:21:42:505
1.9751861572265625,-9.06909716796875,0.6314610290527344,0.04037053023056411,-0.02771077995054673,-0.0044035108550135,2.955008029937744,2019-06-20 16:21:42:510
1.9979307250976561,-9.075082580566406,0.6003368835449219,0.040770004394076,-0.027311305787034845,-0.004802985018525386,2.96012806892395,2019-06-20 16:21:42:515
1.9739890747070312,-9.094235900878907,0.6206872863769531,0.039837898012548265,-0.026645515514515036,-0.004270352800509538,2.964992046356201,2019-06-20 16:21:42:520
1.9452590942382812,-9.083462158203124,0.6290668640136718,0.03930526579453242,-0.02611288329649919,-0.004137194746005576,2.9701120853424072,2019-06-20 16:21:42:525
1.948850341796875,-9.087053405761718,0.6003368835449219,0.039704739958044306,-0.026512357460011075,-0.004137194746005576,2.974976062774658,2019-06-20 16:21:42:530
1.9596240844726562,-9.0978271484375,0.6326581115722656,0.03997105606705223,-0.02624604135100315,-0.0038708786369976524,2.9800961017608643,2019-06-20 16:21:42:535
1.9392736816406249,-9.11817755126953,0.6230814514160156,0.03877263357651657,-0.02784393800505069,-0.004802985018525386,2.9849600791931152,2019-06-20 16:21:42:540
1.9524415893554687,-9.11817755126953,0.5931543884277344,0.039704739958044306,-0.028509728277570506,-0.005601933345549157,2.9900801181793213,2019-06-20 16:21:42:545
1.9703978271484375,-9.095432983398437,0.5883660583496093,0.03917210774002846,-0.027444463841538806,-0.006134565563565005,2.9949440956115723,2019-06-20 16:21:42:550
1.9524415893554687,-9.113389221191406,0.6338551940917969,0.039837898012548265,-0.02771077995054673,-0.005202459182037272,3.0000641345977783,2019-06-20 16:21:42:555
1.9560328369140625,-9.100221313476561,0.6338551940917969,0.039837898012548265,-0.02611288329649919,-0.005202459182037272,3.0051841735839844,2019-06-20 16:21:42:560
1.968003662109375,-9.085856323242187,0.6003368835449219,0.03997105606705223,-0.025713409132987305,-0.005601933345549157,3.0100481510162354,2019-06-20 16:21:42:565
1.94406201171875,-9.090644653320313,0.5955485534667969,0.04010421412155619,-0.027311305787034845,-0.006667197781580852,3.0149121284484863,2019-06-20 16:21:42:570
1.9644124145507813,-9.094235900878907,0.5979427185058593,0.040636846339572034,-0.027311305787034845,-0.006933513890588777,3.0200321674346924,2019-06-20 16:21:42:575
1.9620182495117187,-9.070294250488281,0.5955485534667969,0.04116947855758789,-0.027577621896042768,-0.008265094435628395,3.0248961448669434,2019-06-20 16:21:42:580
1.9727919921875,-9.08825048828125,0.6158989562988281,0.041302636612091846,-0.02771077995054673,-0.008531410544636318,3.0300161838531494,2019-06-20 16:21:42:585
1.9907482299804686,-9.079870910644532,0.6135047912597656,0.04116947855758789,-0.02797709605955466,-0.008531410544636318,3.0351359844207764,2019-06-20 16:21:42:590
1.9919453125,-9.093038818359375,0.6170960388183594,0.04037053023056411,-0.02797709605955466,-0.009064042762652167,3.0400002002716064,2019-06-20 16:21:42:595
1.9847628173828125,-9.079870910644532,0.6123077087402343,0.039704739958044306,-0.02704498967802692,-0.009197200817156128,3.0451200008392334,2019-06-20 16:21:42:600
1.9548357543945312,-9.083462158203124,0.6063222961425782,0.04010421412155619,-0.026778673569018998,-0.009197200817156128,3.0499842166900635,2019-06-20 16:21:42:605
1.9332882690429687,-9.10740380859375,0.5871689758300781,0.038905791631020537,-0.027178147732530883,-0.008531410544636318,3.0551040172576904,2019-06-20 16:21:42:610
1.9799744873046874,-9.105009643554688,0.5967456359863281,0.03943842384903638,-0.02691183162352296,-0.008797726653644243,3.0599679946899414,2019-06-20 16:21:42:615
1.9811715698242187,-9.103812561035156,0.6003368835449219,0.03997105606705223,-0.025846567187491266,-0.008797726653644243,3.0650880336761475,2019-06-20 16:21:42:620
1.9572299194335938,-9.0978271484375,0.6051252136230468,0.04010421412155619,-0.025580251078483343,-0.00933035887166009,3.0699520111083984,2019-06-20 16:21:42:625
1.9763832397460936,-9.115783386230468,0.6182931213378906,0.039837898012548265,-0.025846567187491266,-0.010395623307691787,3.0750720500946045,2019-06-20 16:21:42:630
1.9596240844726562,-9.106206726074218,0.6254756164550781,0.039704739958044306,-0.025979725241995228,-0.011194571634715558,3.0799360275268555,2019-06-20 16:21:42:635
1.9751861572265625,-9.096630065917969,0.5859718933105469,0.03930526579453242,-0.026512357460011075,-0.010928255525707633,3.0850560665130615,2019-06-20 16:21:42:640
1.9368795166015624,-9.113389221191406,0.6027310485839844,0.03943842384903638,-0.02611288329649919,-0.011594045798227443,3.0899200439453125,2019-06-20 16:21:42:645
1.9644124145507813,-9.100221313476561,0.6147018737792969,0.03930526579453242,-0.02624604135100315,-0.010928255525707633,3.0950400829315186,2019-06-20 16:21:42:650
1.9608211669921876,-9.08825048828125,0.6410376892089844,0.039837898012548265,-0.026512357460011075,-0.011460887743723482,3.0999040603637695,2019-06-20 16:21:42:655
1.9392736816406249,-9.101418395996093,0.5883660583496093,0.03917210774002846,-0.026645515514515036,-0.011860361907235367,3.1050240993499756,2019-06-20 16:21:42:660
1.9596240844726562,-9.112192138671874,0.6003368835449219,0.039038949685524495,-0.02691183162352296,-0.012392994125251213,3.1098880767822266,2019-06-20 16:21:42:665
1.94406201171875,-9.10740380859375,0.5871689758300781,0.03943842384903638,-0.02544709302397938,-0.01345825856128291,3.1150081157684326,2019-06-20 16:21:42:670
1.9644124145507813,-9.103812561035156,0.5871689758300781,0.03957158190354034,-0.025180776914971458,-0.014390364942810641,3.1201281547546387,2019-06-20 16:21:42:675
1.9536386718749998,-9.108600891113282,0.5775923156738281,0.039837898012548265,-0.02611288329649919,-0.014523522997314606,3.1249921321868896,2019-06-20 16:21:42:680
1.9572299194335938,-9.0978271484375,0.6135047912597656,0.04010421412155619,-0.02531393496947542,-0.014124048833802718,3.1301121711730957,2019-06-20 16:21:42:685
1.958427001953125,-9.082265075683594,0.6218843688964844,0.03997105606705223,-0.02544709302397938,-0.014124048833802718,3.1349761486053467,2019-06-20 16:21:42:690
1.9787774047851563,-9.076279663085938,0.6158989562988281,0.039704739958044306,-0.025713409132987305,-0.014656681051818568,3.1400961875915527,2019-06-20 16:21:42:695
1.9907482299804686,-9.10740380859375,0.6003368835449219,0.03957158190354034,-0.026512357460011075,-0.014922997160826491,3.1449601650238037,2019-06-20 16:21:42:700
1.9620182495117187,-9.115783386230468,0.6446289367675782,0.040503688285068076,-0.027178147732530883,-0.015988261596858185,3.1500802040100098,2019-06-20 16:21:42:705
1.9644124145507813,-9.093038818359375,0.6015339660644531,0.03997105606705223,-0.025979725241995228,-0.01478983910632253,3.1549441814422607,2019-06-20 16:21:42:710
1.9847628173828125,-9.072688415527344,0.6015339660644531,0.03997105606705223,-0.02611288329649919,-0.014523522997314606,3.1600639820098877,2019-06-20 16:21:42:715
1.9512445068359374,-9.065505920410157,0.5847748107910156,0.039837898012548265,-0.02624604135100315,-0.014523522997314606,3.1649281978607178,2019-06-20 16:21:42:720
1.9931423950195313,-9.06909716796875,0.6147018737792969,0.039837898012548265,-0.026379199405507113,-0.015189313269834415,3.1700479984283447,2019-06-20 16:21:42:725
1.9919453125,-9.076279663085938,0.6194902038574218,0.03930526579453242,-0.026379199405507113,-0.015322471324338376,3.174912214279175,2019-06-20 16:21:42:730
1.9715949096679688,-9.066703002929687,0.6254756164550781,0.040636846339572034,-0.026512357460011075,-0.015855103542354223,3.1800320148468018,2019-06-20 16:21:42:735
1.9703978271484375,-9.075082580566406,0.6063222961425782,0.04090316244857996,-0.02624604135100315,-0.0155887874333463,3.1848959922790527,2019-06-20 16:21:42:740
1.9727919921875,-9.106206726074218,0.6530085144042969,0.040503688285068076,-0.02624604135100315,-0.015322471324338376,3.190016031265259,2019-06-20 16:21:42:745
1.9715949096679688,-9.08944757080078,0.6027310485839844,0.040503688285068076,-0.026778673569018998,-0.01572194548785026,3.195136070251465,2019-06-20 16:21:42:750
1.996733642578125,-9.077476745605468,0.5955485534667969,0.04103632050308392,-0.027178147732530883,-0.016520893814874035,3.200000047683716,2019-06-20 16:21:42:755
1.9763832397460936,-9.081067993164062,0.6075193786621094,0.04090316244857996,-0.026778673569018998,-0.01625457770586611,3.205120086669922,2019-06-20 16:21:42:760
2.0039161376953123,-9.0978271484375,0.6075193786621094,0.041302636612091846,-0.027311305787034845,-0.014922997160826491,3.209984064102173,2019-06-20 16:21:42:765
2.017084045410156,-9.077476745605468,0.5823806457519531,0.040636846339572034,-0.02784393800505069,-0.015988261596858185,3.215104103088379,2019-06-20 16:21:42:770
2.0003248901367185,-9.075082580566406,0.5692127380371094,0.041302636612091846,-0.02771077995054673,-0.015189313269834415,3.21996808052063,2019-06-20 16:21:42:775
1.996733642578125,-9.075082580566406,0.5572419128417969,0.041302636612091846,-0.027577621896042768,-0.015189313269834415,3.225088119506836,2019-06-20 16:21:42:780
2.0278577880859374,-9.08825048828125,0.6314610290527344,0.04103632050308392,-0.02704498967802692,-0.015455629378842338,3.229952096939087,2019-06-20 16:21:42:785
1.9859598999023438,-9.094235900878907,0.6565997619628906,0.040503688285068076,-0.027311305787034845,-0.015056155215330453,3.235072135925293,2019-06-20 16:21:42:790
1.9847628173828125,-9.084659240722656,0.5775923156738281,0.040636846339572034,-0.028642886332074468,-0.01572194548785026,3.239936113357544,2019-06-20 16:21:42:795
2.006310302734375,-9.108600891113282,0.5859718933105469,0.04156895272109977,-0.028376570223066545,-0.015855103542354223,3.24505615234375,2019-06-20 16:21:42:800
1.9919453125,-9.072688415527344,0.6230814514160156,0.041702110775603735,-0.02771077995054673,-0.015455629378842338,3.249920129776001,2019-06-20 16:21:42:805
1.9751861572265625,-9.055929260253906,0.6434318542480468,0.04183526883010769,-0.027577621896042768,-0.0155887874333463,3.255040168762207,2019-06-20 16:21:42:810
1.9548357543945312,-9.072688415527344,0.5644244079589844,0.04156895272109977,-0.028376570223066545,-0.016520893814874035,3.259904146194458,2019-06-20 16:21:42:815
1.9979307250976561,-9.081067993164062,0.6242785339355469,0.04103632050308392,-0.028376570223066545,-0.016121419651362146,3.265024185180664,2019-06-20 16:21:42:820
1.9763832397460936,-9.105009643554688,0.5847748107910156,0.040636846339572034,-0.028243412168562583,-0.015189313269834415,3.270143985748291,2019-06-20 16:21:42:825
2.0110986328125,-9.082265075683594,0.6458260192871094,0.039837898012548265,-0.02797709605955466,-0.013990890779298756,3.275008201599121,2019-06-20 16:21:42:830
2.0087044677734376,-9.082265075683594,0.6649793395996093,0.04010421412155619,-0.02771077995054673,-0.014656681051818568,3.280128002166748,2019-06-20 16:21:42:835
1.9847628173828125,-9.08825048828125,0.6482201843261719,0.039837898012548265,-0.02771077995054673,-0.016654051869377996,3.284992218017578,2019-06-20 16:21:42:840
2.00152197265625,-9.096630065917969,0.6542055969238281,0.04103632050308392,-0.028376570223066545,-0.015455629378842338,3.290112018585205,2019-06-20 16:21:42:845
2.0003248901367185,-9.082265075683594,0.5859718933105469,0.04103632050308392,-0.02784393800505069,-0.014523522997314606,3.294975996017456,2019-06-20 16:21:42:850
2.019478210449219,-9.077476745605468,0.6482201843261719,0.04103632050308392,-0.026778673569018998,-0.013990890779298756,3.300096035003662,2019-06-20 16:21:42:855
2.0110986328125,-9.063111755371093,0.6015339660644531,0.040503688285068076,-0.028243412168562583,-0.014390364942810641,3.304960012435913,2019-06-20 16:21:42:860
2.021872375488281,-9.075082580566406,0.5979427185058593,0.040636846339572034,-0.02771077995054673,-0.014124048833802718,3.310080051422119,2019-06-20 16:21:42:865
2.005113220214844,-9.083462158203124,0.6015339660644531,0.03997105606705223,-0.026512357460011075,-0.01478983910632253,3.31494402885437,2019-06-20 16:21:42:870
2.007507385253906,-9.067900085449219,0.6565997619628906,0.04037053023056411,-0.027577621896042768,-0.013857732724794795,3.320064067840576,2019-06-20 16:21:42:875
1.9943394775390624,-9.0595205078125,0.6494172668457031,0.03943842384903638,-0.02771077995054673,-0.013325100506778948,3.324928045272827,2019-06-20 16:21:42:880
2.019478210449219,-9.051140930175782,0.6374464416503907,0.03943842384903638,-0.026645515514515036,-0.013591416615786871,3.330048084259033,2019-06-20 16:21:42:885
2.0266607055664063,-9.076279663085938,0.6446289367675782,0.038905791631020537,-0.026645515514515036,-0.012925626343267063,3.334912061691284,2019-06-20 16:21:42:890
2.0087044677734376,-9.076279663085938,0.6003368835449219,0.03877263357651657,-0.02704498967802692,-0.012526152179755175,3.3400321006774902,2019-06-20 16:21:42:895
1.9979307250976561,-9.081067993164062,0.5871689758300781,0.03863947552201261,-0.02704498967802692,-0.012526152179755175,3.344896078109741,2019-06-20 16:21:42:900
2.0039161376953123,-9.072688415527344,0.6182931213378906,0.03917210774002846,-0.025846567187491266,-0.011194571634715558,3.3500161170959473,2019-06-20 16:21:42:905
2.00152197265625,-9.070294250488281,0.5811835632324218,0.03930526579453242,-0.02531393496947542,-0.011061413580211595,3.3551361560821533,2019-06-20 16:21:42:910
2.00152197265625,-9.101418395996093,0.6194902038574218,0.039704739958044306,-0.024781302751459573,-0.010262465253187823,3.3600001335144043,2019-06-20 16:21:42:915
2.0290548706054685,-9.083462158203124,0.6147018737792969,0.03863947552201261,-0.02451498664245165,-0.010528781362195748,3.3651201725006104,2019-06-20 16:21:42:920
2.0087044677734376,-9.084659240722656,0.6242785339355469,0.040636846339572034,-0.025979725241995228,-0.011460887743723482,3.3699841499328613,2019-06-20 16:21:42:925
2.00152197265625,-9.078673828125,0.5847748107910156,0.03957158190354034,-0.026645515514515036,-0.010928255525707633,3.3751041889190674,2019-06-20 16:21:42:930
2.0110986328125,-9.078673828125,0.6063222961425782,0.03863947552201261,-0.026512357460011075,-0.010928255525707633,3.3799681663513184,2019-06-20 16:21:42:935
2.007507385253906,-9.093038818359375,0.6147018737792969,0.03863947552201261,-0.02544709302397938,-0.010795097471203672,3.3850882053375244,2019-06-20 16:21:42:940
1.9751861572265625,-9.08825048828125,0.5751981506347656,0.03957158190354034,-0.026379199405507113,-0.010928255525707633,3.3899521827697754,2019-06-20 16:21:42:945
1.9943394775390624,-9.085856323242187,0.6147018737792969,0.039837898012548265,-0.02624604135100315,-0.011061413580211595,3.3950719833374023,2019-06-20 16:21:42:950
2.0110986328125,-9.079870910644532,0.6518114318847656,0.03957158190354034,-0.028376570223066545,-0.010528781362195748,3.3999361991882324,2019-06-20 16:21:42:955
1.9763832397460936,-9.085856323242187,0.6123077087402343,0.03997105606705223,-0.02811025411405862,-0.010928255525707633,3.4050559997558594,2019-06-20 16:21:42:960
1.996733642578125,-9.070294250488281,0.6218843688964844,0.040636846339572034,-0.027311305787034845,-0.010928255525707633,3.4099202156066895,2019-06-20 16:21:42:965
1.9907482299804686,-9.077476745605468,0.6697676696777344,0.04103632050308392,-0.02771077995054673,-0.01066193941669971,3.4150400161743164,2019-06-20 16:21:42:970
1.9955365600585937,-9.079870910644532,0.6577968444824218,0.039704739958044306,-0.027577621896042768,-0.01066193941669971,3.4199039936065674,2019-06-20 16:21:42:975
1.9931423950195313,-9.08825048828125,0.6482201843261719,0.04023737217606015,-0.02784393800505069,-0.010795097471203672,3.4250240325927734,2019-06-20 16:21:42:980
1.9895511474609375,-9.072688415527344,0.6182931213378906,0.03930526579453242,-0.028376570223066545,-0.01066193941669971,3.4298880100250244,2019-06-20 16:21:42:985
2.0134927978515624,-9.071491333007812,0.5955485534667969,0.039837898012548265,-0.027444463841538806,-0.010795097471203672,3.4350080490112305,2019-06-20 16:21:42:990
1.9979307250976561,-9.0595205078125,0.6314610290527344,0.03997105606705223,-0.027311305787034845,-0.01066193941669971,3.4401280879974365,2019-06-20 16:21:42:995
2.006310302734375,-9.070294250488281,0.6518114318847656,0.039704739958044306,-0.026778673569018998,-0.010928255525707633,3.4449920654296875,2019-06-20 16:21:43:000
2.002719055175781,-9.075082580566406,0.6362493591308593,0.04023737217606015,-0.02704498967802692,-0.011194571634715558,3.4501121044158936,2019-06-20 16:21:43:005
2.0134927978515624,-9.064308837890625,0.6470231018066406,0.039837898012548265,-0.027444463841538806,-0.011061413580211595,3.4549760818481445,2019-06-20 16:21:43:010
1.996733642578125,-9.06909716796875,0.6242785339355469,0.040636846339572034,-0.02877604438657843,-0.010795097471203672,3.4600961208343506,2019-06-20 16:21:43:015
2.015886962890625,-9.073885498046875,0.5751981506347656,0.039837898012548265,-0.02811025411405862,-0.00933035887166009,3.4649600982666016,2019-06-20 16:21:43:020
2.0099015502929687,-9.081067993164062,0.6027310485839844,0.04037053023056411,-0.02771077995054673,-0.009463516926164052,3.4700801372528076,2019-06-20 16:21:43:025
2.017084045410156,-9.061914672851563,0.6170960388183594,0.039704739958044306,-0.027444463841538806,-0.009197200817156128,3.4749441146850586,2019-06-20 16:21:43:030
1.9955365600585937,-9.06909716796875,0.6194902038574218,0.040503688285068076,-0.02691183162352296,-0.008531410544636318,3.4800641536712646,2019-06-20 16:21:43:035
1.9907482299804686,-9.065505920410157,0.6123077087402343,0.04103632050308392,-0.027311305787034845,-0.008398252490132357,3.4849281311035156,2019-06-20 16:21:43:040
1.9979307250976561,-9.087053405761718,0.6326581115722656,0.040636846339572034,-0.026379199405507113,-0.008398252490132357,3.4900481700897217,2019-06-20 16:21:43:045
1.9955365600585937,-9.087053405761718,0.6362493591308593,0.04103632050308392,-0.027178147732530883,-0.008930884708148205,3.4949121475219727,2019-06-20 16:21:43:050
1.9907482299804686,-9.076279663085938,0.6206872863769531,0.04010421412155619,-0.027311305787034845,-0.008930884708148205,3.5000321865081787,2019-06-20 16:21:43:055
1.9715949096679688,-9.100221313476561,0.6015339660644531,0.03957158190354034,-0.027178147732530883,-0.008531410544636318,3.5048961639404297,2019-06-20 16:21:43:060
1.9859598999023438,-9.082265075683594,0.6314610290527344,0.04037053023056411,-0.02797709605955466,-0.008265094435628395,3.5100162029266357,2019-06-20 16:21:43:065
1.9763832397460936,-9.073885498046875,0.5740010681152343,0.03957158190354034,-0.027577621896042768,-0.008930884708148205,3.5151360034942627,2019-06-20 16:21:43:070
1.9608211669921876,-9.084659240722656,0.6302639465332031,0.039837898012548265,-0.026778673569018998,-0.008265094435628395,3.5199999809265137,2019-06-20 16:21:43:075
1.9692007446289062,-9.083462158203124,0.6123077087402343,0.04037053023056411,-0.027311305787034845,-0.008398252490132357,3.5251200199127197,2019-06-20 16:21:43:080
1.9979307250976561,-9.109797973632812,0.6290668640136718,0.04010421412155619,-0.027178147732530883,-0.009064042762652167,3.5299839973449707,2019-06-20 16:21:43:085
1.9787774047851563,-9.081067993164062,0.6302639465332031,0.04023737217606015,-0.026512357460011075,-0.009197200817156128,3.5351040363311768,2019-06-20 16:21:43:090
2.006310302734375,-9.087053405761718,0.5943514709472656,0.040770004394076,-0.02691183162352296,-0.008930884708148205,3.5399680137634277,2019-06-20 16:21:43:095
2.0242665405273437,-9.091841735839843,0.6099135437011719,0.040636846339572034,-0.02691183162352296,-0.008930884708148205,3.545088052749634,2019-06-20 16:21:43:100
1.9835657348632811,-9.099024230957031,0.6218843688964844,0.04023737217606015,-0.027444463841538806,-0.009463516926164052,3.5499520301818848,2019-06-20 16:21:43:105
1.9787774047851563,-9.076279663085938,0.6039281311035156,0.040636846339572034,-0.02877604438657843,-0.009197200817156128,3.555072069168091,2019-06-20 16:21:43:110
2.0039161376953123,-9.075082580566406,0.5847748107910156,0.04090316244857996,-0.027577621896042768,-0.009064042762652167,3.559936046600342,2019-06-20 16:21:43:115
2.0242665405273437,-9.076279663085938,0.6398406066894531,0.040636846339572034,-0.027178147732530883,-0.009197200817156128,3.565056085586548,2019-06-20 16:21:43:120
2.0122957153320313,-9.037973022460937,0.6518114318847656,0.04010421412155619,-0.02771077995054673,-0.00933035887166009,3.569920063018799,2019-06-20 16:21:43:125
1.9859598999023438,-9.061914672851563,0.6063222961425782,0.03997105606705223,-0.027444463841538806,-0.009463516926164052,3.575040102005005,2019-06-20 16:21:43:130
1.9919453125,-9.084659240722656,0.6051252136230468,0.04090316244857996,-0.026512357460011075,-0.009064042762652167,3.579904079437256,2019-06-20 16:21:43:135
1.9883540649414062,-9.078673828125,0.6170960388183594,0.04116947855758789,-0.027178147732530883,-0.008664568599140282,3.585024118423462,2019-06-20 16:21:43:140
2.0122957153320313,-9.066703002929687,0.5991398010253907,0.040770004394076,-0.026645515514515036,-0.008398252490132357,3.590144157409668,2019-06-20 16:21:43:145
1.9919453125,-9.0595205078125,0.5991398010253907,0.040770004394076,-0.02771077995054673,-0.008930884708148205,3.595008134841919,2019-06-20 16:21:43:150
1.996733642578125,-9.063111755371093,0.5967456359863281,0.040503688285068076,-0.02784393800505069,-0.0077324622176125485,3.600128173828125,2019-06-20 16:21:43:155
2.0087044677734376,-9.073885498046875,0.6111106262207031,0.040636846339572034,-0.02811025411405862,-0.008797726653644243,3.604992151260376,2019-06-20 16:21:43:160
2.021872375488281,-9.064308837890625,0.6099135437011719,0.039837898012548265,-0.02691183162352296,-0.008131936381124433,3.610112190246582,2019-06-20 16:21:43:165
1.9895511474609375,-9.0595205078125,0.5955485534667969,0.04037053023056411,-0.027444463841538806,-0.0077324622176125485,3.614976167678833,2019-06-20 16:21:43:170
2.002719055175781,-9.081067993164062,0.6254756164550781,0.039704739958044306,-0.026645515514515036,-0.0074661461086046235,3.620096206665039,2019-06-20 16:21:43:175
1.9871569824218749,-9.087053405761718,0.6182931213378906,0.03957158190354034,-0.027178147732530883,-0.007332988054100662,3.62496018409729,2019-06-20 16:21:43:180
2.002719055175781,-9.087053405761718,0.6398406066894531,0.039704739958044306,-0.027444463841538806,-0.006267723618068967,3.630079984664917,2019-06-20 16:21:43:185
2.0146898803710935,-9.06909716796875,0.5931543884277344,0.03930526579453242,-0.027178147732530883,-0.005335617236541234,3.634944200515747,2019-06-20 16:21:43:190
2.0541936035156247,-9.054732177734374,0.6242785339355469,0.039837898012548265,-0.02704498967802692,-0.004669826964021424,3.640064001083374,2019-06-20 16:21:43:195
2.0494052734375,-9.04994384765625,0.6254756164550781,0.03863947552201261,-0.027577621896042768,-0.005202459182037272,3.644928216934204,2019-06-20 16:21:43:200
2.0386315307617187,-9.071491333007812,0.5883660583496093,0.039837898012548265,-0.02691183162352296,-0.004802985018525386,3.650048017501831,2019-06-20 16:21:43:205
