ACCELEROMETER X (m/s²),ACCELEROMETER Y (m/s²),ACCELEROMETER Z (m/s²),GYROSCOPE X (rad/s),GYROSCOPE Y (rad/s),GYROSCOPE Z (rad/s),Time since start in ms ,YYYY-MO-DD HH-MI-SS_SSS
8.387957214355469,-0.023941650390625,0.4267599182128906,0.050224226263857294,-0.029175518550090315,-0.020116162326778306,0.0,2019-06-20 15:06:35:930
8.392745544433593,-0.01077374267578125,0.42316867065429686,0.050091068209353336,-0.02771077995054673,-0.02038247843578623,0.004864215850830078,2019-06-20 15:06:35:935
8.372395141601562,-0.0119708251953125,0.42316867065429686,0.050890016536377106,-0.028642886332074468,-0.02051563649029019,0.009984016418457031,2019-06-20 15:06:35:940
8.366409729003905,-0.02753289794921875,0.4147890930175781,0.05062370042736918,-0.028376570223066545,-0.01971668816326642,0.014847993850708008,2019-06-20 15:06:35:945
8.364015563964843,-0.038306640625,0.3956357727050781,0.050224226263857294,-0.02811025411405862,-0.0183851076182268,0.019968032836914062,2019-06-20 15:06:35:950
8.393942626953125,-0.0263358154296875,0.4291540832519531,0.050091068209353336,-0.02877604438657843,-0.017453000196401766,0.02483201026916504,2019-06-20 15:06:35:955
8.391548461914063,-0.0191533203125,0.4195774230957031,0.05035738431836126,-0.0295749927136022,-0.017719317345706993,0.029952049255371094,2019-06-20 15:06:35:960
8.365212646484375,0.0,0.47464321899414064,0.049425277936833524,-0.028642886332074468,-0.017719317345706993,0.03507208824157715,2019-06-20 15:06:35:965
8.395139709472655,-0.0359124755859375,0.4674607238769531,0.04796053933728995,-0.029175518550090315,-0.017319842141897804,0.039936065673828125,2019-06-20 15:06:35:970
8.407110534667968,-0.02035040283203125,0.4219715881347656,0.04796053933728995,-0.030107624931618046,-0.016787209923881958,0.04505610466003418,2019-06-20 15:06:35:975
8.403519287109376,-0.01077374267578125,0.40401535034179686,0.04822685544629787,-0.030240782986122008,-0.016121419651362146,0.049920082092285156,2019-06-20 15:06:35:980
8.364015563964843,-0.02753289794921875,0.49379653930664064,0.048626329609809754,-0.02811025411405862,-0.015855103542354223,0.05504012107849121,2019-06-20 15:06:35:985
8.344862243652344,0.0263358154296875,0.4794315490722656,0.04742790711927409,-0.02890920244108239,-0.01572194548785026,0.05990409851074219,2019-06-20 15:06:35:990
8.320920593261718,0.0167591552734375,0.4291540832519531,0.04796053933728995,-0.029974466877114084,-0.014922997160826491,0.06502413749694824,2019-06-20 15:06:35:995
8.3700009765625,0.0023941650390625,0.45548989868164064,0.046762116846754284,-0.028243412168562583,-0.013058784397771025,0.06988811492919922,2019-06-20 15:06:36:000
8.36880389404297,0.00957666015625,0.3944386901855469,0.04543053630171467,-0.02890920244108239,-0.012259836070747251,0.07500815391540527,2019-06-20 15:06:36:005
8.343665161132812,0.0,0.39802993774414064,0.045164220192706744,-0.029308676604594276,-0.011594045798227443,0.07987213134765625,2019-06-20 15:06:36:010
8.358030151367187,0.033518310546875,0.4602782287597656,0.046362642683242396,-0.02811025411405862,-0.01066193941669971,0.0849921703338623,2019-06-20 15:06:36:015
8.381971801757812,0.00837957763671875,0.47344613647460937,0.04503106213820278,-0.02890920244108239,-0.0099961491441799,0.08985614776611328,2019-06-20 15:06:36:020
8.346059326171876,0.0311241455078125,0.37289120483398436,0.043166849375147316,-0.0295749927136022,-0.009463516926164052,0.09497618675231934,2019-06-20 15:06:36:025
8.393942626953125,0.0191533203125,0.4123949279785156,0.042101584939115616,-0.02811025411405862,-0.008797726653644243,0.09984016418457031,2019-06-20 15:06:36:030
8.38077471923828,0.00119708251953125,0.45668698120117185,0.04103632050308392,-0.029308676604594276,-0.007332988054100662,0.10496020317077637,2019-06-20 15:06:36:035
8.348453491210938,0.01316790771484375,0.5057673645019531,0.041302636612091846,-0.029841308822610123,-0.0057350914000531186,0.10982418060302734,2019-06-20 15:06:36:040
8.35084765625,0.0119708251953125,0.4854169616699219,0.04156895272109977,-0.029042360495586353,-0.005202459182037272,0.1149442195892334,2019-06-20 15:06:36:045
8.364015563964843,0.00119708251953125,0.46267239379882813,0.04023737217606015,-0.030107624931618046,-0.005601933345549157,0.12006402015686035,2019-06-20 15:06:36:050
8.37957763671875,-0.014364990234375,0.42556283569335934,0.03810684330399676,-0.028509728277570506,-0.004536668909517462,0.12492799758911133,2019-06-20 15:06:36:055
8.395139709472655,-0.01795623779296875,0.4076065979003906,0.03730789497697299,-0.028509728277570506,-0.0038708786369976524,0.13004803657531738,2019-06-20 15:06:36:060
8.354438903808594,-0.01316790771484375,0.44471615600585934,0.03650894664994922,-0.030773415204137854,-0.003071930309973881,0.13491201400756836,2019-06-20 15:06:36:065
8.377183471679688,-0.0407008056640625,0.43753366088867185,0.03744105303147695,-0.029974466877114084,-0.002805614200965957,0.14003205299377441,2019-06-20 15:06:36:070
8.365212646484375,-0.0311241455078125,0.4135920104980469,0.0362426305409413,-0.03037394104062597,-0.002672456146461995,0.1448960304260254,2019-06-20 15:06:36:075
8.364015563964843,-0.0215474853515625,0.3932416076660156,0.03570999832292545,-0.029841308822610123,-0.0020066658739421855,0.15001606941223145,2019-06-20 15:06:36:080
8.367606811523437,-0.0023941650390625,0.42556283569335934,0.033712627505366015,-0.028243412168562583,-0.0014740336559263382,0.15488004684448242,2019-06-20 15:06:36:085
8.366409729003905,0.00119708251953125,0.4698548889160156,0.03331315334185413,-0.02811025411405862,0.00012386299812120486,0.16000008583068848,2019-06-20 15:06:36:090
8.348453491210938,-0.0454891357421875,0.46386947631835934,0.03264736306933432,-0.02970815076810616,0.0006564952161370526,0.16486406326293945,2019-06-20 15:06:36:095
8.33289141845703,-0.032321228027343746,0.4854169616699219,0.03198157279681452,-0.02970815076810616,0.0011891274341529002,0.1699841022491455,2019-06-20 15:06:36:100
8.374789306640626,-0.032321228027343746,0.43753366088867185,0.03118262446979074,-0.03037394104062597,0.0002570210526251668,0.17484807968139648,2019-06-20 15:06:36:105
8.391548461914063,-0.02753289794921875,0.42316867065429686,0.030783150306278855,-0.029974466877114084,0.0011891274341529002,0.17996811866760254,2019-06-20 15:06:36:110
8.386760131835937,-0.0454891357421875,0.42556283569335934,0.03104946641528678,-0.03050709909512993,0.0011891274341529002,0.18483209609985352,2019-06-20 15:06:36:115
8.3700009765625,-0.046686218261718745,0.4662636413574219,0.030916308360782817,-0.030906573258641816,0.0014554435431608239,0.18995213508605957,2019-06-20 15:06:36:120
8.377183471679688,-0.07302203369140625,0.4722490539550781,0.03038367614276697,-0.03143920547665766,0.0011891274341529002,0.19507217407226562,2019-06-20 15:06:36:125
8.365212646484375,-0.08738702392578125,0.43035116577148436,0.031715256687806594,-0.03050709909512993,0.00012386299812120486,0.1999361515045166,2019-06-20 15:06:36:130
8.38077471923828,-0.081401611328125,0.4267599182128906,0.032114730851318475,-0.03050709909512993,0.00012386299812120486,0.20505619049072266,2019-06-20 15:06:36:135
8.367606811523437,-0.0885841064453125,0.4411249084472656,0.030916308360782817,-0.03037394104062597,0.0006564952161370526,0.20992016792297363,2019-06-20 15:06:36:140
8.344862243652344,-0.08259869384765625,0.4770373840332031,0.031715256687806594,-0.03170552158566559,0.00012386299812120486,0.2150402069091797,2019-06-20 15:06:36:145
8.35084765625,-0.07541619873046874,0.4518986511230469,0.03144894057879867,-0.031306047422153704,-0.0009414014379104903,0.21990418434143066,2019-06-20 15:06:36:150
8.362818481445313,-0.06464245605468749,0.43753366088867185,0.03184841474231055,-0.03143920547665766,-0.0012077175469184143,0.22502422332763672,2019-06-20 15:06:36:155
8.36042431640625,-0.05865704345703125,0.42556283569335934,0.03224788890582244,-0.030240782986122008,-0.0010745594924144524,0.2298882007598877,2019-06-20 15:06:36:160
8.359227233886719,-0.07302203369140625,0.5033731994628906,0.03158209863330263,-0.03157236353116163,-0.0013408756014223761,0.23500800132751465,2019-06-20 15:06:36:165
8.335285583496093,-0.07541619873046874,0.4387307434082031,0.03158209863330263,-0.03143920547665766,-0.0021398239284461476,0.23987221717834473,2019-06-20 15:06:36:170
8.337679748535155,-0.071824951171875,0.45668698120117185,0.03184841474231055,-0.03050709909512993,-0.0018735078194382236,0.24499201774597168,2019-06-20 15:06:36:175
8.358030151367187,-0.07062786865234374,0.41598617553710937,0.032514205014830364,-0.030640257149633893,-0.0021398239284461476,0.24985599517822266,2019-06-20 15:06:36:180
8.34007391357422,-0.07781036376953125,0.40521243286132813,0.03304683723284621,-0.030107624931618046,-0.0009414014379104903,0.2549760341644287,2019-06-20 15:06:36:185
8.318526428222656,-0.071824951171875,0.43513949584960937,0.0323810469603264,-0.030906573258641816,-0.0014740336559263382,0.2598400115966797,2019-06-20 15:06:36:190
8.328103088378906,-0.043094970703125,0.47344613647460937,0.03144894057879867,-0.030773415204137854,-0.0014740336559263382,0.26496005058288574,2019-06-20 15:06:36:195
8.344862243652344,-0.056262878417968745,0.4411249084472656,0.03264736306933432,-0.029308676604594276,-0.001740349764934262,0.2698240280151367,2019-06-20 15:06:36:200
8.36162139892578,-0.07421911621093749,0.45668698120117185,0.03317999528735017,-0.03037394104062597,-0.003205088364477843,0.2749440670013428,2019-06-20 15:06:36:205
8.367606811523437,-0.08259869384765625,0.4411249084472656,0.0341121016688779,-0.03117288936764974,-0.004536668909517462,0.28006410598754883,2019-06-20 15:06:36:210
8.344862243652344,-0.09696368408203125,0.44351907348632813,0.03424525972338187,-0.0323713118581854,-0.004536668909517462,0.2849280834197998,2019-06-20 15:06:36:215
8.364015563964843,-0.08978118896484374,0.42556283569335934,0.03544368221391753,-0.031971837694673516,-0.004669826964021424,0.29004812240600586,2019-06-20 15:06:36:220
8.366409729003905,-0.08978118896484374,0.44351907348632813,0.03531052415941356,-0.030240782986122008,-0.004936143073029348,0.29491209983825684,2019-06-20 15:06:36:225
8.384365966796874,-0.08738702392578125,0.4016211853027344,0.035576840268421485,-0.03143920547665766,-0.005335617236541234,0.3000321388244629,2019-06-20 15:06:36:230
8.356833068847656,-0.100554931640625,0.40521243286132813,0.03584315637742941,-0.0323713118581854,-0.005868249454557082,0.30489611625671387,2019-06-20 15:06:36:235
8.356833068847656,-0.10893450927734374,0.4411249084472656,0.03664210470445318,-0.031039731313145778,-0.0057350914000531186,0.3100161552429199,2019-06-20 15:06:36:240
8.344862243652344,-0.0981607666015625,0.3764824523925781,0.03757421108598091,-0.030107624931618046,-0.0057350914000531186,0.3148801326751709,2019-06-20 15:06:36:245
8.3316943359375,-0.11372283935546874,0.38605911254882813,0.03877263357651657,-0.029308676604594276,-0.007332988054100662,0.32000017166137695,2019-06-20 15:06:36:250
8.348453491210938,-0.08618994140625,0.42556283569335934,0.038905791631020537,-0.02970815076810616,-0.0077324622176125485,0.32486414909362793,2019-06-20 15:06:36:255
8.373592224121094,-0.09935784912109374,0.4016211853027344,0.03997105606705223,-0.030107624931618046,-0.0074661461086046235,0.329984188079834,2019-06-20 15:06:36:260
8.346059326171876,-0.10534326171875,0.39204452514648436,0.04010421412155619,-0.029974466877114084,-0.008398252490132357,0.33484816551208496,2019-06-20 15:06:36:265
8.374789306640626,-0.10534326171875,0.39204452514648436,0.04037053023056411,-0.029441834659098238,-0.0099961491441799,0.339968204498291,2019-06-20 15:06:36:270
8.375986389160156,-0.10414617919921874,0.40521243286132813,0.040503688285068076,-0.029841308822610123,-0.00933035887166009,0.344832181930542,2019-06-20 15:06:36:275
8.348453491210938,-0.09456951904296874,0.4459132385253906,0.04156895272109977,-0.029974466877114084,-0.008930884708148205,0.34995222091674805,2019-06-20 15:06:36:280
8.36162139892578,-0.0790074462890625,0.4267599182128906,0.041702110775603735,-0.028642886332074468,-0.010129307198683862,0.355072021484375,2019-06-20 15:06:36:285
8.348453491210938,-0.07302203369140625,0.42556283569335934,0.04156895272109977,-0.029841308822610123,-0.010928255525707633,0.359935998916626,2019-06-20 15:06:36:290
8.36042431640625,-0.08379577636718749,0.42316867065429686,0.04263421715713147,-0.030773415204137854,-0.010395623307691787,0.36505603790283203,2019-06-20 15:06:36:295
8.381971801757812,-0.08738702392578125,0.4387307434082031,0.042101584939115616,-0.030240782986122008,-0.010395623307691787,0.369920015335083,2019-06-20 15:06:36:300
8.336482666015625,-0.07781036376953125,0.48062863159179686,0.042501059102627504,-0.030773415204137854,-0.010528781362195748,0.37504005432128906,2019-06-20 15:06:36:305
8.343665161132812,-0.0598541259765625,0.39802993774414064,0.04303369132064335,-0.03037394104062597,-0.010795097471203672,0.37990403175354004,2019-06-20 15:06:36:310
8.364015563964843,-0.07541619873046874,0.4411249084472656,0.043166849375147316,-0.03050709909512993,-0.011061413580211595,0.3850240707397461,2019-06-20 15:06:36:315
8.371198059082031,-0.05865704345703125,0.4076065979003906,0.04303369132064335,-0.029308676604594276,-0.011727203852731405,0.38988804817199707,2019-06-20 15:06:36:320
8.364015563964843,-0.02035040283203125,0.4471103210449219,0.04369948159316316,-0.029841308822610123,-0.011061413580211595,0.3950080871582031,2019-06-20 15:06:36:325
8.348453491210938,-0.052671630859375,0.49259945678710937,0.043300007429651274,-0.030107624931618046,-0.010928255525707633,0.3998720645904541,2019-06-20 15:06:36:330
8.36042431640625,-0.03471539306640625,0.45548989868164064,0.04343316548415524,-0.0295749927136022,-0.01066193941669971,0.40499210357666016,2019-06-20 15:06:36:335
8.358030151367187,-0.0407008056640625,0.40640951538085934,0.04383263964766712,-0.030240782986122008,-0.01066193941669971,0.40985608100891113,2019-06-20 15:06:36:340
8.377183471679688,-0.0502774658203125,0.4590811462402344,0.042501059102627504,-0.028642886332074468,-0.011061413580211595,0.4149761199951172,2019-06-20 15:06:36:345
8.367606811523437,-0.051474548339843745,0.5009790344238281,0.04103632050308392,-0.029841308822610123,-0.0099961491441799,0.41984009742736816,2019-06-20 15:06:36:350
8.385563049316406,-0.04429205322265625,0.4842198791503906,0.04156895272109977,-0.03050709909512993,-0.010395623307691787,0.4249601364135742,2019-06-20 15:06:36:355
8.387957214355469,-0.052671630859375,0.4770373840332031,0.04143579466659581,-0.029175518550090315,-0.010262465253187823,0.4298241138458252,2019-06-20 15:06:36:360
8.38077471923828,-0.041897888183593746,0.4770373840332031,0.04143579466659581,-0.029175518550090315,-0.010129307198683862,0.43494415283203125,2019-06-20 15:06:36:365
8.33289141845703,-0.051474548339843745,0.41718325805664064,0.04090316244857996,-0.030240782986122008,-0.010395623307691787,0.4400641918182373,2019-06-20 15:06:36:370
8.344862243652344,-0.06583953857421875,0.44471615600585934,0.041702110775603735,-0.030107624931618046,-0.011460887743723482,0.4449281692504883,2019-06-20 15:06:36:375
8.36162139892578,-0.0598541259765625,0.46147531127929686,0.04090316244857996,-0.03037394104062597,-0.010795097471203672,0.45004820823669434,2019-06-20 15:06:36:380
8.347256408691406,-0.02992706298828125,0.4387307434082031,0.040770004394076,-0.0295749927136022,-0.010262465253187823,0.4549121856689453,2019-06-20 15:06:36:385
8.346059326171876,-0.06344537353515625,0.4267599182128906,0.04103632050308392,-0.029308676604594276,-0.009596674980668015,0.46003222465515137,2019-06-20 15:06:36:390
8.343665161132812,-0.05865704345703125,0.4327453308105469,0.04037053023056411,-0.029042360495586353,-0.010262465253187823,0.46489620208740234,2019-06-20 15:06:36:395
8.3700009765625,-0.037109558105468746,0.45429281616210937,0.039704739958044306,-0.02890920244108239,-0.009463516926164052,0.4700160026550293,2019-06-20 15:06:36:400
8.372395141601562,-0.0454891357421875,0.4399278259277344,0.04023737217606015,-0.027577621896042768,-0.008930884708148205,0.4748802185058594,2019-06-20 15:06:36:405
8.3700009765625,-0.046686218261718745,0.4471103210449219,0.04103632050308392,-0.02811025411405862,-0.00933035887166009,0.48000001907348633,2019-06-20 15:06:36:410
8.389154296875,-0.04788330078125,0.4207745056152344,0.040770004394076,-0.029308676604594276,-0.00933035887166009,0.4848639965057373,2019-06-20 15:06:36:415
8.35084765625,-0.02872998046875,0.42436575317382813,0.04037053023056411,-0.028509728277570506,-0.010528781362195748,0.48998403549194336,2019-06-20 15:06:36:420
8.34007391357422,-0.032321228027343746,0.4411249084472656,0.04023737217606015,-0.029308676604594276,-0.010262465253187823,0.49484801292419434,2019-06-20 15:06:36:425
8.378380554199218,-0.02992706298828125,0.46865780639648436,0.03957158190354034,-0.029175518550090315,-0.009862991089675938,0.4999680519104004,2019-06-20 15:06:36:430
8.384365966796874,-0.02872998046875,0.4387307434082031,0.03877263357651657,-0.029441834659098238,-0.0099961491441799,0.5048320293426514,2019-06-20 15:06:36:435
8.359227233886719,-0.0263358154296875,0.4471103210449219,0.03917210774002846,-0.029175518550090315,-0.009197200817156128,0.5099520683288574,2019-06-20 15:06:36:440
8.355635986328124,-0.032321228027343746,0.4590811462402344,0.038240001358500725,-0.02970815076810616,-0.008531410544636318,0.5150721073150635,2019-06-20 15:06:36:445
8.378380554199218,-0.0454891357421875,0.46267239379882813,0.039038949685524495,-0.028642886332074468,-0.009862991089675938,0.5199360847473145,2019-06-20 15:06:36:450
8.355635986328124,-0.061051208496093745,0.4902052917480469,0.03863947552201261,-0.0295749927136022,-0.009596674980668015,0.5250561237335205,2019-06-20 15:06:36:455
8.381971801757812,-0.0790074462890625,0.4483074035644531,0.03863947552201261,-0.0295749927136022,-0.009596674980668015,0.5299201011657715,2019-06-20 15:06:36:460
8.37957763671875,-0.05386871337890625,0.4602782287597656,0.03877263357651657,-0.02970815076810616,-0.009729833035171977,0.5350401401519775,2019-06-20 15:06:36:465
8.36880389404297,-0.056262878417968745,0.4518986511230469,0.038240001358500725,-0.028243412168562583,-0.009197200817156128,0.5399041175842285,2019-06-20 15:06:36:470
8.387957214355469,-0.056262878417968745,0.4459132385253906,0.03930526579453242,-0.029042360495586353,-0.00933035887166009,0.5450241565704346,2019-06-20 15:06:36:475
8.338876831054687,-0.062248291015625,0.43513949584960937,0.03837315941300468,-0.028243412168562583,-0.0099961491441799,0.5498881340026855,2019-06-20 15:06:36:480
8.344862243652344,-0.06823370361328125,0.44351907348632813,0.03757421108598091,-0.029175518550090315,-0.00933035887166009,0.5550081729888916,2019-06-20 15:06:36:485
8.35204473876953,-0.062248291015625,0.45548989868164064,0.037174736922469025,-0.029042360495586353,-0.009463516926164052,0.5598721504211426,2019-06-20 15:06:36:490
8.366409729003905,-0.06583953857421875,0.47344613647460937,0.037840527194988836,-0.029175518550090315,-0.009596674980668015,0.5649921894073486,2019-06-20 15:06:36:495
8.335285583496093,-0.0574599609375,0.46147531127929686,0.03730789497697299,-0.02890920244108239,-0.009862991089675938,0.5698561668395996,2019-06-20 15:06:36:500
8.348453491210938,-0.06344537353515625,0.4387307434082031,0.037174736922469025,-0.02890920244108239,-0.009463516926164052,0.5749762058258057,2019-06-20 15:06:36:505
8.337679748535155,-0.037109558105468746,0.4100007629394531,0.038240001358500725,-0.028376570223066545,-0.009729833035171977,0.5798401832580566,2019-06-20 15:06:36:510
8.372395141601562,-0.046686218261718745,0.4339424133300781,0.03810684330399676,-0.028642886332074468,-0.008797726653644243,0.5849602222442627,2019-06-20 15:06:36:515
8.364015563964843,-0.043094970703125,0.4518986511230469,0.03810684330399676,-0.0295749927136022,-0.00933035887166009,0.5898241996765137,2019-06-20 15:06:36:520
8.35084765625,-0.02992706298828125,0.47464321899414064,0.03757421108598091,-0.029841308822610123,-0.009862991089675938,0.5949440002441406,2019-06-20 15:06:36:525
8.35204473876953,-0.0311241455078125,0.4507015686035156,0.03863947552201261,-0.029841308822610123,-0.008265094435628395,0.6000640392303467,2019-06-20 15:06:36:530
8.343665161132812,-0.046686218261718745,0.4578840637207031,0.03850631746750865,-0.02877604438657843,-0.00786562027211651,0.6049280166625977,2019-06-20 15:06:36:535
8.343665161132812,-0.01795623779296875,0.43753366088867185,0.0379736852494928,-0.030640257149633893,-0.0077324622176125485,0.6100480556488037,2019-06-20 15:06:36:540
8.346059326171876,-0.04908038330078125,0.46267239379882813,0.0379736852494928,-0.030107624931618046,-0.007332988054100662,0.6149120330810547,2019-06-20 15:06:36:545
8.364015563964843,-0.0191533203125,0.4650665588378906,0.03837315941300468,-0.029441834659098238,-0.0074661461086046235,0.6200320720672607,2019-06-20 15:06:36:550
8.355635986328124,-0.033518310546875,0.4507015686035156,0.03757421108598091,-0.029441834659098238,-0.0064008816725729285,0.6248960494995117,2019-06-20 15:06:36:555
8.347256408691406,-0.03950372314453125,0.42556283569335934,0.03810684330399676,-0.030107624931618046,-0.005868249454557082,0.6300160884857178,2019-06-20 15:06:36:560
8.372395141601562,-0.06344537353515625,0.44471615600585934,0.0379736852494928,-0.028642886332074468,-0.005468775291045195,0.6348800659179688,2019-06-20 15:06:36:565
8.353241821289062,-0.07062786865234374,0.4471103210449219,0.03744105303147695,-0.02890920244108239,-0.005601933345549157,0.6400001049041748,2019-06-20 15:06:36:570
8.34127099609375,-0.041897888183593746,0.4219715881347656,0.03863947552201261,-0.029974466877114084,-0.006001407509061044,0.6448640823364258,2019-06-20 15:06:36:575
8.367606811523437,-0.04429205322265625,0.46865780639648436,0.03917210774002846,-0.02890920244108239,-0.004802985018525386,0.6499841213226318,2019-06-20 15:06:36:580
8.359227233886719,-0.038306640625,0.4483074035644531,0.03957158190354034,-0.029175518550090315,-0.005202459182037272,0.6548480987548828,2019-06-20 15:06:36:585
8.375986389160156,-0.052671630859375,0.44232199096679686,0.039038949685524495,-0.02970815076810616,-0.005468775291045195,0.6599681377410889,2019-06-20 15:06:36:590
8.393942626953125,-0.051474548339843745,0.4411249084472656,0.03917210774002846,-0.029441834659098238,-0.006001407509061044,0.6648321151733398,2019-06-20 15:06:36:595
8.395139709472655,-0.06583953857421875,0.4195774230957031,0.03930526579453242,-0.029308676604594276,-0.006267723618068967,0.6699521541595459,2019-06-20 15:06:36:600
8.364015563964843,-0.061051208496093745,0.4518986511230469,0.03943842384903638,-0.029175518550090315,-0.006667197781580852,0.675072193145752,2019-06-20 15:06:36:605
8.355635986328124,-0.07661328125,0.4722490539550781,0.039837898012548265,-0.02970815076810616,-0.0070666719450927385,0.6799361705780029,2019-06-20 15:06:36:610
8.362818481445313,-0.08978118896484374,0.46267239379882813,0.03930526579453242,-0.029441834659098238,-0.0070666719450927385,0.685056209564209,2019-06-20 15:06:36:615
8.372395141601562,-0.07062786865234374,0.4399278259277344,0.03917210774002846,-0.03050709909512993,-0.0070666719450927385,0.68992018699646,2019-06-20 15:06:36:620
8.358030151367187,-0.0694307861328125,0.45429281616210937,0.04010421412155619,-0.029441834659098238,-0.007998778326620472,0.695040225982666,2019-06-20 15:06:36:625
8.358030151367187,-0.07661328125,0.4267599182128906,0.039704739958044306,-0.029175518550090315,-0.0071998299995967,0.699904203414917,2019-06-20 15:06:36:630
8.349650573730468,-0.0790074462890625,0.43035116577148436,0.03957158190354034,-0.03037394104062597,-0.0071998299995967,0.705024003982544,2019-06-20 15:06:36:635
8.343665161132812,-0.09337243652343749,0.4100007629394531,0.03957158190354034,-0.030640257149633893,-0.008531410544636318,0.709888219833374,2019-06-20 15:06:36:640
8.346059326171876,-0.05386871337890625,0.3908474426269531,0.04037053023056411,-0.031039731313145778,-0.007599304163108585,0.715008020401001,2019-06-20 15:06:36:645
8.343665161132812,-0.0550657958984375,0.42556283569335934,0.039837898012548265,-0.030640257149633893,-0.008265094435628395,0.719871997833252,2019-06-20 15:06:36:650
8.359227233886719,-0.062248291015625,0.44950448608398436,0.04010421412155619,-0.0295749927136022,-0.008265094435628395,0.724992036819458,2019-06-20 15:06:36:655
8.354438903808594,-0.0502774658203125,0.44351907348632813,0.04037053023056411,-0.03037394104062597,-0.008664568599140282,0.729856014251709,2019-06-20 15:06:36:660
8.364015563964843,-0.052671630859375,0.4315482482910156,0.04116947855758789,-0.03157236353116163,-0.007998778326620472,0.734976053237915,2019-06-20 15:06:36:665
8.387957214355469,-0.061051208496093745,0.4782344665527344,0.040770004394076,-0.030640257149633893,-0.008265094435628395,0.7400960922241211,2019-06-20 15:06:36:670
8.358030151367187,-0.03471539306640625,0.44950448608398436,0.039837898012548265,-0.031306047422153704,-0.008797726653644243,0.7449600696563721,2019-06-20 15:06:36:675
8.377183471679688,-0.03950372314453125,0.41119784545898436,0.04037053023056411,-0.030640257149633893,-0.007599304163108585,0.7500801086425781,2019-06-20 15:06:36:680
8.35204473876953,-0.06823370361328125,0.4411249084472656,0.040770004394076,-0.030107624931618046,-0.0074661461086046235,0.7549440860748291,2019-06-20 15:06:36:685
8.364015563964843,-0.06464245605468749,0.4854169616699219,0.04010421412155619,-0.030240782986122008,-0.007599304163108585,0.7600641250610352,2019-06-20 15:06:36:690
8.378380554199218,-0.07661328125,0.4387307434082031,0.04037053023056411,-0.029974466877114084,-0.008265094435628395,0.7649281024932861,2019-06-20 15:06:36:695
8.37957763671875,-0.0598541259765625,0.40521243286132813,0.03997105606705223,-0.02970815076810616,-0.008797726653644243,0.7700481414794922,2019-06-20 15:06:36:700
8.377183471679688,-0.0694307861328125,0.4578840637207031,0.04023737217606015,-0.02970815076810616,-0.00786562027211651,0.7749121189117432,2019-06-20 15:06:36:705
8.36162139892578,-0.0790074462890625,0.46267239379882813,0.040636846339572034,-0.028642886332074468,-0.008265094435628395,0.7800321578979492,2019-06-20 15:06:36:710
8.387957214355469,-0.037109558105468746,0.4459132385253906,0.040503688285068076,-0.029441834659098238,-0.008398252490132357,0.7848961353302002,2019-06-20 15:06:36:715
8.36880389404297,-0.0550657958984375,0.4471103210449219,0.040770004394076,-0.030240782986122008,-0.008797726653644243,0.7900161743164062,2019-06-20 15:06:36:720
8.366409729003905,-0.0502774658203125,0.42556283569335934,0.04023737217606015,-0.03037394104062597,-0.008531410544636318,0.7948801517486572,2019-06-20 15:06:36:725
8.36042431640625,-0.043094970703125,0.43633657836914064,0.039837898012548265,-0.030640257149633893,-0.008265094435628395,0.8000001907348633,2019-06-20 15:06:36:730
8.377183471679688,-0.03471539306640625,0.4219715881347656,0.040503688285068076,-0.029841308822610123,-0.0074661461086046235,0.8048641681671143,2019-06-20 15:06:36:735
8.377183471679688,-0.02035040283203125,0.37767953491210937,0.04023737217606015,-0.029175518550090315,-0.0077324622176125485,0.8099842071533203,2019-06-20 15:06:36:740
8.355635986328124,-0.02035040283203125,0.3932416076660156,0.04010421412155619,-0.0295749927136022,-0.008664568599140282,0.8148481845855713,2019-06-20 15:06:36:745
8.35204473876953,-0.0167591552734375,0.4339424133300781,0.03997105606705223,-0.02890920244108239,-0.006134565563565005,0.8199682235717773,2019-06-20 15:06:36:750
8.36162139892578,-0.0263358154296875,0.40401535034179686,0.03957158190354034,-0.029308676604594276,-0.00653403972707689,0.8248322010040283,2019-06-20 15:06:36:755
8.348453491210938,-0.0359124755859375,0.4674607238769531,0.039038949685524495,-0.030240782986122008,-0.0070666719450927385,0.8299520015716553,2019-06-20 15:06:36:760
8.343665161132812,-0.02992706298828125,0.4770373840332031,0.03943842384903638,-0.029974466877114084,-0.006001407509061044,0.8350720405578613,2019-06-20 15:06:36:765
8.347256408691406,-0.014364990234375,0.4279570007324219,0.039704739958044306,-0.030906573258641816,-0.005601933345549157,0.8399360179901123,2019-06-20 15:06:36:770
8.356833068847656,-0.0119708251953125,0.4578840637207031,0.039704739958044306,-0.030240782986122008,-0.004669826964021424,0.8450560569763184,2019-06-20 15:06:36:775
8.342468078613281,-0.0407008056640625,0.44232199096679686,0.03877263357651657,-0.029042360495586353,-0.0037377205824936904,0.8499200344085693,2019-06-20 15:06:36:780
8.356833068847656,-0.033518310546875,0.45668698120117185,0.038240001358500725,-0.028376570223066545,-0.004137194746005576,0.8550400733947754,2019-06-20 15:06:36:785
8.384365966796874,-0.0694307861328125,0.4483074035644531,0.0379736852494928,-0.02877604438657843,-0.0037377205824936904,0.8599040508270264,2019-06-20 15:06:36:790
8.365212646484375,-0.07062786865234374,0.42316867065429686,0.03837315941300468,-0.029042360495586353,-0.003205088364477843,0.8650240898132324,2019-06-20 15:06:36:795
8.36042431640625,-0.06344537353515625,0.46267239379882813,0.03877263357651657,-0.029042360495586353,-0.0037377205824936904,0.8698880672454834,2019-06-20 15:06:36:800
8.346059326171876,-0.0550657958984375,0.46386947631835934,0.03837315941300468,-0.029175518550090315,-0.0036045625279897287,0.8750081062316895,2019-06-20 15:06:36:805
8.334088500976563,-0.037109558105468746,0.42436575317382813,0.03810684330399676,-0.027444463841538806,-0.0038708786369976524,0.8798720836639404,2019-06-20 15:06:36:810
8.347256408691406,-0.03950372314453125,0.4411249084472656,0.03837315941300468,-0.0295749927136022,-0.0038708786369976524,0.8849921226501465,2019-06-20 15:06:36:815
8.346059326171876,-0.0359124755859375,0.4530957336425781,0.03850631746750865,-0.030240782986122008,-0.0038708786369976524,0.8898561000823975,2019-06-20 15:06:36:820
8.342468078613281,-0.023941650390625,0.4219715881347656,0.03757421108598091,-0.029042360495586353,-0.003205088364477843,0.8949761390686035,2019-06-20 15:06:36:825
8.358030151367187,-0.05386871337890625,0.4530957336425781,0.0379736852494928,-0.02890920244108239,-0.002805614200965957,0.8998401165008545,2019-06-20 15:06:36:830
8.383168884277344,-0.0694307861328125,0.45429281616210937,0.03744105303147695,-0.029841308822610123,-0.0025392980919580334,0.9049601554870605,2019-06-20 15:06:36:835
8.399928039550781,-0.05386871337890625,0.45548989868164064,0.03744105303147695,-0.02970815076810616,-0.0022729819829501096,0.9098241329193115,2019-06-20 15:06:36:840
8.36880389404297,-0.05865704345703125,0.4315482482910156,0.03650894664994922,-0.029175518550090315,-0.002805614200965957,0.9149441719055176,2019-06-20 15:06:36:845
8.362818481445313,-0.04788330078125,0.44351907348632813,0.0379736852494928,-0.02877604438657843,-0.0025392980919580334,0.9200642108917236,2019-06-20 15:06:36:850
8.36042431640625,-0.07661328125,0.45548989868164064,0.03863947552201261,-0.029308676604594276,-0.002672456146461995,0.9249281883239746,2019-06-20 15:06:36:855
8.37957763671875,-0.05865704345703125,0.45548989868164064,0.037174736922469025,-0.028509728277570506,-0.0021398239284461476,0.9300479888916016,2019-06-20 15:06:36:860
8.367606811523437,-0.06464245605468749,0.46386947631835934,0.03650894664994922,-0.02890920244108239,-0.0016071917104302999,0.9349122047424316,2019-06-20 15:06:36:865
8.35204473876953,-0.07302203369140625,0.4279570007324219,0.03650894664994922,-0.0295749927136022,-0.002938772255469919,0.9400320053100586,2019-06-20 15:06:36:870
8.35084765625,-0.08259869384765625,0.4471103210449219,0.036375788595445255,-0.029042360495586353,-0.003071930309973881,0.9448962211608887,2019-06-20 15:06:36:875
8.377183471679688,-0.08738702392578125,0.4399278259277344,0.036375788595445255,-0.02877604438657843,-0.003205088364477843,0.9500160217285156,2019-06-20 15:06:36:880
8.367606811523437,-0.090978271484375,0.4650665588378906,0.0362426305409413,-0.029175518550090315,-0.0036045625279897287,0.9548799991607666,2019-06-20 15:06:36:885
8.373592224121094,-0.07541619873046874,0.4459132385253906,0.037041578867965066,-0.03037394104062597,-0.004802985018525386,0.9600000381469727,2019-06-20 15:06:36:890
8.377183471679688,-0.062248291015625,0.4842198791503906,0.036375788595445255,-0.030773415204137854,-0.005468775291045195,0.9648640155792236,2019-06-20 15:06:36:895
8.371198059082031,-0.08499285888671874,0.41598617553710937,0.03664210470445318,-0.0295749927136022,-0.005601933345549157,0.9699840545654297,2019-06-20 15:06:36:900
8.343665161132812,-0.10175201416015625,0.4135920104980469,0.03664210470445318,-0.029175518550090315,-0.0057350914000531186,0.9748480319976807,2019-06-20 15:06:36:905
8.338876831054687,-0.10414617919921874,0.4327453308105469,0.035576840268421485,-0.02890920244108239,-0.006001407509061044,0.9799680709838867,2019-06-20 15:06:36:910
8.355635986328124,-0.07661328125,0.43753366088867185,0.03664210470445318,-0.03050709909512993,-0.0064008816725729285,0.9848320484161377,2019-06-20 15:06:36:915
8.36880389404297,-0.08499285888671874,0.4207745056152344,0.03730789497697299,-0.03263762796719332,-0.0077324622176125485,0.9899520874023438,2019-06-20 15:06:36:920
8.346059326171876,-0.100554931640625,0.4399278259277344,0.037041578867965066,-0.02970815076810616,-0.00653403972707689,0.9950721263885498,2019-06-20 15:06:36:925
8.344862243652344,-0.08499285888671874,0.4650665588378906,0.03610947248643733,-0.029841308822610123,-0.0070666719450927385,0.9999361038208008,2019-06-20 15:06:36:930
8.36042431640625,-0.06464245605468749,0.4483074035644531,0.03664210470445318,-0.030240782986122008,-0.006667197781580852,1.0050561428070068,2019-06-20 15:06:36:935
8.359227233886719,-0.07541619873046874,0.4722490539550781,0.03810684330399676,-0.02890920244108239,-0.0070666719450927385,1.0099201202392578,2019-06-20 15:06:36:940
8.371198059082031,-0.09696368408203125,0.45548989868164064,0.037840527194988836,-0.029441834659098238,-0.00786562027211651,1.0150401592254639,2019-06-20 15:06:36:945
8.364015563964843,-0.10534326171875,0.4135920104980469,0.03757421108598091,-0.029441834659098238,-0.009064042762652167,1.0199041366577148,2019-06-20 15:06:36:950
8.34007391357422,-0.10414617919921874,0.4195774230957031,0.03810684330399676,-0.031306047422153704,-0.008797726653644243,1.025024175643921,2019-06-20 15:06:36:955
8.346059326171876,-0.114919921875,0.43513949584960937,0.037840527194988836,-0.0295749927136022,-0.009862991089675938,1.0298881530761719,2019-06-20 15:06:36:960
8.371198059082031,-0.08259869384765625,0.4914023742675781,0.03730789497697299,-0.029841308822610123,-0.010262465253187823,1.035008192062378,2019-06-20 15:06:36:965
8.365212646484375,-0.071824951171875,0.4387307434082031,0.0379736852494928,-0.030107624931618046,-0.01066193941669971,1.039872169494629,2019-06-20 15:06:36:970
8.36042431640625,-0.08738702392578125,0.4291540832519531,0.03917210774002846,-0.029841308822610123,-0.01066193941669971,1.044992208480835,2019-06-20 15:06:36:975
8.366409729003905,-0.09217535400390625,0.43513949584960937,0.03863947552201261,-0.029308676604594276,-0.011460887743723482,1.049856185913086,2019-06-20 15:06:36:980
8.356833068847656,-0.0790074462890625,0.41838034057617185,0.03930526579453242,-0.029308676604594276,-0.011061413580211595,1.054976224899292,2019-06-20 15:06:36:985
8.364015563964843,-0.07661328125,0.4399278259277344,0.04023737217606015,-0.028509728277570506,-0.011460887743723482,1.059840202331543,2019-06-20 15:06:36:990
8.346059326171876,-0.07781036376953125,0.43513949584960937,0.040503688285068076,-0.029974466877114084,-0.011727203852731405,1.06496000289917,2019-06-20 15:06:36:995
8.348453491210938,-0.07781036376953125,0.43035116577148436,0.039837898012548265,-0.029308676604594276,-0.011194571634715558,1.070080041885376,2019-06-20 15:06:37:000
8.343665161132812,-0.07541619873046874,0.4411249084472656,0.04037053023056411,-0.029441834659098238,-0.01132772968921952,1.074944019317627,2019-06-20 15:06:37:005
8.35204473876953,-0.051474548339843745,0.45429281616210937,0.04090316244857996,-0.02890920244108239,-0.011194571634715558,1.080064058303833,2019-06-20 15:06:37:010
8.374789306640626,-0.06344537353515625,0.46147531127929686,0.03997105606705223,-0.028509728277570506,-0.011860361907235367,1.084928035736084,2019-06-20 15:06:37:015
8.348453491210938,-0.07302203369140625,0.44232199096679686,0.04037053023056411,-0.028376570223066545,-0.01212667801624329,1.09004807472229,2019-06-20 15:06:37:020
8.39035137939453,-0.0598541259765625,0.41598617553710937,0.04156895272109977,-0.029308676604594276,-0.011460887743723482,1.094912052154541,2019-06-20 15:06:37:025
8.392745544433593,-0.07062786865234374,0.4315482482910156,0.04156895272109977,-0.029175518550090315,-0.01212667801624329,1.100032091140747,2019-06-20 15:06:37:030
8.364015563964843,-0.06703662109375,0.4578840637207031,0.04090316244857996,-0.029308676604594276,-0.011860361907235367,1.104896068572998,2019-06-20 15:06:37:035
8.36880389404297,-0.056262878417968745,0.41119784545898436,0.040770004394076,-0.029308676604594276,-0.01265931023425914,1.110016107559204,2019-06-20 15:06:37:040
8.354438903808594,-0.03950372314453125,0.4195774230957031,0.04183526883010769,-0.02970815076810616,-0.012392994125251213,1.114880084991455,2019-06-20 15:06:37:045
8.326906005859374,-0.06344537353515625,0.4471103210449219,0.04143579466659581,-0.029841308822610123,-0.010928255525707633,1.1200001239776611,2019-06-20 15:06:37:050
8.328103088378906,-0.04788330078125,0.42436575317382813,0.04103632050308392,-0.029175518550090315,-0.010262465253187823,1.124864101409912,2019-06-20 15:06:37:055
8.356833068847656,-0.07541619873046874,0.43633657836914064,0.04090316244857996,-0.029974466877114084,-0.0099961491441799,1.1299841403961182,2019-06-20 15:06:37:060
8.356833068847656,-0.056262878417968745,0.4590811462402344,0.04090316244857996,-0.02970815076810616,-0.010928255525707633,1.1348481178283691,2019-06-20 15:06:37:065
8.334088500976563,-0.037109558105468746,0.4518986511230469,0.040503688285068076,-0.029308676604594276,-0.011061413580211595,1.1399681568145752,2019-06-20 15:06:37:070
8.395139709472655,-0.052671630859375,0.44232199096679686,0.040503688285068076,-0.029441834659098238,-0.01066193941669971,1.1448321342468262,2019-06-20 15:06:37:075
8.383168884277344,-0.03950372314453125,0.45429281616210937,0.04116947855758789,-0.029042360495586353,-0.010262465253187823,1.1499521732330322,2019-06-20 15:06:37:080
8.36880389404297,-0.038306640625,0.4100007629394531,0.040503688285068076,-0.02970815076810616,-0.0099961491441799,1.1550722122192383,2019-06-20 15:06:37:085
8.37957763671875,-0.0263358154296875,0.45668698120117185,0.04023737217606015,-0.02877604438657843,-0.009463516926164052,1.1599361896514893,2019-06-20 15:06:37:090
8.391548461914063,-0.0191533203125,0.4399278259277344,0.04103632050308392,-0.028509728277570506,-0.008531410544636318,1.1650559902191162,2019-06-20 15:06:37:095
8.367606811523437,-0.032321228027343746,0.4315482482910156,0.04143579466659581,-0.029441834659098238,-0.008398252490132357,1.1699202060699463,2019-06-20 15:06:37:100
8.414293029785156,-0.033518310546875,0.4387307434082031,0.040636846339572034,-0.029974466877114084,-0.008265094435628395,1.1750400066375732,2019-06-20 15:06:37:105
8.401125122070312,-0.056262878417968745,0.44950448608398436,0.04156895272109977,-0.029042360495586353,-0.008930884708148205,1.1799042224884033,2019-06-20 15:06:37:110
8.389154296875,-0.07541619873046874,0.45548989868164064,0.041302636612091846,-0.0295749927136022,-0.008398252490132357,1.1850240230560303,2019-06-20 15:06:37:115
8.365212646484375,-0.061051208496093745,0.4578840637207031,0.04103632050308392,-0.0295749927136022,-0.0077324622176125485,1.1898880004882812,2019-06-20 15:06:37:120
8.383168884277344,-0.0263358154296875,0.46147531127929686,0.04090316244857996,-0.030240782986122008,-0.0077324622176125485,1.1950080394744873,2019-06-20 15:06:37:125
8.381971801757812,-0.041897888183593746,0.46386947631835934,0.040770004394076,-0.029441834659098238,-0.0070666719450927385,1.1998720169067383,2019-06-20 15:06:37:130
8.366409729003905,-0.043094970703125,0.4518986511230469,0.04037053023056411,-0.030107624931618046,-0.0057350914000531186,1.2049920558929443,2019-06-20 15:06:37:135
8.355635986328124,-0.0550657958984375,0.44471615600585934,0.04023737217606015,-0.0295749927136022,-0.0070666719450927385,1.2098560333251953,2019-06-20 15:06:37:140
8.348453491210938,-0.0574599609375,0.4219715881347656,0.04037053023056411,-0.02890920244108239,-0.006134565563565005,1.2149760723114014,2019-06-20 15:06:37:145
8.375986389160156,-0.041897888183593746,0.4459132385253906,0.04023737217606015,-0.02877604438657843,-0.0064008816725729285,1.2198400497436523,2019-06-20 15:06:37:150
8.373592224121094,-0.06583953857421875,0.45548989868164064,0.040503688285068076,-0.03050709909512993,-0.006134565563565005,1.2249600887298584,2019-06-20 15:06:37:155
8.375986389160156,-0.05386871337890625,0.4782344665527344,0.04010421412155619,-0.030906573258641816,-0.006267723618068967,1.2298240661621094,2019-06-20 15:06:37:160
8.355635986328124,-0.051474548339843745,0.4123949279785156,0.04090316244857996,-0.030640257149633893,-0.006667197781580852,1.2349441051483154,2019-06-20 15:06:37:165
8.37957763671875,-0.02513873291015625,0.4698548889160156,0.04037053023056411,-0.030640257149633893,-0.0070666719450927385,1.2400641441345215,2019-06-20 15:06:37:170
8.37957763671875,-0.08020452880859374,0.46267239379882813,0.04037053023056411,-0.03037394104062597,-0.0070666719450927385,1.2449281215667725,2019-06-20 15:06:37:175
8.354438903808594,-0.07661328125,0.4483074035644531,0.03997105606705223,-0.029175518550090315,-0.006800355836084815,1.2500481605529785,2019-06-20 15:06:37:180
8.344862243652344,-0.0790074462890625,0.4339424133300781,0.040636846339572034,-0.030640257149633893,-0.006001407509061044,1.2549121379852295,2019-06-20 15:06:37:185
8.36880389404297,-0.0598541259765625,0.43513949584960937,0.04090316244857996,-0.030107624931618046,-0.00653403972707689,1.2600321769714355,2019-06-20 15:06:37:190
8.386760131835937,-0.051474548339843745,0.4267599182128906,0.04010421412155619,-0.030107624931618046,-0.0050693011275333094,1.2648961544036865,2019-06-20 15:06:37:195
8.401125122070312,-0.0694307861328125,0.4530957336425781,0.03997105606705223,-0.02970815076810616,-0.006267723618068967,1.2700161933898926,2019-06-20 15:06:37:200
8.372395141601562,-0.0694307861328125,0.4279570007324219,0.03930526579453242,-0.030773415204137854,-0.00653403972707689,1.2748801708221436,2019-06-20 15:06:37:205
8.366409729003905,-0.06344537353515625,0.4315482482910156,0.039837898012548265,-0.029974466877114084,-0.006933513890588777,1.2800002098083496,2019-06-20 15:06:37:210
8.34127099609375,-0.06703662109375,0.42316867065429686,0.04010421412155619,-0.028642886332074468,-0.006800355836084815,1.2848641872406006,2019-06-20 15:06:37:215
8.348453491210938,-0.05386871337890625,0.4411249084472656,0.04010421412155619,-0.028243412168562583,-0.006667197781580852,1.2899842262268066,2019-06-20 15:06:37:220
8.387957214355469,-0.052671630859375,0.46267239379882813,0.03997105606705223,-0.028642886332074468,-0.006800355836084815,1.2948482036590576,2019-06-20 15:06:37:225
8.3700009765625,-0.07661328125,0.4590811462402344,0.040503688285068076,-0.0295749927136022,-0.006667197781580852,1.2999680042266846,2019-06-20 15:06:37:230
8.349650573730468,-0.07541619873046874,0.43753366088867185,0.04183526883010769,-0.030640257149633893,-0.0074661461086046235,1.3048322200775146,2019-06-20 15:06:37:235
8.342468078613281,-0.08379577636718749,0.4782344665527344,0.040636846339572034,-0.03037394104062597,-0.0071998299995967,1.3099520206451416,2019-06-20 15:06:37:240
8.362818481445313,-0.05865704345703125,0.4590811462402344,0.040503688285068076,-0.030107624931618046,-0.006800355836084815,1.3150720596313477,2019-06-20 15:06:37:245
8.383168884277344,-0.051474548339843745,0.45548989868164064,0.04023737217606015,-0.029308676604594276,-0.006667197781580852,1.3199360370635986,2019-06-20 15:06:37:250
8.347256408691406,-0.04908038330078125,0.47344613647460937,0.04037053023056411,-0.029042360495586353,-0.006933513890588777,1.3250560760498047,2019-06-20 15:06:37:255
8.374789306640626,-0.05386871337890625,0.4890082092285156,0.039837898012548265,-0.029841308822610123,-0.006933513890588777,1.3299200534820557,2019-06-20 15:06:37:260
8.347256408691406,-0.0574599609375,0.47464321899414064,0.03917210774002846,-0.029308676604594276,-0.00653403972707689,1.3350400924682617,2019-06-20 15:06:37:265
8.371198059082031,-0.04788330078125,0.44950448608398436,0.04090316244857996,-0.029308676604594276,-0.007332988054100662,1.3399040699005127,2019-06-20 15:06:37:270
8.38077471923828,-0.041897888183593746,0.4147890930175781,0.04037053023056411,-0.028376570223066545,-0.007998778326620472,1.3450241088867188,2019-06-20 15:06:37:275
8.367606811523437,-0.07661328125,0.4387307434082031,0.041302636612091846,-0.028642886332074468,-0.0077324622176125485,1.3498880863189697,2019-06-20 15:06:37:280
8.362818481445313,-0.07062786865234374,0.4602782287597656,0.040636846339572034,-0.029841308822610123,-0.007998778326620472,1.3550081253051758,2019-06-20 15:06:37:285
8.367606811523437,-0.05865704345703125,0.4327453308105469,0.03957158190354034,-0.029441834659098238,-0.008131936381124433,1.3598721027374268,2019-06-20 15:06:37:290
8.391548461914063,-0.0694307861328125,0.43513949584960937,0.03943842384903638,-0.029042360495586353,-0.008664568599140282,1.3649921417236328,2019-06-20 15:06:37:295
8.366409729003905,-0.06464245605468749,0.4602782287597656,0.04037053023056411,-0.02890920244108239,-0.008930884708148205,1.3698561191558838,2019-06-20 15:06:37:300
8.359227233886719,-0.0790074462890625,0.4327453308105469,0.04090316244857996,-0.02784393800505069,-0.009064042762652167,1.3749761581420898,2019-06-20 15:06:37:305
8.356833068847656,-0.100554931640625,0.4483074035644531,0.04010421412155619,-0.02877604438657843,-0.008797726653644243,1.3798401355743408,2019-06-20 15:06:37:310
8.372395141601562,-0.071824951171875,0.42556283569335934,0.039704739958044306,-0.029308676604594276,-0.009463516926164052,1.3849601745605469,2019-06-20 15:06:37:315
8.346059326171876,-0.05865704345703125,0.4602782287597656,0.04010421412155619,-0.030107624931618046,-0.009197200817156128,1.390080213546753,2019-06-20 15:06:37:320
8.367606811523437,-0.05386871337890625,0.4674607238769531,0.03957158190354034,-0.02970815076810616,-0.00933035887166009,1.394944190979004,2019-06-20 15:06:37:325
8.375986389160156,-0.0550657958984375,0.44471615600585934,0.03930526579453242,-0.02890920244108239,-0.00933035887166009,1.4000639915466309,2019-06-20 15:06:37:330
8.367606811523437,-0.08618994140625,0.4387307434082031,0.04116947855758789,-0.029441834659098238,-0.009729833035171977,1.404928207397461,2019-06-20 15:06:37:335
8.353241821289062,-0.0694307861328125,0.46386947631835934,0.04183526883010769,-0.028642886332074468,-0.010129307198683862,1.410048007965088,2019-06-20 15:06:37:340
8.375986389160156,-0.0574599609375,0.46865780639648436,0.04090316244857996,-0.02890920244108239,-0.008930884708148205,1.414912223815918,2019-06-20 15:06:37:345
8.389154296875,-0.07781036376953125,0.4327453308105469,0.03997105606705223,-0.029974466877114084,-0.008398252490132357,1.420032024383545,2019-06-20 15:06:37:350
8.343665161132812,-0.081401611328125,0.43633657836914064,0.040636846339572034,-0.029175518550090315,-0.008930884708148205,1.424896001815796,2019-06-20 15:06:37:355
8.36042431640625,-0.04788330078125,0.42436575317382813,0.04010421412155619,-0.02877604438657843,-0.009729833035171977,1.430016040802002,2019-06-20 15:06:37:360
8.36042431640625,-0.04788330078125,0.42436575317382813,0.04010421412155619,-0.02877604438657843,-0.009729833035171977,1.4328320026397705,2019-06-20 15:06:37:363
8.349650573730468,-0.0598541259765625,0.45548989868164064,0.040503688285068076,-0.030107624931618046,-0.009596674980668015,1.440000057220459,2019-06-20 15:06:37:370
8.349650573730468,-0.0598541259765625,0.45548989868164064,0.040503688285068076,-0.030107624931618046,-0.009596674980668015,1.4428160190582275,2019-06-20 15:06:37:373
8.354438903808594,-0.0502774658203125,0.49379653930664064,0.039837898012548265,-0.02970815076810616,-0.008398252490132357,1.449984073638916,2019-06-20 15:06:37:380
8.354438903808594,-0.0502774658203125,0.49379653930664064,0.039837898012548265,-0.02970815076810616,-0.008398252490132357,1.4528000354766846,2019-06-20 15:06:37:383
8.36042431640625,-0.0598541259765625,0.4207745056152344,0.03957158190354034,-0.02970815076810616,-0.008265094435628395,1.459968090057373,2019-06-20 15:06:37:390
8.36042431640625,-0.0598541259765625,0.4207745056152344,0.03957158190354034,-0.02970815076810616,-0.008265094435628395,1.4627840518951416,2019-06-20 15:06:37:393
8.355635986328124,-0.04429205322265625,0.4315482482910156,0.03957158190354034,-0.02797709605955466,-0.00786562027211651,1.46995210647583,2019-06-20 15:06:37:400
8.355635986328124,-0.04429205322265625,0.4315482482910156,0.03957158190354034,-0.02797709605955466,-0.00786562027211651,1.4727680683135986,2019-06-20 15:06:37:403
8.337679748535155,-0.032321228027343746,0.4088036804199219,0.039038949685524495,-0.02890920244108239,-0.00786562027211651,1.479936122894287,2019-06-20 15:06:37:410
8.354438903808594,-0.0454891357421875,0.41838034057617185,0.03837315941300468,-0.029042360495586353,-0.008265094435628395,1.4850561618804932,2019-06-20 15:06:37:415
8.34127099609375,-0.038306640625,0.4507015686035156,0.03877263357651657,-0.029042360495586353,-0.0077324622176125485,1.4899201393127441,2019-06-20 15:06:37:420
8.359227233886719,-0.0407008056640625,0.4710519714355469,0.03810684330399676,-0.03037394104062597,-0.008664568599140282,1.4950401782989502,2019-06-20 15:06:37:425
8.346059326171876,-0.03950372314453125,0.4459132385253906,0.03917210774002846,-0.02890920244108239,-0.008797726653644243,1.4999041557312012,2019-06-20 15:06:37:430
8.36042431640625,-0.056262878417968745,0.44351907348632813,0.03943842384903638,-0.028642886332074468,-0.008531410544636318,1.5050241947174072,2019-06-20 15:06:37:435
8.371198059082031,-0.0502774658203125,0.44471615600585934,0.038905791631020537,-0.028642886332074468,-0.008531410544636318,1.5098881721496582,2019-06-20 15:06:37:440
8.392745544433593,-0.0454891357421875,0.4662636413574219,0.039038949685524495,-0.03037394104062597,-0.0070666719450927385,1.5150082111358643,2019-06-20 15:06:37:445
8.407110534667968,-0.061051208496093745,0.4973877868652344,0.039038949685524495,-0.029974466877114084,-0.007599304163108585,1.5198721885681152,2019-06-20 15:06:37:450
8.371198059082031,-0.046686218261718745,0.4973877868652344,0.03837315941300468,-0.029308676604594276,-0.007998778326620472,1.5249919891357422,2019-06-20 15:06:37:455
8.364015563964843,-0.061051208496093745,0.4770373840332031,0.03877263357651657,-0.0295749927136022,-0.007998778326620472,1.5298562049865723,2019-06-20 15:06:37:460
8.355635986328124,-0.05865704345703125,0.42436575317382813,0.038240001358500725,-0.029441834659098238,-0.008531410544636318,1.5349760055541992,2019-06-20 15:06:37:465
8.354438903808594,-0.03950372314453125,0.4471103210449219,0.03877263357651657,-0.029308676604594276,-0.008131936381124433,1.5398402214050293,2019-06-20 15:06:37:470
8.310146850585937,-0.02035040283203125,0.44471615600585934,0.03957158190354034,-0.028376570223066545,-0.008398252490132357,1.5449600219726562,2019-06-20 15:06:37:475
8.358030151367187,-0.033518310546875,0.4650665588378906,0.03837315941300468,-0.030107624931618046,-0.007332988054100662,1.5498239994049072,2019-06-20 15:06:37:480
8.343665161132812,-0.043094970703125,0.47584030151367185,0.03850631746750865,-0.02877604438657843,-0.005468775291045195,1.5549440383911133,2019-06-20 15:06:37:485
8.354438903808594,-0.03950372314453125,0.4698548889160156,0.03877263357651657,-0.029441834659098238,-0.006134565563565005,1.5600640773773193,2019-06-20 15:06:37:490
8.36042431640625,-0.0263358154296875,0.4518986511230469,0.03810684330399676,-0.029841308822610123,-0.0057350914000531186,1.5649280548095703,2019-06-20 15:06:37:495
8.353241821289062,-0.02035040283203125,0.4662636413574219,0.03877263357651657,-0.030107624931618046,-0.005601933345549157,1.5700480937957764,2019-06-20 15:06:37:500
8.37957763671875,-0.014364990234375,0.4411249084472656,0.037840527194988836,-0.030640257149633893,-0.004536668909517462,1.5749120712280273,2019-06-20 15:06:37:505
8.381971801757812,-0.0359124755859375,0.4219715881347656,0.037840527194988836,-0.030640257149633893,-0.004270352800509538,1.5800321102142334,2019-06-20 15:06:37:510
8.367606811523437,-0.032321228027343746,0.47464321899414064,0.03744105303147695,-0.029042360495586353,-0.004137194746005576,1.5848960876464844,2019-06-20 15:06:37:515
8.355635986328124,-0.052671630859375,0.4710519714355469,0.03677526275895714,-0.02970815076810616,-0.0038708786369976524,1.5900161266326904,2019-06-20 15:06:37:520
8.36042431640625,-0.0598541259765625,0.4662636413574219,0.037041578867965066,-0.029175518550090315,-0.0034714044734857666,1.5948801040649414,2019-06-20 15:06:37:525
8.387957214355469,-0.038306640625,0.48062863159179686,0.0369084208134611,-0.03117288936764974,-0.004669826964021424,1.6000001430511475,2019-06-20 15:06:37:530
8.38077471923828,-0.04908038330078125,0.4590811462402344,0.03730789497697299,-0.030906573258641816,-0.005468775291045195,1.6048641204833984,2019-06-20 15:06:37:535
8.344862243652344,-0.052671630859375,0.4854169616699219,0.0369084208134611,-0.02970815076810616,-0.004802985018525386,1.6099841594696045,2019-06-20 15:06:37:540
8.353241821289062,-0.046686218261718745,0.4866140441894531,0.0369084208134611,-0.03050709909512993,-0.005601933345549157,1.6148481369018555,2019-06-20 15:06:37:545
8.356833068847656,-0.05865704345703125,0.3824678649902344,0.03770736914048488,-0.030240782986122008,-0.006267723618068967,1.6199681758880615,2019-06-20 15:06:37:550
8.359227233886719,-0.03471539306640625,0.4327453308105469,0.037174736922469025,-0.030773415204137854,-0.006001407509061044,1.6248321533203125,2019-06-20 15:06:37:555
8.354438903808594,-0.043094970703125,0.43513949584960937,0.03650894664994922,-0.030240782986122008,-0.0050693011275333094,1.6299521923065186,2019-06-20 15:06:37:560
8.37957763671875,-0.02513873291015625,0.43753366088867185,0.037041578867965066,-0.031039731313145778,-0.004536668909517462,1.6350719928741455,2019-06-20 15:06:37:565
8.367606811523437,-0.05865704345703125,0.45668698120117185,0.03730789497697299,-0.03117288936764974,-0.004270352800509538,1.6399362087249756,2019-06-20 15:06:37:570
8.387957214355469,-0.0550657958984375,0.4794315490722656,0.03730789497697299,-0.031306047422153704,-0.004936143073029348,1.6450560092926025,2019-06-20 15:06:37:575
8.353241821289062,-0.03950372314453125,0.4483074035644531,0.0362426305409413,-0.031971837694673516,-0.0050693011275333094,1.6499202251434326,2019-06-20 15:06:37:580
8.335285583496093,-0.07541619873046874,0.4123949279785156,0.03610947248643733,-0.03183867964016955,-0.0038708786369976524,1.6550400257110596,2019-06-20 15:06:37:585
8.358030151367187,-0.07541619873046874,0.4602782287597656,0.03664210470445318,-0.03170552158566559,-0.0033382464189818046,1.6599040031433105,2019-06-20 15:06:37:590
8.364015563964843,-0.0598541259765625,0.43035116577148436,0.03744105303147695,-0.031306047422153704,-0.0033382464189818046,1.6650240421295166,2019-06-20 15:06:37:595
8.362818481445313,-0.07421911621093749,0.4387307434082031,0.03677526275895714,-0.030107624931618046,-0.002672456146461995,1.6698880195617676,2019-06-20 15:06:37:600
8.39035137939453,-0.062248291015625,0.41838034057617185,0.03610947248643733,-0.0323713118581854,-0.002672456146461995,1.6750080585479736,2019-06-20 15:06:37:605
8.375986389160156,-0.03950372314453125,0.41838034057617185,0.03597631443193337,-0.031306047422153704,-0.002672456146461995,1.6798720359802246,2019-06-20 15:06:37:610
8.371198059082031,-0.06583953857421875,0.45548989868164064,0.03584315637742941,-0.03117288936764974,-0.003205088364477843,1.6849920749664307,2019-06-20 15:06:37:615
8.377183471679688,-0.061051208496093745,0.44471615600585934,0.03610947248643733,-0.03117288936764974,-0.0037377205824936904,1.6898560523986816,2019-06-20 15:06:37:620
8.371198059082031,-0.061051208496093745,0.4327453308105469,0.03744105303147695,-0.03170552158566559,-0.0038708786369976524,1.6949760913848877,2019-06-20 15:06:37:625
8.364015563964843,-0.10175201416015625,0.42436575317382813,0.03810684330399676,-0.03050709909512993,-0.004802985018525386,1.6998400688171387,2019-06-20 15:06:37:630
8.344862243652344,-0.0885841064453125,0.4698548889160156,0.037840527194988836,-0.029974466877114084,-0.004137194746005576,1.7049601078033447,2019-06-20 15:06:37:635
8.365212646484375,-0.081401611328125,0.39922702026367185,0.037840527194988836,-0.030107624931618046,-0.004270352800509538,1.7098240852355957,2019-06-20 15:06:37:640
8.33289141845703,-0.08379577636718749,0.44471615600585934,0.03757421108598091,-0.03050709909512993,-0.004270352800509538,1.7149441242218018,2019-06-20 15:06:37:645
8.358030151367187,-0.08738702392578125,0.44232199096679686,0.037840527194988836,-0.030640257149633893,-0.004936143073029348,1.7200641632080078,2019-06-20 15:06:37:650
8.35204473876953,-0.07541619873046874,0.4914023742675781,0.038905791631020537,-0.029042360495586353,-0.005601933345549157,1.7249281406402588,2019-06-20 15:06:37:655
8.371198059082031,-0.07302203369140625,0.46267239379882813,0.04010421412155619,-0.029441834659098238,-0.0057350914000531186,1.7300481796264648,2019-06-20 15:06:37:660
8.39035137939453,-0.090978271484375,0.44471615600585934,0.03957158190354034,-0.030107624931618046,-0.00653403972707689,1.7349121570587158,2019-06-20 15:06:37:665
8.359227233886719,-0.08618994140625,0.4028182678222656,0.04010421412155619,-0.029841308822610123,-0.0064008816725729285,1.7400321960449219,2019-06-20 15:06:37:670
8.364015563964843,-0.090978271484375,0.4339424133300781,0.039837898012548265,-0.030107624931618046,-0.006267723618068967,1.7448961734771729,2019-06-20 15:06:37:675
8.358030151367187,-0.0885841064453125,0.42556283569335934,0.03997105606705223,-0.029441834659098238,-0.007599304163108585,1.750016212463379,2019-06-20 15:06:37:680
8.36162139892578,-0.081401611328125,0.43753366088867185,0.039704739958044306,-0.029841308822610123,-0.007599304163108585,1.7548801898956299,2019-06-20 15:06:37:685
8.384365966796874,-0.061051208496093745,0.43633657836914064,0.04103632050308392,-0.030107624931618046,-0.007998778326620472,1.7599999904632568,2019-06-20 15:06:37:690
8.373592224121094,-0.052671630859375,0.39922702026367185,0.04037053023056411,-0.029441834659098238,-0.007998778326620472,1.764864206314087,2019-06-20 15:06:37:695
8.346059326171876,-0.07062786865234374,0.39802993774414064,0.04037053023056411,-0.030107624931618046,-0.007998778326620472,1.7699840068817139,2019-06-20 15:06:37:700
8.354438903808594,-0.07781036376953125,0.4123949279785156,0.040636846339572034,-0.03050709909512993,-0.008930884708148205,1.774848222732544,2019-06-20 15:06:37:705
8.36162139892578,-0.090978271484375,0.4530957336425781,0.04037053023056411,-0.03037394104062597,-0.008930884708148205,1.779968023300171,2019-06-20 15:06:37:710
8.356833068847656,-0.06583953857421875,0.4207745056152344,0.039837898012548265,-0.03050709909512993,-0.00933035887166009,1.7848320007324219,2019-06-20 15:06:37:715
8.355635986328124,-0.0885841064453125,0.4315482482910156,0.038905791631020537,-0.030240782986122008,-0.008664568599140282,1.789952039718628,2019-06-20 15:06:37:720
8.36880389404297,-0.08259869384765625,0.4399278259277344,0.04037053023056411,-0.029841308822610123,-0.008531410544636318,1.795072078704834,2019-06-20 15:06:37:725
8.362818481445313,-0.08738702392578125,0.44471615600585934,0.040770004394076,-0.029308676604594276,-0.009463516926164052,1.799936056137085,2019-06-20 15:06:37:730
8.381971801757812,-0.05865704345703125,0.4267599182128906,0.03997105606705223,-0.029441834659098238,-0.0099961491441799,1.805056095123291,2019-06-20 15:06:37:735
8.371198059082031,-0.062248291015625,0.41598617553710937,0.03943842384903638,-0.02970815076810616,-0.009862991089675938,1.809920072555542,2019-06-20 15:06:37:740
8.34127099609375,-0.07302203369140625,0.44351907348632813,0.03997105606705223,-0.028243412168562583,-0.0099961491441799,1.815040111541748,2019-06-20 15:06:37:745
8.344862243652344,-0.07541619873046874,0.4387307434082031,0.04023737217606015,-0.028642886332074468,-0.010928255525707633,1.819904088973999,2019-06-20 15:06:37:750
8.374789306640626,-0.0550657958984375,0.45548989868164064,0.03930526579453242,-0.029175518550090315,-0.01066193941669971,1.825024127960205,2019-06-20 15:06:37:755
8.395139709472655,-0.051474548339843745,0.4518986511230469,0.03917210774002846,-0.029308676604594276,-0.010262465253187823,1.829888105392456,2019-06-20 15:06:37:760
8.395139709472655,-0.0407008056640625,0.4854169616699219,0.04090316244857996,-0.028509728277570506,-0.010129307198683862,1.835008144378662,2019-06-20 15:06:37:765
8.37957763671875,-0.052671630859375,0.4411249084472656,0.03930526579453242,-0.029175518550090315,-0.009596674980668015,1.839872121810913,2019-06-20 15:06:37:770
8.375986389160156,-0.07421911621093749,0.4327453308105469,0.03810684330399676,-0.029175518550090315,-0.009862991089675938,1.8449921607971191,2019-06-20 15:06:37:775
8.375986389160156,-0.0885841064453125,0.4578840637207031,0.038905791631020537,-0.02797709605955466,-0.010262465253187823,1.8498561382293701,2019-06-20 15:06:37:780
8.366409729003905,-0.07421911621093749,0.4339424133300781,0.03957158190354034,-0.028642886332074468,-0.011061413580211595,1.8549761772155762,2019-06-20 15:06:37:785
8.37957763671875,-0.07781036376953125,0.43753366088867185,0.03997105606705223,-0.02877604438657843,-0.010795097471203672,1.8598401546478271,2019-06-20 15:06:37:790
8.375986389160156,-0.0694307861328125,0.4088036804199219,0.03930526579453242,-0.028243412168562583,-0.010528781362195748,1.8649601936340332,2019-06-20 15:06:37:795
8.3316943359375,-0.061051208496093745,0.4291540832519531,0.03917210774002846,-0.02970815076810616,-0.010395623307691787,1.8698241710662842,2019-06-20 15:06:37:800
8.344862243652344,-0.062248291015625,0.4327453308105469,0.03957158190354034,-0.029042360495586353,-0.010262465253187823,1.8749442100524902,2019-06-20 15:06:37:805
8.34127099609375,-0.06464245605468749,0.43035116577148436,0.03957158190354034,-0.029175518550090315,-0.010395623307691787,1.8800640106201172,2019-06-20 15:06:37:810
8.347256408691406,-0.06464245605468749,0.44950448608398436,0.04037053023056411,-0.029308676604594276,-0.009862991089675938,1.8849282264709473,2019-06-20 15:06:37:815
8.356833068847656,-0.0502774658203125,0.43035116577148436,0.03997105606705223,-0.029841308822610123,-0.009729833035171977,1.8900480270385742,2019-06-20 15:06:37:820
8.374789306640626,-0.07661328125,0.46865780639648436,0.03957158190354034,-0.0295749927136022,-0.010129307198683862,1.8949120044708252,2019-06-20 15:06:37:825
8.374789306640626,-0.07302203369140625,0.4698548889160156,0.03917210774002846,-0.028243412168562583,-0.009729833035171977,1.9000320434570312,2019-06-20 15:06:37:830
8.348453491210938,-0.0550657958984375,0.4578840637207031,0.03837315941300468,-0.02890920244108239,-0.009729833035171977,1.9048960208892822,2019-06-20 15:06:37:835
8.374789306640626,-0.041897888183593746,0.4279570007324219,0.0379736852494928,-0.03050709909512993,-0.009729833035171977,1.9100160598754883,2019-06-20 15:06:37:840
8.384365966796874,-0.06823370361328125,0.4471103210449219,0.03877263357651657,-0.030240782986122008,-0.009197200817156128,1.9148800373077393,2019-06-20 15:06:37:845
8.38077471923828,-0.05865704345703125,0.43513949584960937,0.03810684330399676,-0.029042360495586353,-0.008398252490132357,1.9200000762939453,2019-06-20 15:06:37:850
8.4083076171875,-0.0598541259765625,0.4291540832519531,0.038240001358500725,-0.028509728277570506,-0.008131936381124433,1.9248640537261963,2019-06-20 15:06:37:855
8.374789306640626,-0.051474548339843745,0.4327453308105469,0.03850631746750865,-0.0295749927136022,-0.008131936381124433,1.9299840927124023,2019-06-20 15:06:37:860
8.36042431640625,-0.06583953857421875,0.41119784545898436,0.037840527194988836,-0.029841308822610123,-0.009197200817156128,1.9348480701446533,2019-06-20 15:06:37:865
8.34127099609375,-0.051474548339843745,0.43633657836914064,0.038240001358500725,-0.029441834659098238,-0.009862991089675938,1.9399681091308594,2019-06-20 15:06:37:870
8.348453491210938,-0.0598541259765625,0.45429281616210937,0.039038949685524495,-0.0295749927136022,-0.009729833035171977,1.9448320865631104,2019-06-20 15:06:37:875
8.387957214355469,-0.061051208496093745,0.43633657836914064,0.039038949685524495,-0.0295749927136022,-0.009862991089675938,1.9499521255493164,2019-06-20 15:06:37:880
8.373592224121094,-0.04788330078125,0.4590811462402344,0.039038949685524495,-0.029841308822610123,-0.007998778326620472,1.9550721645355225,2019-06-20 15:06:37:885
8.354438903808594,-0.0454891357421875,0.4411249084472656,0.039704739958044306,-0.030640257149633893,-0.008531410544636318,1.9599361419677734,2019-06-20 15:06:37:890
8.342468078613281,-0.05386871337890625,0.44351907348632813,0.03957158190354034,-0.029974466877114084,-0.009197200817156128,1.9650561809539795,2019-06-20 15:06:37:895
8.359227233886719,-0.08738702392578125,0.4507015686035156,0.039704739958044306,-0.030107624931618046,-0.009197200817156128,1.9699201583862305,2019-06-20 15:06:37:900
8.377183471679688,-0.06823370361328125,0.4279570007324219,0.03917210774002846,-0.029175518550090315,-0.008930884708148205,1.9750401973724365,2019-06-20 15:06:37:905
8.349650573730468,-0.07661328125,0.4770373840332031,0.039837898012548265,-0.029308676604594276,-0.009463516926164052,1.9799041748046875,2019-06-20 15:06:37:910
8.364015563964843,-0.07421911621093749,0.46147531127929686,0.04023737217606015,-0.029441834659098238,-0.009596674980668015,1.9850242137908936,2019-06-20 15:06:37:915
8.371198059082031,-0.04908038330078125,0.4399278259277344,0.039704739958044306,-0.032104995749177474,-0.009862991089675938,1.9898881912231445,2019-06-20 15:06:37:920
8.358030151367187,-0.046686218261718745,0.4674607238769531,0.03917210774002846,-0.03117288936764974,-0.008265094435628395,1.9950079917907715,2019-06-20 15:06:37:925
8.365212646484375,-0.04788330078125,0.41838034057617185,0.038905791631020537,-0.030107624931618046,-0.0077324622176125485,1.9998722076416016,2019-06-20 15:06:37:930
8.371198059082031,-0.052671630859375,0.43633657836914064,0.03943842384903638,-0.030107624931618046,-0.0074661461086046235,2.0049920082092285,2019-06-20 15:06:37:935
8.354438903808594,-0.06344537353515625,0.39802993774414064,0.039704739958044306,-0.030107624931618046,-0.008131936381124433,2.0098562240600586,2019-06-20 15:06:37:940
8.3700009765625,-0.056262878417968745,0.4399278259277344,0.03917210774002846,-0.030107624931618046,-0.007998778326620472,2.0149760246276855,2019-06-20 15:06:37:945
8.37957763671875,-0.07781036376953125,0.4698548889160156,0.038905791631020537,-0.030640257149633893,-0.007599304163108585,2.0198400020599365,2019-06-20 15:06:37:950
8.371198059082031,-0.06344537353515625,0.46865780639648436,0.03957158190354034,-0.029308676604594276,-0.0074661461086046235,2.0249600410461426,2019-06-20 15:06:37:955
8.377183471679688,-0.0502774658203125,0.4219715881347656,0.039704739958044306,-0.029042360495586353,-0.0074661461086046235,2.0298240184783936,2019-06-20 15:06:37:960
8.39035137939453,-0.062248291015625,0.4411249084472656,0.03997105606705223,-0.029841308822610123,-0.00786562027211651,2.0349440574645996,2019-06-20 15:06:37:965
8.38077471923828,-0.0574599609375,0.43753366088867185,0.04037053023056411,-0.030240782986122008,-0.0077324622176125485,2.0400640964508057,2019-06-20 15:06:37:970
8.36042431640625,-0.04788330078125,0.42556283569335934,0.04090316244857996,-0.030773415204137854,-0.008797726653644243,2.0449280738830566,2019-06-20 15:06:37:975
8.36880389404297,-0.014364990234375,0.4399278259277344,0.04090316244857996,-0.0295749927136022,-0.008664568599140282,2.0500481128692627,2019-06-20 15:06:37:980
8.346059326171876,-0.0454891357421875,0.47344613647460937,0.040636846339572034,-0.02970815076810616,-0.007599304163108585,2.0549120903015137,2019-06-20 15:06:37:985
8.344862243652344,-0.0359124755859375,0.44471615600585934,0.03997105606705223,-0.030906573258641816,-0.007599304163108585,2.0600321292877197,2019-06-20 15:06:37:990
8.354438903808594,-0.02872998046875,0.43753366088867185,0.03943842384903638,-0.029441834659098238,-0.006933513890588777,2.0648961067199707,2019-06-20 15:06:37:995
8.37957763671875,-0.02513873291015625,0.46147531127929686,0.03917210774002846,-0.02970815076810616,-0.0071998299995967,2.0700161457061768,2019-06-20 15:06:38:000
8.36042431640625,-0.056262878417968745,0.43513949584960937,0.03930526579453242,-0.02970815076810616,-0.0071998299995967,2.0748801231384277,2019-06-20 15:06:38:005
8.3316943359375,-0.062248291015625,0.41119784545898436,0.03957158190354034,-0.03050709909512993,-0.0071998299995967,2.080000162124634,2019-06-20 15:06:38:010
8.373592224121094,-0.05865704345703125,0.4207745056152344,0.038905791631020537,-0.03143920547665766,-0.005335617236541234,2.0848641395568848,2019-06-20 15:06:38:015
8.377183471679688,-0.0454891357421875,0.43753366088867185,0.03850631746750865,-0.031039731313145778,-0.006267723618068967,2.089984178543091,2019-06-20 15:06:38:020
8.374789306640626,-0.037109558105468746,0.4578840637207031,0.03744105303147695,-0.030107624931618046,-0.006267723618068967,2.094848155975342,2019-06-20 15:06:38:025
8.372395141601562,-0.03471539306640625,0.45668698120117185,0.037174736922469025,-0.029308676604594276,-0.005202459182037272,2.099968194961548,2019-06-20 15:06:38:030
8.347256408691406,-0.052671630859375,0.4674607238769531,0.03770736914048488,-0.030240782986122008,-0.00653403972707689,2.104832172393799,2019-06-20 15:06:38:035
8.35204473876953,-0.07541619873046874,0.4794315490722656,0.03810684330399676,-0.0295749927136022,-0.0070666719450927385,2.109952211380005,2019-06-20 15:06:38:040
8.381971801757812,-0.04788330078125,0.45548989868164064,0.037840527194988836,-0.029308676604594276,-0.006267723618068967,2.115072011947632,2019-06-20 15:06:38:045
8.371198059082031,-0.0502774658203125,0.4411249084472656,0.03757421108598091,-0.02890920244108239,-0.005601933345549157,2.119935989379883,2019-06-20 15:06:38:050
8.35204473876953,-0.081401611328125,0.39204452514648436,0.03837315941300468,-0.029175518550090315,-0.005202459182037272,2.125056028366089,2019-06-20 15:06:38:055
8.365212646484375,-0.05865704345703125,0.45548989868164064,0.03770736914048488,-0.029042360495586353,-0.0050693011275333094,2.12992000579834,2019-06-20 15:06:38:060
8.378380554199218,-0.0694307861328125,0.4518986511230469,0.037041578867965066,-0.031039731313145778,-0.0057350914000531186,2.135040044784546,2019-06-20 15:06:38:065
8.348453491210938,-0.05865704345703125,0.4710519714355469,0.037174736922469025,-0.03117288936764974,-0.0064008816725729285,2.139904022216797,2019-06-20 15:06:38:070
8.344862243652344,-0.05865704345703125,0.45668698120117185,0.03744105303147695,-0.029974466877114084,-0.006800355836084815,2.145024061203003,2019-06-20 15:06:38:075
8.359227233886719,-0.0550657958984375,0.4662636413574219,0.03650894664994922,-0.029841308822610123,-0.0064008816725729285,2.149888038635254,2019-06-20 15:06:38:080
8.364015563964843,-0.043094970703125,0.4710519714355469,0.037041578867965066,-0.02970815076810616,-0.005335617236541234,2.15500807762146,2019-06-20 15:06:38:085
8.35204473876953,-0.0550657958984375,0.4530957336425781,0.037174736922469025,-0.03037394104062597,-0.005868249454557082,2.159872055053711,2019-06-20 15:06:38:090
8.353241821289062,-0.05386871337890625,0.43633657836914064,0.03757421108598091,-0.02970815076810616,-0.006134565563565005,2.164992094039917,2019-06-20 15:06:38:095
8.367606811523437,-0.04788330078125,0.4195774230957031,0.03730789497697299,-0.029042360495586353,-0.005868249454557082,2.169856071472168,2019-06-20 15:06:38:100
8.342468078613281,-0.051474548339843745,0.42436575317382813,0.037840527194988836,-0.028243412168562583,-0.005468775291045195,2.174976110458374,2019-06-20 15:06:38:105
8.348453491210938,-0.0574599609375,0.4411249084472656,0.03770736914048488,-0.02890920244108239,-0.006267723618068967,2.179840087890625,2019-06-20 15:06:38:110
8.353241821289062,-0.07062786865234374,0.4650665588378906,0.03677526275895714,-0.029042360495586353,-0.006800355836084815,2.184960126876831,2019-06-20 15:06:38:115
8.378380554199218,-0.0694307861328125,0.4698548889160156,0.03597631443193337,-0.029042360495586353,-0.0074661461086046235,2.189824104309082,2019-06-20 15:06:38:120
8.37957763671875,-0.05865704345703125,0.43753366088867185,0.037041578867965066,-0.0295749927136022,-0.00653403972707689,2.194944143295288,2019-06-20 15:06:38:125
8.367606811523437,-0.06823370361328125,0.44351907348632813,0.03650894664994922,-0.029175518550090315,-0.006001407509061044,2.200064182281494,2019-06-20 15:06:38:130
8.36042431640625,-0.090978271484375,0.46267239379882813,0.036375788595445255,-0.030240782986122008,-0.006933513890588777,2.204928159713745,2019-06-20 15:06:38:135
8.353241821289062,-0.0694307861328125,0.4471103210449219,0.0369084208134611,-0.029974466877114084,-0.006800355836084815,2.210048198699951,2019-06-20 15:06:38:140
8.373592224121094,-0.06344537353515625,0.43513949584960937,0.03730789497697299,-0.029175518550090315,-0.006001407509061044,2.214912176132202,2019-06-20 15:06:38:145
8.359227233886719,-0.07302203369140625,0.41718325805664064,0.037041578867965066,-0.03037394104062597,-0.0070666719450927385,2.220032215118408,2019-06-20 15:06:38:150
8.347256408691406,-0.07541619873046874,0.47584030151367185,0.03744105303147695,-0.03050709909512993,-0.0070666719450927385,2.224896192550659,2019-06-20 15:06:38:155
8.378380554199218,-0.0790074462890625,0.43035116577148436,0.03757421108598091,-0.030640257149633893,-0.006800355836084815,2.230015993118286,2019-06-20 15:06:38:160
8.385563049316406,-0.061051208496093745,0.42436575317382813,0.03744105303147695,-0.03050709909512993,-0.0071998299995967,2.234880208969116,2019-06-20 15:06:38:165
8.401125122070312,-0.07781036376953125,0.43753366088867185,0.037840527194988836,-0.02970815076810616,-0.007998778326620472,2.240000009536743,2019-06-20 15:06:38:170
8.384365966796874,-0.09935784912109374,0.4327453308105469,0.03757421108598091,-0.03037394104062597,-0.008131936381124433,2.2448642253875732,2019-06-20 15:06:38:175
8.39035137939453,-0.08379577636718749,0.43633657836914064,0.03730789497697299,-0.031039731313145778,-0.0074661461086046235,2.2499840259552,2019-06-20 15:06:38:180
8.39873095703125,-0.06464245605468749,0.4590811462402344,0.037174736922469025,-0.031039731313145778,-0.007599304163108585,2.2551040649414062,2019-06-20 15:06:38:185
8.385563049316406,-0.06703662109375,0.45668698120117185,0.0369084208134611,-0.029441834659098238,-0.008531410544636318,2.2599680423736572,2019-06-20 15:06:38:190
8.35204473876953,-0.056262878417968745,0.46267239379882813,0.03650894664994922,-0.029841308822610123,-0.0077324622176125485,2.264832019805908,2019-06-20 15:06:38:195
8.3700009765625,-0.0598541259765625,0.47464321899414064,0.03677526275895714,-0.030107624931618046,-0.008131936381124433,2.2699520587921143,2019-06-20 15:06:38:200
8.359227233886719,-0.0407008056640625,0.46267239379882813,0.037041578867965066,-0.031039731313145778,-0.0077324622176125485,2.2750720977783203,2019-06-20 15:06:38:205
8.366409729003905,-0.06823370361328125,0.4518986511230469,0.038240001358500725,-0.030240782986122008,-0.007332988054100662,2.2799360752105713,2019-06-20 15:06:38:210
8.385563049316406,-0.046686218261718745,0.4602782287597656,0.03730789497697299,-0.03037394104062597,-0.00786562027211651,2.2850561141967773,2019-06-20 15:06:38:215
8.343665161132812,-0.043094970703125,0.45548989868164064,0.03744105303147695,-0.0295749927136022,-0.007599304163108585,2.2899200916290283,2019-06-20 15:06:38:220
8.375986389160156,-0.0598541259765625,0.48062863159179686,0.0369084208134611,-0.029175518550090315,-0.0071998299995967,2.2950401306152344,2019-06-20 15:06:38:225
8.371198059082031,-0.037109558105468746,0.46386947631835934,0.037041578867965066,-0.029441834659098238,-0.0074661461086046235,2.2999041080474854,2019-06-20 15:06:38:230
8.342468078613281,-0.04908038330078125,0.41598617553710937,0.0379736852494928,-0.029441834659098238,-0.006667197781580852,2.3050241470336914,2019-06-20 15:06:38:235
8.342468078613281,-0.07661328125,0.4195774230957031,0.03863947552201261,-0.028243412168562583,-0.005868249454557082,2.3098881244659424,2019-06-20 15:06:38:240
8.353241821289062,-0.07421911621093749,0.46147531127929686,0.03744105303147695,-0.029974466877114084,-0.005601933345549157,2.3150081634521484,2019-06-20 15:06:38:245
8.37957763671875,-0.041897888183593746,0.45429281616210937,0.037174736922469025,-0.030240782986122008,-0.0064008816725729285,2.3198721408843994,2019-06-20 15:06:38:250
8.36162139892578,-0.0574599609375,0.4195774230957031,0.037840527194988836,-0.02970815076810616,-0.0057350914000531186,2.3249921798706055,2019-06-20 15:06:38:255
8.337679748535155,-0.06703662109375,0.4088036804199219,0.03863947552201261,-0.02890920244108239,-0.005601933345549157,2.3298561573028564,2019-06-20 15:06:38:260
8.367606811523437,-0.05865704345703125,0.43753366088867185,0.039038949685524495,-0.02890920244108239,-0.006267723618068967,2.3349761962890625,2019-06-20 15:06:38:265
8.383168884277344,-0.06464245605468749,0.4195774230957031,0.03943842384903638,-0.030240782986122008,-0.006667197781580852,2.3398401737213135,2019-06-20 15:06:38:270
8.366409729003905,-0.0981607666015625,0.4315482482910156,0.03877263357651657,-0.030107624931618046,-0.006667197781580852,2.3449602127075195,2019-06-20 15:06:38:275
8.343665161132812,-0.11851116943359374,0.40521243286132813,0.03917210774002846,-0.029308676604594276,-0.0077324622176125485,2.3498241901397705,2019-06-20 15:06:38:280
8.354438903808594,-0.08259869384765625,0.38605911254882813,0.03997105606705223,-0.028509728277570506,-0.008131936381124433,2.3549439907073975,2019-06-20 15:06:38:285
8.3700009765625,-0.0550657958984375,0.4399278259277344,0.03943842384903638,-0.029042360495586353,-0.007599304163108585,2.3600640296936035,2019-06-20 15:06:38:290
8.349650573730468,-0.0790074462890625,0.4471103210449219,0.039704739958044306,-0.030107624931618046,-0.007998778326620472,2.3649280071258545,2019-06-20 15:06:38:295
8.384365966796874,-0.071824951171875,0.4459132385253906,0.04010421412155619,-0.029974466877114084,-0.008797726653644243,2.3700480461120605,2019-06-20 15:06:38:300
8.35084765625,-0.05386871337890625,0.4327453308105469,0.04023737217606015,-0.02890920244108239,-0.00933035887166009,2.3749120235443115,2019-06-20 15:06:38:305
8.347256408691406,-0.06823370361328125,0.4327453308105469,0.039704739958044306,-0.029308676604594276,-0.008265094435628395,2.3800320625305176,2019-06-20 15:06:38:310
8.354438903808594,-0.05386871337890625,0.43633657836914064,0.040503688285068076,-0.029042360495586353,-0.008664568599140282,2.3848960399627686,2019-06-20 15:06:38:315
8.381971801757812,-0.03950372314453125,0.4339424133300781,0.04090316244857996,-0.02970815076810616,-0.00933035887166009,2.3900160789489746,2019-06-20 15:06:38:320
8.36880389404297,-0.056262878417968745,0.4483074035644531,0.040770004394076,-0.02970815076810616,-0.009197200817156128,2.3948800563812256,2019-06-20 15:06:38:325
8.356833068847656,-0.046686218261718745,0.40401535034179686,0.04037053023056411,-0.029175518550090315,-0.0099961491441799,2.4000000953674316,2019-06-20 15:06:38:330
8.38077471923828,-0.06703662109375,0.3932416076660156,0.04010421412155619,-0.029974466877114084,-0.009596674980668015,2.4048640727996826,2019-06-20 15:06:38:335
8.377183471679688,-0.06823370361328125,0.40401535034179686,0.039837898012548265,-0.02970815076810616,-0.008664568599140282,2.4099841117858887,2019-06-20 15:06:38:340
8.35204473876953,-0.062248291015625,0.40521243286132813,0.039704739958044306,-0.030107624931618046,-0.008797726653644243,2.4148480892181396,2019-06-20 15:06:38:345
8.365212646484375,-0.07781036376953125,0.39802993774414064,0.040770004394076,-0.029308676604594276,-0.008398252490132357,2.4199681282043457,2019-06-20 15:06:38:350
8.364015563964843,-0.07541619873046874,0.4207745056152344,0.04023737217606015,-0.029175518550090315,-0.00933035887166009,2.4248321056365967,2019-06-20 15:06:38:355
8.373592224121094,-0.061051208496093745,0.4135920104980469,0.041302636612091846,-0.02811025411405862,-0.008797726653644243,2.4299521446228027,2019-06-20 15:06:38:360
8.386760131835937,-0.041897888183593746,0.4279570007324219,0.040770004394076,-0.02890920244108239,-0.008531410544636318,2.435072183609009,2019-06-20 15:06:38:365
8.337679748535155,-0.04788330078125,0.4590811462402344,0.040770004394076,-0.0295749927136022,-0.009064042762652167,2.4399361610412598,2019-06-20 15:06:38:370
8.349650573730468,-0.03471539306640625,0.4590811462402344,0.04023737217606015,-0.029042360495586353,-0.008398252490132357,2.445056200027466,2019-06-20 15:06:38:375
8.383168884277344,-0.051474548339843745,0.3884532775878906,0.03997105606705223,-0.029042360495586353,-0.0077324622176125485,2.449920177459717,2019-06-20 15:06:38:380
8.366409729003905,-0.0550657958984375,0.4147890930175781,0.03997105606705223,-0.029441834659098238,-0.007332988054100662,2.455040216445923,2019-06-20 15:06:38:385
8.348453491210938,-0.0407008056640625,0.4207745056152344,0.04023737217606015,-0.029308676604594276,-0.0070666719450927385,2.459904193878174,2019-06-20 15:06:38:390
8.36042431640625,-0.04788330078125,0.45548989868164064,0.03957158190354034,-0.029974466877114084,-0.0070666719450927385,2.465023994445801,2019-06-20 15:06:38:395
8.35084765625,-0.03471539306640625,0.40640951538085934,0.04023737217606015,-0.03117288936764974,-0.006933513890588777,2.469888210296631,2019-06-20 15:06:38:400
8.32211767578125,-0.03471539306640625,0.4267599182128906,0.03877263357651657,-0.030240782986122008,-0.0064008816725729285,2.475008010864258,2019-06-20 15:06:38:405
8.354438903808594,-0.062248291015625,0.4339424133300781,0.039038949685524495,-0.02970815076810616,-0.006134565563565005,2.479872226715088,2019-06-20 15:06:38:410
8.34007391357422,-0.0311241455078125,0.41718325805664064,0.039704739958044306,-0.029308676604594276,-0.004802985018525386,2.484992027282715,2019-06-20 15:06:38:415
8.348453491210938,-0.06703662109375,0.42436575317382813,0.03917210774002846,-0.029441834659098238,-0.004936143073029348,2.489856004714966,2019-06-20 15:06:38:420
8.353241821289062,-0.05386871337890625,0.41598617553710937,0.039704739958044306,-0.030107624931618046,-0.0057350914000531186,2.494976043701172,2019-06-20 15:06:38:425
8.383168884277344,-0.07661328125,0.4004241027832031,0.04023737217606015,-0.029974466877114084,-0.005601933345549157,2.499840021133423,2019-06-20 15:06:38:430
8.362818481445313,-0.04788330078125,0.4076065979003906,0.039704739958044306,-0.029441834659098238,-0.0050693011275333094,2.504960060119629,2019-06-20 15:06:38:435
8.3700009765625,-0.08020452880859374,0.3884532775878906,0.03957158190354034,-0.03050709909512993,-0.004536668909517462,2.50982403755188,2019-06-20 15:06:38:440
8.346059326171876,-0.06823370361328125,0.4100007629394531,0.039038949685524495,-0.02970815076810616,-0.0050693011275333094,2.514944076538086,2019-06-20 15:06:38:445
8.343665161132812,-0.06703662109375,0.4327453308105469,0.04023737217606015,-0.028509728277570506,-0.004669826964021424,2.520064115524292,2019-06-20 15:06:38:450
8.367606811523437,-0.07541619873046874,0.3884532775878906,0.04103632050308392,-0.029175518550090315,-0.004270352800509538,2.524928092956543,2019-06-20 15:06:38:455
8.371198059082031,-0.07661328125,0.4411249084472656,0.04023737217606015,-0.028509728277570506,-0.005601933345549157,2.530048131942749,2019-06-20 15:06:38:460
8.35204473876953,-0.06464245605468749,0.4602782287597656,0.04037053023056411,-0.02890920244108239,-0.00653403972707689,2.534912109375,2019-06-20 15:06:38:465
8.374789306640626,-0.0454891357421875,0.45429281616210937,0.04090316244857996,-0.029841308822610123,-0.006933513890588777,2.540032148361206,2019-06-20 15:06:38:470
8.356833068847656,-0.07541619873046874,0.43633657836914064,0.04090316244857996,-0.02970815076810616,-0.0064008816725729285,2.544896125793457,2019-06-20 15:06:38:475
8.36042431640625,-0.046686218261718745,0.4387307434082031,0.04023737217606015,-0.0295749927136022,-0.006667197781580852,2.550016164779663,2019-06-20 15:06:38:480
8.37957763671875,-0.062248291015625,0.4590811462402344,0.039704739958044306,-0.0295749927136022,-0.005868249454557082,2.554880142211914,2019-06-20 15:06:38:485
8.364015563964843,-0.07661328125,0.4387307434082031,0.03957158190354034,-0.02877604438657843,-0.0064008816725729285,2.56000018119812,2019-06-20 15:06:38:490
8.3700009765625,-0.056262878417968745,0.47464321899414064,0.039704739958044306,-0.031039731313145778,-0.0071998299995967,2.564864158630371,2019-06-20 15:06:38:495
8.342468078613281,-0.0263358154296875,0.5045702819824218,0.03943842384903638,-0.030107624931618046,-0.006933513890588777,2.569984197616577,2019-06-20 15:06:38:500
8.362818481445313,-0.06823370361328125,0.5009790344238281,0.03917210774002846,-0.029308676604594276,-0.006800355836084815,2.574848175048828,2019-06-20 15:06:38:505
8.334088500976563,-0.071824951171875,0.4518986511230469,0.039038949685524495,-0.030906573258641816,-0.0071998299995967,2.579968214035034,2019-06-20 15:06:38:510
8.336482666015625,-0.056262878417968745,0.4267599182128906,0.03943842384903638,-0.029841308822610123,-0.006933513890588777,2.584832191467285,2019-06-20 15:06:38:515
8.359227233886719,-0.056262878417968745,0.4339424133300781,0.038905791631020537,-0.03037394104062597,-0.0064008816725729285,2.589951992034912,2019-06-20 15:06:38:520
8.378380554199218,-0.0790074462890625,0.41838034057617185,0.039038949685524495,-0.0295749927136022,-0.007332988054100662,2.595072031021118,2019-06-20 15:06:38:525
8.349650573730468,-0.07302203369140625,0.42436575317382813,0.039038949685524495,-0.02811025411405862,-0.006667197781580852,2.599936008453369,2019-06-20 15:06:38:530
8.38077471923828,-0.06583953857421875,0.4411249084472656,0.03930526579453242,-0.029441834659098238,-0.00653403972707689,2.605056047439575,2019-06-20 15:06:38:535
8.36042431640625,-0.08499285888671874,0.4399278259277344,0.038905791631020537,-0.029042360495586353,-0.0064008816725729285,2.609920024871826,2019-06-20 15:06:38:540
8.356833068847656,-0.07781036376953125,0.45429281616210937,0.03837315941300468,-0.029441834659098238,-0.008131936381124433,2.6150400638580322,2019-06-20 15:06:38:545
8.344862243652344,-0.0694307861328125,0.44351907348632813,0.03877263357651657,-0.029175518550090315,-0.0074661461086046235,2.619904041290283,2019-06-20 15:06:38:550
8.375986389160156,-0.06344537353515625,0.5117527770996093,0.03837315941300468,-0.02890920244108239,-0.00786562027211651,2.6250240802764893,2019-06-20 15:06:38:555
8.404716369628906,-0.07302203369140625,0.4123949279785156,0.038905791631020537,-0.0295749927136022,-0.008797726653644243,2.6298880577087402,2019-06-20 15:06:38:560
8.38077471923828,-0.062248291015625,0.4267599182128906,0.03837315941300468,-0.028243412168562583,-0.009197200817156128,2.6350080966949463,2019-06-20 15:06:38:565
8.375986389160156,-0.09337243652343749,0.44232199096679686,0.03877263357651657,-0.028243412168562583,-0.008797726653644243,2.6398720741271973,2019-06-20 15:06:38:570
8.348453491210938,-0.08499285888671874,0.44471615600585934,0.03863947552201261,-0.0295749927136022,-0.008797726653644243,2.6449921131134033,2019-06-20 15:06:38:575
8.364015563964843,-0.0694307861328125,0.46147531127929686,0.03863947552201261,-0.028642886332074468,-0.009197200817156128,2.6498560905456543,2019-06-20 15:06:38:580
8.35084765625,-0.09696368408203125,0.43513949584960937,0.038240001358500725,-0.02890920244108239,-0.010129307198683862,2.6549761295318604,2019-06-20 15:06:38:585
8.353241821289062,-0.07541619873046874,0.4399278259277344,0.03850631746750865,-0.029175518550090315,-0.0099961491441799,2.6598401069641113,2019-06-20 15:06:38:590
8.354438903808594,-0.06464245605468749,0.4507015686035156,0.038905791631020537,-0.02890920244108239,-0.010262465253187823,2.6649601459503174,2019-06-20 15:06:38:595
8.346059326171876,-0.0694307861328125,0.41838034057617185,0.03863947552201261,-0.028509728277570506,-0.010528781362195748,2.6698241233825684,2019-06-20 15:06:38:600
8.358030151367187,-0.0502774658203125,0.46267239379882813,0.03863947552201261,-0.028376570223066545,-0.0099961491441799,2.6749441623687744,2019-06-20 15:06:38:605
8.354438903808594,-0.071824951171875,0.4339424133300781,0.03810684330399676,-0.02877604438657843,-0.01066193941669971,2.6800642013549805,2019-06-20 15:06:38:610
8.354438903808594,-0.07781036376953125,0.41598617553710937,0.03943842384903638,-0.028642886332074468,-0.010262465253187823,2.6849281787872314,2019-06-20 15:06:38:615
8.3700009765625,-0.0550657958984375,0.4004241027832031,0.03943842384903638,-0.02771077995054673,-0.010262465253187823,2.6900482177734375,2019-06-20 15:06:38:620
8.366409729003905,-0.0574599609375,0.4315482482910156,0.039038949685524495,-0.029308676604594276,-0.010262465253187823,2.6949121952056885,2019-06-20 15:06:38:625
8.355635986328124,-0.06703662109375,0.4123949279785156,0.03877263357651657,-0.02877604438657843,-0.011061413580211595,2.7000319957733154,2019-06-20 15:06:38:630
8.374789306640626,-0.06464245605468749,0.43753366088867185,0.03837315941300468,-0.029441834659098238,-0.010395623307691787,2.7048962116241455,2019-06-20 15:06:38:635
8.347256408691406,-0.037109558105468746,0.4471103210449219,0.03837315941300468,-0.029308676604594276,-0.010795097471203672,2.7100160121917725,2019-06-20 15:06:38:640
8.36880389404297,-0.056262878417968745,0.4411249084472656,0.039038949685524495,-0.02970815076810616,-0.01066193941669971,2.7148799896240234,2019-06-20 15:06:38:645
8.37957763671875,-0.0598541259765625,0.4590811462402344,0.03917210774002846,-0.0295749927136022,-0.009064042762652167,2.7200000286102295,2019-06-20 15:06:38:650
8.387957214355469,-0.046686218261718745,0.46267239379882813,0.03957158190354034,-0.0295749927136022,-0.008664568599140282,2.7248640060424805,2019-06-20 15:06:38:655
8.385563049316406,-0.052671630859375,0.4698548889160156,0.03930526579453242,-0.029308676604594276,-0.008797726653644243,2.7299840450286865,2019-06-20 15:06:38:660
8.377183471679688,-0.0454891357421875,0.4698548889160156,0.03917210774002846,-0.029974466877114084,-0.009064042762652167,2.7348480224609375,2019-06-20 15:06:38:665
8.387957214355469,-0.05865704345703125,0.4219715881347656,0.03917210774002846,-0.03050709909512993,-0.008664568599140282,2.7399680614471436,2019-06-20 15:06:38:670
8.364015563964843,-0.033518310546875,0.43035116577148436,0.03917210774002846,-0.030906573258641816,-0.00786562027211651,2.7448320388793945,2019-06-20 15:06:38:675
8.364015563964843,-0.046686218261718745,0.40640951538085934,0.03877263357651657,-0.03050709909512993,-0.0077324622176125485,2.7499520778656006,2019-06-20 15:06:38:680
8.356833068847656,-0.041897888183593746,0.4315482482910156,0.03877263357651657,-0.030240782986122008,-0.008131936381124433,2.7550721168518066,2019-06-20 15:06:38:685
8.378380554199218,-0.081401611328125,0.45548989868164064,0.03943842384903638,-0.030107624931618046,-0.0074661461086046235,2.7599360942840576,2019-06-20 15:06:38:690
8.3700009765625,-0.08020452880859374,0.4291540832519531,0.03917210774002846,-0.02970815076810616,-0.00786562027211651,2.7650561332702637,2019-06-20 15:06:38:695
8.38077471923828,-0.05386871337890625,0.43753366088867185,0.03863947552201261,-0.030240782986122008,-0.0074661461086046235,2.7699201107025146,2019-06-20 15:06:38:700
8.389154296875,-0.0502774658203125,0.4710519714355469,0.039704739958044306,-0.0295749927136022,-0.007332988054100662,2.7750401496887207,2019-06-20 15:06:38:705
8.358030151367187,-0.052671630859375,0.4698548889160156,0.03957158190354034,-0.03037394104062597,-0.0071998299995967,2.7799041271209717,2019-06-20 15:06:38:710
8.364015563964843,-0.0574599609375,0.43513949584960937,0.03943842384903638,-0.0295749927136022,-0.006800355836084815,2.7850241661071777,2019-06-20 15:06:38:715
8.36042431640625,-0.071824951171875,0.42436575317382813,0.03863947552201261,-0.029175518550090315,-0.0074661461086046235,2.7898881435394287,2019-06-20 15:06:38:720
8.387957214355469,-0.061051208496093745,0.43753366088867185,0.03877263357651657,-0.029308676604594276,-0.007332988054100662,2.7950081825256348,2019-06-20 15:06:38:725
8.3700009765625,-0.0407008056640625,0.4459132385253906,0.03877263357651657,-0.029175518550090315,-0.006800355836084815,2.7998721599578857,2019-06-20 15:06:38:730
8.371198059082031,-0.04788330078125,0.43753366088867185,0.03837315941300468,-0.02877604438657843,-0.006667197781580852,2.804992198944092,2019-06-20 15:06:38:735
8.375986389160156,-0.0550657958984375,0.46147531127929686,0.03757421108598091,-0.029308676604594276,-0.0057350914000531186,2.8098561763763428,2019-06-20 15:06:38:740
8.359227233886719,-0.051474548339843745,0.44471615600585934,0.037840527194988836,-0.02970815076810616,-0.006667197781580852,2.814976215362549,2019-06-20 15:06:38:745
8.35204473876953,-0.046686218261718745,0.40521243286132813,0.03757421108598091,-0.029175518550090315,-0.0064008816725729285,2.8198401927948,2019-06-20 15:06:38:750
8.362818481445313,-0.023941650390625,0.4722490539550781,0.03850631746750865,-0.029441834659098238,-0.006667197781580852,2.8249599933624268,2019-06-20 15:06:38:755
8.344862243652344,-0.043094970703125,0.45668698120117185,0.038240001358500725,-0.0295749927136022,-0.0057350914000531186,2.829824209213257,2019-06-20 15:06:38:760
8.36162139892578,-0.05386871337890625,0.42316867065429686,0.038240001358500725,-0.030240782986122008,-0.005335617236541234,2.834944009780884,2019-06-20 15:06:38:765
8.34007391357422,-0.062248291015625,0.41119784545898436,0.0379736852494928,-0.029841308822610123,-0.006667197781580852,2.84006404876709,2019-06-20 15:06:38:770
8.355635986328124,-0.052671630859375,0.46386947631835934,0.037840527194988836,-0.029042360495586353,-0.0064008816725729285,2.844928026199341,2019-06-20 15:06:38:775
8.387957214355469,-0.04429205322265625,0.44471615600585934,0.0379736852494928,-0.029308676604594276,-0.006667197781580852,2.850048065185547,2019-06-20 15:06:38:780
8.371198059082031,-0.056262878417968745,0.44351907348632813,0.03877263357651657,-0.030640257149633893,-0.005468775291045195,2.854912042617798,2019-06-20 15:06:38:785
8.371198059082031,-0.08259869384765625,0.4100007629394531,0.03810684330399676,-0.03037394104062597,-0.005868249454557082,2.860032081604004,2019-06-20 15:06:38:790
8.375986389160156,-0.061051208496093745,0.43513949584960937,0.03810684330399676,-0.029441834659098238,-0.006001407509061044,2.864896059036255,2019-06-20 15:06:38:795
8.372395141601562,-0.05865704345703125,0.44232199096679686,0.03877263357651657,-0.030240782986122008,-0.005868249454557082,2.870016098022461,2019-06-20 15:06:38:800
8.378380554199218,-0.07302203369140625,0.4411249084472656,0.03930526579453242,-0.03037394104062597,-0.005468775291045195,2.874880075454712,2019-06-20 15:06:38:805
8.358030151367187,-0.06583953857421875,0.46865780639648436,0.03837315941300468,-0.030240782986122008,-0.006267723618068967,2.880000114440918,2019-06-20 15:06:38:810
8.374789306640626,-0.038306640625,0.4710519714355469,0.03757421108598091,-0.031306047422153704,-0.005468775291045195,2.884864091873169,2019-06-20 15:06:38:815
8.383168884277344,-0.0407008056640625,0.43633657836914064,0.03744105303147695,-0.0295749927136022,-0.005601933345549157,2.889984130859375,2019-06-20 15:06:38:820
8.377183471679688,-0.04788330078125,0.42316867065429686,0.037174736922469025,-0.029308676604594276,-0.006001407509061044,2.894848108291626,2019-06-20 15:06:38:825
8.373592224121094,-0.05386871337890625,0.4411249084472656,0.037041578867965066,-0.029441834659098238,-0.005601933345549157,2.899968147277832,2019-06-20 15:06:38:830
8.377183471679688,-0.056262878417968745,0.4590811462402344,0.03664210470445318,-0.029042360495586353,-0.0050693011275333094,2.904832124710083,2019-06-20 15:06:38:835
8.362818481445313,-0.04788330078125,0.4327453308105469,0.037840527194988836,-0.03037394104062597,-0.005601933345549157,2.909952163696289,2019-06-20 15:06:38:840
8.36042431640625,-0.062248291015625,0.4327453308105469,0.0369084208134611,-0.030107624931618046,-0.004936143073029348,2.915072202682495,2019-06-20 15:06:38:845
8.342468078613281,-0.08618994140625,0.4782344665527344,0.03650894664994922,-0.030240782986122008,-0.005601933345549157,2.919936180114746,2019-06-20 15:06:38:850
8.34007391357422,-0.0981607666015625,0.4507015686035156,0.0369084208134611,-0.03037394104062597,-0.006001407509061044,2.925056219100952,2019-06-20 15:06:38:855
8.36042431640625,-0.08499285888671874,0.47464321899414064,0.037174736922469025,-0.031306047422153704,-0.006267723618068967,2.929920196533203,2019-06-20 15:06:38:860
8.36880389404297,-0.06703662109375,0.47464321899414064,0.038240001358500725,-0.03117288936764974,-0.006667197781580852,2.93503999710083,2019-06-20 15:06:38:865
8.36042431640625,-0.071824951171875,0.46386947631835934,0.03863947552201261,-0.030640257149633893,-0.00653403972707689,2.93990421295166,2019-06-20 15:06:38:870
8.38077471923828,-0.0694307861328125,0.44950448608398436,0.037840527194988836,-0.0295749927136022,-0.006800355836084815,2.945024013519287,2019-06-20 15:06:38:875
8.348453491210938,-0.07062786865234374,0.46865780639648436,0.03757421108598091,-0.029175518550090315,-0.0070666719450927385,2.949887990951538,2019-06-20 15:06:38:880
8.344862243652344,-0.0694307861328125,0.45548989868164064,0.03810684330399676,-0.029308676604594276,-0.0064008816725729285,2.955008029937744,2019-06-20 15:06:38:885
8.37957763671875,-0.0885841064453125,0.4387307434082031,0.03837315941300468,-0.028509728277570506,-0.006267723618068967,2.959872007369995,2019-06-20 15:06:38:890
8.37957763671875,-0.06344537353515625,0.4399278259277344,0.03863947552201261,-0.028509728277570506,-0.0070666719450927385,2.964992046356201,2019-06-20 15:06:38:895
8.364015563964843,-0.07062786865234374,0.41838034057617185,0.03863947552201261,-0.029841308822610123,-0.008398252490132357,2.969856023788452,2019-06-20 15:06:38:900
8.343665161132812,-0.061051208496093745,0.4483074035644531,0.039038949685524495,-0.03143920547665766,-0.0077324622176125485,2.974976062774658,2019-06-20 15:06:38:905
8.342468078613281,-0.051474548339843745,0.44950448608398436,0.03943842384903638,-0.030240782986122008,-0.0077324622176125485,2.979840040206909,2019-06-20 15:06:38:910
8.362818481445313,-0.062248291015625,0.4267599182128906,0.039038949685524495,-0.029175518550090315,-0.006800355836084815,2.9849600791931152,2019-06-20 15:06:38:915
8.36042431640625,-0.043094970703125,0.46865780639648436,0.03863947552201261,-0.0295749927136022,-0.0070666719450927385,2.989824056625366,2019-06-20 15:06:38:920
8.35084765625,-0.06823370361328125,0.44232199096679686,0.03863947552201261,-0.029441834659098238,-0.0070666719450927385,2.9949440956115723,2019-06-20 15:06:38:925
8.35084765625,-0.06703662109375,0.43035116577148436,0.039038949685524495,-0.02970815076810616,-0.006267723618068967,3.0000641345977783,2019-06-20 15:06:38:930
8.365212646484375,-0.08259869384765625,0.4195774230957031,0.03943842384903638,-0.029441834659098238,-0.006134565563565005,3.0049281120300293,2019-06-20 15:06:38:935
8.35204473876953,-0.061051208496093745,0.4794315490722656,0.039837898012548265,-0.029441834659098238,-0.007332988054100662,3.0100481510162354,2019-06-20 15:06:38:940
8.348453491210938,-0.08259869384765625,0.4291540832519531,0.039038949685524495,-0.030240782986122008,-0.00786562027211651,3.0149121284484863,2019-06-20 15:06:38:945
8.356833068847656,-0.09935784912109374,0.4279570007324219,0.039837898012548265,-0.02970815076810616,-0.00786562027211651,3.0200321674346924,2019-06-20 15:06:38:950
8.362818481445313,-0.08259869384765625,0.41119784545898436,0.038905791631020537,-0.02877604438657843,-0.008265094435628395,3.0248961448669434,2019-06-20 15:06:38:955
8.355635986328124,-0.056262878417968745,0.41598617553710937,0.03943842384903638,-0.02970815076810616,-0.008398252490132357,3.0300161838531494,2019-06-20 15:06:38:960
8.355635986328124,-0.06703662109375,0.46147531127929686,0.04010421412155619,-0.02890920244108239,-0.008930884708148205,3.0348801612854004,2019-06-20 15:06:38:965
8.338876831054687,-0.07781036376953125,0.4291540832519531,0.040770004394076,-0.02890920244108239,-0.009064042762652167,3.0400002002716064,2019-06-20 15:06:38:970
8.362818481445313,-0.06703662109375,0.4518986511230469,0.04116947855758789,-0.02877604438657843,-0.009197200817156128,3.0448641777038574,2019-06-20 15:06:38:975
8.374789306640626,-0.051474548339843745,0.45548989868164064,0.04010421412155619,-0.028642886332074468,-0.00933035887166009,3.0499842166900635,2019-06-20 15:06:38:980
8.364015563964843,-0.07421911621093749,0.43753366088867185,0.03930526579453242,-0.029308676604594276,-0.008797726653644243,3.0548481941223145,2019-06-20 15:06:38:985
8.38077471923828,-0.0598541259765625,0.4411249084472656,0.039837898012548265,-0.028243412168562583,-0.009596674980668015,3.0599679946899414,2019-06-20 15:06:38:990
8.34127099609375,-0.0574599609375,0.42316867065429686,0.03997105606705223,-0.029974466877114084,-0.009463516926164052,3.0648322105407715,2019-06-20 15:06:38:995
8.358030151367187,-0.0263358154296875,0.41598617553710937,0.04037053023056411,-0.03037394104062597,-0.009729833035171977,3.0699520111083984,2019-06-20 15:06:39:000
8.349650573730468,-0.052671630859375,0.44351907348632813,0.03943842384903638,-0.031039731313145778,-0.009197200817156128,3.0750720500946045,2019-06-20 15:06:39:005
8.373592224121094,-0.02872998046875,0.46267239379882813,0.038905791631020537,-0.03117288936764974,-0.008265094435628395,3.0799360275268555,2019-06-20 15:06:39:010
8.35204473876953,-0.05386871337890625,0.43633657836914064,0.03917210774002846,-0.031971837694673516,-0.008131936381124433,3.0850560665130615,2019-06-20 15:06:39:015
8.349650573730468,-0.061051208496093745,0.4507015686035156,0.03997105606705223,-0.030906573258641816,-0.00786562027211651,3.0899200439453125,2019-06-20 15:06:39:020
8.366409729003905,-0.0694307861328125,0.46267239379882813,0.039038949685524495,-0.029974466877114084,-0.007998778326620472,3.0950400829315186,2019-06-20 15:06:39:025
8.401125122070312,-0.07302203369140625,0.4602782287597656,0.03850631746750865,-0.029841308822610123,-0.008398252490132357,3.0999040603637695,2019-06-20 15:06:39:030
8.392745544433593,-0.0574599609375,0.43633657836914064,0.03877263357651657,-0.03037394104062597,-0.008664568599140282,3.1050240993499756,2019-06-20 15:06:39:035
8.359227233886719,-0.0598541259765625,0.4315482482910156,0.03850631746750865,-0.030640257149633893,-0.008265094435628395,3.1098880767822266,2019-06-20 15:06:39:040
8.362818481445313,-0.0885841064453125,0.48062863159179686,0.03877263357651657,-0.02970815076810616,-0.007998778326620472,3.1150081157684326,2019-06-20 15:06:39:045
8.3700009765625,-0.07302203369140625,0.4471103210449219,0.03863947552201261,-0.030107624931618046,-0.0077324622176125485,3.1198720932006836,2019-06-20 15:06:39:050
8.387957214355469,-0.051474548339843745,0.4722490539550781,0.03943842384903638,-0.0295749927136022,-0.008664568599140282,3.1249921321868896,2019-06-20 15:06:39:055
8.385563049316406,-0.0502774658203125,0.46386947631835934,0.04037053023056411,-0.02877604438657843,-0.008930884708148205,3.1298561096191406,2019-06-20 15:06:39:060
8.344862243652344,-0.0598541259765625,0.44351907348632813,0.039704739958044306,-0.029042360495586353,-0.009064042762652167,3.1349761486053467,2019-06-20 15:06:39:065
8.3700009765625,-0.04908038330078125,0.43633657836914064,0.039837898012548265,-0.02877604438657843,-0.009197200817156128,3.1398401260375977,2019-06-20 15:06:39:070
8.362818481445313,-0.04429205322265625,0.4459132385253906,0.03917210774002846,-0.0295749927136022,-0.00933035887166009,3.1449601650238037,2019-06-20 15:06:39:075
8.356833068847656,-0.052671630859375,0.4518986511230469,0.03943842384903638,-0.029841308822610123,-0.0099961491441799,3.1498241424560547,2019-06-20 15:06:39:080
8.348453491210938,-0.056262878417968745,0.44950448608398436,0.03943842384903638,-0.03050709909512993,-0.00933035887166009,3.1549441814422607,2019-06-20 15:06:39:085
8.353241821289062,-0.038306640625,0.4411249084472656,0.038905791631020537,-0.02970815076810616,-0.008398252490132357,3.160064220428467,2019-06-20 15:06:39:090
8.385563049316406,-0.0454891357421875,0.4459132385253906,0.03837315941300468,-0.029175518550090315,-0.008531410544636318,3.1649281978607178,2019-06-20 15:06:39:095
8.359227233886719,-0.023941650390625,0.4411249084472656,0.03744105303147695,-0.0295749927136022,-0.007998778326620472,3.1700479984283447,2019-06-20 15:06:39:100
8.355635986328124,-0.0454891357421875,0.4459132385253906,0.038240001358500725,-0.029441834659098238,-0.00786562027211651,3.174912214279175,2019-06-20 15:06:39:105
8.348453491210938,-0.02992706298828125,0.4123949279785156,0.03877263357651657,-0.0295749927136022,-0.008265094435628395,3.1800320148468018,2019-06-20 15:06:39:110
8.359227233886719,-0.0263358154296875,0.4518986511230469,0.03877263357651657,-0.030107624931618046,-0.008131936381124433,3.1848959922790527,2019-06-20 15:06:39:115
8.372395141601562,-0.04788330078125,0.45548989868164064,0.03837315941300468,-0.030107624931618046,-0.007998778326620472,3.190016031265259,2019-06-20 15:06:39:120
8.359227233886719,-0.056262878417968745,0.43513949584960937,0.037840527194988836,-0.029042360495586353,-0.006933513890588777,3.1948800086975098,2019-06-20 15:06:39:125
8.372395141601562,-0.071824951171875,0.43633657836914064,0.03744105303147695,-0.029175518550090315,-0.0064008816725729285,3.200000047683716,2019-06-20 15:06:39:130
8.355635986328124,-0.04788330078125,0.4076065979003906,0.0369084208134611,-0.029441834659098238,-0.005868249454557082,3.204864025115967,2019-06-20 15:06:39:135
8.373592224121094,-0.06464245605468749,0.3932416076660156,0.037174736922469025,-0.030107624931618046,-0.0057350914000531186,3.209984064102173,2019-06-20 15:06:39:140
8.362818481445313,-0.0694307861328125,0.44351907348632813,0.03757421108598091,-0.029841308822610123,-0.006001407509061044,3.214848041534424,2019-06-20 15:06:39:145
8.35084765625,-0.071824951171875,0.39802993774414064,0.03650894664994922,-0.0295749927136022,-0.0064008816725729285,3.21996808052063,2019-06-20 15:06:39:150
8.36042431640625,-0.07062786865234374,0.45548989868164064,0.037041578867965066,-0.028243412168562583,-0.006134565563565005,3.224832057952881,2019-06-20 15:06:39:155
8.349650573730468,-0.10414617919921874,0.4471103210449219,0.0379736852494928,-0.02877604438657843,-0.006267723618068967,3.229952096939087,2019-06-20 15:06:39:160
8.377183471679688,-0.0957666015625,0.4267599182128906,0.038240001358500725,-0.029974466877114084,-0.006667197781580852,3.235072135925293,2019-06-20 15:06:39:165
8.373592224121094,-0.10175201416015625,0.3908474426269531,0.03850631746750865,-0.03050709909512993,-0.00786562027211651,3.239936113357544,2019-06-20 15:06:39:170
8.347256408691406,-0.11851116943359374,0.42316867065429686,0.03810684330399676,-0.0295749927136022,-0.007998778326620472,3.24505615234375,2019-06-20 15:06:39:175
8.366409729003905,-0.090978271484375,0.39802993774414064,0.037840527194988836,-0.028509728277570506,-0.0077324622176125485,3.249920129776001,2019-06-20 15:06:39:180
8.35204473876953,-0.08499285888671874,0.4100007629394531,0.038240001358500725,-0.028642886332074468,-0.0071998299995967,3.255040168762207,2019-06-20 15:06:39:185
8.355635986328124,-0.08499285888671874,0.4327453308105469,0.03744105303147695,-0.029841308822610123,-0.007998778326620472,3.259904146194458,2019-06-20 15:06:39:190
8.36042431640625,-0.081401611328125,0.45429281616210937,0.038240001358500725,-0.03037394104062597,-0.009197200817156128,3.265024185180664,2019-06-20 15:06:39:195
8.36042431640625,-0.07541619873046874,0.44351907348632813,0.038240001358500725,-0.029042360495586353,-0.008797726653644243,3.269888162612915,2019-06-20 15:06:39:200
8.344862243652344,-0.071824951171875,0.4590811462402344,0.03850631746750865,-0.028376570223066545,-0.008398252490132357,3.275008201599121,2019-06-20 15:06:39:205
8.35084765625,-0.06703662109375,0.4195774230957031,0.03863947552201261,-0.02811025411405862,-0.009463516926164052,3.279872179031372,2019-06-20 15:06:39:210
8.38077471923828,-0.033518310546875,0.4267599182128906,0.039038949685524495,-0.02811025411405862,-0.008797726653644243,3.284992218017578,2019-06-20 15:06:39:215
8.387957214355469,-0.04788330078125,0.47344613647460937,0.03917210774002846,-0.027444463841538806,-0.00933035887166009,3.289856195449829,2019-06-20 15:06:39:220
8.36162139892578,-0.07062786865234374,0.44950448608398436,0.039704739958044306,-0.028642886332074468,-0.00933035887166009,3.294975996017456,2019-06-20 15:06:39:225
8.359227233886719,-0.07541619873046874,0.41718325805664064,0.04010421412155619,-0.030240782986122008,-0.009729833035171977,3.299840211868286,2019-06-20 15:06:39:230
8.338876831054687,-0.0694307861328125,0.4291540832519531,0.03930526579453242,-0.029841308822610123,-0.009862991089675938,3.304960012435913,2019-06-20 15:06:39:235
8.355635986328124,-0.052671630859375,0.4590811462402344,0.038905791631020537,-0.029175518550090315,-0.0099961491441799,3.309823989868164,2019-06-20 15:06:39:240
8.373592224121094,-0.0502774658203125,0.4602782287597656,0.03810684330399676,-0.02784393800505069,-0.010528781362195748,3.31494402885437,2019-06-20 15:06:39:245
8.353241821289062,-0.052671630859375,0.43753366088867185,0.038240001358500725,-0.028509728277570506,-0.010528781362195748,3.320064067840576,2019-06-20 15:06:39:250
8.3700009765625,-0.051474548339843745,0.48781112670898436,0.03917210774002846,-0.028243412168562583,-0.009197200817156128,3.324928045272827,2019-06-20 15:06:39:255
8.374789306640626,-0.02513873291015625,0.4650665588378906,0.038905791631020537,-0.02890920244108239,-0.009729833035171977,3.330048084259033,2019-06-20 15:06:39:260
8.374789306640626,-0.056262878417968745,0.48182571411132813,0.03837315941300468,-0.0295749927136022,-0.010262465253187823,3.334912061691284,2019-06-20 15:06:39:265
8.364015563964843,-0.05386871337890625,0.4698548889160156,0.03850631746750865,-0.031039731313145778,-0.010528781362195748,3.3400321006774902,2019-06-20 15:06:39:270
8.3700009765625,-0.062248291015625,0.42436575317382813,0.038240001358500725,-0.0295749927136022,-0.009197200817156128,3.344896078109741,2019-06-20 15:06:39:275
8.37957763671875,-0.06583953857421875,0.43633657836914064,0.03757421108598091,-0.029308676604594276,-0.009729833035171977,3.3500161170959473,2019-06-20 15:06:39:280
8.365212646484375,-0.02513873291015625,0.4507015686035156,0.0379736852494928,-0.03037394104062597,-0.008664568599140282,3.3548800945281982,2019-06-20 15:06:39:285
8.372395141601562,-0.038306640625,0.45429281616210937,0.03757421108598091,-0.029841308822610123,-0.009862991089675938,3.3600001335144043,2019-06-20 15:06:39:290
8.383168884277344,-0.0550657958984375,0.46267239379882813,0.03757421108598091,-0.0295749927136022,-0.01066193941669971,3.3648641109466553,2019-06-20 15:06:39:295
8.377183471679688,-0.04908038330078125,0.4698548889160156,0.03677526275895714,-0.030240782986122008,-0.009197200817156128,3.3699841499328613,2019-06-20 15:06:39:300
8.386760131835937,-0.061051208496093745,0.4411249084472656,0.03650894664994922,-0.029441834659098238,-0.008531410544636318,3.3748481273651123,2019-06-20 15:06:39:305
8.353241821289062,-0.06703662109375,0.4710519714355469,0.03597631443193337,-0.0295749927136022,-0.0077324622176125485,3.3799681663513184,2019-06-20 15:06:39:310
8.365212646484375,-0.046686218261718745,0.47344613647460937,0.03584315637742941,-0.029974466877114084,-0.006800355836084815,3.3848321437835693,2019-06-20 15:06:39:315
8.358030151367187,-0.046686218261718745,0.40640951538085934,0.03597631443193337,-0.0295749927136022,-0.0074661461086046235,3.3899521827697754,2019-06-20 15:06:39:320
8.395139709472655,-0.04429205322265625,0.4507015686035156,0.037174736922469025,-0.02970815076810616,-0.006267723618068967,3.3950722217559814,2019-06-20 15:06:39:325
8.355635986328124,-0.02872998046875,0.4698548889160156,0.03744105303147695,-0.03037394104062597,-0.0064008816725729285,3.3999361991882324,2019-06-20 15:06:39:330
8.367606811523437,-0.02274456787109375,0.48062863159179686,0.03810684330399676,-0.02970815076810616,-0.006001407509061044,3.4050559997558594,2019-06-20 15:06:39:335
8.336482666015625,-0.0359124755859375,0.4770373840332031,0.037041578867965066,-0.031039731313145778,-0.005468775291045195,3.4099202156066895,2019-06-20 15:06:39:340
8.384365966796874,-0.0359124755859375,0.46267239379882813,0.037174736922469025,-0.03143920547665766,-0.005468775291045195,3.4150400161743164,2019-06-20 15:06:39:345
8.365212646484375,-0.07661328125,0.4315482482910156,0.03757421108598091,-0.030773415204137854,-0.005468775291045195,3.4199039936065674,2019-06-20 15:06:39:350
8.33289141845703,-0.0598541259765625,0.43633657836914064,0.03810684330399676,-0.031971837694673516,-0.004802985018525386,3.4250240325927734,2019-06-20 15:06:39:355
8.334088500976563,-0.0694307861328125,0.4291540832519531,0.0379736852494928,-0.030240782986122008,-0.005202459182037272,3.4298880100250244,2019-06-20 15:06:39:360
8.377183471679688,-0.037109558105468746,0.43633657836914064,0.0379736852494928,-0.030773415204137854,-0.005202459182037272,3.4350080490112305,2019-06-20 15:06:39:365
8.389154296875,-0.05865704345703125,0.45548989868164064,0.037840527194988836,-0.030906573258641816,-0.005601933345549157,3.4398720264434814,2019-06-20 15:06:39:370
8.347256408691406,-0.043094970703125,0.3956357727050781,0.038240001358500725,-0.03050709909512993,-0.004802985018525386,3.4449920654296875,2019-06-20 15:06:39:375
8.344862243652344,-0.07302203369140625,0.39922702026367185,0.03930526579453242,-0.030640257149633893,-0.0044035108550135,3.4498560428619385,2019-06-20 15:06:39:380
8.374789306640626,-0.062248291015625,0.41838034057617185,0.03997105606705223,-0.029841308822610123,-0.0044035108550135,3.4549760818481445,2019-06-20 15:06:39:385
8.401125122070312,-0.05386871337890625,0.3692999572753906,0.039837898012548265,-0.0295749927136022,-0.004936143073029348,3.4598400592803955,2019-06-20 15:06:39:390
8.371198059082031,-0.062248291015625,0.43513949584960937,0.03943842384903638,-0.029441834659098238,-0.004936143073029348,3.4649600982666016,2019-06-20 15:06:39:395
8.371198059082031,-0.051474548339843745,0.44950448608398436,0.03877263357651657,-0.029974466877114084,-0.0044035108550135,3.4698240756988525,2019-06-20 15:06:39:400
8.377183471679688,-0.0502774658203125,0.44351907348632813,0.03957158190354034,-0.029841308822610123,-0.0037377205824936904,3.4749441146850586,2019-06-20 15:06:39:405
8.358030151367187,-0.06583953857421875,0.4483074035644531,0.03957158190354034,-0.029308676604594276,-0.004669826964021424,3.4800641536712646,2019-06-20 15:06:39:410
8.353241821289062,-0.0550657958984375,0.43633657836914064,0.03930526579453242,-0.029441834659098238,-0.0037377205824936904,3.4849281311035156,2019-06-20 15:06:39:415
8.355635986328124,-0.09696368408203125,0.4327453308105469,0.04023737217606015,-0.03037394104062597,-0.004137194746005576,3.4900481700897217,2019-06-20 15:06:39:420
8.35084765625,-0.081401611328125,0.45429281616210937,0.040636846339572034,-0.031039731313145778,-0.004270352800509538,3.4949121475219727,2019-06-20 15:06:39:425
8.344862243652344,-0.06464245605468749,0.49499362182617185,0.03997105606705223,-0.030240782986122008,-0.005335617236541234,3.5000321865081787,2019-06-20 15:06:39:430
8.358030151367187,-0.0790074462890625,0.4770373840332031,0.039837898012548265,-0.028376570223066545,-0.0044035108550135,3.5048961639404297,2019-06-20 15:06:39:435
8.355635986328124,-0.0694307861328125,0.4590811462402344,0.04023737217606015,-0.028642886332074468,-0.0050693011275333094,3.5100162029266357,2019-06-20 15:06:39:440
8.3700009765625,-0.09696368408203125,0.46386947631835934,0.04103632050308392,-0.02877604438657843,-0.004270352800509538,3.5148801803588867,2019-06-20 15:06:39:445
8.401125122070312,-0.0957666015625,0.40521243286132813,0.04090316244857996,-0.029974466877114084,-0.004270352800509538,3.5200002193450928,2019-06-20 15:06:39:450
8.362818481445313,-0.08259869384765625,0.42436575317382813,0.04143579466659581,-0.030107624931618046,-0.005202459182037272,3.5248641967773438,2019-06-20 15:06:39:455
8.344862243652344,-0.08499285888671874,0.4195774230957031,0.04156895272109977,-0.03037394104062597,-0.004669826964021424,3.5299839973449707,2019-06-20 15:06:39:460
8.384365966796874,-0.06823370361328125,0.3944386901855469,0.04223474299361958,-0.030906573258641816,-0.004536668909517462,3.534848213195801,2019-06-20 15:06:39:465
8.359227233886719,-0.081401611328125,0.44351907348632813,0.04263421715713147,-0.03050709909512993,-0.005202459182037272,3.5399680137634277,2019-06-20 15:06:39:470
8.36880389404297,-0.08499285888671874,0.4471103210449219,0.042101584939115616,-0.02970815076810616,-0.006134565563565005,3.5448319911956787,2019-06-20 15:06:39:475
8.3316943359375,-0.08020452880859374,0.40521243286132813,0.04143579466659581,-0.0295749927136022,-0.006267723618068967,3.5499520301818848,2019-06-20 15:06:39:480
8.355635986328124,-0.09217535400390625,0.4339424133300781,0.04156895272109977,-0.029841308822610123,-0.006800355836084815,3.555072069168091,2019-06-20 15:06:39:485
8.36042431640625,-0.090978271484375,0.46147531127929686,0.041702110775603735,-0.02970815076810616,-0.005868249454557082,3.559936046600342,2019-06-20 15:06:39:490
8.329300170898437,-0.0885841064453125,0.4459132385253906,0.04103632050308392,-0.0295749927136022,-0.006001407509061044,3.565056085586548,2019-06-20 15:06:39:495
8.356833068847656,-0.08499285888671874,0.42436575317382813,0.04196842688461166,-0.02877604438657843,-0.006267723618068967,3.569920063018799,2019-06-20 15:06:39:500
8.36162139892578,-0.0957666015625,0.42436575317382813,0.041702110775603735,-0.029441834659098238,-0.00653403972707689,3.575040102005005,2019-06-20 15:06:39:505
8.354438903808594,-0.0885841064453125,0.44950448608398436,0.04156895272109977,-0.029308676604594276,-0.0077324622176125485,3.579904079437256,2019-06-20 15:06:39:510
8.320920593261718,-0.07062786865234374,0.38486203002929686,0.04183526883010769,-0.028376570223066545,-0.00786562027211651,3.585024118423462,2019-06-20 15:06:39:515
8.343665161132812,-0.08499285888671874,0.40640951538085934,0.04116947855758789,-0.028243412168562583,-0.007998778326620472,3.589888095855713,2019-06-20 15:06:39:520
8.348453491210938,-0.07302203369140625,0.4315482482910156,0.04183526883010769,-0.02877604438657843,-0.008797726653644243,3.595008134841919,2019-06-20 15:06:39:525
8.377183471679688,-0.0885841064453125,0.4195774230957031,0.042367901048123546,-0.029175518550090315,-0.009197200817156128,3.59987211227417,2019-06-20 15:06:39:530
8.367606811523437,-0.071824951171875,0.42436575317382813,0.04196842688461166,-0.029441834659098238,-0.009197200817156128,3.604992151260376,2019-06-20 15:06:39:535
8.366409729003905,-0.09935784912109374,0.4147890930175781,0.042367901048123546,-0.029042360495586353,-0.009596674980668015,3.609856128692627,2019-06-20 15:06:39:540
8.3700009765625,-0.08259869384765625,0.41119784545898436,0.04290053326613939,-0.028509728277570506,-0.010262465253187823,3.614976167678833,2019-06-20 15:06:39:545
8.377183471679688,-0.04908038330078125,0.43513949584960937,0.04196842688461166,-0.02877604438657843,-0.010262465253187823,3.619840145111084,2019-06-20 15:06:39:550
8.358030151367187,-0.051474548339843745,0.4710519714355469,0.041702110775603735,-0.0295749927136022,-0.010129307198683862,3.62496018409729,2019-06-20 15:06:39:555
8.39753387451172,-0.051474548339843745,0.4890082092285156,0.04276737521163543,-0.028642886332074468,-0.009596674980668015,3.629824161529541,2019-06-20 15:06:39:560
