ACCELEROMETER X (m/s²),ACCELEROMETER Y (m/s²),ACCELEROMETER Z (m/s²),GYROSCOPE X (rad/s),GYROSCOPE Y (rad/s),GYROSCOPE Z (rad/s),Time since start in ms ,YYYY-MO-DD HH-MI-SS_SSS
-12.191686920166015,0.8541183776855469,0.19033612060546876,-0.165094249532515,-0.1586049249043189,2.9397111945241186,0.0,2019-06-21 13:07:41:251
-13.172097503662108,0.9953741149902343,0.7972569580078125,-0.16349635287846745,-0.1460880677809465,2.962747537953304,0.005120038986206055,2019-06-21 13:07:41:256
-13.391163604736327,1.1845131530761719,0.8403519287109374,-0.17934216136443892,-0.13703332007467708,2.9789928206027874,0.009984016418457031,2019-06-21 13:07:41:261
-13.255893280029296,0.9702353820800781,0.01795623779296875,-0.20291113701164015,-0.13463647509360577,2.9981675804513577,0.015104055404663086,2019-06-21 13:07:41:266
-12.213234405517579,0.5237236022949219,-0.7266290893554688,-0.189595331561244,-0.13623437174765332,3.014812337264353,0.019968032836914062,2019-06-21 13:07:41:271
-11.70686849975586,0.20649673461914062,-0.1460440673828125,-0.15430844711769406,-0.14648754194445837,3.0410444740016334,0.025088071823120117,2019-06-21 13:07:41:276
-11.56441567993164,-0.06284683227539062,0.5997383422851562,-0.15377581489967823,-0.1624665084849338,3.08192399673435,0.03020787239074707,2019-06-21 13:07:41:281
-11.755948883056641,-0.2603654479980469,1.2449658203125,-0.17747794860138347,-0.1310412076219988,3.1322577413368475,0.03507208824157715,2019-06-21 13:07:41:286
-12.02409536743164,0.06883224487304687,1.0594180297851563,-0.1947884956868985,-0.12398383073328881,3.191912549754622,0.0401918888092041,2019-06-21 13:07:41:291
-11.63145230102539,-0.09157681274414062,0.5422783813476563,-0.18080689996398247,-0.12678014987787203,3.241846820193608,0.04505586624145508,2019-06-21 13:07:41:296
-10.890458221435546,0.6158989562988281,1.1599729614257812,-0.09811574811702214,-0.11586118940854714,3.29031635203305,0.05017590522766113,2019-06-21 13:07:41:301
-10.733640411376953,1.3940025939941405,1.0223084716796875,-0.04431989409742154,-0.1327722623305503,3.3257363945311043,0.05503988265991211,2019-06-21 13:07:41:306
-10.873699066162109,2.2834349060058594,0.29567938232421875,-0.016623018760597467,-0.11333118637297188,3.354099060140448,0.060159921646118164,2019-06-21 13:07:41:311
-10.513377227783202,2.525245574951172,0.052671630859375,-0.02301460537678764,-0.08017483080148535,3.3851248868398707,0.06502389907836914,2019-06-21 13:07:41:316
-10.57801968383789,2.3133619689941405,0.407008056640625,-0.07947362048646749,-0.08456904660011609,3.412821762176695,0.0701439380645752,2019-06-21 13:07:41:321
-10.91200570678711,2.1649237365722658,0.6871253662109374,-0.12461420096331058,-0.07471535056682291,3.4429154824945902,0.07500791549682617,2019-06-21 13:07:41:326
-11.054458526611327,1.3616813659667968,-0.2226573486328125,-0.11143155356741834,-0.008136327476031161,3.480732369973716,0.08012795448303223,2019-06-21 13:07:41:331
-11.958255828857421,1.516105010986328,-0.6356508178710938,-0.047249371296508705,0.00105157828474221,3.5140218835997064,0.0849919319152832,2019-06-21 13:07:41:336
-13.065557159423827,2.0356388244628905,-0.10414617919921874,-0.022082498995259905,-0.05327690795287424,3.559295622131053,0.09011197090148926,2019-06-21 13:07:41:341
-12.705235321044922,2.2834349060058594,1.3239732666015624,-0.00850037743585579,-0.041958473320037486,3.616154111404245,0.09497594833374023,2019-06-21 13:07:41:346
-11.465057830810547,2.233157440185547,2.0661644287109375,-0.010231432144407296,-0.07205218947674367,3.668884700987814,0.10009598731994629,2019-06-21 13:07:41:351
-11.07600601196289,1.9470547180175781,1.1144838256835938,-0.015291438215557849,-0.10853749641082923,3.709231591502514,0.10495996475219727,2019-06-21 13:07:41:356
-10.570837188720702,2.397157745361328,1.1168779907226563,0.05221969541795084,-0.07644640527537441,3.75210848505279,0.11008000373840332,2019-06-21 13:07:41:361
-9.974690093994141,2.4091285705566405,0.03950372314453125,0.12305978041405857,-0.05527427877043368,3.778340621790071,0.11520004272460938,2019-06-21 13:07:41:366
-10.35775650024414,2.521654327392578,-1.0223084716796875,0.18244827272282557,-0.07471535056682291,3.80151012327376,0.12006402015686035,2019-06-21 13:07:41:371
-11.101144744873046,2.625800506591797,0.4022197265625,0.1680672028363977,-0.08363694021858836,3.8557054514568727,0.1251840591430664,2019-06-21 13:07:41:376
-11.386050384521484,2.692837127685547,2.160733947753906,0.09030289900608394,-0.08536799492713985,3.9297413297610757,0.13004803657531738,2019-06-21 13:07:41:381
-10.295508209228515,3.1357576599121093,1.6340176391601562,0.08098183519080661,-0.11133381555541244,3.9928582475959535,0.13516807556152344,2019-06-21 13:07:41:386
-11.001786895751954,3.375174163818359,-0.04788330078125,0.14383243691667663,-0.08563431103614778,4.04012935694486,0.14003205299377441,2019-06-21 13:07:41:391
-10.454720184326172,4.872724395751953,-0.037109558105468746,0.219466211874927,-0.13237278816703843,4.070489393371763,0.14515209197998047,2019-06-21 13:07:41:396
-9.838222686767578,6.305632171630859,-0.53629296875,0.22199621491050228,-0.17378494311777057,4.093792052909956,0.15001606941223145,2019-06-21 13:07:41:401
-9.633521575927734,7.0585970764160155,-0.62248291015625,0.22732253709066075,-0.18044284584296869,4.1051104875427935,0.1551358699798584,2019-06-21 13:07:41:406
-8.025839752197266,6.542654510498047,0.675154541015625,0.264873108460778,-0.1886986452222143,4.1087057550144,0.16000008583068848,2019-06-21 13:07:41:411
-7.149575347900391,7.9779564514160155,2.1679164428710935,0.28750997772645154,-0.1467538580534663,4.107107858360353,0.16511988639831543,2019-06-21 13:07:41:416
-8.540585235595703,9.475506683349609,-1.4353019409179688,0.14929191715133908,-0.11066802528289262,4.081940986059103,0.1699838638305664,2019-06-21 13:07:41:421
-8.999067840576172,9.80111312866211,-4.354986206054687,0.08004972880927888,-0.04249110553805334,4.043458308307459,0.17510390281677246,2019-06-21 13:07:41:426
-7.505108856201172,8.13477426147461,-2.826311828613281,0.13038347341177647,-0.06512797480372685,4.011100901062996,0.17996788024902344,2019-06-21 13:07:41:431
-8.510658172607421,7.60925503540039,0.5913587646484375,0.1263887317766576,-0.19948444763703524,4.005108788610317,0.1850879192352295,2019-06-21 13:07:41:436
-8.229343780517578,7.321955230712891,0.7493736572265625,0.06233970756025194,-0.193226019075349,3.9895292962333544,0.19020795822143555,2019-06-21 13:07:41:441
-8.867388763427734,7.349488128662109,0.497986328125,0.12519030928612196,-0.12877752069543144,4.001247205029703,0.19507193565368652,2019-06-21 13:07:41:446
-8.686629302978515,7.355473541259766,-0.4333438720703125,0.19842723926330103,-0.242228183132807,3.982871393508156,0.20019197463989258,2019-06-21 13:07:41:451
-10.847363250732421,6.826363067626953,0.08499285888671874,0.22852095958119642,-0.24395923784135848,3.999382992266647,0.20505595207214355,2019-06-21 13:07:41:456
-9.416849639892577,8.927242889404297,2.6946327514648436,0.22292832129203002,-0.2396981800972317,4.034270402546685,0.2101759910583496,2019-06-21 13:07:41:461
-10.082427520751953,8.841052947998048,1.6962659301757812,0.12705452204917742,-0.24249449924181493,4.079544141078032,0.21503996849060059,2019-06-21 13:07:41:466
-8.533402740478515,8.68184097290039,-1.1408196411132812,0.14742770438828362,-0.2202571041396533,4.079544141078032,0.22016000747680664,2019-06-21 13:07:41:471
-7.587707550048828,7.854656951904297,-1.5190977172851563,0.20215566478941197,-0.20188129261810653,4.091262049874381,0.22502398490905762,2019-06-21 13:07:41:476
-7.113662872314453,7.1890790710449215,-1.4161486206054688,0.13784032446399835,-0.30641036540371663,4.105643119760809,0.23014402389526367,2019-06-21 13:07:41:481
-8.05935806274414,8.67226431274414,-0.09456951904296874,0.11360555854427727,-0.34089830152024275,4.137734210896264,0.23500800132751465,2019-06-21 13:07:41:486
-6.507939117431641,9.027797821044922,0.7493736572265625,0.09483027285921865,-0.27911296423040444,4.147188432766045,0.2401280403137207,2019-06-21 13:07:41:491
-6.676727752685546,9.067301544189453,0.37708099365234377,0.07086182304850551,-0.2708571648511588,4.1582405512898735,0.24499201774597168,2019-06-21 13:07:41:496
-6.199091827392578,9.05533071899414,0.9875930786132813,0.09309921815066714,-0.2572750432917547,4.157308444908346,0.25011205673217773,2019-06-21 13:07:41:501
-5.322827423095703,9.286367645263672,-0.7816948852539062,0.051953379308942914,-0.22358605550225233,4.156243180472314,0.2549760341644287,2019-06-21 13:07:41:506
-4.489657989501953,7.705021636962891,-1.4879735717773437,0.01240543712126623,-0.1851033777506073,4.148386855256581,0.26009607315063477,2019-06-21 13:07:41:511
-5.553864349365234,9.12236734008789,-1.8040033569335938,0.07885130631874322,-0.16832546288310812,4.155444232145291,0.26496005058288574,2019-06-21 13:07:41:516
-5.191148345947266,10.017785064697266,-0.4596796875,0.06367128810529156,-0.18124179416999245,4.1720889889582855,0.2700800895690918,2019-06-21 13:07:41:521
-5.675966766357422,10.186573699951172,-1.2150387573242187,-0.052309377367659254,-0.12371751462428089,4.166230034560112,0.27519989013671875,2019-06-21 13:07:41:526
-4.810476104736328,7.750510772705078,-0.8798556518554688,-0.0878625779202171,-0.16060229572187834,4.166895824832631,0.2800638675689697,2019-06-21 13:07:41:531
-4.475292999267578,5.813631256103515,2.117638977050781,-0.009565641871887486,-0.19628865432894013,4.15038422607414,0.2851839065551758,2019-06-21 13:07:41:536
-4.750621978759765,4.681191192626953,1.6878863525390624,-0.0010435263836339234,-0.19309286102084505,4.1784805755744765,0.29004788398742676,2019-06-21 13:07:41:541
-6.147617279052734,7.444057647705078,-0.301664794921875,0.00042121221590965747,-0.10747223197479754,4.22095799496124,0.2951679229736328,2019-06-21 13:07:41:546
-7.2178090515136715,9.02660073852539,0.311241455078125,0.038104941640530875,-0.14515596139941878,4.264500678784035,0.3000319004058838,2019-06-21 13:07:41:551
-7.792408660888672,8.98829409790039,3.5242109375,0.07658761939217587,-0.2540792499836596,4.306445465952783,0.30515193939208984,2019-06-21 13:07:41:556
-6.753341033935547,8.495096099853516,3.639130859375,0.08324552211737396,-0.231708696826994,4.328150228836929,0.3100159168243408,2019-06-21 13:07:41:561
-5.593368072509765,8.064146392822266,-0.0023941650390625,0.0880392120795166,-0.19029654187626185,4.328150228836929,0.3151359558105469,2019-06-21 13:07:41:566
-4.753016143798828,9.257637664794922,-1.13962255859375,0.10774660414610296,-0.23929870593371985,4.328150228836929,0.31999993324279785,2019-06-21 13:07:41:571
-4.583030426025391,9.522192901611328,0.9205564575195312,0.12878557675772895,-0.3166635356005217,4.328150228836929,0.3251199722290039,2019-06-21 13:07:41:576
-3.918649627685547,8.967943695068358,1.7980179443359374,0.1816493243958018,-0.2816429672659797,4.328150228836929,0.3299839496612549,2019-06-21 13:07:41:581
-4.174825286865234,8.817111297607422,-0.92893603515625,0.19070407210207121,-0.28790139582766594,4.328150228836929,0.33510398864746094,2019-06-21 13:07:41:586
-5.27254995727539,8.552556060791016,-2.1679164428710935,0.16220824843822337,-0.3002850948965344,4.328150228836929,0.3399679660797119,2019-06-21 13:07:41:591
-3.832459686279297,7.508700103759765,-0.19273028564453124,0.2046856678249872,-0.36593201576698764,4.328150228836929,0.34508800506591797,2019-06-21 13:07:41:596
-4.432198028564453,8.49030776977539,1.431710693359375,0.2747268044940712,-0.42012734395010004,4.328150228836929,0.350208044052124,2019-06-21 13:07:41:601
-3.250677581787109,13.56474057006836,0.22624859619140625,0.21600410245782398,-0.4144015476064298,4.328150228836929,0.355072021484375,2019-06-21 13:07:41:606
-2.756282501220703,19.726722839355467,0.49439508056640624,0.11573608741634067,-0.3663314899304995,4.328150228836929,0.36019206047058105,2019-06-21 13:07:41:611
-1.1031115417480468,19.645919769287108,-1.3443236694335938,0.06793234584941835,-0.40228416464656924,4.328150228836929,0.36505603790283203,2019-06-21 13:07:41:616
-0.5751981506347656,14.891108001708984,-0.196321533203125,0.12758715426719328,-0.4305136722014091,4.328150228836929,0.3701760768890381,2019-06-21 13:07:41:621
0.16100759887695312,10.605552581787109,1.1875058593749999,0.03970283829457842,-0.4148010217699416,4.328150228836929,0.37504005432128906,2019-06-21 13:07:41:626
-0.6158989562988281,8.468760284423828,1.3622799072265626,0.03863757385854672,-0.45887633781075304,4.328150228836929,0.3801600933074951,2019-06-21 13:07:41:631
-1.372455108642578,7.020290435791016,0.3818693237304687,0.13810664057300626,-0.43184525274644875,4.328150228836929,0.3850240707397461,2019-06-21 13:07:41:636
0.4339424133300781,9.048148223876954,-3.0381954345703126,0.10242028196594448,-0.31173668758387507,4.328150228836929,0.39014387130737305,2019-06-21 13:07:41:641
1.880018096923828,16.282117889404297,-3.415276428222656,-0.034599356118632324,-0.30081772711455024,4.328150228836929,0.3950080871582031,2019-06-21 13:07:41:646
3.3823566589355467,19.726722839355467,-2.8801805419921873,-0.09545258702694291,-0.37938097927188774,4.328150228836929,0.4001278877258301,2019-06-21 13:07:41:651
3.406298309326172,17.249360565185548,-2.0553906860351563,-0.03752883331771949,-0.3803130856534155,4.328150228836929,0.40499186515808105,2019-06-21 13:07:41:656
3.6780360412597655,12.231190643310546,-3.8617882080078125,-0.10171101558862912,-0.3653993835489718,4.328150228836929,0.4101119041442871,2019-06-21 13:07:41:661
2.0751425476074217,9.225316436767578,-2.1523543701171874,-0.21942273577013147,-0.36273622245889253,4.328150228836929,0.4149758815765381,2019-06-21 13:07:41:666
1.8357260437011718,5.298885772705078,1.0797684326171875,-0.15830318875281293,-0.33330829241351695,4.328150228836929,0.42009592056274414,2019-06-21 13:07:41:671
0.6925122375488281,6.181135589599609,3.563714660644531,-0.0009103683291299615,-0.13197331400352652,4.328150228836929,0.4249598979949951,2019-06-21 13:07:41:676
0.5859718933105469,10.403245635986329,1.7094338378906249,-0.05896728009285735,-0.07258482169475952,4.328150228836929,0.43007993698120117,2019-06-21 13:07:41:681
1.8441056213378906,11.445904510498046,-1.0330822143554688,-0.18546743187162115,-0.20800656312528878,4.328150228836929,0.4351999759674072,2019-06-21 13:07:41:686
3.709160186767578,13.530025177001953,0.30046771240234377,-0.09252310982785576,-0.2865698152826263,4.326951806346394,0.4400639533996582,2019-06-21 13:07:41:691
5.268958709716797,12.513702117919921,2.2912159423828125,-0.09731679978999838,-0.24728818920395754,4.3008528276636175,0.44518399238586426,2019-06-21 13:07:41:696
4.179613616943359,8.891330413818359,1.7261929931640625,-0.1744153133477923,-0.200283395964059,4.281678067815046,0.45004796981811523,2019-06-21 13:07:41:701
2.124222930908203,6.8969909362792965,-0.08379577636718749,-0.13460105505110773,-0.1379654264562048,4.260106462985405,0.4551680088043213,2019-06-21 13:07:41:706
2.278646575927734,7.768467010498047,-1.8806166381835938,-0.030604614483513468,-0.06819061005731798,4.239999596755307,0.46003198623657227,2019-06-21 13:07:41:711
1.726791534423828,10.174602874755859,0.6320595703125,0.04449652825672105,-0.10241222590364699,4.247056973644017,0.4651520252227783,2019-06-21 13:07:41:716
1.2587322692871092,10.21410659790039,1.2485570678710938,-0.04751568740551663,-0.17072230786417947,4.234806432629652,0.4700160026550293,2019-06-21 13:07:41:721
3.7259193420410157,9.633521575927734,0.804439453125,-0.1283426264894215,-0.1813749522244964,4.242662757845386,0.47513604164123535,2019-06-21 13:07:41:726
3.134560577392578,8.107241363525391,1.2317979125976561,-0.12714420399888585,-0.20081602818207483,4.241331177300347,0.48000001907348633,2019-06-21 13:07:41:731
3.7342989196777343,7.30280191040039,-0.14245281982421876,-0.06309517978248018,-0.3229219641622079,4.190864274643345,0.4851200580596924,2019-06-21 13:07:41:736
4.013219146728516,10.391274810791016,-0.6236799926757812,0.00268489914247701,-0.28364033808353917,4.196856387096023,0.48998403549194336,2019-06-21 13:07:41:741
3.4110866394042967,11.36330581665039,1.3622799072265626,-0.04511884242444531,-0.1841712713690796,4.222689049669792,0.4951040744781494,2019-06-21 13:07:41:746
2.6174209289550783,10.838983673095703,2.5821069946289064,-0.07507940468783675,-0.21612920445003045,4.2498532927885995,0.4999680519104004,2019-06-21 13:07:41:751
3.1453343200683594,10.431975616455079,2.337902160644531,-0.0993141706075578,-0.23090974849997023,4.27169121372725,0.5050880908966064,2019-06-21 13:07:41:756
4.220314422607422,8.812322967529298,1.1480021362304687,-0.18386953521757363,-0.2792461222849084,4.2775501681254235,0.5102078914642334,2019-06-21 13:07:41:761
4.5914100036621095,7.269283599853515,0.8786585693359374,-0.20970219779134222,-0.3861720400515898,4.266897523765107,0.5150718688964844,2019-06-21 13:07:41:766
6.043471099853515,6.463647064208984,-0.15202947998046876,-0.19119322821529153,-0.3804462437079194,4.238801174264771,0.5201919078826904,2019-06-21 13:07:41:771
6.784465179443359,7.235765289306641,0.5518550415039062,-0.14139211583080977,-0.3214572255626643,4.2196264144162,0.5250558853149414,2019-06-21 13:07:41:776
4.39030014038086,5.302477020263672,-0.32680352783203126,-0.12195103987323133,-0.32771565412435055,4.17994531417402,0.5301759243011475,2019-06-21 13:07:41:781
4.733862823486328,5.507178131103515,-2.2900188598632814,-0.08266941379456257,-0.2938935082803442,4.1433268491854305,0.5350399017333984,2019-06-21 13:07:41:786
6.294858428955078,7.0729620666503905,-3.002282958984375,-0.13486737116011566,-0.2639329460169528,4.116695238284637,0.5401599407196045,2019-06-21 13:07:41:791
6.321194244384765,6.8682609558105465,-0.37348974609374996,-0.1961200762319381,-0.3343735568495486,4.073818344734362,0.5450239181518555,2019-06-21 13:07:41:796
5.986011138916015,5.511966461181641,0.6978991088867187,-0.19225849265132322,-0.30614404929470873,4.037998828072796,0.5501439571380615,2019-06-21 13:07:41:801
5.978828643798828,4.351993499755859,-0.4285555419921875,-0.20717219475576695,-0.23117606460897816,4.0077719497003965,0.5550079345703125,2019-06-21 13:07:41:806
6.157193939208984,4.341219757080078,-0.54586962890625,-0.2311406445664801,-0.2851050766830827,3.9704876944392873,0.5601279735565186,2019-06-21 13:07:41:811
6.643209442138672,4.3579789123535155,0.4764388427734375,-0.17774426471039137,-0.2914966632992729,3.9305402780880994,0.5649919509887695,2019-06-21 13:07:41:816
6.844319305419922,5.090593414306641,-0.5446725463867187,-0.09145784539182407,-0.2442255539503664,3.8857991717747677,0.5701119899749756,2019-06-21 13:07:41:821
6.007558624267578,6.201485992431641,-1.9189232788085937,-0.10144469947962119,-0.24648924087693377,3.849313864840682,0.5749759674072266,2019-06-21 13:07:41:826
6.106916473388671,8.235329193115234,-0.6105120849609375,-0.1399273772312662,-0.20907182756132048,3.8537080806393127,0.5800960063934326,2019-06-21 13:07:41:831
6.721019805908203,8.863797515869141,1.10131591796875,-0.11356208243948172,-0.189763909658246,3.8758123176869708,0.5852160453796387,2019-06-21 13:07:41:836
6.505544952392578,8.416088653564453,1.3981923828125,-0.0975831158990063,-0.17777968475288944,3.8903265456279024,0.5900800228118896,2019-06-21 13:07:41:841
4.403468048095703,5.697514251708984,1.7824558715820311,-0.19745165677697776,-0.15181386412461684,3.9105665699125045,0.5952000617980957,2019-06-21 13:07:41:846
3.7845763854980468,3.681627288818359,1.2748928833007813,-0.2906622949297511,-0.2299776421184425,3.910167095748993,0.6000640392303467,2019-06-21 13:07:41:851
5.181571685791016,3.5355832214355467,0.6212858276367187,-0.27601490893431524,-0.27285453566871826,3.899913925552188,0.6051840782165527,2019-06-21 13:07:41:856
6.444493743896484,4.398679718017578,0.5578404541015625,-0.21422957164447692,-0.29336087606232836,3.874081262978419,0.6100480556488037,2019-06-21 13:07:41:861
5.599353485107422,5.197133758544922,0.35553350830078123,-0.18480164159910137,-0.3274493380153426,3.8624965122365746,0.6151680946350098,2019-06-21 13:07:41:866
3.742678497314453,5.386272796630859,0.10893450927734374,-0.16695846229557046,-0.2938935082803442,3.878342320722546,0.6200320720672607,2019-06-21 13:07:41:871
2.818530792236328,4.907439788818359,-0.8499285888671875,-0.17042057171267347,-0.2516824050025883,3.906305512168378,0.6251518726348877,2019-06-21 13:07:41:876
3.7690143127441407,5.073834259033203,-0.7984540405273437,-0.2238169515687622,-0.29549140493439174,3.9292086975430593,0.6300160884857178,2019-06-21 13:07:41:881
5.292900360107422,4.779351959228515,0.7577532348632813,-0.29851862014548486,-0.3343735568495486,3.9498481959911733,0.6351358890533447,2019-06-21 13:07:41:886
6.494771209716797,4.63091372680664,1.7633025512695313,-0.3150302189039761,-0.3665978060395074,3.962897685332562,0.6399998664855957,2019-06-21 13:07:41:891
6.244580963134766,4.584227508544922,0.8547169189453124,-0.3073070517427463,-0.38750362059662946,3.9590361017519466,0.6451199054718018,2019-06-21 13:07:41:896
7.349488128662109,5.7453975524902345,0.7314174194335937,-0.2895970304937194,-0.35914095498728554,3.9774119132734937,0.6499838829040527,2019-06-21 13:07:41:901
7.703824554443359,4.120956573486328,0.9277389526367187,-0.3126333739229048,-0.3390340887571873,4.004709314446806,0.6551039218902588,2019-06-21 13:07:41:906
7.780437835693359,3.5331890563964845,1.661550537109375,-0.28826544994867975,-0.3683288607480589,4.010834584953988,0.6599678993225098,2019-06-21 13:07:41:911
6.987969207763672,3.3248966979980468,1.3275645141601562,-0.3279465501908604,-0.3788483470538719,3.9899287703968658,0.6650879383087158,2019-06-21 13:07:41:916
7.008319610595703,1.6406015930175781,-0.08738702392578125,-0.4304782521589111,-0.38830256892365317,3.9672919011311927,0.6702079772949219,2019-06-21 13:07:41:921
6.395413360595703,1.956631378173828,-0.7074757690429687,-0.45684354695069557,-0.3914983622317483,3.9537097795717884,0.6750719547271729,2019-06-21 13:07:41:926
6.559413665771484,1.5807474670410155,-0.6428333129882813,-0.3947918935518493,-0.4002867938290098,3.945187664083535,0.6801919937133789,2019-06-21 13:07:41:931
7.6128462829589845,0.5584389953613281,0.52671630859375,-0.3070407356337384,-0.3349061890675645,3.9365323905407776,0.6850559711456299,2019-06-21 13:07:41:936
8.277227081298827,0.18614633178710938,-0.23343109130859374,-0.29905125236350066,-0.2978882499154631,3.9194881595642705,0.6901760101318359,2019-06-21 13:07:41:941
8.283212493896484,1.1366298522949219,-1.9332882690429687,-0.3219544377381821,-0.339966195138715,3.8872639103743114,0.6950399875640869,2019-06-21 13:07:41:946
7.762481597900391,1.0612136535644532,-1.6747184448242187,-0.3268812857548287,-0.3159977453280019,3.857569664219928,0.700160026550293,2019-06-21 13:07:41:951
8.210190460205078,1.190498565673828,0.12449658203125,-0.31795969610306324,-0.2797787545029242,3.8518438678762577,0.705024003982544,2019-06-21 13:07:41:956
8.122803436279296,1.6681344909667968,-0.3890518188476562,-0.3307428693354436,-0.2868361313916342,3.8369301657718133,0.71014404296875,2019-06-21 13:07:41:961
8.641140167236328,1.9733905334472657,-2.2241793212890624,-0.31210074170488894,-0.27338716788673406,3.827342785847528,0.715008020401001,2019-06-21 13:07:41:966
9.45635336303711,1.2347906188964843,-1.8782224731445312,-0.27907754418790637,-0.20933814367032838,3.8379954302078456,0.720128059387207,2019-06-21 13:07:41:971
9.289958892822266,1.4359004821777344,-0.0191533203125,-0.25537541048620116,-0.21945815581262954,3.8442538587695316,0.724992036819458,2019-06-21 13:07:41:976
9.698164031982422,0.5919573059082031,0.38546057128906247,-0.2507148785785625,-0.19349233518435693,3.833867530518223,0.7301120758056641,2019-06-21 13:07:41:981
9.319885955810546,-1.204863555908203,-0.7170524291992187,-0.29385808823784615,-0.130375417349479,3.8100322387620134,0.734976053237915,2019-06-21 13:07:41:986
9.11279067993164,-2.3385007019042967,-1.9907482299804686,-0.36895923097808064,-0.13623437174765332,3.7758106187544955,0.7400960922241211,2019-06-21 13:07:41:991
9.367769256591796,-3.7977442932128906,-1.5789518432617187,-0.39146294218925026,-0.14528911945392273,3.731069512441164,0.745215892791748,2019-06-21 13:07:41:996
10.287128631591797,-4.525570465087891,-0.09217535400390625,-0.3199570669206227,-0.12771225625939975,3.671681020132397,0.750079870223999,2019-06-21 13:07:42:001
8.23173794555664,-4.77456362915039,0.19751861572265625,-0.22754537709487316,-0.12251909213374523,3.6112272633875984,0.7551999092102051,2019-06-21 13:07:42:006
4.441774688720703,-3.861189666748047,-1.9835657348632811,-0.13633210975965923,-0.13117436567650276,3.551971929133335,0.760063886642456,2019-06-21 13:07:42:011
3.042385223388672,-3.013655242919922,-3.0836845703124998,-0.039925678298790804,-0.12251909213374523,3.5088287194740517,0.7651839256286621,2019-06-21 13:07:42:016
5.015177215576172,-1.2719001770019531,-2.0146898803710935,0.04742600545580821,-0.1215869857522175,3.4763381541750853,0.7700479030609131,2019-06-21 13:07:42:021
7.193867401123047,-0.26994210815429687,-0.780497802734375,0.08857184429753244,-0.10414328061219849,3.46475340343324,0.7751679420471191,2019-06-21 13:07:42:026
10.425990203857422,0.20889089965820312,-0.2465989990234375,0.09549606313173846,-0.06100007511410403,3.469680251449887,0.7800319194793701,2019-06-21 13:07:42:031
11.044881866455079,0.5117527770996093,0.9971697387695312,0.001087002488429467,-0.04289057970156522,3.4734086769759975,0.7851519584655762,2019-06-21 13:07:42:036
10.355362335205077,-1.492163360595703,0.48840966796874996,-0.13513368726912356,-0.07551429889384668,3.4762049961205808,0.7900159358978271,2019-06-21 13:07:42:041
10.038135467529298,-3.206385528564453,-0.5434754638671875,-0.1427236963758494,-0.0006794764238092949,3.491651330443041,0.7951359748840332,2019-06-21 13:07:42:046
10.777932464599608,-3.6098023376464843,-0.9421039428710938,-0.11223050189444211,-0.0049405341679360755,3.4877897468624255,0.7999999523162842,2019-06-21 13:07:42:051
8.296380401611328,-3.291378387451172,0.48840966796874996,-0.046450422969484935,-0.08896326239874684,3.4783355249926444,0.8051199913024902,2019-06-21 13:07:42:056
5.674769683837891,-2.6246034240722658,1.8411129150390624,0.09203395371463545,-0.07671272138438234,3.4790013152651644,0.8099839687347412,2019-06-21 13:07:42:061
6.371471710205078,-1.2826739196777344,2.407332946777344,0.19509828790070197,-0.0555405948794416,3.482063950518755,0.8151040077209473,2019-06-21 13:07:42:066
7.2764660949707025,-1.6884848937988282,2.5497857666015626,0.09056921511509188,-0.12944331096795125,3.463554980942705,0.8199679851531982,2019-06-21 13:07:42:071
9.366572174072266,-2.8149395446777343,-0.138861572265625,-0.10677102165977968,-0.22664869075584346,3.4636881389972087,0.8250880241394043,2019-06-21 13:07:42:076
9.268411407470703,-3.4110866394042967,-3.040589599609375,-0.19598691817743416,-0.11213276388243622,3.463554980942705,0.8302080631256104,2019-06-21 13:07:42:081
7.190276153564453,-3.7199339294433593,-1.7980179443359374,-0.11888840461964022,-0.08576746909065175,3.4634218228882006,0.8350720405578613,2019-06-21 13:07:42:086
4.052722869873047,-3.666065216064453,0.41059930419921875,-0.012495119070974647,-0.12012224715267392,3.4422496922220702,0.8401920795440674,2019-06-21 13:07:42:091
3.475729095458984,-4.100606170654297,0.9409068603515625,0.02971598420678128,-0.07924272441995762,3.434659683115345,0.8450560569763184,2019-06-21 13:07:42:096
5.750185882568359,-4.150883636474609,0.828381103515625,0.0048154280145404,-0.11639382162656299,3.4044328047429455,0.8501760959625244,2019-06-21 13:07:42:101
6.989166290283203,-5.461688995361328,-1.6280322265625,-0.06269570561896828,-0.2607371527088577,3.3576943276120548,0.8550400733947754,2019-06-21 13:07:42:106
7.010713775634765,-5.503586883544922,-2.4635958251953123,-0.04139041689833438,-0.16992335953715568,3.329731136166223,0.8601598739624023,2019-06-21 13:07:42:111
8.296380401611328,-5.531119781494141,-1.2389804077148436,-0.012361961016470685,-0.0890964204532508,3.3141516437892595,0.8650240898132324,2019-06-21 13:07:42:116
6.791647674560546,-5.786098358154296,-1.3610828247070312,-0.0023751069286735427,-0.15008280941606536,3.284324239580372,0.8701438903808594,2019-06-21 13:07:42:121
8.486716522216797,-6.867063873291015,-1.5346597900390624,0.06686708141338664,-0.12318488240626504,3.2642173733502733,0.8750078678131104,2019-06-21 13:07:42:126
8.848235443115234,-7.110071624755859,-0.9325272827148438,0.11666819379786841,-0.06965534865686157,3.2473063004282703,0.8801279067993164,2019-06-21 13:07:42:131
7.563765899658203,-6.521107025146485,-0.33398602294921875,0.12918505092124083,-0.12704646598687994,3.2217399539635094,0.8849918842315674,2019-06-21 13:07:42:136
5.7741275329589845,-5.822010833740234,0.36630725097656247,0.18005142774175426,-0.09162642348882608,3.2102883612761692,0.8901119232177734,2019-06-21 13:07:42:141
4.013219146728516,-5.145659210205078,-0.18315362548828124,0.18684248852145632,-0.055007962661425755,3.189782020882559,0.8949759006500244,2019-06-21 13:07:42:146
3.0639327087402344,-4.519585052490235,-1.766893798828125,0.15927877123913622,-0.1349027912026137,3.1639493583087903,0.9000959396362305,2019-06-21 13:07:42:151
3.0902685241699217,-5.398243621826172,-1.9859598999023438,0.1744587894525879,-0.15793913463179912,3.140779856825101,0.9052159786224365,2019-06-21 13:07:42:156
5.413805694580078,-6.276902191162109,-0.7697240600585937,0.22878727569020435,-0.1558086057597357,3.1130829814882772,0.9100799560546875,2019-06-21 13:07:42:161
6.258945953369141,-7.909722747802734,-0.483621337890625,0.21826778938439134,-0.18736706467717468,3.0836550514429013,0.9151999950408936,2019-06-21 13:07:42:166
6.399004608154296,-7.626014190673828,0.08618994140625,0.21746884105736758,-0.19788655098298769,3.055159227779053,0.9200639724731445,2019-06-21 13:07:42:171
4.8236440124511715,-6.419355010986328,0.435738037109375,0.24716308721175106,-0.17724705253487358,3.034786045439947,0.9251840114593506,2019-06-21 13:07:42:176
3.458969940185547,-6.602508636474609,0.34715393066406247,0.29296945796111395,-0.19256022880282922,3.0162770758638966,0.9300479888916016,2019-06-21 13:07:42:181
4.931381439208984,-6.563004913330078,0.10294909667968749,0.3490289989072819,-0.203745505381162,2.9988333707238772,0.9351680278778076,2019-06-21 13:07:42:186
5.495207305908203,-5.121717559814453,1.3084111938476561,0.31640527555381126,-0.2756508548133014,2.9675412279154463,0.9400320053100586,2019-06-21 13:07:42:191
5.271352874755859,-5.769339202880859,1.4484698486328125,0.2176019991118715,-0.30055141100554233,2.946369097249317,0.9451520442962646,2019-06-21 13:07:42:196
5.345571990966797,-7.2632981872558595,1.10131591796875,0.16260772260173526,-0.2044112956536818,2.9427738297777095,0.9500160217285156,2019-06-21 13:07:42:201
4.593804168701172,-6.316405914306641,-0.13287615966796876,0.1491587590968351,-0.21493078195949478,2.9367817173250312,0.9551360607147217,2019-06-21 13:07:42:206
5.193542510986328,-7.319561065673828,-0.9552718505859374,0.13930506306354193,-0.30308141404111755,2.9208027507845555,0.9600000381469727,2019-06-21 13:07:42:211
5.03193637084961,-6.753341033935547,-0.31483270263671875,0.23291517537982714,-0.28364033808353917,2.9178732735854687,0.9651200771331787,2019-06-21 13:07:42:216
5.705893829345703,-5.887850372314453,0.43214678955078123,0.29017313881653073,-0.2568755691282428,2.914011690004854,0.9699840545654297,2019-06-21 13:07:42:221
5.953689910888672,-6.0662156677246095,-0.02274456787109375,0.23824149755998564,-0.2767161192493331,2.9148106383318773,0.9751040935516357,2019-06-21 13:07:42:226
6.25774887084961,-6.2409897155761715,-0.4405263671875,0.18018458579625826,-0.2747187484317737,2.930390130708841,0.9799680709838867,2019-06-21 13:07:42:231
6.671939422607422,-6.9113559265136715,-0.876264404296875,0.17219510252602052,-0.2566092530192349,2.9515622613749715,0.9850878715515137,2019-06-21 13:07:42:236
6.305632171630859,-7.563765899658203,-0.49918341064453126,0.20495198393399514,-0.2852382347375867,2.9715359695505654,0.9902079105377197,2019-06-21 13:07:42:241
5.816025421142578,-6.962830474853515,0.41778179931640624,0.24995940635633426,-0.30947300065730776,2.9981675804513577,0.9950718879699707,2019-06-21 13:07:42:246
5.511966461181641,-6.260143035888672,0.790074462890625,0.27099837896796025,-0.29629035326141556,3.0246660332976463,1.0001919269561768,2019-06-21 13:07:42:251
5.389864044189453,-5.716667572021485,0.01556207275390625,0.2700662725864325,-0.30521194291318093,3.043308160928201,1.0050559043884277,2019-06-21 13:07:42:256
4.87990689086914,-5.99079946899414,-0.37348974609374996,0.23757570728746583,-0.31533195505548206,3.063548185212803,1.0101759433746338,2019-06-21 13:07:42:261
4.87990689086914,-6.583355316162109,0.0263358154296875,0.2198656860384389,-0.3199924869631207,3.0904461122226032,1.0150399208068848,2019-06-21 13:07:42:266
4.5914100036621095,-7.08253872680664,0.16400030517578124,0.23611096868792222,-0.3358382954490922,3.10948771401667,1.0201599597930908,2019-06-21 13:07:42:271
4.593804168701172,-7.651152923583984,-0.177168212890625,0.26740311149635326,-0.36273622245889253,3.1266651030476806,1.0250239372253418,2019-06-21 13:07:42:276
4.032372467041015,-7.969576873779297,-0.062248291015625,0.28151786527377326,-0.3707257057291302,3.1361193249174626,1.0301439762115479,2019-06-21 13:07:42:281
3.308137542724609,-7.506305938720703,-0.052671630859375,0.261410999043675,-0.39109888806823634,3.1422445954246445,1.0350079536437988,2019-06-21 13:07:42:286
3.350035430908203,-8.329898712158203,-0.92893603515625,0.2226620051830221,-0.40388206130061677,3.1383830118440295,1.0401279926300049,2019-06-21 13:07:42:291
3.782182220458984,-8.667475982666016,-1.8195654296875,0.2327820173253232,-0.41546681204246144,3.1326572155003594,1.0449919700622559,2019-06-21 13:07:42:296
4.672811614990234,-8.79676089477539,-1.3395353393554688,0.271930485349488,-0.4500879062134915,3.1381166957350217,1.050112009048462,2019-06-21 13:07:42:301
5.643645538330078,-8.608818939208984,0.6536070556640625,0.3373110901109333,-0.4867063712020811,3.1505003948038905,1.054975986480713,2019-06-21 13:07:42:306
4.821249847412109,-6.748552703857421,2.0817265014648436,0.3903079958035101,-0.4635368697183917,3.182325169830337,1.060096025466919,2019-06-21 13:07:42:311
4.114971160888672,-5.515557708740234,2.2241793212890624,0.39337063105710124,-0.3973573166299226,3.2121525740392247,1.06496000289917,2019-06-21 13:07:42:316
4.107788665771484,-5.801660430908203,1.3622799072265626,0.2990947284682962,-0.38896835919617295,3.2362541819044415,1.070080041885376,2019-06-21 13:07:42:321
3.978503753662109,-6.918538421630859,-0.04908038330078125,0.14622928189774795,-0.4354405202180557,3.2634184250232496,1.075200080871582,2019-06-21 13:07:42:326
3.964138763427734,-7.156757843017578,-0.6069208374023437,0.14050348555407757,-0.46074055057380847,3.3065616346825335,1.080064058303833,2019-06-21 13:07:42:331
4.460928009033203,-6.280493438720703,0.44292053222656247,0.2879094518899634,-0.4431636873792855,3.349438528232809,1.08518385887146,2019-06-21 13:07:42:336
4.81167318725586,-6.958042144775391,1.412557373046875,0.3377105642744451,-0.4562131767206738,3.3827280418588,1.09004807472229,2019-06-21 13:07:42:341
5.1013671569824215,-7.009516693115234,2.02067529296875,0.25461993826397294,-0.45315054146708267,3.4319965220252655,1.095167875289917,2019-06-21 13:07:42:346
5.154038787841797,-8.398132415771483,1.5430393676757812,0.1261224156676497,-0.42518735002125063,3.480599211919212,1.100032091140747,2019-06-21 13:07:42:351
4.843994415283203,-9.479097930908203,0.34835101318359374,0.09629501145876222,-0.4406336843437102,3.5309329565217094,1.105151891708374,2019-06-21 13:07:42:356
4.019204559326171,-9.675419464111329,0.8858410644531249,0.1897719657205435,-0.40747732877222376,3.5735435339629773,1.110015869140625,2019-06-21 13:07:42:361
3.7881676330566405,-10.007011322021484,1.9596240844726562,0.2487609838657986,-0.3651330674399638,3.6063004153709515,1.115135908126831,2019-06-21 13:07:42:366
2.832895782470703,-8.454395294189453,2.7173773193359376,0.17392615723457203,-0.34981989117200823,3.6318667618357123,1.119999885559082,2019-06-21 13:07:42:371
0.12389804077148438,-5.2342433166503906,3.884532775878906,0.02625387478967827,-0.3544804230796469,3.657832582463985,1.125119924545288,2019-06-21 13:07:42:376
-0.5656214904785156,-6.300843841552735,-0.42257012939453126,-0.031004088647025353,-0.3880362528146453,3.651574153902299,1.129983901977539,2019-06-21 13:07:42:381
-0.5416798400878906,-5.837572906494141,-3.2919769287109375,0.06899761028545004,-0.38550624977907,3.6357283454163274,1.1351039409637451,2019-06-21 13:07:42:386
0.5249206848144531,-6.9700129699707025,-4.921206237792969,0.04010231245809031,-0.4362394685450795,3.6501094153027553,1.139967918395996,2019-06-21 13:07:42:391
1.7495361022949218,-11.68891226196289,-2.9663704833984372,0.022658607318071296,-0.5154685109749368,3.6498430991937476,1.1450879573822021,2019-06-21 13:07:42:396
1.1533890075683593,-10.934750274658203,1.3479149169921876,0.15075665575088265,-0.46686582108099073,3.6639578529711674,1.1502079963684082,2019-06-21 13:07:42:401
0.1562192687988281,-10.089610015869141,2.7030123291015626,0.15035718158737077,-0.343428304555818,3.666088381843231,1.1550719738006592,2019-06-21 13:07:42:406
-0.2735333557128906,-8.120409271240234,1.153987548828125,0.09190079566013148,-0.28577086695560255,3.654237314992378,1.1601920127868652,2019-06-21 13:07:42:411
-3.0651297912597655,-7.519473846435547,-1.6819009399414062,-0.01542459627006181,-0.3432951465013141,3.630668339345177,1.1650559902191162,2019-06-21 13:07:42:416
-2.8987353210449216,-6.583355316162109,-1.6603534545898437,0.011739646848746418,-0.3795141373263918,3.612692001987142,1.1701760292053223,2019-06-21 13:07:42:421
-2.0033175964355467,-9.470718353271485,0.45010302734374996,0.08564236709844528,-0.37045938962012226,3.594316190465595,1.1750400066375732,2019-06-21 13:07:42:426
-0.3429641418457031,-11.62187564086914,0.8367606811523437,0.07805235799171945,-0.4213257664406358,3.5696819503823622,1.1801600456237793,2019-06-21 13:07:42:431
-0.3321903991699219,-11.521320709228515,-0.7625415649414062,-0.020085128177700477,-0.3872373044876215,3.5775382755980965,1.1850240230560303,2019-06-21 13:07:42:436
0.4339424133300781,-9.240878509521485,-0.8319723510742187,-0.001975632765161657,-0.3022824657140938,3.595115138792619,1.1901440620422363,2019-06-21 13:07:42:441
-1.4646304626464843,-6.808406829833984,1.0642063598632812,0.11973082905145953,-0.2579408335642745,3.605101992880416,1.1950080394744873,2019-06-21 13:07:42:446
-3.628955657958984,-7.4524372253417965,1.7740762939453125,0.1554171876585213,-0.2743192742682618,3.60656673147996,1.2001280784606934,2019-06-21 13:07:42:451
-3.3009550476074216,-8.630366424560547,0.282511474609375,0.055415488726045924,-0.24355976367784662,3.5831309138872625,1.2049920558929443,2019-06-21 13:07:42:456
-2.7814212341308595,-10.584005096435547,-2.23136181640625,-0.12994052314346904,-0.336504085721612,3.5631572057116685,1.2101120948791504,2019-06-21 13:07:42:461
-0.6446289367675782,-8.635154754638672,-1.5969080810546874,-0.07587835301486051,-0.45874317975624906,3.5615593090576207,1.2149760723114014,2019-06-21 13:07:42:466
-0.48302279663085934,-6.510333282470703,0.9073885498046875,0.12878557675772895,-0.3873704625421254,3.578603540034128,1.2200958728790283,2019-06-21 13:07:42:471
0.6374464416503907,-5.211498748779297,1.5107181396484375,0.17352668307106014,-0.350485681444528,3.6102951570060706,1.2249600887298584,2019-06-21 13:07:42:476
-1.482586700439453,-4.708724090576172,0.2992706298828125,0.03397704195090806,-0.35487989724315877,3.6525062602838267,1.2300798892974854,2019-06-21 13:07:42:481
-0.38605911254882813,-7.659532501220703,-0.84274609375,-0.11289629216696193,-0.3526162103165914,3.6533052086108504,1.2351999282836914,2019-06-21 13:07:42:486
-0.24719754028320312,-9.176236053466797,-1.651973876953125,-0.12967420703446111,-0.2779145417398688,3.675276287604004,1.2400639057159424,2019-06-21 13:07:42:491
-2.611435516357422,-8.69979721069336,0.0550657958984375,-0.04951305822307606,-0.26593031683451224,3.7230800291709265,1.2451839447021484,2019-06-21 13:07:42:496
-2.3097707214355467,-11.648211456298828,1.6304263916015624,0.012538595175770191,-0.3374361921031398,3.7479805853631674,1.2500479221343994,2019-06-21 13:07:42:501
-4.79371694946289,-11.198108428955077,2.2816392822265623,0.04209968327564973,-0.2893661344272095,3.7718158771193764,1.2551679611206055,2019-06-21 13:07:42:506
-4.466913421630859,-11.090371002197266,1.950047424316406,-0.04591779075146908,-0.29136350524476895,3.76688902910273,1.2600319385528564,2019-06-21 13:07:42:511
-5.776521697998047,-10.307479034423828,2.0901060791015627,-0.09585206119045481,-0.26020452049084186,3.759964810268524,1.2651519775390625,2019-06-21 13:07:42:516
-6.355909637451171,-8.921257476806641,2.1918580932617187,-0.04858095184154833,-0.2303771162819544,3.740790050419953,1.2700159549713135,2019-06-21 13:07:42:521
-6.85269888305664,-9.607185760498046,1.8016091918945312,-0.04125725884383042,-0.21612920445003045,3.713758965355649,1.2751359939575195,2019-06-21 13:07:42:526
-7.027472930908203,-8.455592376708983,1.1647612915039063,-0.09771627395351026,-0.25354661776564374,3.688858409163408,1.2799999713897705,2019-06-21 13:07:42:531
-6.333165069580078,-6.828757232666016,-0.6931107788085937,-0.1515121279731109,-0.2863034991736184,3.6518404700113067,1.2851200103759766,2019-06-21 13:07:42:536
-4.849979827880859,-6.093748565673828,-1.8207625122070312,-0.11808945629261645,-0.21240077892391954,3.6172193758402766,1.2899839878082275,2019-06-21 13:07:42:541
-5.494010223388671,-8.388555755615235,-2.5210557861328122,-0.12741052010789378,-0.17644810420784982,3.597645141828194,1.2951040267944336,2019-06-21 13:07:42:546
-4.590212921142578,-9.46712710571289,-3.692999572753906,-0.18839690907070833,-0.25208187916610014,3.597645141828194,1.2999680042266846,2019-06-21 13:07:42:551
-3.209976776123047,-9.778368560791016,-3.3063419189453125,-0.13060631341598886,-0.2691261101426073,3.6128251600416457,1.3050880432128906,2019-06-21 13:07:42:556
-4.098212005615235,-8.782395904541016,-1.25454248046875,0.0383712577495388,-0.26579715878000826,3.6399894031604543,1.3102080821990967,2019-06-21 13:07:42:561
-3.365597503662109,-7.736145782470703,1.6938717651367188,0.06673392335888269,-0.2269150068648514,3.675542603713012,1.3150720596313477,2019-06-21 13:07:42:566
-3.420663299560547,-8.394541168212891,2.8765892944335936,-0.04258883938887004,-0.13476963314810972,3.6939184152345583,1.3201918601989746,2019-06-21 13:07:42:571
-3.3907362365722657,-7.564962982177734,1.71422216796875,-0.10304259613366876,-0.1751165236628102,3.714691071737177,1.3250560760498047,2019-06-21 13:07:42:576
-4.189190277099609,-7.877401519775391,-1.2952432861328125,-0.13912842890424243,-0.13437015898459784,3.740656892365449,1.3301758766174316,2019-06-21 13:07:42:581
-3.910270050048828,-7.951620635986328,-1.4341048583984375,-0.07800888188692391,-0.032770567559264115,3.775011670427472,1.3350400924682617,2019-06-21 13:07:42:586
-7.602072540283203,-9.931595123291016,0.6823370361328125,-0.0017093166561537331,-0.07551429889384668,3.791390111131459,1.3401598930358887,2019-06-21 13:07:42:591
-10.648647552490234,-11.302254608154296,0.646424560546875,0.02212597510005545,-0.09988222286807172,3.803773810200327,1.3450238704681396,2019-06-21 13:07:42:596
-11.424357025146485,-10.974253997802734,0.21906610107421876,-0.030604614483513468,0.02475371198644743,3.7980480138566572,1.3501439094543457,2019-06-21 13:07:42:601
-9.94476303100586,-7.377021026611328,1.661550537109375,-0.023547237594803486,0.0029157910477976764,3.76688902910273,1.3550078868865967,2019-06-21 13:07:42:606
-9.383331329345703,-5.590973907470703,1.575360595703125,-0.004239319691729009,-0.07391640223979914,3.7217484486258865,1.3601279258728027,2019-06-21 13:07:42:611
-7.794802825927734,-5.577805999755859,0.4716505126953125,-0.025411450357858953,-0.06060060095059215,3.7061689562489235,1.3649919033050537,2019-06-21 13:07:42:616
-9.462338775634766,-5.666390106201172,-2.254106384277344,-0.13207105201553246,-0.07458219251231896,3.693252624962039,1.3701119422912598,2019-06-21 13:07:42:621
-10.862925323486328,-6.4013987731933595,-3.806722412109375,-0.1918590184878113,-0.17218704646372304,3.6317336037812082,1.3749759197235107,2019-06-21 13:07:42:626
-7.822335723876953,-6.691092742919921,-3.4978751220703126,-0.13393526477858791,-0.08017483080148535,3.5981777740462104,1.3800959587097168,2019-06-21 13:07:42:631
-4.805687774658203,-5.758565460205078,-1.7369667358398437,-0.009831957980895409,-0.04728479550019596,3.5616924671121244,1.3849599361419678,2019-06-21 13:07:42:636
-2.737129180908203,-4.384314727783203,-1.7824558715820311,0.049157060164359716,-0.21226762086941556,3.5596950962945653,1.3900799751281738,2019-06-21 13:07:42:641
-2.3803985900878906,-3.838445098876953,-0.24300775146484374,0.009209643813171143,-0.22238763301171668,3.610028840897063,1.3952000141143799,2019-06-21 13:07:42:646
-4.79371694946289,-4.623731231689453,1.1982796020507813,-0.03246882724656894,-0.256076620801219,3.685928931964321,1.4000639915466309,2019-06-21 13:07:42:651
-9.37016342163086,-8.79795797729492,-0.08379577636718749,-0.09212363566434387,-0.29016508275423325,3.7273410869150534,1.405184030532837,2019-06-21 13:07:42:656
-12.370052215576171,-12.987746795654296,-2.017084045410156,-0.18892954128872416,-0.25314714360213186,3.7457168984365996,1.410048007965088,2019-06-21 13:07:42:661
-11.61229898071289,-10.76835580444336,-1.2461629028320311,-0.1717521522577131,-0.21572973028651857,3.7574348072329484,1.415168046951294,2019-06-21 13:07:42:666
-7.908525665283203,-7.626014190673828,0.7733153076171875,-0.04312147160688589,-0.21466446585048687,3.7591658619415,1.420032024383545,2019-06-21 13:07:42:671
-6.57497573852539,-4.276577301025391,0.9983668212890625,0.10361870445648014,-0.10960276084686092,3.7678211354842572,1.425152063369751,2019-06-21 13:07:42:676
-9.37136050415039,-3.7690143127441407,0.7529649047851562,0.1429003305351489,-0.03756425752140674,3.7751448284819755,1.430016040802002,2019-06-21 13:07:42:681
-13.42228775024414,-5.533513946533203,1.80998876953125,0.06473655254132325,-0.027444245379105635,3.767421661320746,1.435136079788208,2019-06-21 13:07:42:686
-14.545151153564452,-6.4887857971191405,1.5765576782226562,-0.02168302483174802,-0.10587433532075,3.7144247556281687,1.440000057220459,2019-06-21 13:07:42:691
-11.389641632080078,-4.466913421630859,0.6667749633789062,-0.06922045028966242,-0.16180071821241399,3.713359491192137,1.445120096206665,2019-06-21 13:07:42:696
-11.17057553100586,-2.449829376220703,-2.3774058837890624,-0.11995366905567191,-0.10507538699372622,3.70337263710434,1.449984073638916,2019-06-21 13:07:42:701
-13.203221649169922,-2.4127198181152343,-3.860591125488281,-0.10317575418817272,-0.1719207303547151,3.6499762572482513,1.455103874206543,2019-06-21 13:07:42:706
-14.832450958251952,-4.158066131591797,-2.2445297241210938,-0.07401414025180506,-0.18070916195197662,3.5723451114724414,1.459968090057373,2019-06-21 13:07:42:711
-12.164154022216797,-4.128139068603516,0.37468682861328123,-0.04005883635329476,-0.1663280920655487,3.516818202744289,1.465087890625,2019-06-21 13:07:42:716
-8.599242279052735,-2.650939239501953,0.5087600708007812,-0.04059146857131061,-0.16379808902997342,3.469147619231871,1.470207929611206,2019-06-21 13:07:42:721
-7.50391177368164,-1.9207189025878906,-1.230600830078125,-0.04977937433208399,-0.14702017416247423,3.4619570842886573,1.475071907043457,2019-06-21 13:07:42:726
-9.407272979736328,-2.6138296813964845,-2.7413189697265623,-0.06455991838202375,-0.18044284584296869,3.458494974871554,1.480191946029663,2019-06-21 13:07:42:731
-11.511744049072265,-4.208343597412109,-1.91533203125,-0.12021998516467984,-0.2202571041396533,3.440252321404511,1.485055923461914,2019-06-21 13:07:42:736
-11.948679168701172,-4.3280518493652345,0.311241455078125,-0.1552405534992218,-0.3022824657140938,3.4351923153333606,1.4901759624481201,2019-06-21 13:07:42:741
-11.860095062255859,-4.149686553955078,0.3615189208984375,-0.1752142616748161,-0.36233674829538065,3.4351923153333606,1.495039939880371,2019-06-21 13:07:42:746
-11.09515933227539,-3.8013355407714844,-0.493197998046875,-0.20943588168233432,-0.25008450834854073,3.434260208951833,1.5001599788665771,2019-06-21 13:07:42:751
-10.828209930419922,-3.6385323181152343,-0.0263358154296875,-0.21223220082691752,-0.2540792499836596,3.420411771283421,1.5050239562988281,2019-06-21 13:07:42:756
-10.819830352783203,-4.676402862548828,-0.14843823242187498,-0.11342892438497777,-0.2783140159033807,3.3792659324416965,1.5101439952850342,2019-06-21 13:07:42:761
-11.579977752685547,-3.273422149658203,0.4656651000976562,0.10534975916503164,-0.10148011952211926,3.3827280418588,1.5150079727172852,2019-06-21 13:07:42:766
-11.875657135009765,-1.6477840881347656,1.5023385620117187,0.26327521180673047,-0.03476793837682354,3.382861199913304,1.5201280117034912,2019-06-21 13:07:42:771
-11.129874725341796,-0.2424092102050781,1.9165291137695313,0.268202059823377,-0.09175958154333003,3.3307964006022543,1.5249919891357422,2019-06-21 13:07:42:776
-11.876854217529297,-1.141418182373047,1.0498413696289062,0.050355482654895374,-0.047018479391188035,3.307360583009557,1.5301120281219482,2019-06-21 13:07:42:781
-12.19647525024414,-0.7751109313964843,-0.73740283203125,-0.0923899517733518,-0.05820375596952084,3.284057923471364,1.5349760055541992,2019-06-21 13:07:42:786
-12.759104034423828,-1.4873750305175781,-2.3762088012695313,-0.10157785753412515,-0.1805760038974726,3.260222631715155,1.5400960445404053,2019-06-21 13:07:42:791
-11.941496673583984,-1.7100323791503906,-1.2222212524414062,-0.08213678157654672,-0.17817915891640132,3.233724178868866,1.5449600219726562,2019-06-21 13:07:42:796
-11.607510650634765,-0.9714324645996093,0.12210241699218749,-0.09918101255305384,-0.14901754498003367,3.2273325922526763,1.5500800609588623,2019-06-21 13:07:42:801
-10.771947052001952,-1.2515497741699217,-0.5063659057617187,-0.11023313107688269,-0.16579545984753286,3.1895157047735507,1.5551998615264893,2019-06-21 13:07:42:806
-9.83941976928711,-1.586732879638672,-1.6459884643554688,-0.052309377367659254,-0.13543542342062953,3.17167252547002,1.5600640773773193,2019-06-21 13:07:42:811
-11.269933380126952,-1.0827611389160157,-2.336705078125,0.00548121828706021,-0.13170699789451862,3.153829346166489,1.5651838779449463,2019-06-21 13:07:42:816
-10.901231964111329,-0.29627792358398436,-0.8391548461914062,0.0628723397782678,-0.13197331400352652,3.1383830118440295,1.5700480937957764,2019-06-21 13:07:42:821
-14.880334259033203,-0.5955485534667969,1.2533453979492186,0.07712025161019172,-0.12132066964320957,3.114680878142324,1.5751678943634033,2019-06-21 13:07:42:826
-12.343716400146484,0.20769381713867188,4.187394653320313,0.024522820081126762,-0.18470390358709546,3.0997671760378807,1.5800318717956543,2019-06-21 13:07:42:831
-12.190489837646485,0.5069644470214844,2.007507385253906,-0.11209734383993815,-0.13250594622154238,3.0735350393006002,1.5851519107818604,2019-06-21 13:07:42:836
-10.115945831298827,-0.41718325805664064,-2.7796256103515624,-0.13979421917676224,-0.08643325936317156,3.025065507461158,1.5900158882141113,2019-06-21 13:07:42:841
-9.519798736572266,-1.2060606384277344,-1.3658711547851563,-0.0594999123108732,-0.10827118030182131,3.021470239989551,1.5951359272003174,2019-06-21 13:07:42:846
-11.48780239868164,-0.5919573059082031,0.13766448974609374,-0.022082498995259905,-0.16979020148265173,3.0302586715868123,1.5999999046325684,2019-06-21 13:07:42:851
-11.748766387939453,-1.2599293518066406,0.421373046875,-0.01595722848807766,-0.0628642878771595,3.0189402369539757,1.6051199436187744,2019-06-21 13:07:42:856
-10.955100677490234,-1.1114911193847656,-1.2964403686523438,0.0016196347064453146,-0.09575432317844888,3.01840760473596,1.6099839210510254,2019-06-21 13:07:42:861
-10.584005096435547,-0.28430709838867185,-2.15474853515625,0.0046822699600364386,-0.16646125012005267,3.0271960363332218,1.6151039600372314,2019-06-21 13:07:42:866
-11.004181060791016,-0.15861343383789062,-0.06823370361328125,0.011606488794242456,-0.10640696753876584,3.041577106219649,1.6199679374694824,2019-06-21 13:07:42:871
-12.31139517211914,0.9043958435058593,0.8463373413085937,0.038770731913050686,-0.12491593711481654,3.0395797354020897,1.6250879764556885,2019-06-21 13:07:42:876
-13.205615814208985,0.9031987609863281,-1.2174329223632812,0.00894332770416322,-0.16606177595654079,3.0144128631008416,1.6302080154418945,2019-06-21 13:07:42:881
-13.072739654541015,1.7531273498535156,-0.8259869384765625,0.015468072374857351,-0.14488964529041085,3.0014965318139564,1.6350719928741455,2019-06-21 13:07:42:886
-11.48780239868164,1.927901397705078,1.6064847412109375,0.016932810974400934,-0.12771225625939975,2.974598604804157,1.6401920318603516,2019-06-21 13:07:42:891
-11.942693756103516,2.2451282653808593,1.9368795166015624,0.01240543712126623,-0.17005651759165966,2.9469017294673323,1.6450560092926025,2019-06-21 13:07:42:896
-11.74637222290039,2.512077667236328,0.2418106689453125,0.011340172685234533,-0.0936237943063855,2.90815273560668,1.6501760482788086,2019-06-21 13:07:42:901
-11.493787811279297,1.2683089294433594,-0.7912715454101562,0.008144379377139448,-0.007470537203511351,2.8864479727225336,1.6550400257110596,2019-06-21 13:07:42:906
-10.96946566772461,0.7332130432128906,-0.5087600708007812,0.03038177447930109,-0.08163956940102893,2.8660747903834274,1.6601600646972656,2019-06-21 13:07:42:911
-11.36330581665039,0.1562192687988281,0.056262878417968745,0.0366402030409873,-0.13397068482108596,2.87020269007305,1.6650240421295166,2019-06-21 13:07:42:916
-11.396824127197265,0.038905181884765626,0.5997383422851562,0.02146018482753564,-0.10241222590364699,2.8896437660306287,1.6701440811157227,2019-06-21 13:07:42:921
-11.710459747314452,0.5117527770996093,0.26216107177734377,-0.0030408972011933518,-0.09402326846989738,2.909484316151719,1.6750080585479736,2019-06-21 13:07:42:926
-11.975014984130858,0.5093586120605469,-0.339971435546875,2.1738052397771785e-05,-0.09602063928745681,2.9146774802773736,1.6801278591156006,2019-06-21 13:07:42:931
-11.729613067626953,1.1330386047363281,-0.056262878417968745,0.015601230429361316,-0.08097377912850913,2.925862756855706,1.6849920749664307,2019-06-21 13:07:42:936
-11.031713958740234,1.0839582214355468,-0.35313934326171875,-0.010897222416927104,-0.08683273352668344,2.9262622310192183,1.6901118755340576,2019-06-21 13:07:42:941
-11.158604705810546,1.5903241271972657,0.037109558105468746,0.023191239536087146,-0.0985506423230321,2.9282596018367775,1.6949760913848877,2019-06-21 13:07:42:946
-11.904387115478515,1.6573607482910155,0.46925634765625,0.06020917868818856,-0.08776483990821118,2.927061179346242,1.7000958919525146,2019-06-21 13:07:42:951
-12.106694061279297,2.1026754455566405,-0.2944822998046875,0.053817592071998384,-0.07351692807628726,2.9289253921092975,1.7049598693847656,2019-06-21 13:07:42:956
-11.766722625732422,2.775435821533203,-1.1049071655273437,0.037971783586026917,-0.09908327454104794,2.933319607907928,1.7100799083709717,2019-06-21 13:07:42:961
-11.329787506103516,2.885567413330078,-0.9828047485351562,0.03743915136801107,-0.13290542038505426,2.9394448784151104,1.7151999473571777,2019-06-21 13:07:42:966
-11.657788116455079,3.0399910583496093,-0.4405263671875,0.03477599027793183,-0.12811173042291163,2.9401106686876304,1.7200639247894287,2019-06-21 13:07:42:971
-11.15261929321289,3.1884292907714844,-0.416584716796875,0.026786507007694117,-0.11825803438961846,2.931988027362889,1.7251839637756348,2019-06-21 13:07:42:976
-11.202896759033203,3.490094085693359,-0.4524971923828125,0.0383712577495388,-0.10747223197479754,2.922533805493108,1.7300479412078857,2019-06-21 13:07:42:981
-11.723627655029297,3.8444305114746093,-0.6524099731445312,0.05874444008864497,-0.10187959368563114,2.9097506322607267,1.7351679801940918,2019-06-21 13:07:42:986
-12.207248992919922,4.565074188232422,-0.272934814453125,0.06886445223094607,-0.10827118030182131,2.8887116596491014,1.7400319576263428,2019-06-21 13:07:42:991
-12.921907257080077,5.622098052978515,0.37229266357421875,0.07432393246560852,-0.12970962707695918,2.868338477309995,1.7451519966125488,2019-06-21 13:07:42:996
-12.81776107788086,5.879470794677734,0.6428333129882813,0.07938393853675907,-0.12678014987787203,2.8375789667195797,1.7500159740447998,2019-06-21 13:07:43:001
-11.734401397705078,5.625689300537109,1.0139288940429687,0.08191394157233435,-0.12065487937068976,2.8045557692025973,1.7551360130310059,2019-06-21 13:07:43:006
-10.454720184326172,5.268958709716797,0.5913587646484375,0.05421706623551027,-0.10907012862884508,2.7727309941761504,1.7599999904632568,2019-06-21 13:07:43:011
-10.490632659912109,4.9996151428222655,-0.6404391479492187,0.02625387478967827,-0.08603378519965968,2.749028860474445,1.765120029449463,2019-06-21 13:07:43:016
-10.63547964477539,4.915819366455078,-0.7433882446289062,0.028917035879757504,-0.07671272138438234,2.7188019821020455,1.7699840068817139,2019-06-21 13:07:43:021
-10.896443634033202,4.814067352294922,0.09935784912109374,0.025854400626166382,-0.0992164325955519,2.703089331670578,1.77510404586792,2019-06-21 13:07:43:026
-11.143042633056641,5.078622589111328,-0.0023941650390625,-0.001975632765161657,-0.09974906481356775,2.690439316492702,1.779968023300171,2019-06-21 13:07:43:031
-10.785114959716797,4.641687469482422,-0.31962103271484377,-0.021283550668236135,-0.07657956332987838,2.6843140459855195,1.785088062286377,2019-06-21 13:07:43:036
-10.634282562255859,4.255029815673828,-0.6883224487304688,-0.018620389578156895,-0.09175958154333003,2.678055617423833,1.790207862854004,2019-06-21 13:07:43:041
-10.339800262451172,3.849218841552734,-0.9660455932617187,-0.039526204135278915,-0.0992164325955519,2.671397714698635,1.795072078704834,2019-06-21 13:07:43:046
-10.503800567626953,3.6672622985839842,-0.636847900390625,-0.05856780592934547,-0.09455590068791322,2.681917201004448,1.800191879272461,2019-06-21 13:07:43:051
-10.458311431884765,3.675641876220703,-0.2561756591796875,-0.06828834390813468,-0.10294485812166283,2.694167742018813,1.805056095123291,2019-06-21 13:07:43:056
-10.451128936767578,4.148489471435547,-1.0462501220703124,-0.08226993963105068,-0.09961590675906379,2.703888279997602,1.810175895690918,2019-06-21 13:07:43:061
-10.715684173583984,5.065454681396484,-1.3814332275390624,-0.08040572686799521,-0.09868380037753606,2.7192014562655578,1.815039873123169,2019-06-21 13:07:43:066
-11.11311557006836,5.778915863037109,-0.6153004150390625,-0.07481308857882882,-0.11825803438961846,2.7242614623367083,1.820159912109375,2019-06-21 13:07:43:071
-11.863686309814453,6.485194549560546,0.35313934326171875,-0.07041887278019808,-0.13636752980215727,2.724128304282204,1.825023889541626,2019-06-21 13:07:43:076
-11.40999203491211,6.4600558166503905,0.627271240234375,-0.08160414935853087,-0.123318040460769,2.7092146021777603,1.830143928527832,2019-06-21 13:07:43:081
-10.374515655517579,5.766945037841797,0.8355635986328125,-0.0878625779202171,-0.1104017091738847,2.6982956417084356,1.835007905960083,2019-06-21 13:07:43:086
-9.392907989501953,5.182768768310547,0.5626287841796875,-0.09904785449854989,-0.11492908302701942,2.699360906144467,1.840127944946289,2019-06-21 13:07:43:091
-9.335448028564453,4.7374540710449216,-0.16280322265625,-0.10717049582329156,-0.07977535663797347,2.6943009000733165,1.84499192237854,2019-06-21 13:07:43:096
-9.797521881103515,5.328812835693359,0.14245281982421876,-0.0790741463229556,-0.08190588551003686,2.695898796727364,1.850111961364746,2019-06-21 13:07:43:101
-10.564851776123046,5.347966156005859,0.8451402587890625,-0.06589149892706338,-0.09615379734196076,2.7028230155615702,1.854975938796997,2019-06-21 13:07:43:106
-10.809056610107422,5.3790903015136715,1.0534326171875,-0.045385158533453235,-0.07524798278483875,2.711345131049824,1.8600959777832031,2019-06-21 13:07:43:111
-10.42359603881836,5.371907806396484,0.12329949951171874,-0.03246882724656894,-0.07112008309521593,2.7233293559551806,1.864959955215454,2019-06-21 13:07:43:116
-10.296705291748047,5.4365502624511715,-0.38426348876953126,-0.019286179850676707,-0.08257167578255667,2.7366451614055767,1.8700799942016602,2019-06-21 13:07:43:121
-10.30987319946289,5.596959320068359,0.16160614013671876,-0.009565641871887486,-0.08856378823523495,2.7534230762730756,1.8752000331878662,2019-06-21 13:07:43:126
-10.109960418701172,5.385075714111328,0.6703662109374999,-0.01968565401418859,-0.09695274566898456,2.7672715139414876,1.8800640106201172,2019-06-21 13:07:43:131
-10.047712127685546,5.3347982482910155,0.502774658203125,-0.03353409168260063,-0.09149326543432211,2.7881773284986098,1.8851840496063232,2019-06-21 13:07:43:136
-10.08003335571289,5.484433563232422,-0.6284683227539062,-0.04312147160688589,-0.08590062714515571,2.811613146091307,1.8900480270385742,2019-06-21 13:07:43:141
-10.054894622802735,5.300082855224609,-0.799651123046875,-0.019951970123196515,-0.10334433228517473,2.839709495591643,1.8951680660247803,2019-06-21 13:07:43:146
-9.422835052490234,4.817658599853515,0.18075946044921876,0.004016479687516629,-0.12851120458642354,2.8627458390208282,1.9000320434570312,2019-06-21 13:07:43:151
-9.348615936279296,4.841600250244141,-0.0694307861328125,-0.006902480781808247,-0.13170699789451862,2.8913748207391805,1.9051520824432373,2019-06-21 13:07:43:156
-9.117579010009765,4.560285858154296,-0.7050816040039062,-0.026210398684882726,-0.11293171220945998,2.9200038024575323,1.9100160598754883,2019-06-21 13:07:43:161
-8.856615020751953,4.974476409912109,0.24779608154296875,-0.029672508101985736,-0.11799171828061053,2.958486480209177,1.9151358604431152,2019-06-21 13:07:43:166
-9.330659698486327,5.896229949951172,0.2082923583984375,-0.05896728009285735,-0.11972277298916204,2.994172838816239,1.9200000762939453,2019-06-21 13:07:43:171
-10.078836273193359,7.593692962646484,-1.0917392578125,-0.06003254452888905,-0.10108064535860738,3.014546021155345,1.9251198768615723,2019-06-21 13:07:43:176
-10.501406402587891,8.75845425415039,-0.7469794921874999,-0.010497748253415219,-0.12771225625939975,3.029326565205285,1.9299840927124023,2019-06-21 13:07:43:181
-9.775974395751954,8.090482208251952,1.2126445922851563,0.03118072280632486,-0.17258652062723492,3.038647629020562,1.9351038932800293,2019-06-21 13:07:43:186
-7.979153533935547,6.716231475830078,1.9943394775390624,0.021726500936543564,-0.15714018630477533,3.050232379762407,1.9399678707122803,2019-06-21 13:07:43:191
-7.269283599853515,5.708287994384765,-0.02513873291015625,-0.02993882421099366,-0.07285113780376745,3.0539608052885177,1.9450879096984863,2019-06-21 13:07:43:196
-7.5697513122558595,6.128463958740234,-1.1731408691406249,-0.05257569347666718,-0.041292683047517674,3.0724697748645684,1.9502079486846924,2019-06-21 13:07:43:201
-9.307915130615234,6.786859344482422,-0.2082923583984375,-0.06895413418065449,-0.030373722578192798,3.1036287596184953,1.9550719261169434,2019-06-21 13:07:43:206
-10.445143524169922,7.433283905029297,0.866687744140625,-0.06256254756446432,-0.05607322709745745,3.135853008808454,1.9601919651031494,2019-06-21 13:07:43:211
-9.972295928955077,6.883823028564453,1.0977246704101562,-0.022615131213275755,-0.0936237943063855,3.169009364379941,1.9650559425354004,2019-06-21 13:07:43:216
-8.800352142333985,6.4313258361816406,0.6284683227539062,0.021726500936543564,-0.1104017091738847,3.199635716915852,1.9701759815216064,2019-06-21 13:07:43:221
-7.8905694274902345,6.339150482177734,-0.5710083618164062,0.02851756171624562,-0.13077489151299088,3.231593649996803,1.9750399589538574,2019-06-21 13:07:43:226
-7.48356137084961,6.509136199951172,0.2753289794921875,0.03757230942251503,-0.1286443626409275,3.262619476696226,1.9801599979400635,2019-06-21 13:07:43:231
-7.896554840087891,7.391386016845703,1.5526160278320311,0.022525449263567334,-0.11639382162656299,3.299903731957335,1.9850239753723145,2019-06-21 13:07:43:236
-9.181024383544921,8.20300796508789,0.531504638671875,-0.023414079540299525,-0.0673916617302942,3.3386527258179886,1.9901440143585205,2019-06-21 13:07:43:241
-9.625141998291015,8.350249114990234,-0.28370855712890625,-0.01609038654258162,-0.04408900219210088,3.374205926370546,1.9950079917907715,2019-06-21 13:07:43:246
-9.185812713623047,7.633196685791016,-0.46925634765625,0.02865071977074958,-0.09335747819737758,3.4040333305794337,2.0001280307769775,2019-06-21 13:07:43:251
-8.569315216064453,7.667912078857421,0.038306640625,0.0439638960387052,-0.1226522501882492,3.443847588876118,2.0049920082092285,2019-06-21 13:07:43:256
-7.840291961669922,7.45483139038086,0.081401611328125,0.001220160542933429,-0.10720591586578962,3.486458166317386,2.0101120471954346,2019-06-21 13:07:43:261
-7.240553619384765,6.646800689697265,-0.2657523193359375,-0.013027751288990494,-0.10401012255769453,3.5166850446897855,2.0149760246276855,2019-06-21 13:07:43:266
-6.94846548461914,7.092115386962891,-0.22505151367187498,0.014269649884321696,-0.12491593711481654,3.55450193216891,2.0200960636138916,2019-06-21 13:07:43:271
-6.961633392333984,7.667912078857421,-0.5734025268554688,-0.0006440522201220378,-0.09468905874241719,3.592052503539028,2.0249600410461426,2019-06-21 13:07:43:276
-7.207035308837891,9.552119964599608,-0.30046771240234377,0.01453596599332962,-0.1181248763351145,3.6274725460370814,2.0300800800323486,2019-06-21 13:07:43:281
-7.932467315673828,10.35775650024414,0.0790074462890625,0.02705282311670204,-0.13996279727376426,3.6453157253406125,2.0351998805999756,2019-06-21 13:07:43:286
-7.399765594482422,9.795127716064453,1.1551846313476561,0.025854400626166382,-0.12904383680443937,3.6720804942959093,2.0400640964508057,2019-06-21 13:07:43:291
-6.486391632080078,9.365375091552734,1.5286743774414062,0.0016196347064453146,-0.09442274263340927,3.7090984334480104,2.0451838970184326,2019-06-21 13:07:43:296
-6.376260040283203,9.443185455322265,-0.3375772705078125,-0.015824070433573697,-0.0632637620406714,3.734797937967275,2.0500478744506836,2019-06-21 13:07:43:301
-6.869458038330078,11.568006927490234,-0.22505151367187498,0.013737017666305846,-0.07937588247446158,3.763826393849139,2.0551679134368896,2019-06-21 13:07:43:306
-7.622422943115234,12.29224185180664,1.2653162231445312,0.010674382412714725,-0.10148011952211926,3.787661685605348,2.0600318908691406,2019-06-21 13:07:43:311
-7.804379486083985,9.465930023193359,2.2588947143554687,0.029050193934261465,-0.12025540520717788,3.8025753877097914,2.0651519298553467,2019-06-21 13:07:43:316
-5.895032867431641,6.251763458251953,1.7944266967773437,0.05261916958146273,-0.06406271036769516,3.841990171842964,2.0700159072875977,2019-06-21 13:07:43:321
-4.726680328369141,4.606972076416016,-1.3407324218749999,-0.02101723455922821,0.04992058428769623,3.8838018009572086,2.0751359462738037,2019-06-21 13:07:43:326
-4.799702362060547,7.588904632568359,-3.123188293457031,-0.042721997443374,0.02768318918553459,3.9230834270358774,2.0799999237060547,2019-06-21 13:07:43:331
-5.4964043884277345,11.456678253173829,-1.4640319213867188,0.01733228513791282,-0.01838949767283623,3.970354536384783,2.0851199626922607,2019-06-21 13:07:43:336
-6.1536026916503905,14.525997833251953,2.236150146484375,0.08564236709844528,-0.08390325632759628,4.024549864567896,2.0899839401245117,2019-06-21 13:07:43:341
-6.063821502685546,11.779890533447265,2.183478515625,-0.0005108941656180758,-0.10587433532075,4.030142502857062,2.0951039791107178,2019-06-21 13:07:43:346
-5.3647253112792965,7.7002333068847655,0.7338115844726563,-0.02527829230335499,-0.10880381251983716,4.049583578814641,2.0999679565429688,2019-06-21 13:07:43:351
-3.461364105224609,5.36711947631836,-0.9492864379882813,0.021060710664023756,-0.10494222893922227,4.056507797648847,2.105087995529175,2019-06-21 13:07:43:356
-2.386384002685547,6.2697196960449215,0.17597113037109374,0.04516231852924085,-0.08683273352668344,4.093792052909956,2.110208034515381,2019-06-21 13:07:43:361
-3.3009550476074216,10.04052963256836,1.2090533447265626,-0.0034403713647052376,-0.06938903254785364,4.122687350737316,2.115072011947632,2019-06-21 13:07:43:366
-2.5432018127441407,14.21715054321289,1.5538131103515624,0.0017527927609492767,-0.04102636693850975,4.1075073325238645,2.120192050933838,2019-06-21 13:07:43:371
-2.828107452392578,16.90819204711914,2.0386315307617187,0.015734388483865276,0.03021319222110987,4.1213557701922765,2.125056028366089,2019-06-21 13:07:43:376
-3.402707061767578,15.009619171142578,0.37348974609374996,-0.025011976194347064,-0.1402291133827722,4.072886238352835,2.130176067352295,2019-06-21 13:07:43:381
-2.7634649963378908,13.637762603759766,2.562953674316406,0.10348554640197617,-0.24995135029403678,4.052646214068232,2.135040044784546,2019-06-21 13:07:43:386
-1.9530401306152343,8.022248504638672,2.2588947143554687,0.07738656771919963,-0.17498336560830624,4.064364122864581,2.140160083770752,2019-06-21 13:07:43:391
-4.399876800537109,5.39584945678711,0.22146026611328123,0.04875758600084783,-0.19788655098298769,4.042659359980434,2.145024061203003,2019-06-21 13:07:43:396
-2.636574249267578,5.562243927001953,0.5518550415039062,0.11546977130733276,-0.19042969993076578,4.08953099516583,2.15014386177063,2019-06-21 13:07:43:401
-1.8776239318847656,10.066865447998048,0.81401611328125,0.1519550782414183,-0.03290372561376808,4.156642654635826,2.15500807762146,2019-06-21 13:07:43:406
-1.9602226257324218,14.189617645263672,-1.75252880859375,0.10641502360106334,-0.062065339550135726,4.1903316424253285,2.160127878189087,2019-06-21 13:07:43:411
-3.8564013366699217,15.444160125732422,-0.06583953857421875,0.10708081387358315,-0.15913755712233477,4.208307979783363,2.164992094039917,2019-06-21 13:07:43:416
-1.5017400207519531,12.585527069091796,3.519422607421875,0.09456395675021072,-0.18230705860602414,4.228414846013462,2.170111894607544,2019-06-21 13:07:43:421
-0.38486203002929686,9.54254330444336,0.4584826049804687,0.01786491735592867,-0.3068098395672285,4.249054344461576,2.174975872039795,2019-06-21 13:07:43:426
0.05446725463867187,10.066865447998048,-3.4607655639648436,-0.04325462966138985,-0.3962920521938909,4.211770089200466,2.180095911026001,2019-06-21 13:07:43:431
2.7395233459472657,10.314661529541015,-1.4760027465820311,-0.03672988499069572,-0.36952728323859463,4.2103053506009225,2.184959888458252,2019-06-21 13:07:43:436
3.3428529357910155,12.125847381591797,1.7513317260742187,0.09096868927860376,-0.3108045812023474,4.197522177368542,2.190079927444458,2019-06-21 13:07:43:441
1.4167471618652343,11.88044546508789,1.0953305053710938,0.1534198168409619,-0.158338608795311,4.188201113553265,2.195199966430664,2019-06-21 13:07:43:446
1.3616813659667968,10.82701284790039,-2.130806884765625,0.019462814009976213,-0.0025436891868647615,4.199519548186102,2.200063943862915,2019-06-21 13:07:43:451
2.1828799743652345,11.849321319580078,-3.659481262207031,-0.09092521317380822,-0.018655813781844152,4.203114815657709,2.205183982849121,2019-06-21 13:07:43:456
0.5404827575683594,10.526545135498047,-2.5366178588867188,-0.018620389578156895,-0.15687387019576743,4.182209001100587,2.210047960281372,2019-06-21 13:07:43:461
2.453420623779297,12.034869110107422,2.799976013183594,0.1323808442293359,-0.22664869075584346,4.149984751910628,2.215167999267578,2019-06-21 13:07:43:466
3.4565757751464843,10.447537689208984,3.257261535644531,-0.06349465394599206,-0.2239855296657642,4.1365357884057286,2.220031976699829,2019-06-21 13:07:43:471
5.43535317993164,11.16219595336914,-1.2078562622070312,-0.20730535281027093,-0.3456919914823854,4.085802569639719,2.225152015686035,2019-06-21 13:07:43:476
3.8013355407714844,7.736145782470703,-0.033518310546875,-0.06376097005499999,-0.2684603198700875,4.0473198918880735,2.230015993118286,2019-06-21 13:07:43:481
4.450154266357422,6.237398468017578,1.6100759887695313,0.16034403567516792,-0.095354849014937,4.033870928383173,2.235136032104492,2019-06-21 13:07:43:486
0.7224393005371094,7.415327667236328,0.46207385253906247,0.20388671949796344,0.019693705915296875,4.034669876710197,2.240000009536743,2019-06-21 13:07:43:491
0.2735333557128906,9.379740081787109,-1.5741635131835938,0.12918505092124083,0.0042473715928372955,4.028944080366527,2.245120048522949,2019-06-21 13:07:43:496
0.3178254089355469,10.050106292724609,-0.08618994140625,0.03717283525900315,-0.028775825924145258,4.043191992198451,2.2499840259552,2019-06-21 13:07:43:501
2.2128070373535156,11.19212301635742,1.796820861816406,0.023857029808606954,-0.21692815277705424,4.038131986127301,2.2551040649414062,2019-06-21 13:07:43:506
3.4422107849121093,11.089173919677734,1.144410888671875,-0.01888670568716482,-0.2941598243893522,4.041327779435395,2.260223865509033,2019-06-21 13:07:43:511
5.667587188720703,11.111918487548827,-0.15202947998046876,-0.08093835908601107,-0.24915240196701302,4.046254627452043,2.2650880813598633,2019-06-21 13:07:43:516
5.356345733642578,9.95433969116211,0.7637386474609374,-0.04178989106184627,-0.22345289744774838,4.0618341198290056,2.2702078819274902,2019-06-21 13:07:43:521
3.9318175354003904,8.204205047607422,2.4205008544921873,0.06273918172376383,-0.1383649006197167,4.055708849321824,2.275071859359741,2019-06-21 13:07:43:526
2.9310565490722658,6.187121002197266,1.9308941040039063,0.07006287472148173,-0.06246481371364762,4.048118840215097,2.2801918983459473,2019-06-21 13:07:43:531
2.707202117919922,5.456900665283203,-1.0282938842773437,-0.008899851599367676,-0.10560801921174207,4.01762564573369,2.2850558757781982,2019-06-21 13:07:43:536
3.029217315673828,5.811237091064453,-1.5047327270507813,-0.033800407791608554,-0.17964389751594492,3.9830045515626598,2.2901759147644043,2019-06-21 13:07:43:541
5.737017974853515,7.543415496826172,-1.0282938842773437,0.0005543702704136194,-0.21999078803064537,3.9455871382470464,2.2950398921966553,2019-06-21 13:07:43:546
4.891877716064453,8.698600128173828,-0.32919769287109374,0.014802282102337543,-0.21945815581262954,3.916558682365183,2.3001599311828613,2019-06-21 13:07:43:551
3.3536266784667967,7.660729583740234,-1.2940462036132812,-0.03140356281053724,-0.23397238375356139,3.895652867808061,2.3050239086151123,2019-06-21 13:07:43:556
2.9154944763183592,7.585313385009766,-1.4041777954101562,-0.03699620109970364,-0.16206703432142192,3.923216585090381,2.3101439476013184,2019-06-21 13:07:43:561
4.201161102294922,9.282776397705078,0.268146484375,0.01866386568295244,-0.1076053900293015,3.9642292658776013,2.3150079250335693,2019-06-21 13:07:43:566
4.281365631103515,8.662687652587891,1.498747314453125,0.029982300315789204,-0.09069431710729833,3.9840698159986916,2.3201279640197754,2019-06-21 13:07:43:571
5.308462432861328,8.813520050048828,0.14364990234375,-0.026743030902898573,-0.07724535360239819,3.993257721759465,2.3249919414520264,2019-06-21 13:07:43:576
5.652025115966797,7.879795684814453,-0.032321228027343746,-0.12328262041827096,-0.11519539913602733,3.994456144250001,2.3301119804382324,2019-06-21 13:07:43:581
5.007994720458984,6.025514862060547,1.264119140625,-0.11049944718589061,-0.18630180024114298,3.9824719193446443,2.3349759578704834,2019-06-21 13:07:43:586
4.820052764892578,4.085044097900391,1.5011414794921876,-0.03579777860916798,-0.17098862397318737,3.9578376792614116,2.3400959968566895,2019-06-21 13:07:43:591
5.580200164794921,5.040315948486328,-0.5937529296874999,-0.03007198226549762,-0.15500965743271194,3.92587974618046,2.3449599742889404,2019-06-21 13:07:43:596
6.205077239990234,5.5251343688964845,-1.5047327270507813,-0.08080520103150711,-0.20893866950681653,3.903642351078299,2.3500800132751465,2019-06-21 13:07:43:601
6.580961151123047,5.7430033874511714,-0.4405263671875,-0.026343556739386688,-0.13849805867422066,3.893122864772486,2.3552000522613525,2019-06-21 13:07:43:606
6.3439388122558595,6.092551483154296,-0.6955049438476563,0.0670002394678906,-0.027577403433609596,3.8867312781562955,2.3600640296936035,2019-06-21 13:07:43:611
5.637660125732422,5.717864654541016,-1.00554931640625,0.06300549783277175,-0.05514112071592972,3.8615644058550465,2.3651840686798096,2019-06-21 13:07:43:616
3.6313498229980468,5.994390716552735,1.125257568359375,0.03331125167838825,-0.09322432014287362,3.8537080806393127,2.3700480461120605,2019-06-21 13:07:43:621
3.7845763854980468,6.379851287841797,1.5526160278320311,0.05355127596299046,-0.06898955838434175,3.87141810188834,2.3751680850982666,2019-06-21 13:07:43:626
4.786534454345703,7.155560760498047,0.7206436767578125,0.049956008491383486,-0.07484850862132687,3.884467591229728,2.3800320625305176,2019-06-21 13:07:43:631
5.162418365478516,7.502714691162109,0.8535198364257812,-0.04258883938887004,-0.16020282155836646,3.9008460319337157,2.3851518630981445,2019-06-21 13:07:43:636
6.322391326904297,6.797633087158203,1.5131123046875,-0.08253625574005861,-0.1859023260776311,3.932138174742146,2.3900160789489746,2019-06-21 13:07:43:641
7.296816497802734,6.762917694091796,0.69909619140625,-0.03553146250016005,-0.17378494311777057,3.9475845090646065,2.3951358795166016,2019-06-21 13:07:43:646
6.030303192138672,6.588143646240234,-1.3131995239257812,-0.031004088647025353,-0.196688128492452,3.9551745181713316,2.4000000953674316,2019-06-21 13:07:43:651
4.887089385986328,6.800027252197266,0.01556207275390625,-0.04565147464246116,-0.18656811635015091,3.984202974053196,2.4051198959350586,2019-06-21 13:07:43:656
4.866738983154296,6.610888214111328,1.5574043579101562,-0.02075091845022029,-0.16406440513898135,4.03307198005615,2.4099838733673096,2019-06-21 13:07:43:661
5.643645538330078,6.5330778503417966,1.4616377563476561,0.008144379377139448,-0.17804600086189737,4.064497280919085,2.4151039123535156,2019-06-21 13:07:43:666
7.86782485961914,5.9919965515136715,1.570572265625,-0.09398784842739934,-0.17205388840921906,4.081541511895592,2.4199678897857666,2019-06-21 13:07:43:671
9.011038665771483,5.669981353759765,1.0474472045898438,-0.23407012176556724,-0.24608976671342186,4.084737305203687,2.4250879287719727,2019-06-21 13:07:43:676
10.609143829345703,4.389103057861328,-0.8164102783203124,-0.24019539227274952,-0.2855045508465946,4.057839378193886,2.4302079677581787,2019-06-21 13:07:43:681
11.41118911743164,2.8987353210449216,-1.3766448974609375,-0.1810732160729904,-0.2084060372888007,4.035601983091725,2.4350719451904297,2019-06-21 13:07:43:686
8.46038070678711,2.7538883361816406,0.38426348876953126,-0.15896897902533275,-0.20214760872711446,4.030009344802559,2.4401919841766357,2019-06-21 13:07:43:691
5.7442004699707025,1.2503526916503906,0.8702789916992187,-0.12115209154620757,-0.22411868772026816,4.010035636626965,2.4450559616088867,2019-06-21 13:07:43:696
5.096578826904297,0.6661764221191406,-1.4209369506835938,-0.054972538457738494,-0.16912441121013191,3.9862003448707553,2.4501760005950928,2019-06-21 13:07:43:701
5.804054595947266,2.4330702209472657,-2.2732597045898437,-0.08666415542968144,-0.17964389751594492,3.9679576914037127,2.4550399780273438,2019-06-21 13:07:43:706
6.622859039306641,2.012894256591797,-0.5997383422851562,-0.17082004587618535,-0.2114686725423918,3.947983983228118,2.46016001701355,2019-06-21 13:07:43:711
8.325110382080078,1.7196090393066406,1.4329077758789062,-0.1395279030677543,-0.20813972117979276,3.933736071396194,2.465023994445801,2019-06-21 13:07:43:716
10.484647247314452,1.2970389099121094,0.26216107177734377,-0.14498738330241673,-0.19109549020328562,3.908835515203953,2.470144033432007,2019-06-21 13:07:43:721
10.224880340576172,0.6170960388183594,-1.6986600952148436,-0.19132638626979548,-0.16233335043042985,3.8764781079594903,2.475008010864258,2019-06-21 13:07:43:726
9.506630828857421,0.7990525817871094,-1.508323974609375,-0.1626974045514437,-0.1359680556386454,3.846650703750603,2.480128049850464,2019-06-21 13:07:43:731
8.647125579833984,0.8624979553222656,0.569811279296875,-0.09984680282557365,-0.13463647509360577,3.81562487705118,2.484992027282715,2019-06-21 13:07:43:736
7.736145782470703,1.476601287841797,2.033843200683594,-0.08386783628509822,-0.13330489454856614,3.7961838010936018,2.490112066268921,2019-06-21 13:07:43:741
7.3063931579589845,1.8141785583496093,1.6124701538085937,-0.12394841069079077,-0.10068117119509548,3.7879280017143557,2.494976043701172,2019-06-21 13:07:43:746
6.953253814697265,1.070790313720703,0.08020452880859374,-0.1906605959972757,-0.13263910427604633,3.7691527160292972,2.500096082687378,2019-06-21 13:07:43:751
6.146420196533203,0.8206000671386718,0.46925634765625,-0.23580117647411877,-0.17911126529792906,3.749445323962711,2.504960060119629,2019-06-21 13:07:43:756
6.789253509521484,0.8182059020996093,1.0498413696289062,-0.26469647430147847,-0.18909811938572618,3.7329337252042194,2.510079860687256,2019-06-21 13:07:43:761
7.651152923583984,1.2371847839355468,-0.1508323974609375,-0.2597696262848319,-0.2069412986892571,3.7244116097159656,2.515199899673462,2019-06-21 13:07:43:766
7.780437835693359,2.2175953674316404,-0.7828919677734375,-0.20970219779134222,-0.21027025005185615,3.7297379318961243,2.520063877105713,2019-06-21 13:07:43:771
7.44645181274414,2.0404271545410158,0.521927978515625,-0.19851692121300946,-0.17271967868173888,3.749179007853703,2.525183916091919,2019-06-21 13:07:43:776
7.490743865966797,1.572367889404297,1.9548357543945312,-0.23433643787457517,-0.15500965743271194,3.7711500868468564,2.53004789352417,2019-06-21 13:07:43:781
7.25491860961914,0.7763080139160156,1.4436815185546874,-0.29878493625449276,-0.1648633534660051,3.772082193228384,2.535167932510376,2019-06-21 13:07:43:786
8.207796295166016,-1.0384690856933594,-0.8092277832031249,-0.3728208145586956,-0.1603359796128704,3.7682206096477695,2.540031909942627,2019-06-21 13:07:43:791
8.217372955322265,-1.629827850341797,-0.3040589599609375,-0.3910634680257383,-0.12970962707695918,3.7622284971950912,2.545151948928833,2019-06-21 13:07:43:796
7.141195770263672,-2.5204572448730467,0.4285555419921875,-0.36696186016052124,-0.158338608795311,3.7403905762564413,2.550015926361084,2019-06-21 13:07:43:801
6.069806915283203,-3.3955245666503906,-0.09935784912109374,-0.3183591702665752,-0.17911126529792906,3.7060357981944194,2.55513596534729,2019-06-21 13:07:43:806
5.7597625427246095,-3.010063995361328,-1.8566749877929687,-0.28839860800318373,-0.13050857540398295,3.664224169080175,2.559999942779541,2019-06-21 13:07:43:811
5.725047149658203,-3.2231446838378908,-2.2768509521484375,-0.30530968092518684,-0.13916384894674047,3.619616220821348,2.565119981765747,2019-06-21 13:07:43:816
5.230652069091796,-3.618181915283203,-0.1173140869140625,-0.3002496748540363,-0.15327860272416044,3.5650214184747235,2.569983959197998,2019-06-21 13:07:43:821
5.316842010498047,-3.8875254821777343,0.5243221435546875,-0.297852829872965,-0.13476963314810972,3.511358722509627,2.575103998184204,2019-06-21 13:07:43:826
7.318363983154296,-4.053919952392578,-1.7597113037109375,-0.3451239392218715,-0.12944331096795125,3.4545002332364354,2.579967975616455,2019-06-21 13:07:43:831
8.320322052001952,-4.543526702880859,-2.006310302734375,-0.36070343159883506,-0.13290542038505426,3.4140201846672307,2.585088014602661,2019-06-21 13:07:43:836
8.938016632080078,-4.098212005615235,0.6212858276367187,-0.27015595453614094,-0.14981649330705743,3.378733300223681,2.590208053588867,2019-06-21 13:07:43:841
8.924848724365233,-4.20954067993164,0.952877685546875,-0.22634695460433746,-0.1430254325273554,3.328799029784695,2.595072031021118,2019-06-21 13:07:43:846
9.827448944091797,-4.354387664794921,-0.54586962890625,-0.25684014908574476,-0.05793743986051292,3.297506886976264,2.600192070007324,2019-06-21 13:07:43:851
9.279185150146484,-4.340022674560546,-0.5255192260742187,-0.3384660364966734,-0.0673916617302942,3.2686115891489043,2.605056047439575,2019-06-21 13:07:43:856
8.043795989990235,-4.9265931091308595,1.0833596801757812,-0.3456565714398873,-0.1048090708847183,3.2401157654850565,2.6101760864257812,2019-06-21 13:07:43:861
7.497926361083985,-6.0506535949707025,1.355097412109375,-0.29359177212883825,-0.029175300087657143,3.209223096840138,2.6150400638580322,2019-06-21 13:07:43:866
5.138476715087891,-4.593804168701172,-0.16280322265625,-0.26829174177308546,-0.03463478032231958,3.172737789906052,2.620159864425659,2019-06-21 13:07:43:871
4.575847930908203,-4.616548736572265,-1.8075946044921876,-0.29186071742028674,-0.12877752069543144,3.1258661547206574,2.6250240802764893,2019-06-21 13:07:43:876
3.7462697448730466,-4.114971160888672,-0.48242425537109374,-0.23753223118267025,-0.09096063321630626,3.090046638059091,2.630143880844116,2019-06-21 13:07:43:881
4.810476104736328,-3.5643132019042967,0.5063659057617187,-0.224482741841282,-0.09136010737981815,3.048900799217367,2.6350080966949463,2019-06-21 13:07:43:886
4.855965240478516,-3.900693389892578,-0.41538763427734376,-0.28826544994867975,-0.09282484597936172,3.0182744466814557,2.6401278972625732,2019-06-21 13:07:43:891
5.519148956298828,-4.9708851623535155,-2.299595520019531,-0.3620350121438746,-0.0775116697114061,2.9973686321243336,2.644991874694824,2019-06-21 13:07:43:896
5.878273712158203,-5.192345428466797,-1.5969080810546874,-0.31915811859359894,-0.04781742771821181,2.979259136711795,2.6501119136810303,2019-06-21 13:07:43:901
5.930945343017578,-5.5406964416503905,0.3423656005859375,-0.22514853211380179,-0.07058745087720009,2.9507633130479474,2.6549758911132812,2019-06-21 13:07:43:906
6.4301287536621095,-5.429367767333984,0.454891357421875,-0.1969190245589619,-0.08270483383706062,2.921202224948068,2.6600959300994873,2019-06-21 13:07:43:911
7.268086517333984,-4.80329360961914,-0.9444981079101562,-0.23753223118267025,-0.062065339550135726,2.906554838952632,2.6649599075317383,2019-06-21 13:07:43:916
6.0506535949707025,-3.7163426818847656,-1.316790771484375,-0.24352434363534856,-0.06632639729426251,2.8925732432297155,2.6700799465179443,2019-06-21 13:07:43:921
6.687501495361328,-3.846824676513672,-1.8231566772460936,-0.18773111879818852,-0.06978850671136552,2.8968343009738424,2.6751999855041504,2019-06-21 13:07:43:926
7.986336029052734,-4.913425201416016,-0.6164974975585937,-0.11502682103902531,0.01836212537025726,2.922267489384099,2.6800639629364014,2019-06-21 13:07:43:931
7.711007049560546,-3.2554659118652345,-0.6236799926757812,-0.12248367209124719,-0.06898955838434175,2.923865386038147,2.6851840019226074,2019-06-21 13:07:43:936
6.658771514892578,-4.434592193603516,-1.7357696533203124,-0.14085948361279393,-0.09548800706944097,2.9506301549934437,2.6900479793548584,2019-06-21 13:07:43:941
6.626450286865234,-5.242622894287109,-0.20709527587890625,-0.08000625270448333,0.04299636545349021,2.958619638263681,2.6951680183410645,2019-06-21 13:07:43:946
5.346769073486328,-4.623731231689453,0.4596796875,-0.1259457815083502,-0.031572145068728456,2.944904358649773,2.7000319957733154,2019-06-21 13:07:43:951
5.00320639038086,-5.737017974853515,0.43454095458984376,-0.22008852604265125,-0.07378324418529518,2.931988027362889,2.7051520347595215,2019-06-21 13:07:43:956
5.401834869384765,-5.507178131103515,0.4273584594726562,-0.21462904580798883,0.013834751517122552,2.934651188452968,2.7100160121917725,2019-06-21 13:07:43:961
6.537866180419922,-5.403031951904297,-1.2102504272460937,-0.18999480572475586,-0.02278371347146697,2.9269280212917383,2.7151360511779785,2019-06-21 13:07:43:966
6.215850982666016,-6.104522308349609,-1.4975502319335938,-0.1706868878216814,-0.06965534865686157,2.919870644403028,2.7200000286102295,2019-06-21 13:07:43:971
6.74735562133789,-6.030303192138672,-0.5829791870117187,-0.16283056260594764,-0.010266856348094553,2.9249306504741783,2.7251200675964355,2019-06-21 13:07:43:976
6.4600558166503905,-6.414566680908203,-0.4848184204101562,-0.17641268416535177,0.016098438443689904,2.92666170518273,2.7299840450286865,2019-06-21 13:07:43:981
5.697514251708984,-5.708287994384765,-1.0881480102539063,-0.15191160213662278,-0.02464792623452244,2.920536434675548,2.7351040840148926,2019-06-21 13:07:43:986
4.724286163330078,-6.0518506774902345,-0.6153004150390625,-0.12075261738269569,0.016497912607201792,2.9157427447134054,2.7399680614471436,2019-06-21 13:07:43:991
4.7949140319824215,-6.188318084716797,-0.34835101318359374,-0.11768998212910456,0.008242113227956153,2.911481686969279,2.7450878620147705,2019-06-21 13:07:43:996
3.9964599914550782,-6.934100494384765,-1.1456079711914062,-0.1453868574659286,-0.013462649656189637,2.8876463952130695,2.7502079010009766,2019-06-21 13:07:44:001
3.5355832214355467,-6.7665089416503905,-1.0618121948242187,-0.13233736812454036,-0.008535801639543048,2.867672687037475,2.7550718784332275,2019-06-21 13:07:44:006
2.976545684814453,-7.315969818115234,-1.0450530395507813,-0.12048630127368776,-0.013995281874205484,2.843171605008746,2.7601919174194336,2019-06-21 13:07:44:011
2.666501312255859,-7.542218414306641,-1.1025130004882813,-0.07654414328738032,-0.023982135962002625,2.8125452524728347,2.7650558948516846,2019-06-21 13:07:44:016
2.6880487976074217,-7.106480377197266,-0.7637386474609374,-0.03965936218978288,-0.03290372561376808,2.7827178482639474,2.7701759338378906,2019-06-21 13:07:44:021
3.5535394592285154,-7.238159454345703,-0.881052734375,-0.03739567526321552,-0.05567375293394557,2.7582167662352184,2.7750399112701416,2019-06-21 13:07:44:026
4.411847625732422,-7.430889739990234,-0.7086728515625,-0.028340927556946113,-0.06992166060468027,2.743036748021767,2.7801599502563477,2019-06-21 13:07:44:031
5.41619985961914,-7.6571383361816405,-0.40461389160156247,-0.021416708722740097,-0.0897622107257706,2.7297209425713707,2.7850239276885986,2019-06-21 13:07:44:036
5.361134063720703,-7.207035308837891,0.3758839111328125,-0.013826699616014267,-0.08643325936317156,2.726258833154268,2.7901439666748047,2019-06-21 13:07:44:041
5.300082855224609,-7.052611663818359,0.27772314453125,-0.01808775736014105,-0.06765797783930214,2.728123045917323,2.7950079441070557,2019-06-21 13:07:44:046
5.380287384033203,-7.6284083557128906,-0.282511474609375,-0.038061465535735334,-0.058869546242040646,2.7335825261519853,2.8001279830932617,2019-06-21 13:07:44:051
5.40662319946289,-7.6715033264160155,-0.636847900390625,-0.033400933628096666,-0.06805745200281402,2.7406399030406954,2.8049919605255127,2019-06-21 13:07:44:056
5.383878631591797,-8.170686737060546,-0.5303075561523437,0.000953844433925505,-0.06339692009517536,2.7512925474010124,2.8101119995117188,2019-06-21 13:07:44:061
5.180374603271484,-8.22096420288086,-0.8487315063476563,0.04050178662160219,-0.06193218149563177,2.7583499242897225,2.8149759769439697,2019-06-21 13:07:44:066
4.657249542236328,-8.039007659912109,-0.9780164184570312,0.029849142261285242,-0.07112008309521593,2.7640757206333926,2.820096015930176,2019-06-21 13:07:44:071
4.536344207763672,-7.531444671630859,-0.6631837158203124,0.002152266924461162,-0.07418271834880706,2.766872039777976,2.8249599933624268,2019-06-21 13:07:44:076
4.057511199951172,-7.008319610595703,-0.014364990234375,0.00548121828706021,-0.07458219251231896,2.7736631005576777,2.830080032348633,2019-06-21 13:07:44:081
3.655291473388672,-7.107677459716797,-0.0359124755859375,0.01653333681088905,-0.0757806150028546,2.779255738846844,2.835200071334839,2019-06-21 13:07:44:086
3.4529845275878905,-7.550597991943359,-0.5865704345703124,-0.005970374400280514,-0.06792429394831005,2.7871120640625784,2.84006404876709,2019-06-21 13:07:44:091
3.126180999755859,-7.605663787841797,-0.8786585693359374,-0.03246882724656894,-0.0628642878771595,2.791106805697697,2.845184087753296,2019-06-21 13:07:44:096
2.5803113708496093,-8.285606658935547,-1.0606151123046874,-0.010764064362423142,-0.05953533651456046,2.785114693245019,2.850048065185547,2019-06-21 13:07:44:101
1.9721934509277343,-8.793169647216796,-1.1647612915039063,0.0243896620266228,-0.04941532437225936,2.773796258612182,2.855167865753174,2019-06-21 13:07:44:106
1.6118716125488282,-8.774016326904297,-1.1312429809570312,0.009342801867675105,-0.05820375596952084,2.75795045012621,2.860032081604004,2019-06-21 13:07:44:111
1.2934476623535156,-8.587271453857422,-0.89062939453125,-0.0038398455282171234,-0.08310430800057252,2.735047264751529,2.865151882171631,2019-06-21 13:07:44:116
1.4107617492675781,-8.395738250732421,-0.45608843994140624,0.021992817045551488,-0.08763168185370722,2.7082824957962326,2.870015859603882,2019-06-21 13:07:44:121
1.6944703063964843,-8.578891876220704,0.0,0.030781248642812974,-0.08763168185370722,2.686045100694071,2.875135898590088,2019-06-21 13:07:44:126
2.2463253479003904,-8.65311099243164,0.0311241455078125,0.006546482723091905,-0.11333118637297188,2.6732619274616907,2.879999876022339,2019-06-21 13:07:44:131
2.6473479919433593,-8.81471713256836,-0.18075946044921876,-0.015291438215557849,-0.13197331400352652,2.6658050764094687,2.885119915008545,2019-06-21 13:07:44:136
3.0375968933105466,-7.925284820556641,-0.11851116943359374,0.006812798832099828,-0.13197331400352652,2.669666659990084,2.889983892440796,2019-06-21 13:07:44:141
3.5152328186035153,-8.574103546142577,-0.7086728515625,0.012538595175770191,-0.1359680556386454,2.6784550915873453,2.895103931427002,2019-06-21 13:07:44:146
4.314883941650391,-9.528178314208985,-0.6057237548828125,0.007212272995611715,-0.1415606939278118,2.69643142894538,2.899967908859253,2019-06-21 13:07:44:151
4.705132843017578,-8.847038360595702,0.6536070556640625,-0.005570900236768627,-0.13570173952963746,2.721997775410141,2.905087947845459,2019-06-21 13:07:44:156
3.7486639099121093,-7.608057952880859,1.230600830078125,-0.000244578056610152,-0.11093434139190055,2.7608799273252975,2.910207986831665,2019-06-21 13:07:44:161
2.759873748779297,-6.64201235961914,0.5734025268554688,0.034642832223427865,-0.10507538699372622,2.797631550368391,2.915071964263916,2019-06-21 13:07:44:166
2.300194061279297,-6.146420196533203,-0.22385443115234374,0.03597441276846748,-0.14475648723590687,2.825461583759719,2.920192003250122,2019-06-21 13:07:44:171
1.5807474670410155,-7.354276458740234,-1.1527904663085937,-0.0017093166561537331,-0.1631322987574536,2.838777389210115,2.925055980682373,2019-06-21 13:07:44:176
1.1976810607910156,-8.486716522216797,-0.9014031372070312,-0.003973003582721085,-0.13370436871207803,2.8562210943501345,2.930176019668579,2019-06-21 13:07:44:181
1.3197834777832032,-9.498251251220703,-0.7433882446289062,-0.007967745217839942,-0.15953703128584665,2.8631453131843405,2.93503999710083,2019-06-21 13:07:44:186
0.7535634460449219,-9.309112213134766,-1.1563817138671875,-0.008899851599367676,-0.2094713017248324,2.861680574584797,2.940160036087036,2019-06-21 13:07:44:191
1.294644744873047,-9.070892791748047,-1.06300927734375,0.002285424978965124,-0.2173276269405661,2.866341106492435,2.945024013519287,2019-06-21 13:07:44:196
1.4023821716308593,-8.904498321533202,-0.5255192260742187,0.022924923427079223,-0.24209502507830302,2.8716674286725943,2.950144052505493,2019-06-21 13:07:44:201
1.1114911193847656,-8.921257476806641,-0.071824951171875,0.026786507007694117,-0.27538453870429347,2.8768605927982485,2.955008029937744,2019-06-21 13:07:44:206
1.2982359924316407,-9.421637969970703,0.2753289794921875,0.02146018482753564,-0.23317343542653757,2.890176398248644,2.96012806892395,2019-06-21 13:07:44:211
1.2695060119628907,-9.780762725830078,0.31483270263671875,0.005880692450572095,-0.19975076374604314,2.89776640735537,2.964992046356201,2019-06-21 13:07:44:216
0.6470231018066406,-10.374515655517579,0.25019024658203126,-0.016623018760597467,-0.214264991686975,2.9017611489904893,2.9701120853424072,2019-06-21 13:07:44:221
0.7140597229003907,-10.384092315673827,0.6883224487304688,-0.015690912379069735,-0.19389180934786884,2.9102832644787426,2.974976062774658,2019-06-21 13:07:44:226
1.064804901123047,-8.232935028076172,0.497986328125,-0.017155650978613317,-0.18470390358709546,2.921202224948068,2.980095863342285,2019-06-21 13:07:44:231
0.3944386901855469,-6.822771820068359,-0.8439431762695312,-0.034199881955120436,-0.24355976367784662,2.9354501367799917,2.9849600791931152,2019-06-21 13:07:44:236
1.5484262390136718,-6.966421722412109,-1.594513916015625,-0.006636164672800324,-0.3032145720956215,2.9587527963181848,2.990079879760742,2019-06-21 13:07:44:241
1.712426544189453,-6.937691741943359,-0.7924686279296875,0.01666649486539301,-0.32412038665274356,2.9957707354702867,2.9951999187469482,2019-06-21 13:07:44:246
1.830937713623047,-6.802421417236328,-0.665577880859375,0.0016196347064453146,-0.3492872589539923,3.0317234101863564,3.000063896179199,2019-06-21 13:07:44:251
1.4730100402832031,-6.907764678955078,-1.5155064697265626,2.1738052397771785e-05,-0.28364033808353917,3.0698066137744893,3.0051839351654053,2019-06-21 13:07:44:256
1.309009735107422,-8.456789459228515,-1.5681781005859374,0.004948586069044362,-0.24489134422288622,3.1073571851446067,3.0100479125976562,2019-06-21 13:07:44:261
0.40521243286132813,-11.034108123779296,-0.2561756591796875,0.002418583033469086,-0.26819400376107955,3.136651957135478,3.0151679515838623,2019-06-21 13:07:44:266
0.9810091247558593,-12.874023956298828,1.0749801025390624,-0.0011766844381378855,-0.25647609496473095,3.175800425159643,3.0200319290161133,2019-06-21 13:07:44:271
0.017357696533203126,-12.859658966064453,1.307214111328125,-0.014625647943038037,-0.18377179720556772,3.212552048202736,3.0251519680023193,2019-06-21 13:07:44:276
0.3501466369628906,-8.870980010986328,0.60332958984375,-0.008100903272343904,-0.23024395822745042,3.2394499752125365,3.0300159454345703,2019-06-21 13:07:44:281
-0.24959170532226563,-7.891766510009766,0.560234619140625,-0.061097808964920744,-0.30427983653165325,3.259290525333627,3.0351359844207764,2019-06-21 13:07:44:286
0.9642499694824218,-7.600875457763672,0.6619866333007812,-0.053374641803690955,-0.38896835919617295,3.286454768452435,3.0399999618530273,2019-06-21 13:07:44:291
0.5584389953613281,-8.042598907470703,1.2437687377929687,-0.03752883331771949,-0.38963414946869285,3.332793771419814,3.0451200008392334,2019-06-21 13:07:44:296
0.9774178771972656,-7.764875762939453,0.73740283203125,-0.06549202476355148,-0.3789815051083759,3.389519102638502,3.0499839782714844,2019-06-21 13:07:44:301
0.24360629272460937,-8.253285430908203,-0.7864832153320312,-0.1451205413569207,-0.371524654056154,3.4387875828049674,3.0551040172576904,2019-06-21 13:07:44:306
0.8361621398925781,-9.19898062133789,-1.4293165283203124,-0.1465852799564643,-0.34103145957474673,3.4796671055376835,3.0599679946899414,2019-06-21 13:07:44:311
-0.03531393432617187,-9.16067398071289,-0.881052734375,-0.08999310679228048,-0.28430612835605895,3.5234761054694874,3.0650880336761475,2019-06-21 13:07:44:316
-1.1210677795410156,-8.638746002197266,-0.5099571533203124,-0.1074368119322995,-0.27804769979437277,3.5659535248562513,3.0702080726623535,2019-06-21 13:07:44:321
-0.8972133483886718,-9.701755279541015,-0.9624543457031249,-0.14485422524791278,-0.30787510400326024,3.6007077770817855,3.0750720500946045,2019-06-21 13:07:44:326
-1.5615941467285155,-11.206488006591796,-0.8642935791015625,-0.09984680282557365,-0.32838144439687034,3.6312009715631928,3.0801920890808105,2019-06-21 13:07:44:331
-1.8883976745605469,-11.143042633056641,0.9804105834960938,-0.0633614958914881,-0.3516841039350637,3.6699499654238457,3.0850560665130615,2019-06-21 13:07:44:336
-2.291814483642578,-10.18537661743164,1.17792919921875,-0.11515997909352928,-0.3508851556080399,3.7007094760142607,3.0901758670806885,2019-06-21 13:07:44:341
-2.388778167724609,-10.228471588134765,-1.2078562622070312,-0.17867637109191908,-0.340099353193219,3.7149573878461846,3.0950400829315186,2019-06-21 13:07:44:346
-3.2027942810058594,-10.399654388427734,-0.94808935546875,-0.1556400276627337,-0.36673096409401135,3.735463728239795,3.1001598834991455,2019-06-21 13:07:44:351
-4.174825286865234,-11.03769937133789,0.9768193359374999,-0.12181788181872738,-0.3753862376367689,3.753040591434318,3.1050238609313965,2019-06-21 13:07:44:356
-4.632110809326171,-9.979478424072266,1.5071268920898437,-0.14711791217448014,-0.329446708832902,3.7670221871572336,3.1101438999176025,2019-06-21 13:07:44:361
-3.9078758850097657,-9.640704071044922,-0.9253447875976563,-0.24219276309030893,-0.32638407357931093,3.775011670427472,3.1150078773498535,2019-06-21 13:07:44:366
-4.015613311767578,-9.181024383544921,-3.1866336669921873,-0.2352685442561029,-0.3849736175610542,3.7744790382094555,3.1201279163360596,2019-06-21 13:07:44:371
-4.800899444580078,-8.714162200927735,-2.7377277221679686,-0.15430844711769406,-0.44236473905226176,3.7703511385198327,3.1249918937683105,2019-06-21 13:07:44:376
-4.027584136962891,-8.09766470336914,-1.8494924926757812,-0.13300315839706017,-0.4544821220121223,3.77328061571892,3.1301119327545166,2019-06-21 13:07:44:381
-4.047934539794921,-8.709373870849609,-2.170310607910156,-0.16562688175053084,-0.47725214933229976,3.7696853482473127,3.1349759101867676,2019-06-21 13:07:44:386
-3.5583277893066407,-8.860206268310547,-1.21623583984375,-0.12168472376422342,-0.5219932556456309,3.774079564045944,3.1400959491729736,2019-06-21 13:07:44:391
-4.265803558349609,-7.46560513305664,1.1815204467773437,-0.06948676639867034,-0.47365688186069277,3.798181171911161,3.1449599266052246,2019-06-21 13:07:44:396
-4.176022369384765,-6.8969909362792965,0.20110986328125,-0.0863978393206735,-0.4845758423300177,3.818154880086755,3.1500799655914307,2019-06-21 13:07:44:401
-5.346769073486328,-8.465169036865234,-2.0913031616210938,-0.15311002462715842,-0.5203953589915834,3.8142932965061402,3.1552000045776367,2019-06-21 13:07:44:406
-6.44090249633789,-7.344699798583984,-0.7362057495117187,-0.14485422524791278,-0.5197295687190636,3.8272096277930245,3.1600639820098877,2019-06-21 13:07:44:411
-8.501081512451172,-8.066540557861329,0.9851989135742187,-0.12434788485430265,-0.49309795781827126,3.8274759439020323,3.1651840209960938,2019-06-21 13:07:44:416
-6.606099884033203,-8.035416412353515,-0.84274609375,-0.09185731955533595,-0.47964899431337105,3.805638022963383,3.1700479984283447,2019-06-21 13:07:44:421
-5.183965850830078,-7.520670928955078,-2.6659027709960936,-0.13153841979751657,-0.43570683632706364,3.7928548497310026,3.175168037414551,2019-06-21 13:07:44:426
-3.3823566589355467,-5.650828033447265,-0.41179638671874996,-0.15537371155372576,-0.5006879669249971,3.8059043390723906,3.1800320148468018,2019-06-21 13:07:44:431
-4.176022369384765,-6.458858734130859,1.8040033569335938,-0.14938159910104748,-0.5679328177390115,3.8462512295870908,3.185152053833008,2019-06-21 13:07:44:436
-6.723413970947266,-8.629169342041015,1.4305136108398437,-0.08240309768555465,-0.47725214933229976,3.8835354848482004,3.190016031265259,2019-06-21 13:07:44:441
-11.042487701416015,-10.64385922241211,-2.4145154418945314,-0.07587835301486051,-0.34635778175490517,3.8828696945756804,3.195136070251465,2019-06-21 13:07:44:446
-12.380825958251952,-12.073175750732421,-3.9240364990234373,-0.09438732259091122,-0.33117776354145356,3.853042290366793,3.200000047683716,2019-06-21 13:07:44:451
-9.820266448974609,-9.023009490966796,-0.5446725463867187,-0.03393356584611251,-0.3201256450176247,3.819486460631795,3.205120086669922,2019-06-21 13:07:44:456
-6.221836395263672,-3.8432334289550782,3.85939404296875,0.04383073798420124,-0.41346944122490203,3.833201740245703,3.209984064102173,2019-06-21 13:07:44:461
-5.219878326416016,-2.6461509094238282,2.236150146484375,-0.04578463269696512,-0.4805811006948988,3.8369301657718133,3.2151038646698,2019-06-21 13:07:44:466
-6.1966976623535155,-3.5655102844238282,-1.0067463989257812,-0.27907754418790637,-0.572859665755658,3.832402791918679,3.21996808052063,2019-06-21 13:07:44:471
-9.935186370849609,-6.920932586669922,-0.5662200317382813,-0.4817441031429364,-0.7141403615843617,3.834533320790743,3.225087881088257,2019-06-21 13:07:44:476
-9.893288482666016,-8.68184097290039,-1.1456079711914062,-0.4256845621967685,-0.7229287931816231,3.825478573084473,3.230207920074463,2019-06-21 13:07:44:481
-11.73679556274414,-7.750510772705078,-0.1891390380859375,-0.21036798806386203,-0.573125981864666,3.822149621721874,3.235071897506714,2019-06-21 13:07:44:486
-11.132268890380859,-6.6647569274902345,-2.106865234375,-0.11955419489216003,-0.5000221766524773,3.782468521479693,3.24019193649292,2019-06-21 13:07:44:491
-10.958691925048829,-5.976434478759765,-3.6678608398437498,-0.14139211583080977,-0.42984788192888934,3.755703752524397,3.245055913925171,2019-06-21 13:07:44:496
-10.387683563232422,-7.034655426025391,-2.562953674316406,-0.14152527388531372,-0.46327055360938374,3.7017747404502925,3.250175952911377,2019-06-21 13:07:44:501
-9.920821380615234,-5.848346649169922,0.29089105224609374,-0.05963307036537716,-0.521860097591127,3.699377895469221,3.255039930343628,2019-06-21 13:07:44:506
-8.570512298583985,-2.406734405517578,3.8917152709960936,-0.05364095791269888,-0.5173327237379923,3.728273193296581,3.260159969329834,2019-06-21 13:07:44:511
-8.947593292236327,-3.420663299560547,0.541081298828125,-0.28893124022119954,-0.5781859879358164,3.71748739088176,3.265023946762085,2019-06-21 13:07:44:516
-9.391710906982421,-3.9413941955566405,-1.6819009399414062,-0.45378091169710444,-0.7082814071861873,3.671547862077893,3.270143985748291,2019-06-21 13:07:44:521
-10.346982757568359,-5.600550567626953,-1.6400030517578124,-0.5311457413639064,-0.6836471671029544,3.659829953281544,3.275007963180542,2019-06-21 13:07:44:526
-8.158715911865235,-7.817547393798828,-2.311566345214844,-0.4824098934154562,-0.6873755926290652,3.652639418338331,3.280128002166748,2019-06-21 13:07:44:531
-10.336209014892578,-7.751707855224609,1.06300927734375,-0.30504336481617894,-0.6093449726897435,3.6734120748409484,3.284991979598999,2019-06-21 13:07:44:536
-8.703388458251952,-7.768467010498047,3.982693542480469,-0.19532112790491432,-0.4688631918985502,3.7052368498673958,3.290112018585205,2019-06-21 13:07:44:541
-8.732118438720702,-6.6360269470214845,2.552179931640625,-0.20131324035759263,-0.3651330674399638,3.730137406059636,3.294975996017456,2019-06-21 13:07:44:546
-8.295183319091796,-5.069045928955078,-0.5147454833984375,-0.25564172659520906,-0.4397015779621825,3.7441190017825523,3.300096035003662,2019-06-21 13:07:44:551
-8.418482818603515,-6.093748565673828,1.877025390625,-0.3128996900319127,-0.40920838348077526,3.7636932357946344,3.304960012435913,2019-06-21 13:07:44:556
-7.683474151611328,-5.024753875732422,4.201759643554688,-0.26136752293887944,-0.3550130552976627,3.8033743360368155,3.310080051422119,2019-06-21 13:07:44:561
-8.042598907470703,-3.086677276611328,1.3610828247070312,-0.17414899723878438,-0.336637243776116,3.8344001627362383,3.315200090408325,2019-06-21 13:07:44:566
-9.562893707275391,-5.960872406005859,-2.0266607055664063,-0.23766538923717423,-0.19402496740237277,3.8382617463168534,3.320064067840576,2019-06-21 13:07:44:571
-8.990688262939454,-6.902976348876953,-0.7828919677734375,-0.3737529209402233,-0.2582071496732824,3.8510449195492336,3.325183868408203,2019-06-21 13:07:44:576
-12.46462173461914,-7.332728973388671,-1.9656094970703124,-0.42701614274180805,-0.3759188698547848,3.9051070896778426,3.330048084259033,2019-06-21 13:07:44:581
-11.480619903564452,-6.053047760009766,-2.6623115234375,-0.21356378137195714,-0.287635079718658,3.956905572879884,3.33516788482666,2019-06-21 13:07:44:586
-9.931595123291016,-4.767381134033203,-0.53629296875,-0.020218286232204438,-0.18270653276953602,3.9767461230009737,3.340031862258911,2019-06-21 13:07:44:591
-6.867063873291015,-1.5460320739746094,3.534984680175781,0.010940698521722648,-0.266596107107032,4.001380363084207,3.345151901245117,2019-06-21 13:07:44:596
-8.266453338623046,-2.0895075378417967,2.260091796875,-0.16482793342350707,-0.17032283370066756,4.00923668829994,3.350015878677368,2019-06-21 13:07:44:601
-8.733315521240234,-2.556369720458984,0.0359124755859375,-0.2505817205240585,-0.1432917486363633,3.999382992266647,3.355135917663574,2019-06-21 13:07:44:606
-12.554402923583984,-3.5295978088378908,-1.2090533447265626,-0.26456331624697454,-0.200283395964059,4.0097693205179565,3.359999895095825,2019-06-21 13:07:44:611
-15.244247344970702,-3.7259193420410157,-2.600063232421875,-0.23580117647411877,-0.19935128958253123,4.017492487679187,3.3651199340820312,2019-06-21 13:07:44:616
-17.212251007080077,-3.474532012939453,-2.064967346191406,-0.1525773924091426,-0.21599604639552647,4.010301952735972,3.3699839115142822,2019-06-21 13:07:44:621
-15.536335479736328,-2.272661163330078,1.0043522338867188,-0.03925988802627099,-0.2592724141093141,3.9711534847118073,3.3751039505004883,2019-06-21 13:07:44:626
-11.500970306396484,0.029328521728515626,3.332677734375,0.06473655254132325,-0.21240077892391954,3.96249821116905,3.3799679279327393,2019-06-21 13:07:44:631
-7.864233612060547,0.15143093872070312,2.5174645385742185,0.04569495074725671,-0.034235306158807696,3.9177571048557183,3.3850879669189453,2019-06-21 13:07:44:636
-6.630041534423828,0.024540191650390626,-0.0957666015625,-0.024079869812819333,-0.0890964204532508,3.8786086368315535,3.3902080059051514,2019-06-21 13:07:44:641
-9.912441802978515,0.3333874816894531,-0.5398842163085937,-0.07294887581577335,-0.11692645384457884,3.883002852630185,3.3950719833374023,2019-06-21 13:07:44:646
-10.430778533935547,-1.190498565673828,-0.061051208496093745,-0.11089892134940249,-0.03370267394079185,3.8812717979216336,3.4001920223236084,2019-06-21 13:07:44:651
-12.814169830322266,-0.9139725036621094,-0.7469794921874999,-0.14671843801096826,-0.11732592800809072,3.8743475790874267,3.4050559997558594,2019-06-21 13:07:44:656
-14.53198324584961,-0.026934356689453126,-1.7453463134765625,-0.16096634984289218,-0.12491593711481654,3.881005481812625,3.4101760387420654,2019-06-21 13:07:44:661
-15.664423309326171,0.4339424133300781,-1.7321784057617187,-0.10756996998680345,-0.040360576665989946,3.8687549407982607,3.4150400161743164,2019-06-21 13:07:44:666
-15.08862661743164,0.9343229064941406,-0.34595684814453126,-0.010897222416927104,-0.08124009523751705,3.8238806764304254,3.4201600551605225,2019-06-21 13:07:44:671
-12.61784829711914,0.7571546936035156,0.98639599609375,0.030914406697316935,-0.09988222286807172,3.7879280017143557,3.4250240325927734,2019-06-21 13:07:44:676
-11.461466583251953,0.7439867858886718,0.5494608764648438,0.012005962957754345,-0.03996110250247806,3.748113743417671,3.4301440715789795,2019-06-21 13:07:44:681
-10.821027435302733,1.9817701110839843,0.2035040283203125,-0.0058372163457765525,-0.08576746909065175,3.7361295185123145,3.4350080490112305,2019-06-21 13:07:44:686
-12.285059356689453,2.039230072021484,1.3347470092773437,-0.06895413418065449,-0.07471535056682291,3.727474244969557,3.4401280879974365,2019-06-21 13:07:44:691
-13.802959991455078,2.303785308837891,0.7146582641601562,-0.10836891831382722,-0.07657956332987838,3.7149573878461846,3.4449920654296875,2019-06-21 13:07:44:696
-12.711220733642579,2.2702669982910155,-0.25856982421874997,-0.1350005292146196,-0.05460848849791386,3.6775399745305712,3.4501118659973145,2019-06-21 13:07:44:701
-10.655830047607422,1.492163360595703,-0.6931107788085937,-0.1262120976173581,-0.06898955838434175,3.649709941139243,3.4549760818481445,2019-06-21 13:07:44:706
-8.24969418334961,1.9506459655761719,-0.8978118896484375,-0.0895936326287686,-0.08550115298164382,3.6256083332740263,3.4600958824157715,2019-06-21 13:07:44:711
-8.485519439697265,0.9151695861816406,-2.183478515625,-0.09744995784450235,-0.00933474996656682,3.6142898986411898,3.4649598598480225,2019-06-21 13:07:44:716
-7.791211578369141,-0.43513949584960937,-0.8918264770507812,-0.0829357299035705,-0.014527914092221334,3.6028383059538487,3.4700798988342285,2019-06-21 13:07:44:721
-9.384528411865235,0.9403083190917969,0.32680352783203126,-0.05364095791269888,-0.1048090708847183,3.6165535855677566,3.4751999378204346,2019-06-21 13:07:44:726
-9.219331024169922,0.6338551940917969,-0.7972569580078125,-0.07720993355990013,-0.09162642348882608,3.640255719269462,3.4800639152526855,2019-06-21 13:07:44:731
-9.094834442138671,0.5249206848144531,-1.2557395629882813,-0.10410786056970045,-0.0667258714577744,3.6630257465896396,3.4851839542388916,2019-06-21 13:07:44:736
-9.591623687744141,2.041624237060547,0.13287615966796876,-0.10650470555077175,-0.10187959368563114,3.679004713130115,3.4900479316711426,2019-06-21 13:07:44:741
-11.00777230834961,2.5623551330566405,0.6069208374023437,-0.11249681800345003,-0.0656606070217427,3.68925788332692,3.4951679706573486,2019-06-21 13:07:44:746
-12.05282534790039,2.831698699951172,0.9061914672851562,-0.10650470555077175,-0.017457391291308494,3.6814015581111863,3.5000319480895996,2019-06-21 13:07:44:751
-11.193320098876953,2.9633777770996095,0.31722686767578123,-0.10930102469535495,-0.049947956590275205,3.6712815459688852,3.5051519870758057,2019-06-21 13:07:44:756
-10.829407012939454,2.862822845458984,0.1556207275390625,-0.084666784612122,-0.04089320888400579,3.656501001918945,3.5100159645080566,2019-06-21 13:07:44:761
-11.432736602783203,3.236312591552734,0.6236799926757812,-0.05364095791269888,-0.04408900219210088,3.6478457283761876,3.5151360034942627,2019-06-21 13:07:44:766
-12.29104476928711,3.7690143127441407,-0.1747740478515625,-0.07467993052432485,-0.04408900219210088,3.6323993940537282,3.5199999809265137,2019-06-21 13:07:44:771
-12.238373138427734,4.463322174072266,-0.8583081665039062,-0.07547887885134863,-0.02824319370612941,3.620947801366388,3.5251200199127197,2019-06-21 13:07:44:776
-12.210840240478515,5.619703887939453,-1.3227761840820311,-0.07254940165226147,-0.04182531526553352,3.620148853039364,3.5299839973449707,2019-06-21 13:07:44:781
-12.431103424072266,5.8315874938964845,-1.412557373046875,-0.09119152928281614,-0.05607322709745745,3.6048356767714083,3.5351040363311768,2019-06-21 13:07:44:786
-11.723627655029297,6.189515167236328,0.038306640625,-0.07734309161440409,-0.08030798885598932,3.575141430617025,3.5399680137634277,2019-06-21 13:07:44:791
-10.507391815185546,6.142828948974609,0.790074462890625,-0.08852836819273689,-0.0925585298703538,3.5461129747351614,3.545088052749634,2019-06-21 13:07:44:796
-9.991449249267578,6.013544036865234,-0.4381322021484375,-0.12314946236376699,-0.04342321191958107,3.5090950355830595,3.55020809173584,2019-06-21 13:07:44:801
-10.330223602294922,6.393019195556641,-1.1599729614257812,-0.1279431523259096,-0.04342321191958107,3.4712781481039348,3.555072069168091,2019-06-21 13:07:44:806
-10.756384979248047,6.586946563720703,-0.45010302734374996,-0.11476050493001738,-0.07484850862132687,3.4383881086414556,3.5601918697357178,2019-06-21 13:07:44:811
-10.818633270263671,6.767706024169922,0.43693511962890624,-0.10970049885886685,-0.0751148247303348,3.4082943883235606,3.565056085586548,2019-06-21 13:07:44:816
-10.628297149658202,6.80481558227539,0.02753289794921875,-0.11076576329489854,-0.06712534562128629,3.3779343518966574,3.570175886154175,2019-06-21 13:07:44:821
-9.640704071044922,5.956084075927734,0.09337243652343749,-0.08826205208372898,-0.03996110250247806,3.3411827288535636,3.575039863586426,2019-06-21 13:07:44:826
-8.228146697998048,5.675966766357422,1.58014892578125,-0.07041887278019808,-0.04169215721102956,3.3177469112608664,3.580159902572632,2019-06-21 13:07:44:831
-7.965985626220703,5.258184967041015,0.58417626953125,-0.147650544392496,-0.02970793230567299,3.2989716255758075,3.585023880004883,2019-06-21 13:07:44:836
-9.210951446533203,5.672375518798828,-1.8040033569335938,-0.19771797288598567,0.035672672455772304,3.2845905556893795,3.590143918991089,2019-06-21 13:07:44:841
-8.869782928466798,5.255790802001953,-1.3036228637695313,-0.20384324339316792,0.06070638670251715,3.2723400146750157,3.59500789642334,2019-06-21 13:07:44:846
-10.093201263427733,4.906242706298828,0.10175201416015625,-0.24379065974435649,0.009174219609483886,3.2863216103979314,3.600127935409546,2019-06-21 13:07:44:851
-11.80502926635742,4.4010738830566405,-0.5901616821289062,-0.28413755025905696,0.013168961244602744,3.293245829232137,3.604991912841797,2019-06-21 13:07:44:856
-11.891219207763672,6.825165985107422,-1.6052876586914062,-0.18413585132658156,0.017296860934225562,3.29737372892176,3.610111951828003,2019-06-21 13:07:44:861
-13.118228790283203,11.820591339111328,-1.0175201416015625,-0.05963307036537716,-0.08949589461676269,3.2896505617605305,3.614975929260254,2019-06-21 13:07:44:866
-10.963480255126953,11.69729183959961,-0.1364674072265625,-0.021949340940755943,-0.14648754194445837,3.2116199418212084,3.62009596824646,2019-06-21 13:07:44:871
-8.863797515869141,8.702191375732422,1.9859598999023438,-0.026876188957402534,-0.08962905267126664,3.1381166957350217,3.624959945678711,2019-06-21 13:07:44:876
-4.006036651611328,5.2773382873535155,2.878983459472656,-0.11143155356741834,-0.019055287945356037,3.0957724344027615,3.630079984664917,2019-06-21 13:07:44:881
-4.39030014038086,2.8125453796386717,0.6823370361328125,-0.2822733374960015,0.09665906557977606,3.098968227710857,3.635200023651123,2019-06-21 13:07:44:886
-6.851501800537109,4.329248931884766,-1.5586014404296875,-0.39186241635276214,0.1647028314313006,3.1212056228130183,3.640064001083374,2019-06-21 13:07:44:891
-10.880881561279297,5.319236175537109,-1.8470983276367188,-0.4403319481922042,0.17322494691955415,3.15556040087504,3.64518404006958,2019-06-21 13:07:44:896
-13.582696807861328,6.458858734130859,-2.1332010498046876,-0.3764160820303025,0.09559380114374437,3.185254647029424,3.650048017501831,2019-06-21 13:07:44:901
-13.880770355224609,7.660729583740234,-2.4743695678710935,-0.2132974652629492,0.04139846879944267,3.204962039096011,3.655168056488037,2019-06-21 13:07:44:906
-12.094723236083984,9.41086422729492,-1.4568494262695313,-0.06083149285591282,-0.09828432621402418,3.2077583582405937,3.660032033920288,2019-06-21 13:07:44:911
-9.932792205810546,8.089285125732422,0.3698984985351562,-0.0371293591542076,-0.2538129338746517,3.2012336135698995,3.665152072906494,2019-06-21 13:07:44:916
-5.910594940185547,8.522628997802734,4.67341015625,-0.025011976194347064,-0.17524968171731414,3.2028315102239473,3.670016050338745,2019-06-21 13:07:44:921
-6.293661346435547,6.906567596435547,4.301117492675782,-0.137131058086683,0.062037967247556766,3.2066930938045624,3.675136089324951,2019-06-21 13:07:44:926
-6.973604217529297,7.533838836669922,0.05865704345703125,-0.23233906705701576,0.11277119017475545,3.186719385628968,3.680000066757202,2019-06-21 13:07:44:931
-8.285606658935547,7.033458343505859,-3.3638018798828124,-0.2690906901001092,0.1637707250497729,3.169941470761468,3.685119867324829,2019-06-21 13:07:44:936
-9.972295928955077,6.0518506774902345,-3.898897766113281,-0.20184587257560846,0.09186537561763344,3.1703409449249804,3.689984083175659,2019-06-21 13:07:44:941
-10.59717300415039,7.242947784423828,-1.747740478515625,-0.04631726491498097,-0.012930017438173791,3.1678109418894054,3.695103883743286,2019-06-21 13:07:44:946
-10.007011322021484,8.845841278076172,3.511043029785156,0.08550920904394131,-0.09282484597936172,3.207891516295098,3.699967861175537,2019-06-21 13:07:44:951
-8.61360726928711,8.765636749267578,1.594513916015625,-0.03326777557359271,-0.08017483080148535,3.2084241485131137,3.705087900161743,2019-06-21 13:07:44:956
-8.246102935791015,9.844208099365234,-1.7178134155273437,-0.11649155963856889,-0.003342637513888533,3.2169462640013675,3.710207939147949,2019-06-21 13:07:44:961
-8.314336639404297,9.450367950439453,-0.44890594482421875,-0.0483146357325404,-0.029974248414680913,3.197372029989285,3.7150719165802,2019-06-21 13:07:44:966
-10.400851470947265,9.064907379150391,2.15474853515625,0.02705282311670204,-0.08749852379920325,3.1945757108447013,3.7201919555664062,2019-06-21 13:07:44:971
-10.068062530517578,8.06893472290039,3.07410791015625,-0.01675617681510143,-0.0314389870142245,3.206559935750058,3.7250559329986572,2019-06-21 13:07:44:976
-7.8762044372558595,7.521868011474609,1.21623583984375,-0.0528420095856751,-0.022517397362459047,3.228930488906724,3.7301759719848633,2019-06-21 13:07:44:981
