ACCELEROMETER X (m/s²),ACCELEROMETER Y (m/s²),ACCELEROMETER Z (m/s²),GYROSCOPE X (rad/s),GYROSCOPE Y (rad/s),GYROSCOPE Z (rad/s),Time since start in ms ,YYYY-MO-DD HH-MI-SS_SSS
7.400364135742187,-4.1227521972656245,0.4291540832519531,0.04183526883010769,-0.028376570223066545,-0.005468775291045195,0.0,2019-06-20 14:44:30:277
7.4087437133789065,-4.133525939941406,0.41718325805664064,0.04143579466659581,-0.027178147732530883,-0.006267723618068967,0.005120038986206055,2019-06-20 14:44:30:282
7.43148828125,-4.1179638671875,0.4339424133300781,0.04116947855758789,-0.028243412168562583,-0.005601933345549157,0.009984016418457031,2019-06-20 14:44:30:287
7.426699951171875,-4.145496765136719,0.44232199096679686,0.04183526883010769,-0.029175518550090315,-0.005868249454557082,0.015104055404663086,2019-06-20 14:44:30:292
7.4123349609375,-4.129934692382812,0.47464321899414064,0.041302636612091846,-0.029308676604594276,-0.006267723618068967,0.019968032836914062,2019-06-20 14:44:30:297
7.40275830078125,-4.116766784667969,0.45548989868164064,0.04196842688461166,-0.028376570223066545,-0.00653403972707689,0.025088071823120117,2019-06-20 14:44:30:302
7.411137878417969,-4.133525939941406,0.38725619506835934,0.042101584939115616,-0.029441834659098238,-0.006267723618068967,0.029952049255371094,2019-06-20 14:44:30:307
7.382407897949219,-4.1538763427734375,0.43035116577148436,0.04276737521163543,-0.028509728277570506,-0.0057350914000531186,0.03507208824157715,2019-06-20 14:44:30:312
7.415926208496094,-4.12754052734375,0.4327453308105469,0.041702110775603735,-0.029175518550090315,-0.006001407509061044,0.039936065673828125,2019-06-20 14:44:30:317
7.3800137329101565,-4.1239492797851565,0.47344613647460937,0.042101584939115616,-0.029042360495586353,-0.005601933345549157,0.04505610466003418,2019-06-20 14:44:30:322
7.419517456054687,-4.1095842895507815,0.4207745056152344,0.04156895272109977,-0.02970815076810616,-0.0057350914000531186,0.049920082092285156,2019-06-20 14:44:30:327
7.415926208496094,-4.135920104980468,0.39802993774414064,0.040636846339572034,-0.02877604438657843,-0.006667197781580852,0.05504012107849121,2019-06-20 14:44:30:332
7.430291198730469,-4.144299682617188,0.4315482482910156,0.04183526883010769,-0.0295749927136022,-0.006134565563565005,0.05990409851074219,2019-06-20 14:44:30:337
7.447050354003906,-4.147890930175781,0.4267599182128906,0.04116947855758789,-0.030107624931618046,-0.006800355836084815,0.06502413749694824,2019-06-20 14:44:30:342
7.427897033691406,-4.120358032226562,0.4399278259277344,0.04183526883010769,-0.0295749927136022,-0.0057350914000531186,0.0701441764831543,2019-06-20 14:44:30:347
7.403955383300781,-4.104795959472656,0.4770373840332031,0.041702110775603735,-0.02877604438657843,-0.006001407509061044,0.07500815391540527,2019-06-20 14:44:30:352
7.419517456054687,-4.134723022460937,0.4770373840332031,0.04116947855758789,-0.02890920244108239,-0.0064008816725729285,0.08012819290161133,2019-06-20 14:44:30:357
7.417123291015625,-4.155073425292969,0.4578840637207031,0.04090316244857996,-0.028509728277570506,-0.006933513890588777,0.0849921703338623,2019-06-20 14:44:30:362
7.415926208496094,-4.152679260253906,0.4650665588378906,0.04156895272109977,-0.02771077995054673,-0.005601933345549157,0.09011220932006836,2019-06-20 14:44:30:367
7.395575805664063,-4.1383142700195314,0.4291540832519531,0.04116947855758789,-0.029042360495586353,-0.0064008816725729285,0.09497618675231934,2019-06-20 14:44:30:372
7.413532043457031,-4.14669384765625,0.4123949279785156,0.04183526883010769,-0.030240782986122008,-0.0064008816725729285,0.10009598731994629,2019-06-20 14:44:30:377
7.414729125976562,-4.128737609863281,0.41838034057617185,0.041702110775603735,-0.030107624931618046,-0.005868249454557082,0.10496020317077637,2019-06-20 14:44:30:382
7.414729125976562,-4.1371171874999995,0.4291540832519531,0.041302636612091846,-0.029042360495586353,-0.005601933345549157,0.11008000373840332,2019-06-20 14:44:30:387
7.397969970703125,-4.119160949707031,0.4327453308105469,0.04103632050308392,-0.02811025411405862,-0.005335617236541234,0.1149442195892334,2019-06-20 14:44:30:392
7.413532043457031,-4.132328857421875,0.44471615600585934,0.040636846339572034,-0.02890920244108239,-0.006933513890588777,0.12006402015686035,2019-06-20 14:44:30:397
7.414729125976562,-4.1239492797851565,0.4770373840332031,0.04156895272109977,-0.029042360495586353,-0.005868249454557082,0.12492799758911133,2019-06-20 14:44:30:402
7.3943787231445315,-4.128737609863281,0.4387307434082031,0.04196842688461166,-0.03037394104062597,-0.004802985018525386,0.13004803657531738,2019-06-20 14:44:30:407
7.406349548339843,-4.1227521972656245,0.4590811462402344,0.04143579466659581,-0.028509728277570506,-0.0050693011275333094,0.13491201400756836,2019-06-20 14:44:30:412
7.396772888183594,-4.111978454589844,0.43513949584960937,0.04156895272109977,-0.028509728277570506,-0.00653403972707689,0.14003205299377441,2019-06-20 14:44:30:417
7.420714538574218,-4.104795959472656,0.4339424133300781,0.041702110775603735,-0.02771077995054673,-0.0064008816725729285,0.1448960304260254,2019-06-20 14:44:30:422
7.419517456054687,-4.133525939941406,0.43753366088867185,0.04183526883010769,-0.029841308822610123,-0.005335617236541234,0.15001606941223145,2019-06-20 14:44:30:427
7.44106494140625,-4.132328857421875,0.4602782287597656,0.04196842688461166,-0.029441834659098238,-0.0050693011275333094,0.1551361083984375,2019-06-20 14:44:30:432
7.424305786132813,-4.131131774902344,0.4602782287597656,0.040770004394076,-0.02890920244108239,-0.005868249454557082,0.16000008583068848,2019-06-20 14:44:30:437
7.406349548339843,-4.132328857421875,0.43753366088867185,0.040503688285068076,-0.029841308822610123,-0.005868249454557082,0.16512012481689453,2019-06-20 14:44:30:442
7.400364135742187,-4.151482177734375,0.46267239379882813,0.04116947855758789,-0.029974466877114084,-0.005868249454557082,0.1699841022491455,2019-06-20 14:44:30:447
7.411137878417969,-4.152679260253906,0.4411249084472656,0.040636846339572034,-0.0295749927136022,-0.006134565563565005,0.17510414123535156,2019-06-20 14:44:30:452
7.366845825195313,-4.155073425292969,0.42436575317382813,0.040770004394076,-0.029175518550090315,-0.006667197781580852,0.17996811866760254,2019-06-20 14:44:30:457
7.3800137329101565,-4.159861755371094,0.42316867065429686,0.040503688285068076,-0.029308676604594276,-0.006667197781580852,0.1850881576538086,2019-06-20 14:44:30:462
7.400364135742187,-4.155073425292969,0.4399278259277344,0.04116947855758789,-0.029175518550090315,-0.0074661461086046235,0.18995213508605957,2019-06-20 14:44:30:467
7.397969970703125,-4.1538763427734375,0.41598617553710937,0.041702110775603735,-0.028509728277570506,-0.0071998299995967,0.19507217407226562,2019-06-20 14:44:30:472
7.395575805664063,-4.1562705078125,0.44471615600585934,0.042367901048123546,-0.029308676604594276,-0.0070666719450927385,0.1999361515045166,2019-06-20 14:44:30:477
7.401561218261719,-4.121555114746093,0.4339424133300781,0.04143579466659581,-0.029175518550090315,-0.006667197781580852,0.20505619049072266,2019-06-20 14:44:30:482
7.419517456054687,-4.125146362304688,0.4698548889160156,0.041302636612091846,-0.029308676604594276,-0.008131936381124433,0.20992016792297363,2019-06-20 14:44:30:487
7.413532043457031,-4.115569702148437,0.41119784545898436,0.040636846339572034,-0.027444463841538806,-0.007998778326620472,0.2150402069091797,2019-06-20 14:44:30:492
7.427897033691406,-4.098810546875,0.4123949279785156,0.04116947855758789,-0.027444463841538806,-0.007332988054100662,0.21990418434143066,2019-06-20 14:44:30:497
7.4123349609375,-4.107190124511718,0.4483074035644531,0.040503688285068076,-0.02797709605955466,-0.00786562027211651,0.22502398490905762,2019-06-20 14:44:30:502
7.405152465820312,-4.088036804199219,0.4662636413574219,0.04037053023056411,-0.029042360495586353,-0.007998778326620472,0.23014402389526367,2019-06-20 14:44:30:507
7.411137878417969,-4.098810546875,0.4662636413574219,0.04090316244857996,-0.029175518550090315,-0.0074661461086046235,0.23500800132751465,2019-06-20 14:44:30:512
7.427897033691406,-4.1239492797851565,0.4602782287597656,0.04023737217606015,-0.028509728277570506,-0.007998778326620472,0.2401280403137207,2019-06-20 14:44:30:517
7.382407897949219,-4.1227521972656245,0.43035116577148436,0.040770004394076,-0.028243412168562583,-0.008664568599140282,0.24499201774597168,2019-06-20 14:44:30:522
7.411137878417969,-4.114372619628906,0.4518986511230469,0.04090316244857996,-0.02771077995054673,-0.008265094435628395,0.25011205673217773,2019-06-20 14:44:30:527
7.4530357666015625,-4.1383142700195314,0.41119784545898436,0.04116947855758789,-0.029175518550090315,-0.008797726653644243,0.2549760341644287,2019-06-20 14:44:30:532
7.415926208496094,-4.151482177734375,0.42436575317382813,0.04143579466659581,-0.029175518550090315,-0.008265094435628395,0.26009607315063477,2019-06-20 14:44:30:537
7.3943787231445315,-4.128737609863281,0.45548989868164064,0.04143579466659581,-0.029175518550090315,-0.00786562027211651,0.26496005058288574,2019-06-20 14:44:30:542
7.397969970703125,-4.1239492797851565,0.42316867065429686,0.04156895272109977,-0.030240782986122008,-0.008131936381124433,0.2700800895690918,2019-06-20 14:44:30:547
7.4231087036132815,-4.140708435058594,0.4399278259277344,0.041302636612091846,-0.030107624931618046,-0.007998778326620472,0.2749440670013428,2019-06-20 14:44:30:552
7.417123291015625,-4.121555114746093,0.47344613647460937,0.040770004394076,-0.030640257149633893,-0.0077324622176125485,0.28006410598754883,2019-06-20 14:44:30:557
7.4219116210937495,-4.1239492797851565,0.4698548889160156,0.040636846339572034,-0.0295749927136022,-0.007332988054100662,0.2849280834197998,2019-06-20 14:44:30:562
7.405152465820312,-4.116766784667969,0.4578840637207031,0.040636846339572034,-0.028243412168562583,-0.0074661461086046235,0.29004812240600586,2019-06-20 14:44:30:567
7.377619567871093,-4.0952192993164065,0.5045702819824218,0.04090316244857996,-0.02811025411405862,-0.008131936381124433,0.29491209983825684,2019-06-20 14:44:30:572
7.405152465820312,-4.100007629394531,0.4315482482910156,0.04103632050308392,-0.029175518550090315,-0.008265094435628395,0.3000321388244629,2019-06-20 14:44:30:577
7.411137878417969,-4.113175537109375,0.45429281616210937,0.039837898012548265,-0.029042360495586353,-0.007998778326620472,0.30515217781066895,2019-06-20 14:44:30:582
7.432685363769531,-4.134723022460937,0.4459132385253906,0.040770004394076,-0.029042360495586353,-0.007599304163108585,0.3100161552429199,2019-06-20 14:44:30:587
7.451838684082031,-4.119160949707031,0.46386947631835934,0.04010421412155619,-0.030107624931618046,-0.007332988054100662,0.315136194229126,2019-06-20 14:44:30:592
7.426699951171875,-4.131131774902344,0.46865780639648436,0.03943842384903638,-0.030640257149633893,-0.007599304163108585,0.32000017166137695,2019-06-20 14:44:30:597
7.429094116210937,-4.1239492797851565,0.4698548889160156,0.03997105606705223,-0.029441834659098238,-0.007599304163108585,0.325120210647583,2019-06-20 14:44:30:602
7.405152465820312,-4.129934692382812,0.40640951538085934,0.04037053023056411,-0.02877604438657843,-0.007599304163108585,0.329984188079834,2019-06-20 14:44:30:607
7.417123291015625,-4.151482177734375,0.44232199096679686,0.040503688285068076,-0.029042360495586353,-0.008131936381124433,0.33510398864746094,2019-06-20 14:44:30:612
7.444656188964844,-4.128737609863281,0.41598617553710937,0.041702110775603735,-0.02970815076810616,-0.008131936381124433,0.339968204498291,2019-06-20 14:44:30:617
7.424305786132813,-4.1179638671875,0.4518986511230469,0.041302636612091846,-0.029441834659098238,-0.007998778326620472,0.34508800506591797,2019-06-20 14:44:30:622
7.401561218261719,-4.140708435058594,0.5057673645019531,0.040503688285068076,-0.029042360495586353,-0.007599304163108585,0.34995198249816895,2019-06-20 14:44:30:627
7.4075466308593745,-4.1227521972656245,0.45429281616210937,0.041302636612091846,-0.029308676604594276,-0.008398252490132357,0.355072021484375,2019-06-20 14:44:30:632
7.40275830078125,-4.129934692382812,0.4483074035644531,0.041702110775603735,-0.02877604438657843,-0.007332988054100662,0.359935998916626,2019-06-20 14:44:30:637
7.4123349609375,-4.143102600097656,0.46147531127929686,0.041302636612091846,-0.02890920244108239,-0.0077324622176125485,0.36505603790283203,2019-06-20 14:44:30:642
7.417123291015625,-4.155073425292969,0.4507015686035156,0.040636846339572034,-0.029308676604594276,-0.00786562027211651,0.369920015335083,2019-06-20 14:44:30:647
7.4219116210937495,-4.158664672851563,0.46267239379882813,0.040770004394076,-0.029042360495586353,-0.008398252490132357,0.37504005432128906,2019-06-20 14:44:30:652
7.399167053222656,-4.132328857421875,0.46386947631835934,0.040503688285068076,-0.02784393800505069,-0.00786562027211651,0.37990403175354004,2019-06-20 14:44:30:657
7.401561218261719,-4.110781372070313,0.4459132385253906,0.04196842688461166,-0.03037394104062597,-0.008531410544636318,0.3850240707397461,2019-06-20 14:44:30:662
7.409940795898438,-4.120358032226562,0.42316867065429686,0.04183526883010769,-0.0295749927136022,-0.009197200817156128,0.39014410972595215,2019-06-20 14:44:30:667
7.4123349609375,-4.134723022460937,0.4147890930175781,0.04116947855758789,-0.028642886332074468,-0.009064042762652167,0.3950080871582031,2019-06-20 14:44:30:672
7.403955383300781,-4.133525939941406,0.4219715881347656,0.040770004394076,-0.029308676604594276,-0.008265094435628395,0.4001281261444092,2019-06-20 14:44:30:677
7.397969970703125,-4.141905517578125,0.42556283569335934,0.041302636612091846,-0.02970815076810616,-0.009197200817156128,0.40499210357666016,2019-06-20 14:44:30:682
7.427897033691406,-4.144299682617188,0.4710519714355469,0.041702110775603735,-0.029175518550090315,-0.009197200817156128,0.4101121425628662,2019-06-20 14:44:30:687
7.427897033691406,-4.149088012695312,0.4100007629394531,0.04223474299361958,-0.02784393800505069,-0.00933035887166009,0.4149761199951172,2019-06-20 14:44:30:692
7.4219116210937495,-4.143102600097656,0.3645116271972656,0.04276737521163543,-0.02771077995054673,-0.008131936381124433,0.42009615898132324,2019-06-20 14:44:30:697
7.420714538574218,-4.143102600097656,0.4135920104980469,0.041702110775603735,-0.0295749927136022,-0.008930884708148205,0.4249601364135742,2019-06-20 14:44:30:702
7.3931816406249995,-4.1383142700195314,0.4100007629394531,0.042501059102627504,-0.02970815076810616,-0.009729833035171977,0.4300801753997803,2019-06-20 14:44:30:707
7.395575805664063,-4.128737609863281,0.41598617553710937,0.042367901048123546,-0.03050709909512993,-0.0099961491441799,0.43494415283203125,2019-06-20 14:44:30:712
7.397969970703125,-4.1227521972656245,0.42436575317382813,0.04156895272109977,-0.029042360495586353,-0.0099961491441799,0.4400641918182373,2019-06-20 14:44:30:717
7.4087437133789065,-4.159861755371094,0.42556283569335934,0.04116947855758789,-0.027311305787034845,-0.009596674980668015,0.4449281692504883,2019-06-20 14:44:30:722
7.3943787231445315,-4.131131774902344,0.4578840637207031,0.04223474299361958,-0.027577621896042768,-0.009197200817156128,0.45004820823669434,2019-06-20 14:44:30:727
7.395575805664063,-4.1538763427734375,0.44950448608398436,0.04276737521163543,-0.029042360495586353,-0.009463516926164052,0.4549121856689453,2019-06-20 14:44:30:732
7.413532043457031,-4.140708435058594,0.4650665588378906,0.04263421715713147,-0.02784393800505069,-0.0099961491441799,0.46003198623657227,2019-06-20 14:44:30:737
7.429094116210937,-4.134723022460937,0.3896503601074219,0.040636846339572034,-0.02797709605955466,-0.0099961491441799,0.46489620208740234,2019-06-20 14:44:30:742
7.411137878417969,-4.14669384765625,0.4100007629394531,0.04116947855758789,-0.027444463841538806,-0.0099961491441799,0.4700160026550293,2019-06-20 14:44:30:747
7.4123349609375,-4.133525939941406,0.46147531127929686,0.04103632050308392,-0.02797709605955466,-0.010395623307691787,0.47513604164123535,2019-06-20 14:44:30:752
7.399167053222656,-4.144299682617188,0.4722490539550781,0.04116947855758789,-0.02877604438657843,-0.0099961491441799,0.48000001907348633,2019-06-20 14:44:30:757
7.399167053222656,-4.155073425292969,0.4459132385253906,0.04156895272109977,-0.02877604438657843,-0.0099961491441799,0.4851200580596924,2019-06-20 14:44:30:762
7.396772888183594,-4.1371171874999995,0.4195774230957031,0.041702110775603735,-0.029175518550090315,-0.010395623307691787,0.48998403549194336,2019-06-20 14:44:30:767
7.3931816406249995,-4.1371171874999995,0.47464321899414064,0.04090316244857996,-0.0295749927136022,-0.00933035887166009,0.4951040744781494,2019-06-20 14:44:30:772
7.391984558105468,-4.133525939941406,0.4483074035644531,0.04156895272109977,-0.02811025411405862,-0.0099961491441799,0.4999680519104004,2019-06-20 14:44:30:777
7.389590393066406,-4.128737609863281,0.47584030151367185,0.04223474299361958,-0.028376570223066545,-0.010262465253187823,0.5050880908966064,2019-06-20 14:44:30:782
7.396772888183594,-4.1538763427734375,0.4411249084472656,0.04143579466659581,-0.02704498967802692,-0.010262465253187823,0.5099520683288574,2019-06-20 14:44:30:787
7.417123291015625,-4.155073425292969,0.4578840637207031,0.040503688285068076,-0.02771077995054673,-0.008398252490132357,0.5150721073150635,2019-06-20 14:44:30:792
7.391984558105468,-4.1239492797851565,0.44232199096679686,0.04037053023056411,-0.027577621896042768,-0.009862991089675938,0.5199360847473145,2019-06-20 14:44:30:797
7.395575805664063,-4.131131774902344,0.48302279663085934,0.040636846339572034,-0.02624604135100315,-0.008797726653644243,0.5250561237335205,2019-06-20 14:44:30:802
7.390787475585937,-4.131131774902344,0.46386947631835934,0.040770004394076,-0.027444463841538806,-0.009197200817156128,0.5299201011657715,2019-06-20 14:44:30:807
7.3800137329101565,-4.134723022460937,0.45548989868164064,0.04037053023056411,-0.028376570223066545,-0.0099961491441799,0.5350401401519775,2019-06-20 14:44:30:812
7.3931816406249995,-4.1383142700195314,0.44351907348632813,0.04037053023056411,-0.02784393800505069,-0.009463516926164052,0.5399041175842285,2019-06-20 14:44:30:817
7.4075466308593745,-4.134723022460937,0.4291540832519531,0.04010421412155619,-0.028642886332074468,-0.009463516926164052,0.5450241565704346,2019-06-20 14:44:30:822
7.418320373535156,-4.126343444824219,0.43633657836914064,0.03930526579453242,-0.028243412168562583,-0.009729833035171977,0.5501441955566406,2019-06-20 14:44:30:827
7.457824096679687,-4.128737609863281,0.4195774230957031,0.040770004394076,-0.029308676604594276,-0.009463516926164052,0.5550081729888916,2019-06-20 14:44:30:832
7.4075466308593745,-4.126343444824219,0.4088036804199219,0.04103632050308392,-0.028509728277570506,-0.009729833035171977,0.5601282119750977,2019-06-20 14:44:30:837
7.38360498046875,-4.126343444824219,0.43035116577148436,0.04090316244857996,-0.02784393800505069,-0.010129307198683862,0.5649921894073486,2019-06-20 14:44:30:842
7.403955383300781,-4.113175537109375,0.4578840637207031,0.04090316244857996,-0.028642886332074468,-0.01066193941669971,0.5701119899749756,2019-06-20 14:44:30:847
7.400364135742187,-4.103598876953125,0.43633657836914064,0.04196842688461166,-0.02797709605955466,-0.010262465253187823,0.5749762058258057,2019-06-20 14:44:30:852
7.4075466308593745,-4.120358032226562,0.4518986511230469,0.04143579466659581,-0.028243412168562583,-0.010129307198683862,0.5800960063934326,2019-06-20 14:44:30:857
7.433882446289062,-4.125146362304688,0.4135920104980469,0.04183526883010769,-0.029042360495586353,-0.010262465253187823,0.5849599838256836,2019-06-20 14:44:30:862
7.425502868652344,-4.115569702148437,0.4674607238769531,0.04223474299361958,-0.02877604438657843,-0.010262465253187823,0.5900800228118896,2019-06-20 14:44:30:867
7.415926208496094,-4.113175537109375,0.42436575317382813,0.041702110775603735,-0.028642886332074468,-0.009862991089675938,0.5949440002441406,2019-06-20 14:44:30:872
7.388393310546875,-4.1239492797851565,0.44471615600585934,0.04116947855758789,-0.029042360495586353,-0.00933035887166009,0.6000640392303467,2019-06-20 14:44:30:877
7.395575805664063,-4.126343444824219,0.4315482482910156,0.041702110775603735,-0.02797709605955466,-0.008797726653644243,0.6049280166625977,2019-06-20 14:44:30:882
7.4087437133789065,-4.1239492797851565,0.4459132385253906,0.04116947855758789,-0.027577621896042768,-0.008797726653644243,0.6100480556488037,2019-06-20 14:44:30:887
7.389590393066406,-4.104795959472656,0.43753366088867185,0.04143579466659581,-0.02877604438657843,-0.010129307198683862,0.6149120330810547,2019-06-20 14:44:30:892
7.388393310546875,-4.103598876953125,0.4411249084472656,0.04156895272109977,-0.029308676604594276,-0.009596674980668015,0.6200320720672607,2019-06-20 14:44:30:897
7.411137878417969,-4.110781372070313,0.4590811462402344,0.04090316244857996,-0.029841308822610123,-0.009862991089675938,0.6251521110534668,2019-06-20 14:44:30:902
7.400364135742187,-4.126343444824219,0.4518986511230469,0.04090316244857996,-0.029841308822610123,-0.009596674980668015,0.6300160884857178,2019-06-20 14:44:30:907
7.397969970703125,-4.119160949707031,0.4267599182128906,0.04103632050308392,-0.028509728277570506,-0.009862991089675938,0.6351361274719238,2019-06-20 14:44:30:912
7.4231087036132815,-4.1083872070312495,0.44471615600585934,0.041702110775603735,-0.02877604438657843,-0.009197200817156128,0.6400001049041748,2019-06-20 14:44:30:917
7.425502868652344,-4.104795959472656,0.4590811462402344,0.04183526883010769,-0.02890920244108239,-0.008797726653644243,0.6451201438903809,2019-06-20 14:44:30:922
7.4219116210937495,-4.1383142700195314,0.4698548889160156,0.04116947855758789,-0.02877604438657843,-0.008131936381124433,0.6499841213226318,2019-06-20 14:44:30:927
7.4219116210937495,-4.133525939941406,0.4411249084472656,0.04090316244857996,-0.029308676604594276,-0.008797726653644243,0.6551041603088379,2019-06-20 14:44:30:932
7.395575805664063,-4.100007629394531,0.4866140441894531,0.03997105606705223,-0.02890920244108239,-0.008131936381124433,0.6599681377410889,2019-06-20 14:44:30:937
7.382407897949219,-4.115569702148437,0.4530957336425781,0.040770004394076,-0.027444463841538806,-0.0077324622176125485,0.6650881767272949,2019-06-20 14:44:30:942
7.424305786132813,-4.084445556640625,0.45668698120117185,0.042101584939115616,-0.02890920244108239,-0.008131936381124433,0.6699521541595459,2019-06-20 14:44:30:947
7.424305786132813,-4.101204711914062,0.43513949584960937,0.04116947855758789,-0.029308676604594276,-0.007599304163108585,0.675072193145752,2019-06-20 14:44:30:952
7.406349548339843,-4.0952192993164065,0.44232199096679686,0.040636846339572034,-0.02877604438657843,-0.0077324622176125485,0.6799361705780029,2019-06-20 14:44:30:957
7.414729125976562,-4.097613464355469,0.4147890930175781,0.040503688285068076,-0.02784393800505069,-0.006933513890588777,0.685056209564209,2019-06-20 14:44:30:962
7.433882446289062,-4.098810546875,0.4267599182128906,0.03997105606705223,-0.028509728277570506,-0.0070666719450927385,0.68992018699646,2019-06-20 14:44:30:967
7.437473693847656,-4.0940222167968745,0.42316867065429686,0.04037053023056411,-0.02877604438657843,-0.00653403972707689,0.6950399875640869,2019-06-20 14:44:30:972
7.427897033691406,-4.114372619628906,0.42436575317382813,0.04116947855758789,-0.02970815076810616,-0.006267723618068967,0.699904203414917,2019-06-20 14:44:30:977
7.418320373535156,-4.0952192993164065,0.44471615600585934,0.04090316244857996,-0.028509728277570506,-0.006933513890588777,0.705024003982544,2019-06-20 14:44:30:982
7.395575805664063,-4.0940222167968745,0.4770373840332031,0.04090316244857996,-0.028642886332074468,-0.0071998299995967,0.71014404296875,2019-06-20 14:44:30:987
7.4123349609375,-4.113175537109375,0.4399278259277344,0.03957158190354034,-0.02890920244108239,-0.0057350914000531186,0.715008020401001,2019-06-20 14:44:30:992
7.4386707763671875,-4.110781372070313,0.4471103210449219,0.03943842384903638,-0.028243412168562583,-0.005335617236541234,0.720128059387207,2019-06-20 14:44:30:997
7.418320373535156,-4.1083872070312495,0.4279570007324219,0.04010421412155619,-0.029175518550090315,-0.005202459182037272,0.724992036819458,2019-06-20 14:44:31:002
7.427897033691406,-4.115569702148437,0.45668698120117185,0.040503688285068076,-0.02970815076810616,-0.005202459182037272,0.7301120758056641,2019-06-20 14:44:31:007
7.403955383300781,-4.091628051757812,0.4411249084472656,0.040636846339572034,-0.029441834659098238,-0.005335617236541234,0.734976053237915,2019-06-20 14:44:31:012
7.4362766113281245,-4.102401794433594,0.44950448608398436,0.03997105606705223,-0.02784393800505069,-0.005601933345549157,0.7400960922241211,2019-06-20 14:44:31:017
7.43148828125,-4.100007629394531,0.43035116577148436,0.040503688285068076,-0.029042360495586353,-0.005202459182037272,0.7449600696563721,2019-06-20 14:44:31:022
7.43148828125,-4.102401794433594,0.4291540832519531,0.04103632050308392,-0.029308676604594276,-0.005601933345549157,0.7500801086425781,2019-06-20 14:44:31:027
7.426699951171875,-4.128737609863281,0.4267599182128906,0.04103632050308392,-0.02970815076810616,-0.005335617236541234,0.7549440860748291,2019-06-20 14:44:31:032
7.4219116210937495,-4.1095842895507815,0.35373788452148436,0.040503688285068076,-0.02970815076810616,-0.004536668909517462,0.7600641250610352,2019-06-20 14:44:31:037
7.419517456054687,-4.119160949707031,0.4315482482910156,0.04023737217606015,-0.03050709909512993,-0.0040040366915016145,0.7649281024932861,2019-06-20 14:44:31:042
7.420714538574218,-4.101204711914062,0.4602782287597656,0.03997105606705223,-0.029974466877114084,-0.0040040366915016145,0.7700481414794922,2019-06-20 14:44:31:047
7.414729125976562,-4.1095842895507815,0.45429281616210937,0.040770004394076,-0.02877604438657843,-0.003205088364477843,0.7749121189117432,2019-06-20 14:44:31:052
7.44106494140625,-4.131131774902344,0.4710519714355469,0.04023737217606015,-0.02890920244108239,-0.0038708786369976524,0.7800321578979492,2019-06-20 14:44:31:057
7.418320373535156,-4.1227521972656245,0.4147890930175781,0.039704739958044306,-0.029441834659098238,-0.0034714044734857666,0.7848961353302002,2019-06-20 14:44:31:062
7.44106494140625,-4.120358032226562,0.4195774230957031,0.04010421412155619,-0.02970815076810616,-0.0025392980919580334,0.7900161743164062,2019-06-20 14:44:31:067
7.403955383300781,-4.143102600097656,0.42436575317382813,0.04037053023056411,-0.029042360495586353,-0.001740349764934262,0.7951362133026123,2019-06-20 14:44:31:072
7.414729125976562,-4.1371171874999995,0.4028182678222656,0.04010421412155619,-0.028642886332074468,-0.0021398239284461476,0.8000001907348633,2019-06-20 14:44:31:077
7.426699951171875,-4.1095842895507815,0.4339424133300781,0.039837898012548265,-0.029441834659098238,-0.003071930309973881,0.8051199913024902,2019-06-20 14:44:31:082
7.418320373535156,-4.1227521972656245,0.41598617553710937,0.040503688285068076,-0.02784393800505069,-0.002805614200965957,0.8099842071533203,2019-06-20 14:44:31:087
7.424305786132813,-4.1227521972656245,0.4387307434082031,0.04116947855758789,-0.028243412168562583,-0.0024061400374540713,0.8151040077209473,2019-06-20 14:44:31:092
7.4075466308593745,-4.119160949707031,0.45429281616210937,0.04116947855758789,-0.028642886332074468,-0.002938772255469919,0.8199679851531982,2019-06-20 14:44:31:097
7.429094116210937,-4.1083872070312495,0.44232199096679686,0.041302636612091846,-0.029974466877114084,-0.0036045625279897287,0.8250880241394043,2019-06-20 14:44:31:102
7.414729125976562,-4.102401794433594,0.4411249084472656,0.040503688285068076,-0.029974466877114084,-0.0020066658739421855,0.8299520015716553,2019-06-20 14:44:31:107
7.426699951171875,-4.140708435058594,0.43753366088867185,0.04156895272109977,-0.0295749927136022,-0.0024061400374540713,0.8350720405578613,2019-06-20 14:44:31:112
7.4362766113281245,-4.121555114746093,0.43753366088867185,0.042367901048123546,-0.028642886332074468,-0.0021398239284461476,0.8399360179901123,2019-06-20 14:44:31:117
7.414729125976562,-4.132328857421875,0.42316867065429686,0.04116947855758789,-0.029042360495586353,-0.0021398239284461476,0.8450560569763184,2019-06-20 14:44:31:122
7.389590393066406,-4.134723022460937,0.4135920104980469,0.04103632050308392,-0.028376570223066545,-0.0013408756014223761,0.8499200344085693,2019-06-20 14:44:31:127
7.382407897949219,-4.129934692382812,0.4399278259277344,0.04090316244857996,-0.029308676604594276,-0.0021398239284461476,0.8550400733947754,2019-06-20 14:44:31:132
7.387196228027344,-4.135920104980468,0.4578840637207031,0.040503688285068076,-0.02890920244108239,-0.001740349764934262,0.8599040508270264,2019-06-20 14:44:31:137
7.3740283203125,-4.164650085449218,0.4399278259277344,0.041302636612091846,-0.028376570223066545,-0.0020066658739421855,0.8650240898132324,2019-06-20 14:44:31:142
7.385999145507812,-4.119160949707031,0.45429281616210937,0.04183526883010769,-0.02704498967802692,-0.0020066658739421855,0.8701441287994385,2019-06-20 14:44:31:147
7.400364135742187,-4.152679260253906,0.4507015686035156,0.04143579466659581,-0.02784393800505069,-0.0037377205824936904,0.8750081062316895,2019-06-20 14:44:31:152
7.4075466308593745,-4.147890930175781,0.4399278259277344,0.040770004394076,-0.02691183162352296,-0.0033382464189818046,0.8801281452178955,2019-06-20 14:44:31:157
7.4075466308593745,-4.129934692382812,0.44351907348632813,0.04103632050308392,-0.028376570223066545,-0.002672456146461995,0.8849921226501465,2019-06-20 14:44:31:162
7.414729125976562,-4.114372619628906,0.4471103210449219,0.041702110775603735,-0.02811025411405862,-0.0025392980919580334,0.8901121616363525,2019-06-20 14:44:31:167
7.406349548339843,-4.1227521972656245,0.4578840637207031,0.041302636612091846,-0.02877604438657843,-0.0022729819829501096,0.8949761390686035,2019-06-20 14:44:31:172
7.417123291015625,-4.132328857421875,0.44950448608398436,0.04090316244857996,-0.02797709605955466,-0.0009414014379104903,0.9000961780548096,2019-06-20 14:44:31:177
7.40275830078125,-4.134723022460937,0.46386947631835934,0.04116947855758789,-0.02890920244108239,-0.0021398239284461476,0.9049601554870605,2019-06-20 14:44:31:182
7.395575805664063,-4.135920104980468,0.46865780639648436,0.04143579466659581,-0.029175518550090315,-0.003071930309973881,0.9100801944732666,2019-06-20 14:44:31:187
7.40275830078125,-4.145496765136719,0.4794315490722656,0.04143579466659581,-0.028509728277570506,-0.003071930309973881,0.9149441719055176,2019-06-20 14:44:31:192
7.430291198730469,-4.14669384765625,0.4530957336425781,0.04023737217606015,-0.029175518550090315,-0.002672456146461995,0.9200642108917236,2019-06-20 14:44:31:197
7.445853271484375,-4.135920104980468,0.4195774230957031,0.04116947855758789,-0.028509728277570506,-0.0024061400374540713,0.9249281883239746,2019-06-20 14:44:31:202
7.426699951171875,-4.119160949707031,0.42436575317382813,0.041302636612091846,-0.02890920244108239,-0.0025392980919580334,0.9300479888916016,2019-06-20 14:44:31:207
7.432685363769531,-4.120358032226562,0.4518986511230469,0.041302636612091846,-0.028376570223066545,-0.002805614200965957,0.9349122047424316,2019-06-20 14:44:31:212
7.405152465820312,-4.1239492797851565,0.4459132385253906,0.040770004394076,-0.027311305787034845,-0.003071930309973881,0.9400320053100586,2019-06-20 14:44:31:217
7.377619567871093,-4.120358032226562,0.4602782287597656,0.040636846339572034,-0.026512357460011075,-0.0037377205824936904,0.9448959827423096,2019-06-20 14:44:31:222
7.405152465820312,-4.152679260253906,0.41119784545898436,0.04090316244857996,-0.02691183162352296,-0.003071930309973881,0.9500160217285156,2019-06-20 14:44:31:227
7.377619567871093,-4.140708435058594,0.42316867065429686,0.04103632050308392,-0.027577621896042768,-0.0025392980919580334,0.9551360607147217,2019-06-20 14:44:31:232
7.414729125976562,-4.155073425292969,0.4590811462402344,0.04090316244857996,-0.02890920244108239,-0.0024061400374540713,0.9600000381469727,2019-06-20 14:44:31:237
7.403955383300781,-4.145496765136719,0.44950448608398436,0.04103632050308392,-0.030107624931618046,-0.0024061400374540713,0.9651200771331787,2019-06-20 14:44:31:242
7.4123349609375,-4.149088012695312,0.4315482482910156,0.04090316244857996,-0.029175518550090315,-0.0018735078194382236,0.9699840545654297,2019-06-20 14:44:31:247
7.4075466308593745,-4.125146362304688,0.4016211853027344,0.04023737217606015,-0.02970815076810616,-0.0022729819829501096,0.9751040935516357,2019-06-20 14:44:31:252
7.415926208496094,-4.120358032226562,0.42436575317382813,0.03997105606705223,-0.02890920244108239,-0.002672456146461995,0.9799680709838867,2019-06-20 14:44:31:257
7.387196228027344,-4.092825134277343,0.44351907348632813,0.040770004394076,-0.029042360495586353,-0.0018735078194382236,0.9850881099700928,2019-06-20 14:44:31:262
7.377619567871093,-4.120358032226562,0.5021761169433594,0.040636846339572034,-0.02890920244108239,-0.0018735078194382236,0.9899520874023438,2019-06-20 14:44:31:267
7.387196228027344,-4.12754052734375,0.47344613647460937,0.03997105606705223,-0.027577621896042768,-0.0010745594924144524,0.9950721263885498,2019-06-20 14:44:31:272
7.388393310546875,-4.132328857421875,0.4315482482910156,0.04023737217606015,-0.027311305787034845,-0.0024061400374540713,0.9999361038208008,2019-06-20 14:44:31:277
7.399167053222656,-4.1562705078125,0.4207745056152344,0.040503688285068076,-0.02771077995054673,-0.003205088364477843,1.0050561428070068,2019-06-20 14:44:31:282
7.4219116210937495,-4.141905517578125,0.45429281616210937,0.041702110775603735,-0.028509728277570506,-0.003205088364477843,1.0099201202392578,2019-06-20 14:44:31:287
7.4123349609375,-4.158664672851563,0.4471103210449219,0.04156895272109977,-0.028642886332074468,-0.003071930309973881,1.0150401592254639,2019-06-20 14:44:31:292
7.388393310546875,-4.144299682617188,0.4339424133300781,0.04156895272109977,-0.029042360495586353,-0.0033382464189818046,1.0199041366577148,2019-06-20 14:44:31:297
7.4087437133789065,-4.145496765136719,0.4327453308105469,0.041702110775603735,-0.028243412168562583,-0.002805614200965957,1.025024175643921,2019-06-20 14:44:31:302
7.385999145507812,-4.141905517578125,0.40401535034179686,0.04143579466659581,-0.029308676604594276,-0.003071930309973881,1.030144214630127,2019-06-20 14:44:31:307
7.4075466308593745,-4.140708435058594,0.4279570007324219,0.04103632050308392,-0.02970815076810616,-0.003205088364477843,1.035008192062378,2019-06-20 14:44:31:312
7.391984558105468,-4.141905517578125,0.41598617553710937,0.040636846339572034,-0.02890920244108239,-0.002672456146461995,1.0401279926300049,2019-06-20 14:44:31:317
7.406349548339843,-4.132328857421875,0.45548989868164064,0.04090316244857996,-0.02811025411405862,-0.0037377205824936904,1.044992208480835,2019-06-20 14:44:31:322
7.411137878417969,-4.158664672851563,0.4411249084472656,0.041702110775603735,-0.028243412168562583,-0.0038708786369976524,1.050112009048462,2019-06-20 14:44:31:327
7.390787475585937,-4.133525939941406,0.43035116577148436,0.04156895272109977,-0.028642886332074468,-0.0040040366915016145,1.054975986480713,2019-06-20 14:44:31:332
7.411137878417969,-4.143102600097656,0.4327453308105469,0.042101584939115616,-0.029308676604594276,-0.0040040366915016145,1.060096025466919,2019-06-20 14:44:31:337
7.403955383300781,-4.1538763427734375,0.43633657836914064,0.04103632050308392,-0.0295749927136022,-0.0040040366915016145,1.06496000289917,2019-06-20 14:44:31:342
7.411137878417969,-4.1395113525390625,0.44351907348632813,0.04103632050308392,-0.028376570223066545,-0.0038708786369976524,1.070080041885376,2019-06-20 14:44:31:347
7.409940795898438,-4.1682413330078125,0.4602782287597656,0.04143579466659581,-0.029175518550090315,-0.004669826964021424,1.074944019317627,2019-06-20 14:44:31:352
7.418320373535156,-4.1395113525390625,0.42316867065429686,0.04183526883010769,-0.030240782986122008,-0.005468775291045195,1.080064058303833,2019-06-20 14:44:31:357
7.391984558105468,-4.141905517578125,0.41119784545898436,0.041302636612091846,-0.029974466877114084,-0.005335617236541234,1.084928035736084,2019-06-20 14:44:31:362
7.3656487426757815,-4.147890930175781,0.3908474426269531,0.042501059102627504,-0.029042360495586353,-0.0050693011275333094,1.09004807472229,2019-06-20 14:44:31:367
7.382407897949219,-4.152679260253906,0.4315482482910156,0.04303369132064335,-0.030240782986122008,-0.006267723618068967,1.094912052154541,2019-06-20 14:44:31:372
7.387196228027344,-4.145496765136719,0.4578840637207031,0.04276737521163543,-0.03037394104062597,-0.0064008816725729285,1.100032091140747,2019-06-20 14:44:31:377
7.409940795898438,-4.1383142700195314,0.44232199096679686,0.04196842688461166,-0.03050709909512993,-0.0064008816725729285,1.104896068572998,2019-06-20 14:44:31:382
7.388393310546875,-4.144299682617188,0.44950448608398436,0.042101584939115616,-0.029974466877114084,-0.005868249454557082,1.110016107559204,2019-06-20 14:44:31:387
7.366845825195313,-4.1395113525390625,0.41838034057617185,0.04183526883010769,-0.029175518550090315,-0.006800355836084815,1.1151361465454102,2019-06-20 14:44:31:392
7.405152465820312,-4.134723022460937,0.44471615600585934,0.04143579466659581,-0.02970815076810616,-0.006667197781580852,1.1200001239776611,2019-06-20 14:44:31:397
7.4075466308593745,-4.140708435058594,0.4411249084472656,0.04263421715713147,-0.028642886332074468,-0.005601933345549157,1.1251201629638672,2019-06-20 14:44:31:402
7.390787475585937,-4.1239492797851565,0.4327453308105469,0.04196842688461166,-0.02970815076810616,-0.0057350914000531186,1.1299841403961182,2019-06-20 14:44:31:407
7.409940795898438,-4.1395113525390625,0.44232199096679686,0.04183526883010769,-0.029974466877114084,-0.0064008816725729285,1.1351041793823242,2019-06-20 14:44:31:412
7.414729125976562,-4.164650085449218,0.4399278259277344,0.041702110775603735,-0.03157236353116163,-0.00653403972707689,1.1399681568145752,2019-06-20 14:44:31:417
7.376422485351562,-4.1395113525390625,0.44471615600585934,0.04183526883010769,-0.030240782986122008,-0.007599304163108585,1.1450881958007812,2019-06-20 14:44:31:422
7.400364135742187,-4.140708435058594,0.4578840637207031,0.042501059102627504,-0.029974466877114084,-0.00653403972707689,1.1499521732330322,2019-06-20 14:44:31:427
7.389590393066406,-4.12754052734375,0.4339424133300781,0.04263421715713147,-0.03050709909512993,-0.006134565563565005,1.1550722122192383,2019-06-20 14:44:31:432
7.424305786132813,-4.141905517578125,0.41718325805664064,0.042101584939115616,-0.02970815076810616,-0.0064008816725729285,1.1599361896514893,2019-06-20 14:44:31:437
7.395575805664063,-4.171832580566406,0.4399278259277344,0.04223474299361958,-0.03117288936764974,-0.0077324622176125485,1.1650559902191162,2019-06-20 14:44:31:442
7.403955383300781,-4.1562705078125,0.4315482482910156,0.041702110775603735,-0.03143920547665766,-0.0071998299995967,1.1699202060699463,2019-06-20 14:44:31:447
7.405152465820312,-4.147890930175781,0.42436575317382813,0.04156895272109977,-0.03037394104062597,-0.00653403972707689,1.1750400066375732,2019-06-20 14:44:31:452
7.384802062988281,-4.1239492797851565,0.4135920104980469,0.04156895272109977,-0.03050709909512993,-0.007332988054100662,1.1799039840698242,2019-06-20 14:44:31:457
7.43148828125,-4.170635498046875,0.4483074035644531,0.042367901048123546,-0.029175518550090315,-0.006667197781580852,1.1850240230560303,2019-06-20 14:44:31:462
7.413532043457031,-4.162255920410156,0.46147531127929686,0.041302636612091846,-0.0295749927136022,-0.007599304163108585,1.1901440620422363,2019-06-20 14:44:31:467
7.387196228027344,-4.150285095214843,0.42436575317382813,0.04143579466659581,-0.029441834659098238,-0.006933513890588777,1.1950080394744873,2019-06-20 14:44:31:472
7.406349548339843,-4.1395113525390625,0.4411249084472656,0.04156895272109977,-0.029175518550090315,-0.0071998299995967,1.2001280784606934,2019-06-20 14:44:31:477
7.414729125976562,-4.1538763427734375,0.47584030151367185,0.04143579466659581,-0.02877604438657843,-0.006933513890588777,1.2049920558929443,2019-06-20 14:44:31:482
7.43148828125,-4.167044250488281,0.4279570007324219,0.041302636612091846,-0.029441834659098238,-0.0070666719450927385,1.2101120948791504,2019-06-20 14:44:31:487
7.419517456054687,-4.157467590332031,0.4339424133300781,0.042367901048123546,-0.03037394104062597,-0.007332988054100662,1.2149760723114014,2019-06-20 14:44:31:492
7.424305786132813,-4.131131774902344,0.44232199096679686,0.041702110775603735,-0.029974466877114084,-0.007599304163108585,1.2200961112976074,2019-06-20 14:44:31:497
7.4219116210937495,-4.140708435058594,0.43035116577148436,0.041702110775603735,-0.029841308822610123,-0.00786562027211651,1.2249600887298584,2019-06-20 14:44:31:502
7.418320373535156,-4.144299682617188,0.44232199096679686,0.04143579466659581,-0.029441834659098238,-0.00786562027211651,1.2300801277160645,2019-06-20 14:44:31:507
7.401561218261719,-4.145496765136719,0.4291540832519531,0.04183526883010769,-0.02890920244108239,-0.007998778326620472,1.2349441051483154,2019-06-20 14:44:31:512
7.414729125976562,-4.1395113525390625,0.4650665588378906,0.042101584939115616,-0.02970815076810616,-0.00786562027211651,1.2400641441345215,2019-06-20 14:44:31:517
7.405152465820312,-4.145496765136719,0.4590811462402344,0.042101584939115616,-0.03050709909512993,-0.008398252490132357,1.2449281215667725,2019-06-20 14:44:31:522
7.425502868652344,-4.149088012695312,0.4291540832519531,0.04276737521163543,-0.030240782986122008,-0.008398252490132357,1.2500481605529785,2019-06-20 14:44:31:527
7.413532043457031,-4.152679260253906,0.4076065979003906,0.04223474299361958,-0.029441834659098238,-0.0077324622176125485,1.2549121379852295,2019-06-20 14:44:31:532
7.4231087036132815,-4.155073425292969,0.41718325805664064,0.04156895272109977,-0.029308676604594276,-0.007332988054100662,1.2600321769714355,2019-06-20 14:44:31:537
7.413532043457031,-4.1562705078125,0.4279570007324219,0.04196842688461166,-0.03117288936764974,-0.007998778326620472,1.2651522159576416,2019-06-20 14:44:31:542
7.391984558105468,-4.1395113525390625,0.4530957336425781,0.042367901048123546,-0.030773415204137854,-0.00786562027211651,1.2700161933898926,2019-06-20 14:44:31:547
7.396772888183594,-4.1239492797851565,0.43035116577148436,0.04263421715713147,-0.03037394104062597,-0.008131936381124433,1.2751359939575195,2019-06-20 14:44:31:552
7.400364135742187,-4.121555114746093,0.43753366088867185,0.04276737521163543,-0.02970815076810616,-0.008131936381124433,1.2800002098083496,2019-06-20 14:44:31:557
7.4231087036132815,-4.140708435058594,0.4674607238769531,0.04116947855758789,-0.029974466877114084,-0.00933035887166009,1.2851200103759766,2019-06-20 14:44:31:562
7.415926208496094,-4.152679260253906,0.46386947631835934,0.04143579466659581,-0.029841308822610123,-0.008797726653644243,1.2899839878082275,2019-06-20 14:44:31:567
7.397969970703125,-4.134723022460937,0.4459132385253906,0.041302636612091846,-0.029974466877114084,-0.008797726653644243,1.2951040267944336,2019-06-20 14:44:31:572
7.430291198730469,-4.1371171874999995,0.46147531127929686,0.04090316244857996,-0.028642886332074468,-0.008664568599140282,1.2999680042266846,2019-06-20 14:44:31:577
7.411137878417969,-4.121555114746093,0.4267599182128906,0.039704739958044306,-0.029308676604594276,-0.008265094435628395,1.3050880432128906,2019-06-20 14:44:31:582
7.4231087036132815,-4.129934692382812,0.43513949584960937,0.03997105606705223,-0.028376570223066545,-0.006667197781580852,1.3099520206451416,2019-06-20 14:44:31:587
7.4362766113281245,-4.12754052734375,0.45668698120117185,0.040770004394076,-0.028642886332074468,-0.0071998299995967,1.3150720596313477,2019-06-20 14:44:31:592
7.4123349609375,-4.120358032226562,0.45668698120117185,0.03957158190354034,-0.029175518550090315,-0.0070666719450927385,1.3199360370635986,2019-06-20 14:44:31:597
7.391984558105468,-4.134723022460937,0.4662636413574219,0.039038949685524495,-0.029441834659098238,-0.0070666719450927385,1.3250560760498047,2019-06-20 14:44:31:602
7.399167053222656,-4.129934692382812,0.47464321899414064,0.038905791631020537,-0.030240782986122008,-0.0074661461086046235,1.3299200534820557,2019-06-20 14:44:31:607
7.418320373535156,-4.134723022460937,0.4710519714355469,0.03943842384903638,-0.029441834659098238,-0.008131936381124433,1.3350400924682617,2019-06-20 14:44:31:612
7.397969970703125,-4.121555114746093,0.4590811462402344,0.03997105606705223,-0.02877604438657843,-0.0074661461086046235,1.3399040699005127,2019-06-20 14:44:31:617
7.382407897949219,-4.133525939941406,0.4782344665527344,0.039038949685524495,-0.029841308822610123,-0.006800355836084815,1.3450241088867188,2019-06-20 14:44:31:622
7.400364135742187,-4.128737609863281,0.49499362182617185,0.03917210774002846,-0.030107624931618046,-0.0070666719450927385,1.3501441478729248,2019-06-20 14:44:31:627
7.399167053222656,-4.135920104980468,0.4794315490722656,0.03930526579453242,-0.029441834659098238,-0.008398252490132357,1.3550081253051758,2019-06-20 14:44:31:632
7.406349548339843,-4.140708435058594,0.4076065979003906,0.039038949685524495,-0.02877604438657843,-0.0074661461086046235,1.3601281642913818,2019-06-20 14:44:31:637
7.409940795898438,-4.125146362304688,0.4327453308105469,0.03943842384903638,-0.02890920244108239,-0.006933513890588777,1.3649921417236328,2019-06-20 14:44:31:642
7.3788166503906245,-4.135920104980468,0.42556283569335934,0.03957158190354034,-0.028376570223066545,-0.008398252490132357,1.3701121807098389,2019-06-20 14:44:31:647
7.38360498046875,-4.14669384765625,0.4135920104980469,0.03917210774002846,-0.02797709605955466,-0.008531410544636318,1.3749761581420898,2019-06-20 14:44:31:652
7.370437072753906,-4.162255920410156,0.44950448608398436,0.04037053023056411,-0.028243412168562583,-0.00786562027211651,1.380096197128296,2019-06-20 14:44:31:657
7.388393310546875,-4.163453002929687,0.4100007629394531,0.039837898012548265,-0.029042360495586353,-0.008265094435628395,1.3849601745605469,2019-06-20 14:44:31:662
7.405152465820312,-4.1562705078125,0.45668698120117185,0.03957158190354034,-0.02811025411405862,-0.008265094435628395,1.390080213546753,2019-06-20 14:44:31:667
7.419517456054687,-4.149088012695312,0.4207745056152344,0.04143579466659581,-0.02890920244108239,-0.008531410544636318,1.394944190979004,2019-06-20 14:44:31:672
7.4075466308593745,-4.140708435058594,0.4483074035644531,0.042367901048123546,-0.028642886332074468,-0.008930884708148205,1.4000639915466309,2019-06-20 14:44:31:677
7.385999145507812,-4.140708435058594,0.41718325805664064,0.04143579466659581,-0.028243412168562583,-0.008531410544636318,1.404928207397461,2019-06-20 14:44:31:682
7.420714538574218,-4.147890930175781,0.4399278259277344,0.040636846339572034,-0.028642886332074468,-0.009064042762652167,1.410048007965088,2019-06-20 14:44:31:687
7.389590393066406,-4.170635498046875,0.4710519714355469,0.04116947855758789,-0.028509728277570506,-0.009463516926164052,1.4149119853973389,2019-06-20 14:44:31:692
7.3740283203125,-4.170635498046875,0.4327453308105469,0.04263421715713147,-0.0295749927136022,-0.009463516926164052,1.420032024383545,2019-06-20 14:44:31:697
7.377619567871093,-4.144299682617188,0.4135920104980469,0.04183526883010769,-0.030640257149633893,-0.009729833035171977,1.424896001815796,2019-06-20 14:44:31:702
7.38360498046875,-4.167044250488281,0.4267599182128906,0.042101584939115616,-0.029308676604594276,-0.010528781362195748,1.430016040802002,2019-06-20 14:44:31:707
7.399167053222656,-4.169438415527344,0.43633657836914064,0.04223474299361958,-0.02890920244108239,-0.011061413580211595,1.435136079788208,2019-06-20 14:44:31:712
7.397969970703125,-4.147890930175781,0.4088036804199219,0.042367901048123546,-0.029441834659098238,-0.011460887743723482,1.440000057220459,2019-06-20 14:44:31:717
7.363254577636718,-4.1538763427734375,0.3944386901855469,0.043300007429651274,-0.02890920244108239,-0.011727203852731405,1.445120096206665,2019-06-20 14:44:31:722
7.382407897949219,-4.162255920410156,0.38605911254882813,0.0435663235386592,-0.02970815076810616,-0.011727203852731405,1.449984073638916,2019-06-20 14:44:31:727
7.399167053222656,-4.161058837890625,0.4339424133300781,0.0435663235386592,-0.02890920244108239,-0.012259836070747251,1.455104112625122,2019-06-20 14:44:31:732
7.418320373535156,-4.163453002929687,0.4471103210449219,0.042101584939115616,-0.028376570223066545,-0.012259836070747251,1.459968090057373,2019-06-20 14:44:31:737
7.406349548339843,-4.132328857421875,0.44950448608398436,0.042501059102627504,-0.028243412168562583,-0.012526152179755175,1.465088129043579,2019-06-20 14:44:31:742
7.3788166503906245,-4.129934692382812,0.44471615600585934,0.04276737521163543,-0.028509728277570506,-0.013591416615786871,1.46995210647583,2019-06-20 14:44:31:747
7.360860412597656,-4.162255920410156,0.44950448608398436,0.042501059102627504,-0.02691183162352296,-0.01265931023425914,1.4750721454620361,2019-06-20 14:44:31:752
7.38360498046875,-4.161058837890625,0.4387307434082031,0.043166849375147316,-0.02784393800505069,-0.012925626343267063,1.479936122894287,2019-06-20 14:44:31:757
7.38360498046875,-4.173029663085938,0.45548989868164064,0.043166849375147316,-0.028376570223066545,-0.013325100506778948,1.4850561618804932,2019-06-20 14:44:31:762
7.413532043457031,-4.150285095214843,0.41119784545898436,0.041702110775603735,-0.027444463841538806,-0.014656681051818568,1.4899201393127441,2019-06-20 14:44:31:767
7.4075466308593745,-4.174226745605469,0.4590811462402344,0.04263421715713147,-0.029441834659098238,-0.01425720688830668,1.4950401782989502,2019-06-20 14:44:31:772
7.391984558105468,-4.158664672851563,0.4770373840332031,0.04303369132064335,-0.028642886332074468,-0.01478983910632253,1.4999041557312012,2019-06-20 14:44:31:777
7.4075466308593745,-4.152679260253906,0.4267599182128906,0.042501059102627504,-0.028376570223066545,-0.016121419651362146,1.5050241947174072,2019-06-20 14:44:31:782
7.385999145507812,-4.152679260253906,0.43035116577148436,0.04290053326613939,-0.02890920244108239,-0.017186684087393843,1.5101439952850342,2019-06-20 14:44:31:787
7.354875,-4.169438415527344,0.4100007629394531,0.043166849375147316,-0.02771077995054673,-0.017319842141897804,1.5150082111358643,2019-06-20 14:44:31:792
7.400364135742187,-4.149088012695312,0.42436575317382813,0.04303369132064335,-0.02784393800505069,-0.017719317345706993,1.5201280117034912,2019-06-20 14:44:31:797
7.3943787231445315,-4.1395113525390625,0.4650665588378906,0.042367901048123546,-0.027311305787034845,-0.017719317345706993,1.5249919891357422,2019-06-20 14:44:31:802
7.3788166503906245,-4.140708435058594,0.42556283569335934,0.04183526883010769,-0.027311305787034845,-0.017985633454714916,1.5301120281219482,2019-06-20 14:44:31:807
7.401561218261719,-4.141905517578125,0.4315482482910156,0.04196842688461166,-0.028243412168562583,-0.018917739836242647,1.5349760055541992,2019-06-20 14:44:31:812
7.399167053222656,-4.161058837890625,0.4698548889160156,0.04276737521163543,-0.028243412168562583,-0.018518265672730762,1.5400960445404053,2019-06-20 14:44:31:817
7.397969970703125,-4.135920104980468,0.4518986511230469,0.042501059102627504,-0.029042360495586353,-0.018518265672730762,1.5449600219726562,2019-06-20 14:44:31:822
7.4123349609375,-4.134723022460937,0.48182571411132813,0.04290053326613939,-0.02797709605955466,-0.018784581781738686,1.5500800609588623,2019-06-20 14:44:31:827
7.399167053222656,-4.133525939941406,0.4590811462402344,0.04263421715713147,-0.028509728277570506,-0.01918405594525057,1.5549440383911133,2019-06-20 14:44:31:832
7.3740283203125,-4.140708435058594,0.4195774230957031,0.04196842688461166,-0.02797709605955466,-0.018917739836242647,1.5600640773773193,2019-06-20 14:44:31:837
7.395575805664063,-4.155073425292969,0.43753366088867185,0.04223474299361958,-0.028376570223066545,-0.018917739836242647,1.5649280548095703,2019-06-20 14:44:31:842
7.385999145507812,-4.157467590332031,0.4518986511230469,0.042101584939115616,-0.02784393800505069,-0.018651423727234724,1.5700480937957764,2019-06-20 14:44:31:847
7.353677917480469,-4.150285095214843,0.43633657836914064,0.04290053326613939,-0.02811025411405862,-0.018784581781738686,1.5749120712280273,2019-06-20 14:44:31:852
7.400364135742187,-4.150285095214843,0.4135920104980469,0.042367901048123546,-0.028243412168562583,-0.018917739836242647,1.5800321102142334,2019-06-20 14:44:31:857
7.4087437133789065,-4.140708435058594,0.4267599182128906,0.04183526883010769,-0.029175518550090315,-0.02038247843578623,1.5848960876464844,2019-06-20 14:44:31:862
7.411137878417969,-4.103598876953125,0.4088036804199219,0.042101584939115616,-0.029175518550090315,-0.019849846217770382,1.5900161266326904,2019-06-20 14:44:31:867
7.425502868652344,-4.0952192993164065,0.4088036804199219,0.04263421715713147,-0.029441834659098238,-0.01905089789074661,1.5951361656188965,2019-06-20 14:44:31:872
7.433882446289062,-4.102401794433594,0.43035116577148436,0.04103632050308392,-0.029841308822610123,-0.018651423727234724,1.6000001430511475,2019-06-20 14:44:31:877
7.409940795898438,-4.1095842895507815,0.4985848693847656,0.042367901048123546,-0.029175518550090315,-0.017985633454714916,1.6051201820373535,2019-06-20 14:44:31:882
7.427897033691406,-4.103598876953125,0.48182571411132813,0.041702110775603735,-0.02890920244108239,-0.017719317345706993,1.6099841594696045,2019-06-20 14:44:31:887
7.403955383300781,-4.116766784667969,0.46147531127929686,0.04183526883010769,-0.028243412168562583,-0.01758615929120303,1.6151041984558105,2019-06-20 14:44:31:892
7.424305786132813,-4.107190124511718,0.46267239379882813,0.04196842688461166,-0.028243412168562583,-0.01758615929120303,1.6199681758880615,2019-06-20 14:44:31:897
7.4123349609375,-4.1083872070312495,0.48062863159179686,0.04183526883010769,-0.02797709605955466,-0.01625457770586611,1.6250882148742676,2019-06-20 14:44:31:902
7.415926208496094,-4.0940222167968745,0.44232199096679686,0.04223474299361958,-0.028243412168562583,-0.017186684087393843,1.6299521923065186,2019-06-20 14:44:31:907
7.413532043457031,-4.082051391601563,0.4076065979003906,0.04143579466659581,-0.02704498967802692,-0.017186684087393843,1.6350719928741455,2019-06-20 14:44:31:912
7.418320373535156,-4.0796572265624995,0.43035116577148436,0.04196842688461166,-0.02811025411405862,-0.016387735760370073,1.6399362087249756,2019-06-20 14:44:31:917
7.401561218261719,-4.105993041992187,0.43753366088867185,0.041702110775603735,-0.027444463841538806,-0.01572194548785026,1.6450560092926025,2019-06-20 14:44:31:922
7.40275830078125,-4.107190124511718,0.47464321899414064,0.042501059102627504,-0.02811025411405862,-0.015455629378842338,1.6499199867248535,2019-06-20 14:44:31:927
7.419517456054687,-4.110781372070313,0.44950448608398436,0.042101584939115616,-0.029308676604594276,-0.01572194548785026,1.6550400257110596,2019-06-20 14:44:31:932
7.419517456054687,-4.1239492797851565,0.47464321899414064,0.040503688285068076,-0.02811025411405862,-0.015455629378842338,1.6599040031433105,2019-06-20 14:44:31:937
7.4231087036132815,-4.120358032226562,0.48182571411132813,0.04037053023056411,-0.02784393800505069,-0.015322471324338376,1.6650240421295166,2019-06-20 14:44:31:942
7.405152465820312,-4.096416381835938,0.4650665588378906,0.040770004394076,-0.02811025411405862,-0.014656681051818568,1.6701440811157227,2019-06-20 14:44:31:947
7.419517456054687,-4.0952192993164065,0.45548989868164064,0.04103632050308392,-0.028376570223066545,-0.013591416615786871,1.6750080585479736,2019-06-20 14:44:31:952
7.430291198730469,-4.092825134277343,0.44471615600585934,0.04090316244857996,-0.02877604438657843,-0.013724574670290833,1.6801280975341797,2019-06-20 14:44:31:957
7.427897033691406,-4.08923388671875,0.4459132385253906,0.04116947855758789,-0.02797709605955466,-0.01212667801624329,1.6849920749664307,2019-06-20 14:44:31:962
7.418320373535156,-4.073671813964844,0.4291540832519531,0.04116947855758789,-0.028509728277570506,-0.011594045798227443,1.6901121139526367,2019-06-20 14:44:31:967
7.414729125976562,-4.096416381835938,0.4483074035644531,0.040770004394076,-0.029175518550090315,-0.012925626343267063,1.6949760913848877,2019-06-20 14:44:31:972
7.396772888183594,-4.110781372070313,0.4674607238769531,0.040770004394076,-0.02970815076810616,-0.011993519961739328,1.7000961303710938,2019-06-20 14:44:31:977
7.4075466308593745,-4.091628051757812,0.41598617553710937,0.04037053023056411,-0.02970815076810616,-0.011594045798227443,1.7049601078033447,2019-06-20 14:44:31:982
7.430291198730469,-4.08923388671875,0.46386947631835934,0.041302636612091846,-0.02970815076810616,-0.011594045798227443,1.7100801467895508,2019-06-20 14:44:31:987
7.433882446289062,-4.097613464355469,0.46267239379882813,0.04037053023056411,-0.029175518550090315,-0.010928255525707633,1.7149441242218018,2019-06-20 14:44:31:992
7.450641601562499,-4.0796572265624995,0.4387307434082031,0.03930526579453242,-0.028509728277570506,-0.010795097471203672,1.7200641632080078,2019-06-20 14:44:31:997
7.411137878417969,-4.0940222167968745,0.43633657836914064,0.03943842384903638,-0.0295749927136022,-0.009862991089675938,1.7249281406402588,2019-06-20 14:44:32:002
7.411137878417969,-4.12754052734375,0.4518986511230469,0.040503688285068076,-0.030107624931618046,-0.008797726653644243,1.7300481796264648,2019-06-20 14:44:32:007
7.3943787231445315,-4.134723022460937,0.4315482482910156,0.04010421412155619,-0.030107624931618046,-0.009463516926164052,1.7349121570587158,2019-06-20 14:44:32:012
7.417123291015625,-4.119160949707031,0.4399278259277344,0.03997105606705223,-0.030773415204137854,-0.009463516926164052,1.7400321960449219,2019-06-20 14:44:32:017
7.390787475585937,-4.1083872070312495,0.4387307434082031,0.03930526579453242,-0.030640257149633893,-0.010395623307691787,1.7448961734771729,2019-06-20 14:44:32:022
7.419517456054687,-4.107190124511718,0.45429281616210937,0.03957158190354034,-0.030240782986122008,-0.009729833035171977,1.750016212463379,2019-06-20 14:44:32:027
7.426699951171875,-4.114372619628906,0.4411249084472656,0.03917210774002846,-0.029441834659098238,-0.008265094435628395,1.7551360130310059,2019-06-20 14:44:32:032
7.427897033691406,-4.119160949707031,0.4483074035644531,0.03943842384903638,-0.029308676604594276,-0.007998778326620472,1.7599999904632568,2019-06-20 14:44:32:037
7.429094116210937,-4.1083872070312495,0.44351907348632813,0.03957158190354034,-0.028642886332074468,-0.007998778326620472,1.765120029449463,2019-06-20 14:44:32:042
7.426699951171875,-4.131131774902344,0.4387307434082031,0.039704739958044306,-0.030240782986122008,-0.009862991089675938,1.7699840068817139,2019-06-20 14:44:32:047
7.429094116210937,-4.1239492797851565,0.4327453308105469,0.03957158190354034,-0.0295749927136022,-0.009064042762652167,1.77510404586792,2019-06-20 14:44:32:052
7.411137878417969,-4.129934692382812,0.41119784545898436,0.03997105606705223,-0.0295749927136022,-0.008664568599140282,1.779968023300171,2019-06-20 14:44:32:057
7.4362766113281245,-4.120358032226562,0.4088036804199219,0.039704739958044306,-0.029441834659098238,-0.008531410544636318,1.785088062286377,2019-06-20 14:44:32:062
7.4362766113281245,-4.1227521972656245,0.4459132385253906,0.03930526579453242,-0.030906573258641816,-0.007998778326620472,1.789952039718628,2019-06-20 14:44:32:067
7.439867858886719,-4.1227521972656245,0.4267599182128906,0.03997105606705223,-0.029841308822610123,-0.007998778326620472,1.795072078704834,2019-06-20 14:44:32:072
7.418320373535156,-4.1395113525390625,0.46865780639648436,0.04023737217606015,-0.028509728277570506,-0.008131936381124433,1.799936056137085,2019-06-20 14:44:32:077
7.46021826171875,-4.116766784667969,0.44232199096679686,0.04037053023056411,-0.028509728277570506,-0.008797726653644243,1.805056095123291,2019-06-20 14:44:32:082
7.463809509277343,-4.121555114746093,0.43513949584960937,0.040636846339572034,-0.02890920244108239,-0.008797726653644243,1.809920072555542,2019-06-20 14:44:32:087
7.420714538574218,-4.121555114746093,0.3884532775878906,0.040636846339572034,-0.029441834659098238,-0.008797726653644243,1.815040111541748,2019-06-20 14:44:32:092
7.397969970703125,-4.125146362304688,0.42316867065429686,0.04037053023056411,-0.03143920547665766,-0.009064042762652167,1.819904088973999,2019-06-20 14:44:32:097
7.409940795898438,-4.096416381835938,0.44351907348632813,0.04090316244857996,-0.03117288936764974,-0.008265094435628395,1.825024127960205,2019-06-20 14:44:32:102
7.442262023925781,-4.125146362304688,0.48182571411132813,0.04196842688461166,-0.030107624931618046,-0.008664568599140282,1.8301441669464111,2019-06-20 14:44:32:107
7.377619567871093,-4.104795959472656,0.4854169616699219,0.041302636612091846,-0.03037394104062597,-0.010395623307691787,1.835008144378662,2019-06-20 14:44:32:112
7.426699951171875,-4.103598876953125,0.4578840637207031,0.04183526883010769,-0.029175518550090315,-0.009729833035171977,1.8401281833648682,2019-06-20 14:44:32:117
7.409940795898438,-4.103598876953125,0.43753366088867185,0.04103632050308392,-0.02877604438657843,-0.009862991089675938,1.8449921607971191,2019-06-20 14:44:32:122
7.4075466308593745,-4.140708435058594,0.46267239379882813,0.040636846339572034,-0.02890920244108239,-0.010129307198683862,1.8501121997833252,2019-06-20 14:44:32:127
7.405152465820312,-4.126343444824219,0.43753366088867185,0.04037053023056411,-0.029441834659098238,-0.009862991089675938,1.8549761772155762,2019-06-20 14:44:32:132
7.425502868652344,-4.1239492797851565,0.4459132385253906,0.04090316244857996,-0.029308676604594276,-0.010395623307691787,1.8600962162017822,2019-06-20 14:44:32:137
7.415926208496094,-4.1239492797851565,0.39683285522460937,0.040636846339572034,-0.028376570223066545,-0.009862991089675938,1.8649601936340332,2019-06-20 14:44:32:142
7.419517456054687,-4.114372619628906,0.44950448608398436,0.040770004394076,-0.028243412168562583,-0.009729833035171977,1.8700799942016602,2019-06-20 14:44:32:147
7.424305786132813,-4.1095842895507815,0.40401535034179686,0.040503688285068076,-0.029042360495586353,-0.009596674980668015,1.8749442100524902,2019-06-20 14:44:32:152
7.40275830078125,-4.097613464355469,0.3932416076660156,0.04090316244857996,-0.028509728277570506,-0.009463516926164052,1.8800640106201172,2019-06-20 14:44:32:157
7.418320373535156,-4.102401794433594,0.46386947631835934,0.04010421412155619,-0.029308676604594276,-0.010129307198683862,1.8849279880523682,2019-06-20 14:44:32:162
7.3943787231445315,-4.134723022460937,0.4291540832519531,0.040503688285068076,-0.028376570223066545,-0.009596674980668015,1.8900480270385742,2019-06-20 14:44:32:167
7.413532043457031,-4.135920104980468,0.3932416076660156,0.040503688285068076,-0.027577621896042768,-0.009729833035171977,1.8949120044708252,2019-06-20 14:44:32:172
7.43148828125,-4.131131774902344,0.42316867065429686,0.04116947855758789,-0.02691183162352296,-0.008797726653644243,1.9000320434570312,2019-06-20 14:44:32:177
7.4362766113281245,-4.1227521972656245,0.4315482482910156,0.042101584939115616,-0.027577621896042768,-0.008664568599140282,1.9051520824432373,2019-06-20 14:44:32:182
7.447050354003906,-4.098810546875,0.41838034057617185,0.04196842688461166,-0.028509728277570506,-0.008930884708148205,1.9100160598754883,2019-06-20 14:44:32:187
7.4219116210937495,-4.111978454589844,0.43513949584960937,0.04183526883010769,-0.028642886332074468,-0.00933035887166009,1.9151360988616943,2019-06-20 14:44:32:192
7.4075466308593745,-4.129934692382812,0.4483074035644531,0.04303369132064335,-0.026512357460011075,-0.009463516926164052,1.9200000762939453,2019-06-20 14:44:32:197
7.403955383300781,-4.121555114746093,0.39204452514648436,0.04223474299361958,-0.028509728277570506,-0.009862991089675938,1.9251201152801514,2019-06-20 14:44:32:202
7.443459106445312,-4.100007629394531,0.4339424133300781,0.04116947855758789,-0.027178147732530883,-0.008797726653644243,1.9299840927124023,2019-06-20 14:44:32:207
7.4219116210937495,-4.110781372070313,0.42316867065429686,0.04090316244857996,-0.02811025411405862,-0.008531410544636318,1.9351041316986084,2019-06-20 14:44:32:212
7.4231087036132815,-4.128737609863281,0.4088036804199219,0.041702110775603735,-0.029042360495586353,-0.008531410544636318,1.9399681091308594,2019-06-20 14:44:32:217
7.430291198730469,-4.098810546875,0.40521243286132813,0.04116947855758789,-0.02797709605955466,-0.008131936381124433,1.9450881481170654,2019-06-20 14:44:32:222
7.406349548339843,-4.110781372070313,0.39922702026367185,0.040770004394076,-0.02811025411405862,-0.0077324622176125485,1.9499521255493164,2019-06-20 14:44:32:227
7.4219116210937495,-4.097613464355469,0.4387307434082031,0.04090316244857996,-0.028376570223066545,-0.007599304163108585,1.9550721645355225,2019-06-20 14:44:32:232
7.418320373535156,-4.105993041992187,0.4411249084472656,0.04183526883010769,-0.02970815076810616,-0.007332988054100662,1.9599361419677734,2019-06-20 14:44:32:237
7.424305786132813,-4.113175537109375,0.4195774230957031,0.04196842688461166,-0.028509728277570506,-0.0070666719450927385,1.9650561809539795,2019-06-20 14:44:32:242
7.4087437133789065,-4.107190124511718,0.4147890930175781,0.041302636612091846,-0.028509728277570506,-0.007332988054100662,1.9699201583862305,2019-06-20 14:44:32:247
7.425502868652344,-4.0952192993164065,0.4399278259277344,0.04116947855758789,-0.028642886332074468,-0.007332988054100662,1.9750401973724365,2019-06-20 14:44:32:252
7.424305786132813,-4.119160949707031,0.45429281616210937,0.04183526883010769,-0.02797709605955466,-0.0074661461086046235,1.9799041748046875,2019-06-20 14:44:32:257
7.43148828125,-4.119160949707031,0.43633657836914064,0.042101584939115616,-0.029175518550090315,-0.005868249454557082,1.9850242137908936,2019-06-20 14:44:32:262
7.424305786132813,-4.120358032226562,0.48781112670898436,0.04143579466659581,-0.028509728277570506,-0.006134565563565005,1.9901440143585205,2019-06-20 14:44:32:267
7.4386707763671875,-4.102401794433594,0.4530957336425781,0.041702110775603735,-0.028376570223066545,-0.005468775291045195,1.9950079917907715,2019-06-20 14:44:32:272
7.414729125976562,-4.133525939941406,0.46147531127929686,0.042501059102627504,-0.02877604438657843,-0.005468775291045195,2.0001280307769775,2019-06-20 14:44:32:277
7.426699951171875,-4.096416381835938,0.4399278259277344,0.042101584939115616,-0.029042360495586353,-0.005468775291045195,2.0049920082092285,2019-06-20 14:44:32:282
7.4123349609375,-4.105993041992187,0.4483074035644531,0.04116947855758789,-0.02811025411405862,-0.005468775291045195,2.0101120471954346,2019-06-20 14:44:32:287
7.425502868652344,-4.1095842895507815,0.4327453308105469,0.042101584939115616,-0.028243412168562583,-0.005601933345549157,2.0149760246276855,2019-06-20 14:44:32:292
7.401561218261719,-4.119160949707031,0.4399278259277344,0.04343316548415524,-0.029175518550090315,-0.0057350914000531186,2.0200960636138916,2019-06-20 14:44:32:297
7.409940795898438,-4.147890930175781,0.44950448608398436,0.043166849375147316,-0.029308676604594276,-0.005335617236541234,2.0249600410461426,2019-06-20 14:44:32:302
7.424305786132813,-4.121555114746093,0.4459132385253906,0.04276737521163543,-0.028243412168562583,-0.0057350914000531186,2.0300800800323486,2019-06-20 14:44:32:307
7.414729125976562,-4.115569702148437,0.4399278259277344,0.042501059102627504,-0.028376570223066545,-0.006134565563565005,2.0349440574645996,2019-06-20 14:44:32:312
7.413532043457031,-4.088036804199219,0.4530957336425781,0.042367901048123546,-0.028642886332074468,-0.004802985018525386,2.0400640964508057,2019-06-20 14:44:32:317
7.3943787231445315,-4.1179638671875,0.44232199096679686,0.04263421715713147,-0.02877604438657843,-0.004936143073029348,2.0449280738830566,2019-06-20 14:44:32:322
7.4075466308593745,-4.125146362304688,0.48062863159179686,0.041702110775603735,-0.028243412168562583,-0.005601933345549157,2.0500481128692627,2019-06-20 14:44:32:327
7.420714538574218,-4.120358032226562,0.4674607238769531,0.04116947855758789,-0.02784393800505069,-0.006267723618068967,2.0549120903015137,2019-06-20 14:44:32:332
7.4231087036132815,-4.105993041992187,0.4100007629394531,0.04143579466659581,-0.02890920244108239,-0.006001407509061044,2.0600321292877197,2019-06-20 14:44:32:337
7.391984558105468,-4.121555114746093,0.46147531127929686,0.04183526883010769,-0.029974466877114084,-0.005601933345549157,2.0648961067199707,2019-06-20 14:44:32:342
7.409940795898438,-4.1239492797851565,0.4399278259277344,0.042101584939115616,-0.029441834659098238,-0.005202459182037272,2.0700161457061768,2019-06-20 14:44:32:347
7.4123349609375,-4.1227521972656245,0.4411249084472656,0.042101584939115616,-0.02877604438657843,-0.005335617236541234,2.075136184692383,2019-06-20 14:44:32:352
7.425502868652344,-4.129934692382812,0.4004241027832031,0.04090316244857996,-0.0295749927136022,-0.006134565563565005,2.080000162124634,2019-06-20 14:44:32:357
7.43148828125,-4.131131774902344,0.41838034057617185,0.040770004394076,-0.028243412168562583,-0.0064008816725729285,2.08512020111084,2019-06-20 14:44:32:362
7.43148828125,-4.12754052734375,0.4530957336425781,0.04116947855758789,-0.028642886332074468,-0.005868249454557082,2.089984178543091,2019-06-20 14:44:32:367
7.435079528808593,-4.113175537109375,0.4518986511230469,0.041702110775603735,-0.030107624931618046,-0.007332988054100662,2.095104217529297,2019-06-20 14:44:32:372
7.391984558105468,-4.126343444824219,0.4411249084472656,0.04143579466659581,-0.029308676604594276,-0.006267723618068967,2.099968194961548,2019-06-20 14:44:32:377
7.406349548339843,-4.101204711914062,0.45668698120117185,0.040636846339572034,-0.02771077995054673,-0.006134565563565005,2.105087995529175,2019-06-20 14:44:32:382
7.426699951171875,-4.091628051757812,0.4674607238769531,0.04023737217606015,-0.02797709605955466,-0.005601933345549157,2.109952211380005,2019-06-20 14:44:32:387
7.420714538574218,-4.096416381835938,0.44950448608398436,0.040636846339572034,-0.029042360495586353,-0.005468775291045195,2.115072011947632,2019-06-20 14:44:32:392
7.390787475585937,-4.103598876953125,0.4674607238769531,0.039837898012548265,-0.029175518550090315,-0.0057350914000531186,2.119935989379883,2019-06-20 14:44:32:397
7.384802062988281,-4.098810546875,0.4722490539550781,0.039704739958044306,-0.02811025411405862,-0.005335617236541234,2.125056028366089,2019-06-20 14:44:32:402
7.400364135742187,-4.119160949707031,0.4710519714355469,0.039704739958044306,-0.026778673569018998,-0.006001407509061044,2.12992000579834,2019-06-20 14:44:32:407
7.427897033691406,-4.135920104980468,0.44471615600585934,0.03930526579453242,-0.027311305787034845,-0.005601933345549157,2.135040044784546,2019-06-20 14:44:32:412
7.4123349609375,-4.115569702148437,0.4279570007324219,0.039704739958044306,-0.029175518550090315,-0.004802985018525386,2.139904022216797,2019-06-20 14:44:32:417
7.401561218261719,-4.125146362304688,0.46865780639648436,0.04010421412155619,-0.02970815076810616,-0.005335617236541234,2.145024061203003,2019-06-20 14:44:32:422
7.399167053222656,-4.133525939941406,0.4530957336425781,0.038905791631020537,-0.029841308822610123,-0.005601933345549157,2.150144100189209,2019-06-20 14:44:32:427
7.405152465820312,-4.12754052734375,0.45548989868164064,0.03810684330399676,-0.02890920244108239,-0.0057350914000531186,2.15500807762146,2019-06-20 14:44:32:432
7.417123291015625,-4.097613464355469,0.4518986511230469,0.039038949685524495,-0.029175518550090315,-0.0050693011275333094,2.160128116607666,2019-06-20 14:44:32:437
7.3931816406249995,-4.126343444824219,0.42316867065429686,0.03877263357651657,-0.028509728277570506,-0.0050693011275333094,2.164992094039917,2019-06-20 14:44:32:442
7.399167053222656,-4.121555114746093,0.44471615600585934,0.03957158190354034,-0.028376570223066545,-0.005601933345549157,2.170112133026123,2019-06-20 14:44:32:447
7.391984558105468,-4.1095842895507815,0.41838034057617185,0.04037053023056411,-0.02797709605955466,-0.005468775291045195,2.174976110458374,2019-06-20 14:44:32:452
7.4123349609375,-4.128737609863281,0.4028182678222656,0.04023737217606015,-0.02784393800505069,-0.005468775291045195,2.18009614944458,2019-06-20 14:44:32:457
7.4123349609375,-4.128737609863281,0.4028182678222656,0.04023737217606015,-0.02784393800505069,-0.005468775291045195,2.1829121112823486,2019-06-20 14:44:32:460
7.401561218261719,-4.116766784667969,0.4710519714355469,0.04010421412155619,-0.029175518550090315,-0.005335617236541234,2.190080165863037,2019-06-20 14:44:32:467
7.401561218261719,-4.116766784667969,0.4710519714355469,0.04010421412155619,-0.029175518550090315,-0.005335617236541234,2.1928961277008057,2019-06-20 14:44:32:470
7.400364135742187,-4.104795959472656,0.3884532775878906,0.03997105606705223,-0.02811025411405862,-0.0064008816725729285,2.200064182281494,2019-06-20 14:44:32:477
7.400364135742187,-4.104795959472656,0.3884532775878906,0.03997105606705223,-0.02811025411405862,-0.0064008816725729285,2.2028801441192627,2019-06-20 14:44:32:480
7.403955383300781,-4.105993041992187,0.4219715881347656,0.040636846339572034,-0.02811025411405862,-0.005335617236541234,2.210048198699951,2019-06-20 14:44:32:487
7.403955383300781,-4.105993041992187,0.4219715881347656,0.040636846339572034,-0.02811025411405862,-0.005335617236541234,2.2128641605377197,2019-06-20 14:44:32:489
7.3656487426757815,-4.096416381835938,0.4507015686035156,0.04090316244857996,-0.02890920244108239,-0.005468775291045195,2.220032215118408,2019-06-20 14:44:32:497
7.3656487426757815,-4.096416381835938,0.4507015686035156,0.04090316244857996,-0.02890920244108239,-0.005468775291045195,2.2228481769561768,2019-06-20 14:44:32:499
7.397969970703125,-4.101204711914062,0.4507015686035156,0.04143579466659581,-0.028243412168562583,-0.005335617236541234,2.230015993118286,2019-06-20 14:44:32:507
7.3931816406249995,-4.1083872070312495,0.4770373840332031,0.040636846339572034,-0.029308676604594276,-0.0057350914000531186,2.235136032104492,2019-06-20 14:44:32:512
7.409940795898438,-4.101204711914062,0.5141469421386718,0.04037053023056411,-0.030107624931618046,-0.005601933345549157,2.240000009536743,2019-06-20 14:44:32:517
7.409940795898438,-4.12754052734375,0.4459132385253906,0.04010421412155619,-0.029441834659098238,-0.005335617236541234,2.245120048522949,2019-06-20 14:44:32:522
7.425502868652344,-4.12754052734375,0.4914023742675781,0.040770004394076,-0.029841308822610123,-0.0057350914000531186,2.2499840259552,2019-06-20 14:44:32:527
7.435079528808593,-4.104795959472656,0.48302279663085934,0.04156895272109977,-0.029441834659098238,-0.004936143073029348,2.2551040649414062,2019-06-20 14:44:32:532
7.411137878417969,-4.1083872070312495,0.49259945678710937,0.04143579466659581,-0.02797709605955466,-0.005335617236541234,2.2599680423736572,2019-06-20 14:44:32:537
7.411137878417969,-4.104795959472656,0.4674607238769531,0.04023737217606015,-0.028642886332074468,-0.005335617236541234,2.2650880813598633,2019-06-20 14:44:32:542
7.432685363769531,-4.090430969238281,0.4028182678222656,0.039837898012548265,-0.028376570223066545,-0.005335617236541234,2.2699520587921143,2019-06-20 14:44:32:547
7.448247436523437,-4.085642639160156,0.4088036804199219,0.039837898012548265,-0.029308676604594276,-0.004936143073029348,2.2750720977783203,2019-06-20 14:44:32:552
7.426699951171875,-4.115569702148437,0.4147890930175781,0.04010421412155619,-0.0295749927136022,-0.004802985018525386,2.2799360752105713,2019-06-20 14:44:32:557
7.417123291015625,-4.125146362304688,0.39922702026367185,0.03997105606705223,-0.029441834659098238,-0.004270352800509538,2.2850561141967773,2019-06-20 14:44:32:562
7.4231087036132815,-4.132328857421875,0.4147890930175781,0.04090316244857996,-0.028642886332074468,-0.004669826964021424,2.2899200916290283,2019-06-20 14:44:32:567
7.415926208496094,-4.105993041992187,0.4267599182128906,0.040503688285068076,-0.029042360495586353,-0.004137194746005576,2.2950401306152344,2019-06-20 14:44:32:572
7.415926208496094,-4.121555114746093,0.4315482482910156,0.04037053023056411,-0.029441834659098238,-0.0034714044734857666,2.2999041080474854,2019-06-20 14:44:32:577
7.419517456054687,-4.126343444824219,0.4459132385253906,0.03943842384903638,-0.0295749927136022,-0.0033382464189818046,2.3050241470336914,2019-06-20 14:44:32:582
7.395575805664063,-4.143102600097656,0.4399278259277344,0.038905791631020537,-0.029042360495586353,-0.004270352800509538,2.3101441860198975,2019-06-20 14:44:32:587
7.3931816406249995,-4.128737609863281,0.4219715881347656,0.04023737217606015,-0.028376570223066545,-0.004669826964021424,2.3150081634521484,2019-06-20 14:44:32:592
7.403955383300781,-4.12754052734375,0.4399278259277344,0.04103632050308392,-0.02877604438657843,-0.004936143073029348,2.3201282024383545,2019-06-20 14:44:32:597
7.413532043457031,-4.126343444824219,0.45429281616210937,0.04103632050308392,-0.029042360495586353,-0.004536668909517462,2.3249921798706055,2019-06-20 14:44:32:602
7.425502868652344,-4.143102600097656,0.44950448608398436,0.041702110775603735,-0.02890920244108239,-0.004669826964021424,2.3301122188568115,2019-06-20 14:44:32:607
7.403955383300781,-4.1538763427734375,0.4530957336425781,0.04183526883010769,-0.02784393800505069,-0.0036045625279897287,2.3349761962890625,2019-06-20 14:44:32:612
7.396772888183594,-4.1395113525390625,0.46267239379882813,0.04103632050308392,-0.028509728277570506,-0.003071930309973881,2.3400959968566895,2019-06-20 14:44:32:617
7.4087437133789065,-4.129934692382812,0.46147531127929686,0.04156895272109977,-0.02890920244108239,-0.0038708786369976524,2.3449602127075195,2019-06-20 14:44:32:622
7.40275830078125,-4.111978454589844,0.4602782287597656,0.042367901048123546,-0.029308676604594276,-0.0040040366915016145,2.3500800132751465,2019-06-20 14:44:32:627
7.4075466308593745,-4.115569702148437,0.4339424133300781,0.042367901048123546,-0.028376570223066545,-0.004270352800509538,2.3549439907073975,2019-06-20 14:44:32:632
7.396772888183594,-4.0952192993164065,0.4195774230957031,0.04303369132064335,-0.029974466877114084,-0.0040040366915016145,2.3600640296936035,2019-06-20 14:44:32:637
7.4219116210937495,-4.103598876953125,0.48062863159179686,0.04276737521163543,-0.030240782986122008,-0.004669826964021424,2.3649280071258545,2019-06-20 14:44:32:642
7.411137878417969,-4.120358032226562,0.47344613647460937,0.042501059102627504,-0.02890920244108239,-0.004536668909517462,2.3700480461120605,2019-06-20 14:44:32:647
7.415926208496094,-4.131131774902344,0.39204452514648436,0.04223474299361958,-0.029974466877114084,-0.0040040366915016145,2.3749120235443115,2019-06-20 14:44:32:652
7.414729125976562,-4.1179638671875,0.38725619506835934,0.04223474299361958,-0.030240782986122008,-0.003071930309973881,2.3800320625305176,2019-06-20 14:44:32:657
7.38360498046875,-4.115569702148437,0.43035116577148436,0.04290053326613939,-0.030107624931618046,-0.0034714044734857666,2.3848960399627686,2019-06-20 14:44:32:662
7.411137878417969,-4.132328857421875,0.3884532775878906,0.04343316548415524,-0.029042360495586353,-0.004536668909517462,2.3900160789489746,2019-06-20 14:44:32:667
7.3931816406249995,-4.133525939941406,0.4100007629394531,0.04436527186568297,-0.02877604438657843,-0.005202459182037272,2.3951361179351807,2019-06-20 14:44:32:672
7.396772888183594,-4.129934692382812,0.43513949584960937,0.04343316548415524,-0.02877604438657843,-0.005202459182037272,2.4000000953674316,2019-06-20 14:44:32:677
7.4219116210937495,-4.141905517578125,0.4387307434082031,0.042501059102627504,-0.029308676604594276,-0.004669826964021424,2.4051201343536377,2019-06-20 14:44:32:682
7.403955383300781,-4.143102600097656,0.43753366088867185,0.04276737521163543,-0.029175518550090315,-0.0044035108550135,2.4099841117858887,2019-06-20 14:44:32:687
7.417123291015625,-4.1371171874999995,0.4267599182128906,0.04276737521163543,-0.02771077995054673,-0.0057350914000531186,2.4151041507720947,2019-06-20 14:44:32:692
7.405152465820312,-4.111978454589844,0.4710519714355469,0.042367901048123546,-0.028509728277570506,-0.006134565563565005,2.4199681282043457,2019-06-20 14:44:32:697
7.40275830078125,-4.1395113525390625,0.42436575317382813,0.04303369132064335,-0.0295749927136022,-0.006001407509061044,2.4250881671905518,2019-06-20 14:44:32:702
7.4087437133789065,-4.163453002929687,0.40640951538085934,0.04423211381117901,-0.028243412168562583,-0.006134565563565005,2.4299521446228027,2019-06-20 14:44:32:707
7.406349548339843,-4.134723022460937,0.4279570007324219,0.04383263964766712,-0.028376570223066545,-0.0071998299995967,2.435072183609009,2019-06-20 14:44:32:712
7.400364135742187,-4.1562705078125,0.43753366088867185,0.04423211381117901,-0.029175518550090315,-0.0071998299995967,2.4399361610412598,2019-06-20 14:44:32:717
7.400364135742187,-4.152679260253906,0.4207745056152344,0.0435663235386592,-0.029841308822610123,-0.0070666719450927385,2.445056200027466,2019-06-20 14:44:32:722
7.4219116210937495,-4.135920104980468,0.4327453308105469,0.04290053326613939,-0.03050709909512993,-0.007599304163108585,2.449920177459717,2019-06-20 14:44:32:727
7.419517456054687,-4.144299682617188,0.4135920104980469,0.04263421715713147,-0.030640257149633893,-0.0074661461086046235,2.455040216445923,2019-06-20 14:44:32:732
7.406349548339843,-4.121555114746093,0.42556283569335934,0.04303369132064335,-0.028243412168562583,-0.008664568599140282,2.459904193878174,2019-06-20 14:44:32:737
7.415926208496094,-4.1371171874999995,0.4650665588378906,0.042367901048123546,-0.028642886332074468,-0.009197200817156128,2.465023994445801,2019-06-20 14:44:32:742
7.399167053222656,-4.1395113525390625,0.5069644470214844,0.04196842688461166,-0.0295749927136022,-0.008398252490132357,2.470144033432007,2019-06-20 14:44:32:747
7.4123349609375,-4.1239492797851565,0.48062863159179686,0.041302636612091846,-0.02890920244108239,-0.007998778326620472,2.475008010864258,2019-06-20 14:44:32:752
7.415926208496094,-4.114372619628906,0.47344613647460937,0.04090316244857996,-0.02890920244108239,-0.008265094435628395,2.480128049850464,2019-06-20 14:44:32:757
7.4123349609375,-4.126343444824219,0.4674607238769531,0.04010421412155619,-0.02877604438657843,-0.008398252490132357,2.484992027282715,2019-06-20 14:44:32:762
7.413532043457031,-4.140708435058594,0.4662636413574219,0.04023737217606015,-0.029175518550090315,-0.008797726653644243,2.490112066268921,2019-06-20 14:44:32:767
7.403955383300781,-4.126343444824219,0.48062863159179686,0.039704739958044306,-0.029441834659098238,-0.009197200817156128,2.494976043701172,2019-06-20 14:44:32:772
7.414729125976562,-4.084445556640625,0.48182571411132813,0.039704739958044306,-0.028642886332074468,-0.008131936381124433,2.500096082687378,2019-06-20 14:44:32:777
7.40275830078125,-4.105993041992187,0.4459132385253906,0.03930526579453242,-0.02890920244108239,-0.008131936381124433,2.504960060119629,2019-06-20 14:44:32:782
7.401561218261719,-4.113175537109375,0.4530957336425781,0.03837315941300468,-0.029441834659098238,-0.007332988054100662,2.510080099105835,2019-06-20 14:44:32:787
7.4231087036132815,-4.1239492797851565,0.4411249084472656,0.03850631746750865,-0.02877604438657843,-0.0070666719450927385,2.514944076538086,2019-06-20 14:44:32:792
7.418320373535156,-4.111978454589844,0.44471615600585934,0.03877263357651657,-0.029175518550090315,-0.006933513890588777,2.520064115524292,2019-06-20 14:44:32:797
7.4075466308593745,-4.1227521972656245,0.4327453308105469,0.037174736922469025,-0.029042360495586353,-0.0074661461086046235,2.524928092956543,2019-06-20 14:44:32:802
7.382407897949219,-4.107190124511718,0.45668698120117185,0.03570999832292545,-0.029308676604594276,-0.0077324622176125485,2.530048131942749,2019-06-20 14:44:32:807
7.40275830078125,-4.114372619628906,0.44232199096679686,0.03650894664994922,-0.029175518550090315,-0.0070666719450927385,2.534912109375,2019-06-20 14:44:32:812
7.368042907714844,-4.111978454589844,0.43633657836914064,0.037174736922469025,-0.02797709605955466,-0.00786562027211651,2.540032148361206,2019-06-20 14:44:32:817
7.414729125976562,-4.1083872070312495,0.4411249084472656,0.03730789497697299,-0.029042360495586353,-0.006933513890588777,2.545152187347412,2019-06-20 14:44:32:822
7.375225402832031,-4.111978454589844,0.47584030151367185,0.03757421108598091,-0.028642886332074468,-0.00653403972707689,2.550016164779663,2019-06-20 14:44:32:827
7.405152465820312,-4.125146362304688,0.43753366088867185,0.037840527194988836,-0.0295749927136022,-0.0074661461086046235,2.555136203765869,2019-06-20 14:44:32:832
7.400364135742187,-4.1371171874999995,0.43035116577148436,0.03744105303147695,-0.029308676604594276,-0.0077324622176125485,2.56000018119812,2019-06-20 14:44:32:837
7.4075466308593745,-4.126343444824219,0.44232199096679686,0.03650894664994922,-0.02797709605955466,-0.008131936381124433,2.565119981765747,2019-06-20 14:44:32:842
7.415926208496094,-4.129934692382812,0.4016211853027344,0.0379736852494928,-0.02877604438657843,-0.0070666719450927385,2.569984197616577,2019-06-20 14:44:32:847
7.411137878417969,-4.12754052734375,0.3716941223144531,0.03810684330399676,-0.02970815076810616,-0.005868249454557082,2.575103998184204,2019-06-20 14:44:32:852
7.4123349609375,-4.120358032226562,0.42316867065429686,0.03744105303147695,-0.02877604438657843,-0.006134565563565005,2.579968214035034,2019-06-20 14:44:32:857
7.401561218261719,-4.101204711914062,0.44471615600585934,0.037041578867965066,-0.02970815076810616,-0.00653403972707689,2.585088014602661,2019-06-20 14:44:32:862
7.439867858886719,-4.107190124511718,0.4518986511230469,0.03664210470445318,-0.028509728277570506,-0.00653403972707689,2.589951992034912,2019-06-20 14:44:32:867
7.405152465820312,-4.104795959472656,0.4794315490722656,0.03677526275895714,-0.028243412168562583,-0.006933513890588777,2.595072031021118,2019-06-20 14:44:32:872
7.4219116210937495,-4.14669384765625,0.4483074035644531,0.03730789497697299,-0.02811025411405862,-0.0074661461086046235,2.599936008453369,2019-06-20 14:44:32:877
7.401561218261719,-4.147890930175781,0.46147531127929686,0.03770736914048488,-0.028376570223066545,-0.006800355836084815,2.605056047439575,2019-06-20 14:44:32:882
7.405152465820312,-4.150285095214843,0.4076065979003906,0.03837315941300468,-0.02771077995054673,-0.0064008816725729285,2.609920024871826,2019-06-20 14:44:32:887
7.388393310546875,-4.144299682617188,0.4076065979003906,0.03850631746750865,-0.027311305787034845,-0.007332988054100662,2.6150400638580322,2019-06-20 14:44:32:892
7.385999145507812,-4.110781372070313,0.4123949279785156,0.039038949685524495,-0.02797709605955466,-0.00786562027211651,2.619904041290283,2019-06-20 14:44:32:897
7.415926208496094,-4.1095842895507815,0.4411249084472656,0.039837898012548265,-0.02784393800505069,-0.008131936381124433,2.6250240802764893,2019-06-20 14:44:32:902
7.4219116210937495,-4.111978454589844,0.41718325805664064,0.03997105606705223,-0.028642886332074468,-0.007332988054100662,2.6301441192626953,2019-06-20 14:44:32:907
7.406349548339843,-4.115569702148437,0.44950448608398436,0.04090316244857996,-0.027178147732530883,-0.007599304163108585,2.6350080966949463,2019-06-20 14:44:32:912
7.429094116210937,-4.113175537109375,0.4471103210449219,0.04116947855758789,-0.02890920244108239,-0.006667197781580852,2.6401281356811523,2019-06-20 14:44:32:917
7.409940795898438,-4.111978454589844,0.4518986511230469,0.04103632050308392,-0.02890920244108239,-0.0071998299995967,2.6449921131134033,2019-06-20 14:44:32:922
7.4123349609375,-4.125146362304688,0.4471103210449219,0.04090316244857996,-0.027444463841538806,-0.006001407509061044,2.6501121520996094,2019-06-20 14:44:32:927
7.388393310546875,-4.107190124511718,0.42556283569335934,0.04116947855758789,-0.027444463841538806,-0.006800355836084815,2.6549761295318604,2019-06-20 14:44:32:932
7.43148828125,-4.12754052734375,0.4028182678222656,0.04116947855758789,-0.02877604438657843,-0.0074661461086046235,2.6600961685180664,2019-06-20 14:44:32:937
7.401561218261719,-4.1095842895507815,0.4327453308105469,0.041302636612091846,-0.027311305787034845,-0.007599304163108585,2.6649601459503174,2019-06-20 14:44:32:942
7.413532043457031,-4.111978454589844,0.4123949279785156,0.04223474299361958,-0.028243412168562583,-0.006267723618068967,2.6700801849365234,2019-06-20 14:44:32:947
7.417123291015625,-4.096416381835938,0.46386947631835934,0.042101584939115616,-0.02877604438657843,-0.006001407509061044,2.6749441623687744,2019-06-20 14:44:32:952
7.420714538574218,-4.110781372070313,0.4530957336425781,0.04196842688461166,-0.028243412168562583,-0.006134565563565005,2.6800642013549805,2019-06-20 14:44:32:957
7.406349548339843,-4.116766784667969,0.4530957336425781,0.04090316244857996,-0.027444463841538806,-0.0050693011275333094,2.6849281787872314,2019-06-20 14:44:32:962
7.405152465820312,-4.1239492797851565,0.4459132385253906,0.04156895272109977,-0.027311305787034845,-0.0044035108550135,2.6900482177734375,2019-06-20 14:44:32:967
7.390787475585937,-4.116766784667969,0.41718325805664064,0.042501059102627504,-0.02704498967802692,-0.0050693011275333094,2.6949121952056885,2019-06-20 14:44:32:972
7.4075466308593745,-4.114372619628906,0.44232199096679686,0.042501059102627504,-0.027178147732530883,-0.005468775291045195,2.7000319957733154,2019-06-20 14:44:32:977
7.400364135742187,-4.119160949707031,0.4578840637207031,0.042501059102627504,-0.02784393800505069,-0.004270352800509538,2.7048962116241455,2019-06-20 14:44:32:982
7.4219116210937495,-4.141905517578125,0.4459132385253906,0.04276737521163543,-0.02771077995054673,-0.004137194746005576,2.7100160121917725,2019-06-20 14:44:32:987
7.432685363769531,-4.144299682617188,0.39802993774414064,0.04276737521163543,-0.02890920244108239,-0.0038708786369976524,2.7151360511779785,2019-06-20 14:44:32:992
7.409940795898438,-4.107190124511718,0.4327453308105469,0.043300007429651274,-0.028243412168562583,-0.0036045625279897287,2.7200000286102295,2019-06-20 14:44:32:997
7.424305786132813,-4.120358032226562,0.45548989868164064,0.044098955756675044,-0.026379199405507113,-0.0034714044734857666,2.7251200675964355,2019-06-20 14:44:33:002
7.419517456054687,-4.115569702148437,0.46147531127929686,0.042501059102627504,-0.026778673569018998,-0.003205088364477843,2.7299840450286865,2019-06-20 14:44:33:007
7.395575805664063,-4.116766784667969,0.4650665588378906,0.042367901048123546,-0.02811025411405862,-0.0037377205824936904,2.7351040840148926,2019-06-20 14:44:33:012
7.405152465820312,-4.134723022460937,0.4698548889160156,0.04276737521163543,-0.028243412168562583,-0.004270352800509538,2.7399680614471436,2019-06-20 14:44:33:017
7.405152465820312,-4.141905517578125,0.4842198791503906,0.04303369132064335,-0.028376570223066545,-0.0033382464189818046,2.7450881004333496,2019-06-20 14:44:33:022
7.4087437133789065,-4.133525939941406,0.4674607238769531,0.043166849375147316,-0.02877604438657843,-0.0037377205824936904,2.7499520778656006,2019-06-20 14:44:33:027
7.388393310546875,-4.116766784667969,0.4459132385253906,0.04276737521163543,-0.02811025411405862,-0.0037377205824936904,2.7550721168518066,2019-06-20 14:44:33:032
7.4075466308593745,-4.116766784667969,0.4662636413574219,0.04263421715713147,-0.02771077995054673,-0.0038708786369976524,2.7599360942840576,2019-06-20 14:44:33:037
7.429094116210937,-4.100007629394531,0.42436575317382813,0.042367901048123546,-0.028376570223066545,-0.0037377205824936904,2.7650561332702637,2019-06-20 14:44:33:042
7.4231087036132815,-4.1239492797851565,0.4914023742675781,0.042367901048123546,-0.028376570223066545,-0.0033382464189818046,2.7699201107025146,2019-06-20 14:44:33:047
7.4087437133789065,-4.107190124511718,0.44351907348632813,0.04263421715713147,-0.028509728277570506,-0.0038708786369976524,2.7750401496887207,2019-06-20 14:44:33:052
7.4231087036132815,-4.100007629394531,0.46147531127929686,0.04156895272109977,-0.028509728277570506,-0.0034714044734857666,2.7799041271209717,2019-06-20 14:44:33:057
7.396772888183594,-4.100007629394531,0.4459132385253906,0.041702110775603735,-0.02970815076810616,-0.0034714044734857666,2.7850241661071777,2019-06-20 14:44:33:062
7.401561218261719,-4.111978454589844,0.4339424133300781,0.041702110775603735,-0.029441834659098238,-0.002805614200965957,2.790144205093384,2019-06-20 14:44:33:067
7.400364135742187,-4.105993041992187,0.4387307434082031,0.04116947855758789,-0.028509728277570506,-0.0025392980919580334,2.7950081825256348,2019-06-20 14:44:33:072
7.381210815429688,-4.119160949707031,0.48062863159179686,0.040503688285068076,-0.02890920244108239,-0.0024061400374540713,2.8001279830932617,2019-06-20 14:44:33:077
7.419517456054687,-4.119160949707031,0.48062863159179686,0.040636846339572034,-0.029441834659098238,-0.0022729819829501096,2.804992198944092,2019-06-20 14:44:33:082
7.4231087036132815,-4.1227521972656245,0.4267599182128906,0.040636846339572034,-0.029841308822610123,-0.0016071917104302999,2.8101119995117188,2019-06-20 14:44:33:087
7.4087437133789065,-4.129934692382812,0.4411249084472656,0.041302636612091846,-0.030107624931618046,-0.0016071917104302999,2.814976215362549,2019-06-20 14:44:33:092
7.390787475585937,-4.155073425292969,0.44471615600585934,0.04090316244857996,-0.030240782986122008,-0.0014740336559263382,2.820096015930176,2019-06-20 14:44:33:097
7.388393310546875,-4.129934692382812,0.44351907348632813,0.041302636612091846,-0.029841308822610123,-0.0012077175469184143,2.8249599933624268,2019-06-20 14:44:33:102
7.425502868652344,-4.126343444824219,0.45548989868164064,0.040770004394076,-0.0295749927136022,-0.0006750853289025666,2.830080032348633,2019-06-20 14:44:33:107
7.4386707763671875,-4.132328857421875,0.45668698120117185,0.03917210774002846,-0.029841308822610123,-0.0012077175469184143,2.834944009780884,2019-06-20 14:44:33:112
7.443459106445312,-4.1179638671875,0.4518986511230469,0.04023737217606015,-0.02970815076810616,-0.0013408756014223761,2.84006404876709,2019-06-20 14:44:33:117
7.449444519042968,-4.145496765136719,0.44471615600585934,0.039704739958044306,-0.02890920244108239,-0.0009414014379104903,2.844928026199341,2019-06-20 14:44:33:122
7.432685363769531,-4.115569702148437,0.44232199096679686,0.039038949685524495,-0.028509728277570506,-0.00027561116539068085,2.850048065185547,2019-06-20 14:44:33:127
7.4087437133789065,-4.119160949707031,0.43513949584960937,0.03997105606705223,-0.029841308822610123,-0.0009414014379104903,2.854912042617798,2019-06-20 14:44:33:132
7.406349548339843,-4.135920104980468,0.4459132385253906,0.03930526579453242,-0.029974466877114084,0.0003901791071291287,2.860032081604004,2019-06-20 14:44:33:137
7.4075466308593745,-4.149088012695312,0.4483074035644531,0.039038949685524495,-0.02877604438657843,0.001322285488656862,2.864896059036255,2019-06-20 14:44:33:142
7.403955383300781,-4.1395113525390625,0.4147890930175781,0.03917210774002846,-0.02890920244108239,0.0005233371616330906,2.870016098022461,2019-06-20 14:44:33:147
7.406349548339843,-4.129934692382812,0.4662636413574219,0.03850631746750865,-0.028376570223066545,-0.0004087692198946427,2.875136137008667,2019-06-20 14:44:33:152
7.3943787231445315,-4.1383142700195314,0.4794315490722656,0.0379736852494928,-0.028243412168562583,0.0002570210526251668,2.880000114440918,2019-06-20 14:44:33:157
7.406349548339843,-4.152679260253906,0.4530957336425781,0.03877263357651657,-0.02771077995054673,0.0011891274341529002,2.885120153427124,2019-06-20 14:44:33:162
7.4123349609375,-4.149088012695312,0.4339424133300781,0.03930526579453242,-0.028376570223066545,0.001055969379648938,2.889984130859375,2019-06-20 14:44:33:167
7.4231087036132815,-4.110781372070313,0.4483074035644531,0.03917210774002846,-0.028376570223066545,0.0015886015976647857,2.895104169845581,2019-06-20 14:44:33:172
7.4231087036132815,-4.147890930175781,0.4088036804199219,0.03863947552201261,-0.028509728277570506,0.001322285488656862,2.899968147277832,2019-06-20 14:44:33:177
7.405152465820312,-4.126343444824219,0.4123949279785156,0.03930526579453242,-0.02784393800505069,0.0015886015976647857,2.905088186264038,2019-06-20 14:44:33:182
7.418320373535156,-4.1371171874999995,0.43633657836914064,0.038905791631020537,-0.027311305787034845,0.001055969379648938,2.909952163696289,2019-06-20 14:44:33:187
7.43148828125,-4.1395113525390625,0.44950448608398436,0.03997105606705223,-0.02771077995054673,0.0015886015976647857,2.915072202682495,2019-06-20 14:44:33:192
7.413532043457031,-4.12754052734375,0.44471615600585934,0.039704739958044306,-0.02784393800505069,0.0019880757611766718,2.919936180114746,2019-06-20 14:44:33:197
7.4075466308593745,-4.134723022460937,0.4483074035644531,0.039704739958044306,-0.02691183162352296,0.0025207079791925192,2.925056219100952,2019-06-20 14:44:33:202
7.399167053222656,-4.125146362304688,0.4279570007324219,0.04023737217606015,-0.027311305787034845,0.002787024088200443,2.929920196533203,2019-06-20 14:44:33:207
7.388393310546875,-4.12754052734375,0.44950448608398436,0.03997105606705223,-0.02771077995054673,0.0019880757611766718,2.93503999710083,2019-06-20 14:44:33:212
7.411137878417969,-4.129934692382812,0.4279570007324219,0.03917210774002846,-0.02797709605955466,0.0025207079791925192,2.93990421295166,2019-06-20 14:44:33:217
7.401561218261719,-4.157467590332031,0.45429281616210937,0.03957158190354034,-0.02771077995054673,0.003053340197208367,2.945024013519287,2019-06-20 14:44:33:222
7.4087437133789065,-4.1239492797851565,0.43513949584960937,0.04010421412155619,-0.028243412168562583,0.0014554435431608239,2.950144052505493,2019-06-20 14:44:33:227
7.4219116210937495,-4.145496765136719,0.4207745056152344,0.04090316244857996,-0.02797709605955466,0.0019880757611766718,2.955008029937744,2019-06-20 14:44:33:232
7.400364135742187,-4.147890930175781,0.4207745056152344,0.041702110775603735,-0.027577621896042768,0.0025207079791925192,2.96012806892395,2019-06-20 14:44:33:237
7.38360498046875,-4.14669384765625,0.4387307434082031,0.04143579466659581,-0.027311305787034845,0.0026538660336964813,2.964992046356201,2019-06-20 14:44:33:242
7.401561218261719,-4.162255920410156,0.4291540832519531,0.041702110775603735,-0.027577621896042768,0.0031864982517123288,2.9701120853424072,2019-06-20 14:44:33:247
7.382407897949219,-4.163453002929687,0.47464321899414064,0.04090316244857996,-0.027178147732530883,0.0035859724152242146,2.974976062774658,2019-06-20 14:44:33:252
7.40275830078125,-4.1395113525390625,0.46386947631835934,0.04223474299361958,-0.027311305787034845,0.004118604633240062,2.9800961017608643,2019-06-20 14:44:33:257
7.384802062988281,-4.1538763427734375,0.48302279663085934,0.041302636612091846,-0.027577621896042768,0.0031864982517123288,2.9849600791931152,2019-06-20 14:44:33:262
7.3931816406249995,-4.16584716796875,0.4471103210449219,0.04116947855758789,-0.02771077995054673,0.0025207079791925192,2.9900801181793213,2019-06-20 14:44:33:267
7.382407897949219,-4.155073425292969,0.4135920104980469,0.04116947855758789,-0.029175518550090315,0.0025207079791925192,2.9949440956115723,2019-06-20 14:44:33:272
7.387196228027344,-4.150285095214843,0.47584030151367185,0.041302636612091846,-0.02890920244108239,0.0026538660336964813,3.0000641345977783,2019-06-20 14:44:33:277
7.397969970703125,-4.158664672851563,0.45429281616210937,0.040636846339572034,-0.028509728277570506,0.002787024088200443,3.0049281120300293,2019-06-20 14:44:33:282
7.384802062988281,-4.174226745605469,0.46267239379882813,0.04143579466659581,-0.028243412168562583,0.0015886015976647857,3.0100481510162354,2019-06-20 14:44:33:287
7.40275830078125,-4.16584716796875,0.45548989868164064,0.04156895272109977,-0.02691183162352296,0.0019880757611766718,3.0149121284484863,2019-06-20 14:44:33:292
7.405152465820312,-4.149088012695312,0.4507015686035156,0.041702110775603735,-0.028376570223066545,0.002787024088200443,3.0200321674346924,2019-06-20 14:44:33:297
7.395575805664063,-4.161058837890625,0.4602782287597656,0.04037053023056411,-0.029042360495586353,0.0015886015976647857,3.0248961448669434,2019-06-20 14:44:33:302
7.377619567871093,-4.149088012695312,0.4135920104980469,0.04037053023056411,-0.029441834659098238,0.001322285488656862,3.0300161838531494,2019-06-20 14:44:33:307
7.387196228027344,-4.177817993164062,0.4100007629394531,0.039837898012548265,-0.029175518550090315,0.0014554435431608239,3.0351359844207764,2019-06-20 14:44:33:312
7.396772888183594,-4.180212158203125,0.42556283569335934,0.041302636612091846,-0.028509728277570506,0.001322285488656862,3.0400002002716064,2019-06-20 14:44:33:317
7.375225402832031,-4.16584716796875,0.42556283569335934,0.04196842688461166,-0.028376570223066545,0.001055969379648938,3.0451200008392334,2019-06-20 14:44:33:322
7.371634155273437,-4.164650085449218,0.46386947631835934,0.04196842688461166,-0.02811025411405862,0.0015886015976647857,3.0499842166900635,2019-06-20 14:44:33:327
7.371634155273437,-4.176620910644531,0.43035116577148436,0.04223474299361958,-0.027577621896042768,0.0011891274341529002,3.0551040172576904,2019-06-20 14:44:33:332
7.377619567871093,-4.16584716796875,0.4399278259277344,0.04183526883010769,-0.028642886332074468,0.001055969379648938,3.0599679946899414,2019-06-20 14:44:33:337
7.387196228027344,-4.175423828125,0.4530957336425781,0.040770004394076,-0.02784393800505069,0.0007896532706410145,3.0650880336761475,2019-06-20 14:44:33:342
7.3931816406249995,-4.16584716796875,0.47464321899414064,0.03997105606705223,-0.028642886332074468,0.0005233371616330906,3.0699520111083984,2019-06-20 14:44:33:347
7.390787475585937,-4.16584716796875,0.44950448608398436,0.04103632050308392,-0.027311305787034845,0.0002570210526251668,3.0750720500946045,2019-06-20 14:44:33:352
7.3656487426757815,-4.12754052734375,0.46865780639648436,0.04103632050308392,-0.028642886332074468,0.0005233371616330906,3.0799360275268555,2019-06-20 14:44:33:357
7.405152465820312,-4.158664672851563,0.4902052917480469,0.04103632050308392,-0.02877604438657843,0.0007896532706410145,3.0850560665130615,2019-06-20 14:44:33:362
7.405152465820312,-4.128737609863281,0.47464321899414064,0.041302636612091846,-0.02797709605955466,-0.0005419272743986046,3.0899200439453125,2019-06-20 14:44:33:367
7.403955383300781,-4.133525939941406,0.4710519714355469,0.040503688285068076,-0.02811025411405862,0.0003901791071291287,3.0950400829315186,2019-06-20 14:44:33:372
7.418320373535156,-4.135920104980468,0.48781112670898436,0.04037053023056411,-0.029441834659098238,0.0009228113251449763,3.0999040603637695,2019-06-20 14:44:33:377
7.424305786132813,-4.159861755371094,0.4710519714355469,0.040503688285068076,-0.030107624931618046,0.0011891274341529002,3.1050240993499756,2019-06-20 14:44:33:382
7.427897033691406,-4.174226745605469,0.4854169616699219,0.04037053023056411,-0.028642886332074468,0.0007896532706410145,3.1101441383361816,2019-06-20 14:44:33:387
7.430291198730469,-4.1371171874999995,0.4698548889160156,0.039837898012548265,-0.029441834659098238,0.0014554435431608239,3.1150081157684326,2019-06-20 14:44:33:392
7.44106494140625,-4.140708435058594,0.4602782287597656,0.03957158190354034,-0.029308676604594276,0.0018549177066727097,3.1201281547546387,2019-06-20 14:44:33:397
7.3931816406249995,-4.155073425292969,0.4890082092285156,0.03957158190354034,-0.028509728277570506,0.002787024088200443,3.1249921321868896,2019-06-20 14:44:33:402
7.377619567871093,-4.135920104980468,0.4578840637207031,0.03997105606705223,-0.029308676604594276,0.0023875499246885576,3.1301121711730957,2019-06-20 14:44:33:407
7.38360498046875,-4.143102600097656,0.44950448608398436,0.039038949685524495,-0.0295749927136022,0.0023875499246885576,3.1349761486053467,2019-06-20 14:44:33:412
7.3788166503906245,-4.141905517578125,0.47464321899414064,0.03930526579453242,-0.0295749927136022,0.0026538660336964813,3.1400961875915527,2019-06-20 14:44:33:417
7.417123291015625,-4.144299682617188,0.4710519714355469,0.03917210774002846,-0.02877604438657843,0.0029201821427044046,3.1449601650238037,2019-06-20 14:44:33:422
7.409940795898438,-4.141905517578125,0.44471615600585934,0.03850631746750865,-0.029308676604594276,0.0038522885242321388,3.1500802040100098,2019-06-20 14:44:33:427
7.414729125976562,-4.111978454589844,0.44471615600585934,0.038905791631020537,-0.028243412168562583,0.004251762687744024,3.1549441814422607,2019-06-20 14:44:33:432
7.417123291015625,-4.1095842895507815,0.4698548889160156,0.03877263357651657,-0.029441834659098238,0.0038522885242321388,3.1600639820098877,2019-06-20 14:44:33:437
7.385999145507812,-4.1371171874999995,0.4459132385253906,0.0379736852494928,-0.030107624931618046,0.004251762687744024,3.1649281978607178,2019-06-20 14:44:33:442
7.396772888183594,-4.161058837890625,0.45668698120117185,0.03744105303147695,-0.029175518550090315,0.0039854465787361,3.1700479984283447,2019-06-20 14:44:33:447
7.411137878417969,-4.149088012695312,0.4135920104980469,0.038240001358500725,-0.029441834659098238,0.004917552960263833,3.174912214279175,2019-06-20 14:44:33:452
7.4075466308593745,-4.1383142700195314,0.4339424133300781,0.03877263357651657,-0.03037394104062597,0.0065154496143113765,3.1800320148468018,2019-06-20 14:44:33:457
7.409940795898438,-4.1371171874999995,0.46267239379882813,0.0379736852494928,-0.030107624931618046,0.0058496593417915665,3.1848959922790527,2019-06-20 14:44:33:462
7.418320373535156,-4.1395113525390625,0.41598617553710937,0.03770736914048488,-0.0295749927136022,0.005183869069271757,3.190016031265259,2019-06-20 14:44:33:467
7.426699951171875,-4.181409240722656,0.42436575317382813,0.037041578867965066,-0.028243412168562583,0.005583343232783643,3.195136070251465,2019-06-20 14:44:33:472
7.4123349609375,-4.1682413330078125,0.3932416076660156,0.038240001358500725,-0.028642886332074468,0.005317027123775719,3.200000047683716,2019-06-20 14:44:33:477
7.371634155273437,-4.161058837890625,0.4279570007324219,0.03877263357651657,-0.030107624931618046,0.005317027123775719,3.205120086669922,2019-06-20 14:44:33:482
7.377619567871093,-4.177817993164062,0.4483074035644531,0.039038949685524495,-0.029175518550090315,0.0039854465787361,3.209984064102173,2019-06-20 14:44:33:487
7.399167053222656,-4.161058837890625,0.4339424133300781,0.03770736914048488,-0.029042360495586353,0.004251762687744024,3.215104103088379,2019-06-20 14:44:33:492
7.395575805664063,-4.1562705078125,0.44351907348632813,0.03650894664994922,-0.028509728277570506,0.0039854465787361,3.21996808052063,2019-06-20 14:44:33:497
7.406349548339843,-4.162255920410156,0.4507015686035156,0.03650894664994922,-0.02784393800505069,0.0037191304697281762,3.225088119506836,2019-06-20 14:44:33:502
7.419517456054687,-4.151482177734375,0.42436575317382813,0.03770736914048488,-0.02811025411405862,0.004784394905759872,3.229952096939087,2019-06-20 14:44:33:507
7.3943787231445315,-4.161058837890625,0.41838034057617185,0.0379736852494928,-0.02890920244108239,0.005183869069271757,3.235072135925293,2019-06-20 14:44:33:512
7.403955383300781,-4.175423828125,0.44950448608398436,0.03744105303147695,-0.0295749927136022,0.005450185178279681,3.239936113357544,2019-06-20 14:44:33:517
7.406349548339843,-4.1538763427734375,0.4100007629394531,0.03730789497697299,-0.028376570223066545,0.005183869069271757,3.24505615234375,2019-06-20 14:44:33:522
7.40275830078125,-4.1682413330078125,0.4123949279785156,0.037840527194988836,-0.028642886332074468,0.006115975450799491,3.249920129776001,2019-06-20 14:44:33:527
7.417123291015625,-4.169438415527344,0.4399278259277344,0.038240001358500725,-0.02797709605955466,0.005716501287287605,3.255040168762207,2019-06-20 14:44:33:532
7.417123291015625,-4.186197570800781,0.46386947631835934,0.03863947552201261,-0.028243412168562583,0.005583343232783643,3.259904146194458,2019-06-20 14:44:33:537
7.368042907714844,-4.186197570800781,0.46386947631835934,0.03850631746750865,-0.028376570223066545,0.005716501287287605,3.265024185180664,2019-06-20 14:44:33:542
7.369239990234375,-4.173029663085938,0.4674607238769531,0.03850631746750865,-0.02890920244108239,0.00465123685125591,3.270143985748291,2019-06-20 14:44:33:547
7.366845825195313,-4.186197570800781,0.4387307434082031,0.038240001358500725,-0.028376570223066545,0.0038522885242321388,3.275008201599121,2019-06-20 14:44:33:552
7.3644516601562495,-4.18500048828125,0.4662636413574219,0.03837315941300468,-0.028509728277570506,0.003452814360720253,3.280128002166748,2019-06-20 14:44:33:557
7.362057495117187,-4.195774230957031,0.4842198791503906,0.03770736914048488,-0.028376570223066545,0.0038522885242321388,3.284992218017578,2019-06-20 14:44:33:562
7.348889587402343,-4.1969713134765625,0.4123949279785156,0.037840527194988836,-0.02797709605955466,0.004784394905759872,3.290112018585205,2019-06-20 14:44:33:567
7.385999145507812,-4.1945771484375,0.40521243286132813,0.0369084208134611,-0.029441834659098238,0.00465123685125591,3.294975996017456,2019-06-20 14:44:33:572
7.406349548339843,-4.171832580566406,0.44351907348632813,0.03757421108598091,-0.029175518550090315,0.004917552960263833,3.300096035003662,2019-06-20 14:44:33:577
7.4219116210937495,-4.159861755371094,0.45548989868164064,0.03770736914048488,-0.027178147732530883,0.005450185178279681,3.304960012435913,2019-06-20 14:44:33:582
7.403955383300781,-4.161058837890625,0.45668698120117185,0.03810684330399676,-0.027311305787034845,0.004251762687744024,3.310080051422119,2019-06-20 14:44:33:587
7.376422485351562,-4.161058837890625,0.47344613647460937,0.0379736852494928,-0.02784393800505069,0.004251762687744024,3.31494402885437,2019-06-20 14:44:33:592
7.366845825195313,-4.1682413330078125,0.4770373840332031,0.03770736914048488,-0.02877604438657843,0.0037191304697281762,3.320064067840576,2019-06-20 14:44:33:597
7.411137878417969,-4.158664672851563,0.4339424133300781,0.03757421108598091,-0.02797709605955466,0.004784394905759872,3.324928045272827,2019-06-20 14:44:33:602
7.401561218261719,-4.161058837890625,0.46147531127929686,0.0379736852494928,-0.027444463841538806,0.005317027123775719,3.330048084259033,2019-06-20 14:44:33:607
7.391984558105468,-4.175423828125,0.44232199096679686,0.03770736914048488,-0.027577621896042768,0.004251762687744024,3.334912061691284,2019-06-20 14:44:33:612
7.375225402832031,-4.190985900878906,0.4207745056152344,0.03757421108598091,-0.027444463841538806,0.004917552960263833,3.3400321006774902,2019-06-20 14:44:33:617
7.341707092285156,-4.205350891113281,0.43753366088867185,0.03744105303147695,-0.028642886332074468,0.005716501287287605,3.344896078109741,2019-06-20 14:44:33:622
7.3800137329101565,-4.186197570800781,0.47464321899414064,0.038240001358500725,-0.028642886332074468,0.005317027123775719,3.3500161170959473,2019-06-20 14:44:33:627
7.371634155273437,-4.1969713134765625,0.43753366088867185,0.03863947552201261,-0.029042360495586353,0.005050711014767796,3.3551361560821533,2019-06-20 14:44:33:632
7.3788166503906245,-4.188591735839844,0.4602782287597656,0.03837315941300468,-0.02797709605955466,0.0058496593417915665,3.3600001335144043,2019-06-20 14:44:33:637
7.34529833984375,-4.195774230957031,0.4674607238769531,0.03837315941300468,-0.02811025411405862,0.004518078796751947,3.3651201725006104,2019-06-20 14:44:33:642
7.370437072753906,-4.199365478515625,0.4076065979003906,0.03863947552201261,-0.027311305787034845,0.005317027123775719,3.3699841499328613,2019-06-20 14:44:33:647
7.359663330078125,-4.219715881347656,0.3836649475097656,0.039038949685524495,-0.027311305787034845,0.004784394905759872,3.3751041889190674,2019-06-20 14:44:33:652
7.376422485351562,-4.218518798828125,0.39922702026367185,0.03943842384903638,-0.02771077995054673,0.004917552960263833,3.3799681663513184,2019-06-20 14:44:33:657
7.362057495117187,-4.174226745605469,0.4279570007324219,0.040503688285068076,-0.02784393800505069,0.004784394905759872,3.3850882053375244,2019-06-20 14:44:33:662
7.372831237792969,-4.171832580566406,0.4076065979003906,0.040770004394076,-0.027577621896042768,0.005183869069271757,3.3899521827697754,2019-06-20 14:44:33:667
7.362057495117187,-4.173029663085938,0.42436575317382813,0.040770004394076,-0.027311305787034845,0.005050711014767796,3.3950719833374023,2019-06-20 14:44:33:672
7.360860412597656,-4.179015075683593,0.4100007629394531,0.04116947855758789,-0.028376570223066545,0.004518078796751947,3.3999361991882324,2019-06-20 14:44:33:677
7.376422485351562,-4.18500048828125,0.4674607238769531,0.04263421715713147,-0.02771077995054673,0.0031864982517123288,3.4050559997558594,2019-06-20 14:44:33:682
7.3656487426757815,-4.207745056152343,0.45429281616210937,0.04343316548415524,-0.028376570223066545,0.003452814360720253,3.4099202156066895,2019-06-20 14:44:33:687
7.384802062988281,-4.173029663085938,0.4590811462402344,0.043300007429651274,-0.028243412168562583,0.003053340197208367,3.4150400161743164,2019-06-20 14:44:33:692
7.4075466308593745,-4.18500048828125,0.44351907348632813,0.04290053326613939,-0.029042360495586353,0.0039854465787361,3.4199039936065674,2019-06-20 14:44:33:697
7.3931816406249995,-4.200562561035156,0.44950448608398436,0.043300007429651274,-0.029308676604594276,0.0026538660336964813,3.4250240325927734,2019-06-20 14:44:33:702
7.372831237792969,-4.180212158203125,0.47584030151367185,0.04423211381117901,-0.029175518550090315,0.0021212338156806334,3.4301440715789795,2019-06-20 14:44:33:707
7.366845825195313,-4.180212158203125,0.4291540832519531,0.04383263964766712,-0.029441834659098238,0.003053340197208367,3.4350080490112305,2019-06-20 14:44:33:712
7.38360498046875,-4.186197570800781,0.4088036804199219,0.044098955756675044,-0.028642886332074468,0.002787024088200443,3.4401280879974365,2019-06-20 14:44:33:717
7.400364135742187,-4.16584716796875,0.44950448608398436,0.043166849375147316,-0.03037394104062597,0.0021212338156806334,3.4449920654296875,2019-06-20 14:44:33:722
7.4231087036132815,-4.181409240722656,0.4602782287597656,0.04369948159316316,-0.029308676604594276,0.0018549177066727097,3.4501121044158936,2019-06-20 14:44:33:727
7.417123291015625,-4.175423828125,0.44232199096679686,0.043166849375147316,-0.029441834659098238,0.002787024088200443,3.4549760818481445,2019-06-20 14:44:33:732
7.389590393066406,-4.169438415527344,0.46386947631835934,0.04343316548415524,-0.029841308822610123,0.0026538660336964813,3.4600961208343506,2019-06-20 14:44:33:737
7.353677917480469,-4.177817993164062,0.4315482482910156,0.04290053326613939,-0.030240782986122008,0.003452814360720253,3.4649600982666016,2019-06-20 14:44:33:742
7.368042907714844,-4.1826063232421875,0.4483074035644531,0.041702110775603735,-0.0295749927136022,0.0026538660336964813,3.4700801372528076,2019-06-20 14:44:33:747
7.348889587402343,-4.179015075683593,0.4842198791503906,0.041302636612091846,-0.029441834659098238,0.0037191304697281762,3.4749441146850586,2019-06-20 14:44:33:752
7.388393310546875,-4.167044250488281,0.4399278259277344,0.041702110775603735,-0.02877604438657843,0.004251762687744024,3.4800641536712646,2019-06-20 14:44:33:757
7.354875,-4.183803405761719,0.46386947631835934,0.04223474299361958,-0.02771077995054673,0.0033196563062162904,3.4849281311035156,2019-06-20 14:44:33:762
7.375225402832031,-4.183803405761719,0.45668698120117185,0.04156895272109977,-0.02811025411405862,0.0033196563062162904,3.4900481700897217,2019-06-20 14:44:33:767
7.376422485351562,-4.187394653320313,0.4483074035644531,0.04183526883010769,-0.029841308822610123,0.004118604633240062,3.4949121475219727,2019-06-20 14:44:33:772
7.3788166503906245,-4.205350891113281,0.4530957336425781,0.04183526883010769,-0.031306047422153704,0.0037191304697281762,3.5000321865081787,2019-06-20 14:44:33:777
7.38360498046875,-4.171832580566406,0.44471615600585934,0.041302636612091846,-0.03117288936764974,0.004384920742247986,3.5048961639404297,2019-06-20 14:44:33:782
7.368042907714844,-4.18500048828125,0.4602782287597656,0.04143579466659581,-0.03037394104062597,0.005450185178279681,3.5100162029266357,2019-06-20 14:44:33:787
7.396772888183594,-4.205350891113281,0.4279570007324219,0.04103632050308392,-0.029175518550090315,0.005183869069271757,3.5151360034942627,2019-06-20 14:44:33:792
7.3740283203125,-4.192182983398437,0.40521243286132813,0.041702110775603735,-0.030107624931618046,0.004784394905759872,3.5200002193450928,2019-06-20 14:44:33:797
7.368042907714844,-4.201759643554688,0.41718325805664064,0.04223474299361958,-0.02890920244108239,0.004118604633240062,3.5251200199127197,2019-06-20 14:44:33:802
7.3740283203125,-4.195774230957031,0.44351907348632813,0.04103632050308392,-0.02970815076810616,0.0039854465787361,3.5299839973449707,2019-06-20 14:44:33:807
7.38360498046875,-4.1969713134765625,0.4411249084472656,0.04183526883010769,-0.030240782986122008,0.004118604633240062,3.5351040363311768,2019-06-20 14:44:33:812
7.3800137329101565,-4.199365478515625,0.44232199096679686,0.04116947855758789,-0.030107624931618046,0.004518078796751947,3.5399680137634277,2019-06-20 14:44:33:817
7.360860412597656,-4.1969713134765625,0.4794315490722656,0.04090316244857996,-0.030107624931618046,0.003452814360720253,3.545088052749634,2019-06-20 14:44:33:822
7.391984558105468,-4.187394653320313,0.4722490539550781,0.04090316244857996,-0.03037394104062597,0.004518078796751947,3.5499520301818848,2019-06-20 14:44:33:827
7.368042907714844,-4.2113363037109375,0.4674607238769531,0.04116947855758789,-0.030640257149633893,0.004784394905759872,3.555072069168091,2019-06-20 14:44:33:832
7.363254577636718,-4.201759643554688,0.4195774230957031,0.040503688285068076,-0.029841308822610123,0.004118604633240062,3.559936046600342,2019-06-20 14:44:33:837
7.346495422363281,-4.1945771484375,0.4219715881347656,0.04010421412155619,-0.02890920244108239,0.0039854465787361,3.565056085586548,2019-06-20 14:44:33:842
7.358466247558594,-4.20415380859375,0.4387307434082031,0.04143579466659581,-0.029441834659098238,0.0033196563062162904,3.569920063018799,2019-06-20 14:44:33:847
7.357269165039062,-4.20415380859375,0.42316867065429686,0.042101584939115616,-0.03037394104062597,0.004518078796751947,3.575040102005005,2019-06-20 14:44:33:852
7.369239990234375,-4.192182983398437,0.41838034057617185,0.04183526883010769,-0.03050709909512993,0.004784394905759872,3.579904079437256,2019-06-20 14:44:33:857
7.362057495117187,-4.190985900878906,0.4291540832519531,0.042101584939115616,-0.030240782986122008,0.004917552960263833,3.585024118423462,2019-06-20 14:44:33:862
7.371634155273437,-4.224504211425781,0.4411249084472656,0.04103632050308392,-0.029175518550090315,0.005716501287287605,3.590144157409668,2019-06-20 14:44:33:867
7.363254577636718,-4.208942138671875,0.3932416076660156,0.04183526883010769,-0.029308676604594276,0.005050711014767796,3.595008134841919,2019-06-20 14:44:33:872
7.38360498046875,-4.212533386230469,0.44471615600585934,0.04156895272109977,-0.029441834659098238,0.005982817396295529,3.600128173828125,2019-06-20 14:44:33:877
7.381210815429688,-4.217321716308594,0.4483074035644531,0.04156895272109977,-0.030640257149633893,0.005450185178279681,3.604992151260376,2019-06-20 14:44:33:882
7.388393310546875,-4.188591735839844,0.41598617553710937,0.04116947855758789,-0.02877604438657843,0.005317027123775719,3.610112190246582,2019-06-20 14:44:33:887
7.387196228027344,-4.2113363037109375,0.3908474426269531,0.040503688285068076,-0.029841308822610123,0.005583343232783643,3.614976167678833,2019-06-20 14:44:33:892
7.377619567871093,-4.193380065917968,0.43035116577148436,0.04090316244857996,-0.030107624931618046,0.005450185178279681,3.620096206665039,2019-06-20 14:44:33:897
7.354875,-4.198168395996094,0.42556283569335934,0.04103632050308392,-0.030240782986122008,0.0058496593417915665,3.62496018409729,2019-06-20 14:44:33:902
7.370437072753906,-4.220912963867187,0.4147890930175781,0.040503688285068076,-0.0295749927136022,0.005183869069271757,3.630079984664917,2019-06-20 14:44:33:907
7.372831237792969,-4.220912963867187,0.40521243286132813,0.04103632050308392,-0.0295749927136022,0.005183869069271757,3.634944200515747,2019-06-20 14:44:33:912
7.38360498046875,-4.183803405761719,0.44232199096679686,0.041302636612091846,-0.0295749927136022,0.005183869069271757,3.640064001083374,2019-06-20 14:44:33:917
7.3644516601562495,-4.2113363037109375,0.45668698120117185,0.04023737217606015,-0.029308676604594276,0.004518078796751947,3.644928216934204,2019-06-20 14:44:33:922
