ACCELEROMETER X (m/s²),ACCELEROMETER Y (m/s²),ACCELEROMETER Z (m/s²),GYROSCOPE X (rad/s),GYROSCOPE Y (rad/s),GYROSCOPE Z (rad/s),Time since start in ms ,YYYY-MO-DD HH-MI-SS_SSS
4.0652922363281245,-8.013270385742187,0.29029251098632813,0.035576840268421485,-0.02438182858794769,-0.0012077175469184143,0.0,2019-06-20 16:00:08:754
4.085642639160156,-8.032423706054688,0.2855041809082031,0.03531052415941356,-0.02265077387939618,0.0003901791071291287,0.0048639774322509766,2019-06-20 16:00:08:759
4.0353651733398435,-8.033620788574218,0.2567742004394531,0.03397894361437394,-0.020786561116340713,0.0015886015976647857,0.009984016418457031,2019-06-20 16:00:08:764
4.044941833496094,-8.00728497314453,0.2938837585449219,0.03424525972338187,-0.019321822516797132,0.0029201821427044046,0.014847993850708008,2019-06-20 16:00:08:769
4.009029357910157,-8.001299560546874,0.3046575012207031,0.0341121016688779,-0.018656032244277324,0.002787024088200443,0.019968032836914062,2019-06-20 16:00:08:774
4.013817687988281,-8.028832458496094,0.22565005493164061,0.03224788890582244,-0.01905550640778921,0.0037191304697281762,0.02483201026916504,2019-06-20 16:00:08:779
4.048533081054687,-8.008482055664063,0.24480337524414061,0.03224788890582244,-0.018789190298781285,0.004251762687744024,0.029952049255371094,2019-06-20 16:00:08:784
4.01262060546875,-8.024044128417968,0.30944583129882813,0.03224788890582244,-0.018522874189773362,0.005450185178279681,0.03481602668762207,2019-06-20 16:00:08:789
4.016211853027344,-8.01566455078125,0.36092037963867185,0.03278052112383829,-0.020120770843820905,0.006382291559807415,0.039936065673828125,2019-06-20 16:00:08:794
4.011423522949219,-8.01566455078125,0.30226333618164064,0.032114730851318475,-0.019321822516797132,0.007713872104847034,0.0448000431060791,2019-06-20 16:00:08:799
4.029379760742187,-8.019255798339843,0.29029251098632813,0.031315782524294705,-0.01785708391725355,0.00744755599583911,0.049920082092285156,2019-06-20 16:00:08:804
4.001846862792969,-8.022847045898438,0.3190224914550781,0.03158209863330263,-0.01692497753572582,0.006781765723319301,0.05478405952453613,2019-06-20 16:00:08:809
4.005438110351562,-8.033620788574218,0.31064291381835935,0.03144894057879867,-0.01692497753572582,0.007713872104847034,0.05990409851074219,2019-06-20 16:00:08:814
4.0030439453125,-8.027635375976562,0.32261373901367185,0.03118262446979074,-0.015327080881678275,0.008779136540878729,0.06502389907836914,2019-06-20 16:00:08:819
4.0210001831054685,-8.040803283691407,0.2867012634277344,0.030916308360782817,-0.01492760671816639,0.009977559031414385,0.06988811492919922,2019-06-20 16:00:08:824
4.023394348144532,-8.046788696289063,0.2807158508300781,0.030649992251774894,-0.016392345317709972,0.0095780848679025,0.07500791549682617,2019-06-20 16:00:08:829
3.998255615234375,-8.031226623535156,0.2950808410644531,0.03025051808826301,-0.015593396990686199,0.00891229459538269,0.07987189292907715,2019-06-20 16:00:08:834
3.9731168823242187,-8.040803283691407,0.3142341613769531,0.03104946641528678,-0.014394974500150544,0.009844400976910424,0.0849919319152832,2019-06-20 16:00:08:839
3.969525634765625,-8.050379943847656,0.2867012634277344,0.031315782524294705,-0.01492760671816639,0.009178610704390614,0.08985590934753418,2019-06-20 16:00:08:844
3.9611460571289063,-8.074321594238281,0.2627596130371094,0.030916308360782817,-0.014394974500150544,0.009844400976910424,0.09497594833374023,2019-06-20 16:00:08:849
3.940795654296875,-8.070730346679687,0.25797128295898436,0.030516834197270932,-0.013862342282134694,0.009444926813398537,0.09983992576599121,2019-06-20 16:00:08:854
3.979102294921875,-8.101854492187499,0.26994210815429687,0.03118262446979074,-0.013862342282134694,0.00891229459538269,0.10495996475219727,2019-06-20 16:00:08:859
3.9671314697265623,-8.094671997070312,0.2687450256347656,0.03198157279681452,-0.014261816445646579,0.009178610704390614,0.10982394218444824,2019-06-20 16:00:08:864
3.959948974609375,-8.065942016601563,0.3142341613769531,0.030117360033759047,-0.014261816445646579,0.008645978486374767,0.1149439811706543,2019-06-20 16:00:08:869
3.93600732421875,-8.077912841796875,0.26515377807617185,0.030783150306278855,-0.014794448663662429,0.00744755599583911,0.11980795860290527,2019-06-20 16:00:08:874
3.95516064453125,-8.082701171875,0.22684713745117188,0.03198157279681452,-0.014528132554654506,0.007713872104847034,0.12492799758911133,2019-06-20 16:00:08:879
3.9623431396484374,-8.083898254394532,0.2795187683105469,0.03158209863330263,-0.014394974500150544,0.006648607668815338,0.1297919750213623,2019-06-20 16:00:08:884
3.941992736816406,-8.095869079589843,0.3190224914550781,0.03158209863330263,-0.014794448663662429,0.005583343232783643,0.13491201400756836,2019-06-20 16:00:08:889
3.9467810668945313,-8.101854492187499,0.3058545837402344,0.03144894057879867,-0.015193922827174314,0.004784394905759872,0.13977599143981934,2019-06-20 16:00:08:894
3.9324160766601564,-8.09227783203125,0.3250079040527344,0.03224788890582244,-0.015193922827174314,0.005450185178279681,0.1448960304260254,2019-06-20 16:00:08:899
3.927627746582031,-8.100657409667969,0.27113919067382813,0.03317999528735017,-0.016126029208702045,0.00465123685125591,0.15001606941223145,2019-06-20 16:00:08:904
3.9156569213867187,-8.099460327148437,0.2795187683105469,0.032514205014830364,-0.017457609753741665,0.003452814360720253,0.15488004684448242,2019-06-20 16:00:08:909
3.9288248291015626,-8.110234069824218,0.26395669555664064,0.03304683723284621,-0.015992871154198084,0.0025207079791925192,0.16000008583068848,2019-06-20 16:00:08:914
3.950372314453125,-8.088686584472656,0.2591683654785156,0.03344631139635809,-0.016791819481221857,0.0017217596521687478,0.16486406326293945,2019-06-20 16:00:08:919
3.9288248291015626,-8.095869079589843,0.32261373901367185,0.03437841777788583,-0.017324451699237704,0.001055969379648938,0.1699841022491455,2019-06-20 16:00:08:924
3.912065673828125,-8.080307006835938,0.2986720886230469,0.03344631139635809,-0.0183897161352694,0.0006564952161370526,0.17484807968139648,2019-06-20 16:00:08:929
3.927627746582031,-8.107839904785155,0.2424092102050781,0.03357946945086206,-0.017590767808245627,0.0003901791071291287,0.17996811866760254,2019-06-20 16:00:08:934
3.927627746582031,-8.087489501953124,0.25318295288085935,0.034777891941397715,-0.018123400026261477,0.0005233371616330906,0.18483209609985352,2019-06-20 16:00:08:939
3.950372314453125,-8.110234069824218,0.2675479431152344,0.03544368221391753,-0.018922348353285247,-0.0012077175469184143,0.18995189666748047,2019-06-20 16:00:08:944
3.950372314453125,-8.09347491455078,0.26994210815429687,0.03584315637742941,-0.02145235138886052,-0.0025392980919580334,0.19481611251831055,2019-06-20 16:00:08:949
3.937204406738281,-8.128190307617187,0.26515377807617185,0.03544368221391753,-0.02185182555237241,-0.0018735078194382236,0.1999359130859375,2019-06-20 16:00:08:954
3.921642333984375,-8.097066162109375,0.27712460327148436,0.03597631443193337,-0.022251299715884295,-0.0022729819829501096,0.20479989051818848,2019-06-20 16:00:08:959
3.9348102416992186,-8.089883666992188,0.22684713745117188,0.03730789497697299,-0.023849196369931835,-0.0025392980919580334,0.20991992950439453,2019-06-20 16:00:08:964
3.9587518920898437,-8.097066162109375,0.28311001586914064,0.03677526275895714,-0.02438182858794769,-0.0034714044734857666,0.2147839069366455,2019-06-20 16:00:08:969
3.9300219116210937,-8.11143115234375,0.2735333557128906,0.037041578867965066,-0.024115512478939758,-0.0044035108550135,0.21990394592285156,2019-06-20 16:00:08:974
3.9156569213867187,-8.076715759277343,0.23043838500976563,0.03877263357651657,-0.02358288026092391,-0.0050693011275333094,0.22502398490905762,2019-06-20 16:00:08:979
3.9264306640625,-8.088686584472656,0.23163546752929687,0.04143579466659581,-0.025713409132987305,-0.005468775291045195,0.2298879623413086,2019-06-20 16:00:08:984
3.9204452514648436,-8.080307006835938,0.2591683654785156,0.040503688285068076,-0.02771077995054673,-0.006001407509061044,0.23500800132751465,2019-06-20 16:00:08:989
3.910868591308594,-8.097066162109375,0.2783216857910156,0.04037053023056411,-0.026645515514515036,-0.0071998299995967,0.23987197875976562,2019-06-20 16:00:08:994
3.9384014892578123,-8.079109924316406,0.28909542846679687,0.042101584939115616,-0.027444463841538806,-0.008131936381124433,0.24499201774597168,2019-06-20 16:00:08:999
3.951569396972656,-8.069533264160157,0.2328325500488281,0.04116947855758789,-0.029175518550090315,-0.0077324622176125485,0.24985599517822266,2019-06-20 16:00:09:004
3.9575548095703126,-8.056365356445312,0.2867012634277344,0.042101584939115616,-0.02771077995054673,-0.00786562027211651,0.2549760341644287,2019-06-20 16:00:09:009
3.953963562011719,-8.057562438964844,0.35373788452148436,0.04276737521163543,-0.029974466877114084,-0.0071998299995967,0.2598400115966797,2019-06-20 16:00:09:014
3.9611460571289063,-8.080307006835938,0.3321903991699219,0.043300007429651274,-0.03050709909512993,-0.0070666719450927385,0.26496005058288574,2019-06-20 16:00:09:019
3.956357727050781,-8.06474493408203,0.3441612243652344,0.043300007429651274,-0.03037394104062597,-0.0077324622176125485,0.2698240280151367,2019-06-20 16:00:09:024
3.9587518920898437,-8.076715759277343,0.3525408020019531,0.043965797702171086,-0.029308676604594276,-0.007998778326620472,0.2749440670013428,2019-06-20 16:00:09:029
3.939598571777344,-8.062350769042968,0.2759275207519531,0.04383263964766712,-0.031039731313145778,-0.008531410544636318,0.27980804443359375,2019-06-20 16:00:09:034
3.9755110473632813,-8.069533264160157,0.2819129333496094,0.04436527186568297,-0.03117288936764974,-0.008797726653644243,0.2849280834197998,2019-06-20 16:00:09:039
3.9743139648437498,-8.0635478515625,0.27712460327148436,0.04423211381117901,-0.03170552158566559,-0.009197200817156128,0.2897920608520508,2019-06-20 16:00:09:044
3.983890625,-8.074321594238281,0.3381758117675781,0.04383263964766712,-0.031971837694673516,-0.00933035887166009,0.29491209983825684,2019-06-20 16:00:09:049
3.9479781494140624,-8.06474493408203,0.2878983459472656,0.04343316548415524,-0.03183867964016955,-0.009197200817156128,0.2997760772705078,2019-06-20 16:00:09:054
3.994664367675781,-8.052774108886718,0.22205880737304687,0.041702110775603735,-0.031971837694673516,-0.010262465253187823,0.30489611625671387,2019-06-20 16:00:09:059
3.9779052124023435,-8.061153686523438,0.27113919067382813,0.042501059102627504,-0.0295749927136022,-0.0099961491441799,0.3100159168243408,2019-06-20 16:00:09:064
3.959948974609375,-8.074321594238281,0.3525408020019531,0.043300007429651274,-0.03037394104062597,-0.009463516926164052,0.3148798942565918,2019-06-20 16:00:09:069
3.99346728515625,-8.0252412109375,0.3178254089355469,0.04369948159316316,-0.03117288936764974,-0.009463516926164052,0.31999993324279785,2019-06-20 16:00:09:074
3.9587518920898437,-8.03481787109375,0.3309933166503906,0.04263421715713147,-0.029175518550090315,-0.010395623307691787,0.32486391067504883,2019-06-20 16:00:09:079
4.001846862792969,-8.061153686523438,0.3441612243652344,0.042101584939115616,-0.028509728277570506,-0.010262465253187823,0.3299839496612549,2019-06-20 16:00:09:084
4.011423522949219,-8.055168273925782,0.30346041870117185,0.04143579466659581,-0.03050709909512993,-0.010795097471203672,0.33484792709350586,2019-06-20 16:00:09:089
3.998255615234375,-8.046788696289063,0.3262049865722656,0.04156895272109977,-0.029175518550090315,-0.009862991089675938,0.3399679660797119,2019-06-20 16:00:09:094
4.023394348144532,-8.06474493408203,0.36810287475585934,0.041302636612091846,-0.02890920244108239,-0.00933035887166009,0.3448319435119629,2019-06-20 16:00:09:099
3.9743139648437498,-8.037212036132813,0.2795187683105469,0.04103632050308392,-0.03143920547665766,-0.009064042762652167,0.34995198249816895,2019-06-20 16:00:09:104
3.9324160766601564,-8.086292419433594,0.23402963256835937,0.04103632050308392,-0.027577621896042768,-0.009064042762652167,0.3548159599304199,2019-06-20 16:00:09:109
4.034168090820312,-8.062350769042968,0.3130370788574219,0.040770004394076,-0.02624604135100315,-0.008531410544636318,0.359935998916626,2019-06-20 16:00:09:114
3.9635402221679685,-8.03601495361328,0.24959170532226563,0.039038949685524495,-0.03117288936764974,-0.007998778326620472,0.36479997634887695,2019-06-20 16:00:09:119
3.950372314453125,-8.046788696289063,0.4016211853027344,0.0435663235386592,-0.028642886332074468,-0.008131936381124433,0.369920015335083,2019-06-20 16:00:09:124
4.010226440429688,-8.071927429199219,0.2783216857910156,0.041302636612091846,-0.027577621896042768,-0.008265094435628395,0.374783992767334,2019-06-20 16:00:09:129
3.9635402221679685,-8.030029541015624,0.2543800354003906,0.038240001358500725,-0.02970815076810616,-0.007998778326620472,0.37990403175354004,2019-06-20 16:00:09:134
3.969525634765625,-8.075518676757813,0.30346041870117185,0.04103632050308392,-0.028243412168562583,-0.008797726653644243,0.3850240707397461,2019-06-20 16:00:09:139
3.9814964599609373,-8.104248657226563,0.32740206909179687,0.040503688285068076,-0.028642886332074468,-0.008531410544636318,0.38988804817199707,2019-06-20 16:00:09:144
3.950372314453125,-8.057562438964844,0.2424092102050781,0.04156895272109977,-0.029841308822610123,-0.008664568599140282,0.3950080871582031,2019-06-20 16:00:09:149
3.9814964599609373,-8.057562438964844,0.2603654479980469,0.04343316548415524,-0.029175518550090315,-0.009862991089675938,0.3998720645904541,2019-06-20 16:00:09:154
3.985087707519531,-8.068336181640625,0.2567742004394531,0.04156895272109977,-0.02784393800505069,-0.008664568599140282,0.40499210357666016,2019-06-20 16:00:09:159
4.007832275390625,-8.11143115234375,0.25078878784179687,0.04143579466659581,-0.02890920244108239,-0.008265094435628395,0.40985608100891113,2019-06-20 16:00:09:164
4.016211853027344,-8.089883666992188,0.2819129333496094,0.04116947855758789,-0.030640257149633893,-0.008664568599140282,0.4149761199951172,2019-06-20 16:00:09:169
3.9743139648437498,-8.049182861328125,0.3010662536621094,0.041702110775603735,-0.02691183162352296,-0.0077324622176125485,0.41984009742736816,2019-06-20 16:00:09:174
4.013817687988281,-8.062350769042968,0.3130370788574219,0.040770004394076,-0.026379199405507113,-0.0071998299995967,0.4249598979949951,2019-06-20 16:00:09:179
4.007832275390625,-8.068336181640625,0.2878983459472656,0.03943842384903638,-0.02797709605955466,-0.007998778326620472,0.4298241138458252,2019-06-20 16:00:09:184
4.0030439453125,-8.0635478515625,0.3621174621582031,0.04116947855758789,-0.02464814469695561,-0.0070666719450927385,0.43494391441345215,2019-06-20 16:00:09:189
4.040153503417969,-8.051577026367188,0.30226333618164064,0.03997105606705223,-0.023050248042908065,-0.0077324622176125485,0.4398078918457031,2019-06-20 16:00:09:194
4.036562255859375,-8.068336181640625,0.2615625305175781,0.03930526579453242,-0.02704498967802692,-0.00786562027211651,0.4449279308319092,2019-06-20 16:00:09:199
4.005438110351562,-8.07312451171875,0.2855041809082031,0.039704739958044306,-0.02424867053344372,-0.00653403972707689,0.44979190826416016,2019-06-20 16:00:09:204
3.99346728515625,-8.062350769042968,0.2819129333496094,0.03930526579453242,-0.02438182858794769,-0.006267723618068967,0.4549119472503662,2019-06-20 16:00:09:209
3.9814964599609373,-8.052774108886718,0.2819129333496094,0.038905791631020537,-0.025713409132987305,-0.006667197781580852,0.4597759246826172,2019-06-20 16:00:09:214
3.9156569213867187,-8.067139099121093,0.29029251098632813,0.03943842384903638,-0.02344972220641995,-0.006800355836084815,0.46489596366882324,2019-06-20 16:00:09:219
3.9743139648437498,-8.07312451171875,0.2819129333496094,0.038240001358500725,-0.022251299715884295,-0.006134565563565005,0.4700160026550293,2019-06-20 16:00:09:224
3.9204452514648436,-8.07312451171875,0.24001504516601563,0.03863947552201261,-0.023716038315427873,-0.006800355836084815,0.4748799800872803,2019-06-20 16:00:09:229
3.9180510864257814,-8.125796142578125,0.32979623413085934,0.040636846339572034,-0.023849196369931835,-0.0077324622176125485,0.48000001907348633,2019-06-20 16:00:09:234
3.968328552246094,-8.128190307617187,0.2615625305175781,0.03930526579453242,-0.023982354424435796,-0.008265094435628395,0.4848639965057373,2019-06-20 16:00:09:239
3.9467810668945313,-8.112628234863282,0.28430709838867185,0.03930526579453242,-0.023982354424435796,-0.009197200817156128,0.48998403549194336,2019-06-20 16:00:09:244
3.9240364990234373,-8.128190307617187,0.2878983459472656,0.040636846339572034,-0.02531393496947542,-0.01066193941669971,0.49484801292419434,2019-06-20 16:00:09:249
3.8929123535156247,-8.113825317382812,0.2663508605957031,0.04023737217606015,-0.02451498664245165,-0.011460887743723482,0.4999680519104004,2019-06-20 16:00:09:254
3.89770068359375,-8.075518676757813,0.28311001586914064,0.040770004394076,-0.023183406097412027,-0.012925626343267063,0.5048320293426514,2019-06-20 16:00:09:259
3.8821386108398435,-8.104248657226563,0.34176705932617185,0.04090316244857996,-0.023849196369931835,-0.01425720688830668,0.5099520683288574,2019-06-20 16:00:09:264
3.9060802612304686,-8.136569885253905,0.2687450256347656,0.04143579466659581,-0.023849196369931835,-0.014922997160826491,0.5150721073150635,2019-06-20 16:00:09:269
3.9264306640625,-8.124599060058594,0.26395669555664064,0.042101584939115616,-0.02358288026092391,-0.01625457770586611,0.5199360847473145,2019-06-20 16:00:09:274
3.900094848632812,-8.109036987304687,0.24959170532226563,0.043300007429651274,-0.023982354424435796,-0.018518265672730762,0.5248000621795654,2019-06-20 16:00:09:279
3.9204452514648436,-8.097066162109375,0.2926866760253906,0.04276737521163543,-0.02424867053344372,-0.019450372054258497,0.5299201011657715,2019-06-20 16:00:09:284
3.900094848632812,-8.080307006835938,0.24480337524414061,0.04196842688461166,-0.024115512478939758,-0.020781952599298114,0.5347840785980225,2019-06-20 16:00:09:289
3.9048831787109375,-8.077912841796875,0.29029251098632813,0.042367901048123546,-0.023183406097412027,-0.02184721703532981,0.5399041175842285,2019-06-20 16:00:09:294
3.9072773437499997,-8.076715759277343,0.2855041809082031,0.04383263964766712,-0.023316564151915988,-0.02264616536235358,0.5450239181518555,2019-06-20 16:00:09:299
3.921642333984375,-8.049182861328125,0.2747304382324219,0.04383263964766712,-0.023849196369931835,-0.023977745907393204,0.5498878955841064,2019-06-20 16:00:09:304
3.95516064453125,-8.086292419433594,0.28311001586914064,0.04369948159316316,-0.02344972220641995,-0.02437722007090509,0.5550079345703125,2019-06-20 16:00:09:309
3.9862847900390626,-8.068336181640625,0.3142341613769531,0.04383263964766712,-0.023982354424435796,-0.02451037812540905,0.5598719120025635,2019-06-20 16:00:09:314
3.9611460571289063,-8.028832458496094,0.25318295288085935,0.04303369132064335,-0.023716038315427873,-0.02530932645243282,0.5649919509887695,2019-06-20 16:00:09:319
3.956357727050781,-8.055168273925782,0.3357816467285156,0.043166849375147316,-0.023183406097412027,-0.024244062016401127,0.5698559284210205,2019-06-20 16:00:09:324
3.994664367675781,-8.081504089355468,0.3549349670410156,0.04303369132064335,-0.024914460805963535,-0.023178797580369427,0.5749759674072266,2019-06-20 16:00:09:329
3.99346728515625,-8.04439453125,0.34655538940429687,0.04223474299361958,-0.024115512478939758,-0.023178797580369427,0.5798399448394775,2019-06-20 16:00:09:334
4.034168090820312,-8.002496643066406,0.3429641418457031,0.04183526883010769,-0.02131919333435656,-0.02264616536235358,0.5849599838256836,2019-06-20 16:00:09:339
4.029379760742187,-8.031226623535156,0.38725619506835934,0.042367901048123546,-0.02198498360687637,-0.021980375089833772,0.5898239612579346,2019-06-20 16:00:09:344
3.999452697753906,-8.027635375976562,0.32740206909179687,0.040770004394076,-0.02358288026092391,-0.022246691198841696,0.5949440002441406,2019-06-20 16:00:09:349
4.009029357910157,-8.038409118652343,0.3262049865722656,0.03930526579453242,-0.02065340306183675,-0.021580900926321887,0.5998079776763916,2019-06-20 16:00:09:354
4.025788513183594,-8.071927429199219,0.3118399963378906,0.03850631746750865,-0.0211860352798526,-0.021314584817313964,0.6049280166625977,2019-06-20 16:00:09:359
4.001846862792969,-8.062350769042968,0.30346041870117185,0.03917210774002846,-0.02344972220641995,-0.020781952599298114,0.6097919940948486,2019-06-20 16:00:09:364
3.9874818725585937,-8.057562438964844,0.26515377807617185,0.037840527194988836,-0.02145235138886052,-0.021048268708306037,0.6149120330810547,2019-06-20 16:00:09:369
3.982693542480469,-8.037212036132813,0.2615625305175781,0.03850631746750865,-0.02278393193390014,-0.021314584817313964,0.6197760105133057,2019-06-20 16:00:09:374
3.9635402221679685,-8.074321594238281,0.3333874816894531,0.03943842384903638,-0.023982354424435796,-0.020781952599298114,0.6248960494995117,2019-06-20 16:00:09:379
3.9767081298828124,-8.06474493408203,0.3357816467285156,0.03850631746750865,-0.02278393193390014,-0.020648794544794152,0.6300160884857178,2019-06-20 16:00:09:384
3.9647373046875,-8.068336181640625,0.34894955444335934,0.03877263357651657,-0.021052877225348637,-0.019983004272274344,0.6348800659179688,2019-06-20 16:00:09:389
3.951569396972656,-8.094671997070312,0.2974750061035156,0.038905791631020537,-0.02278393193390014,-0.021580900926321887,0.6400001049041748,2019-06-20 16:00:09:394
3.9204452514648436,-8.101854492187499,0.26994210815429687,0.03744105303147695,-0.025047618860467497,-0.021980375089833772,0.6448640823364258,2019-06-20 16:00:09:399
3.9324160766601564,-8.069533264160157,0.2663508605957031,0.039704739958044306,-0.02544709302397938,-0.02344511368937735,0.6499841213226318,2019-06-20 16:00:09:404
3.9623431396484374,-8.07312451171875,0.2747304382324219,0.04156895272109977,-0.026645515514515036,-0.022779323416857542,0.6548480987548828,2019-06-20 16:00:09:409
3.9635402221679685,-8.07312451171875,0.27113919067382813,0.04183526883010769,-0.026379199405507113,-0.023844587852889235,0.6599678993225098,2019-06-20 16:00:09:414
3.9467810668945313,-8.074321594238281,0.2603654479980469,0.040503688285068076,-0.02451498664245165,-0.023977745907393204,0.6648321151733398,2019-06-20 16:00:09:419
3.9192481689453125,-8.067139099121093,0.24480337524414061,0.040636846339572034,-0.02438182858794769,-0.024110903961897166,0.6699519157409668,2019-06-20 16:00:09:424
3.9527664794921873,-8.099460327148437,0.23762088012695312,0.04223474299361958,-0.026778673569018998,-0.024909852288920935,0.6748158931732178,2019-06-20 16:00:09:429
3.937204406738281,-8.101854492187499,0.30226333618164064,0.043965797702171086,-0.026778673569018998,-0.025575642561440744,0.6799359321594238,2019-06-20 16:00:09:434
3.9611460571289063,-8.068336181640625,0.3130370788574219,0.04369948159316316,-0.028376570223066545,-0.025708800615944705,0.6847999095916748,2019-06-20 16:00:09:439
3.925233581542969,-8.047985778808593,0.3070516662597656,0.04290053326613939,-0.02797709605955466,-0.027439855324496207,0.6899199485778809,2019-06-20 16:00:09:444
3.969525634765625,-8.068336181640625,0.3166283264160156,0.04343316548415524,-0.02611288329649919,-0.028238803651519984,0.6947839260101318,2019-06-20 16:00:09:449
3.968328552246094,-8.074321594238281,0.3118399963378906,0.042101584939115616,-0.02877604438657843,-0.027573013379000175,0.6999039649963379,2019-06-20 16:00:09:454
3.979102294921875,-8.047985778808593,0.32979623413085934,0.043166849375147316,-0.02890920244108239,-0.0278393294880081,0.705024003982544,2019-06-20 16:00:09:459
4.010226440429688,-8.050379943847656,0.34775247192382813,0.04449842992018693,-0.02877604438657843,-0.0295703841965596,0.7098879814147949,2019-06-20 16:00:09:464
4.024591430664063,-8.014467468261719,0.32740206909179687,0.04503106213820278,-0.029441834659098238,-0.029703542251063562,0.715008020401001,2019-06-20 16:00:09:469
4.0353651733398435,-8.043197448730469,0.2974750061035156,0.044764746029194856,-0.028243412168562583,-0.0295703841965596,0.719871997833252,2019-06-20 16:00:09:474
4.015014770507812,-8.031226623535156,0.2938837585449219,0.04423211381117901,-0.026645515514515036,-0.028505119760527907,0.724992036819458,2019-06-20 16:00:09:479
4.018606018066406,-8.0252412109375,0.3190224914550781,0.04263421715713147,-0.02691183162352296,-0.02797248754251206,0.729856014251709,2019-06-20 16:00:09:484
4.011423522949219,-8.030029541015624,0.3453583068847656,0.04263421715713147,-0.026512357460011075,-0.028371961706023945,0.734976053237915,2019-06-20 16:00:09:489
4.019803100585937,-8.067139099121093,0.3238108215332031,0.04343316548415524,-0.02704498967802692,-0.02877143586953583,0.739840030670166,2019-06-20 16:00:09:494
3.994664367675781,-8.055168273925782,0.29029251098632813,0.043300007429651274,-0.02797709605955466,-0.02797248754251206,0.7449600696563721,2019-06-20 16:00:09:499
3.997058532714844,-8.028832458496094,0.25318295288085935,0.041702110775603735,-0.025979725241995228,-0.02690722310648036,0.749824047088623,2019-06-20 16:00:09:504
4.009029357910157,-8.047985778808593,0.3046575012207031,0.042367901048123546,-0.02451498664245165,-0.028105645597016022,0.7549440860748291,2019-06-20 16:00:09:509
3.9874818725585937,-8.09227783203125,0.2807158508300781,0.040770004394076,-0.023849196369931835,-0.027573013379000175,0.7598080635070801,2019-06-20 16:00:09:514
3.9731168823242187,-8.05397119140625,0.3166283264160156,0.041702110775603735,-0.024781302751459573,-0.02797248754251206,0.7649281024932861,2019-06-20 16:00:09:519
4.019803100585937,-8.062350769042968,0.2867012634277344,0.04223474299361958,-0.025180776914971458,-0.028904593924039792,0.7697920799255371,2019-06-20 16:00:09:524
4.001846862792969,-8.056365356445312,0.2328325500488281,0.04143579466659581,-0.025580251078483343,-0.02797248754251206,0.7749121189117432,2019-06-20 16:00:09:529
4.011423522949219,-8.069533264160157,0.2663508605957031,0.04103632050308392,-0.023183406097412027,-0.028371961706023945,0.7797760963439941,2019-06-20 16:00:09:534
3.997058532714844,-8.057562438964844,0.3381758117675781,0.04037053023056411,-0.02358288026092391,-0.029037751978543754,0.7848958969116211,2019-06-20 16:00:09:539
3.9862847900390626,-8.059956604003906,0.3250079040527344,0.041702110775603735,-0.023183406097412027,-0.02943722614205564,0.7900159358978271,2019-06-20 16:00:09:544
3.9922702026367185,-8.061153686523438,0.29627792358398436,0.04103632050308392,-0.022917089988404103,-0.029703542251063562,0.7948799133300781,2019-06-20 16:00:09:549
4.015014770507812,-8.050379943847656,0.3070516662597656,0.04143579466659581,-0.02531393496947542,-0.029969858360071485,0.7999999523162842,2019-06-20 16:00:09:554
4.032971008300781,-8.024044128417968,0.2998691711425781,0.04103632050308392,-0.02544709302397938,-0.028505119760527907,0.8048639297485352,2019-06-20 16:00:09:559
4.024591430664063,-8.021649963378906,0.3178254089355469,0.040770004394076,-0.02358288026092391,-0.02797248754251206,0.8099839687347412,2019-06-20 16:00:09:564
4.0377593383789065,-8.021649963378906,0.2986720886230469,0.04010421412155619,-0.023982354424435796,-0.028371961706023945,0.8148479461669922,2019-06-20 16:00:09:569
4.0413505859375,-8.039606201171875,0.3142341613769531,0.03877263357651657,-0.024115512478939758,-0.0278393294880081,0.8199679851531982,2019-06-20 16:00:09:574
4.025788513183594,-8.043197448730469,0.32740206909179687,0.03917210774002846,-0.023716038315427873,-0.027439855324496207,0.8248319625854492,2019-06-20 16:00:09:579
4.0497301635742184,-8.039606201171875,0.3190224914550781,0.039837898012548265,-0.02424867053344372,-0.026374590888464514,0.8299520015716553,2019-06-20 16:00:09:584
4.061700988769531,-8.03601495361328,0.2855041809082031,0.04090316244857996,-0.02265077387939618,-0.025575642561440744,0.8348159790039062,2019-06-20 16:00:09:589
4.044941833496094,-8.024044128417968,0.3118399963378906,0.03930526579453242,-0.023716038315427873,-0.02597511672495263,0.8399360179901123,2019-06-20 16:00:09:594
4.072474731445312,-8.04439453125,0.3321903991699219,0.0379736852494928,-0.02424867053344372,-0.02517616839792886,0.8447999954223633,2019-06-20 16:00:09:599
4.073671813964844,-8.012073303222657,0.28909542846679687,0.038905791631020537,-0.023183406097412027,-0.024244062016401127,0.8499200344085693,2019-06-20 16:00:09:604
4.048533081054687,-8.008482055664063,0.29029251098632813,0.04010421412155619,-0.024115512478939758,-0.02344511368937735,0.8547840118408203,2019-06-20 16:00:09:609
4.026985595703125,-8.031226623535156,0.3178254089355469,0.039837898012548265,-0.025180776914971458,-0.02331195563487339,0.8599040508270264,2019-06-20 16:00:09:614
4.029379760742187,-8.001299560546874,0.30824874877929687,0.038905791631020537,-0.02358288026092391,-0.023045639525865465,0.8650240898132324,2019-06-20 16:00:09:619
4.054518493652344,-8.047985778808593,0.2759275207519531,0.03850631746750865,-0.022917089988404103,-0.021980375089833772,0.8698880672454834,2019-06-20 16:00:09:624
4.044941833496094,-8.040803283691407,0.29148959350585935,0.03877263357651657,-0.02464814469695561,-0.021314584817313964,0.8750081062316895,2019-06-20 16:00:09:629
4.018606018066406,-8.001299560546874,0.23881796264648436,0.03957158190354034,-0.02531393496947542,-0.02051563649029019,0.8798720836639404,2019-06-20 16:00:09:634
4.030576843261719,-8.018058715820313,0.2615625305175781,0.040770004394076,-0.02451498664245165,-0.019983004272274344,0.8849921226501465,2019-06-20 16:00:09:639
4.062898071289062,-8.0252412109375,0.29148959350585935,0.03997105606705223,-0.02544709302397938,-0.018917739836242647,0.8898561000823975,2019-06-20 16:00:09:644
4.030576843261719,-7.9869345703125,0.34176705932617185,0.03850631746750865,-0.025180776914971458,-0.01958353010876246,0.8949759006500244,2019-06-20 16:00:09:649
4.059306823730469,-7.973766662597656,0.2675479431152344,0.04023737217606015,-0.023982354424435796,-0.018518265672730762,0.8998401165008545,2019-06-20 16:00:09:654
4.083248474121094,-8.028832458496094,0.24001504516601563,0.04010421412155619,-0.02624604135100315,-0.01825194956372284,0.9049599170684814,2019-06-20 16:00:09:659
4.054518493652344,-8.032423706054688,0.29627792358398436,0.03930526579453242,-0.02771077995054673,-0.017453000196401766,0.9098238945007324,2019-06-20 16:00:09:664
4.067686401367188,-8.006087890625,0.3190224914550781,0.04090316244857996,-0.025846567187491266,-0.01625457770586611,0.9149439334869385,2019-06-20 16:00:09:669
4.030576843261719,-7.985737487792969,0.32261373901367185,0.040770004394076,-0.025180776914971458,-0.016121419651362146,0.9198079109191895,2019-06-20 16:00:09:674
4.0952192993164065,-8.012073303222657,0.34056997680664064,0.04037053023056411,-0.024781302751459573,-0.014922997160826491,0.9249279499053955,2019-06-20 16:00:09:679
4.0377593383789065,-8.00728497314453,0.2807158508300781,0.039837898012548265,-0.02464814469695561,-0.01425720688830668,0.9297919273376465,2019-06-20 16:00:09:684
4.085642639160156,-8.026438293457032,0.22684713745117188,0.03997105606705223,-0.026778673569018998,-0.014523522997314606,0.9349119663238525,2019-06-20 16:00:09:689
4.059306823730469,-8.024044128417968,0.23881796264648436,0.040503688285068076,-0.026778673569018998,-0.014523522997314606,0.9397759437561035,2019-06-20 16:00:09:694
4.046138916015625,-8.01566455078125,0.2783216857910156,0.04290053326613939,-0.02424867053344372,-0.013724574670290833,0.9448959827423096,2019-06-20 16:00:09:699
4.0652922363281245,-8.012073303222657,0.2974750061035156,0.041702110775603735,-0.025580251078483343,-0.011993519961739328,0.9500160217285156,2019-06-20 16:00:09:704
4.098810546875,-8.01566455078125,0.28430709838867185,0.04090316244857996,-0.023849196369931835,-0.011194571634715558,0.9548799991607666,2019-06-20 16:00:09:709
4.07008056640625,-7.997708312988281,0.2687450256347656,0.040770004394076,-0.022118141661380333,-0.011061413580211595,0.9600000381469727,2019-06-20 16:00:09:714
4.0509272460937495,-8.01566455078125,0.2998691711425781,0.04023737217606015,-0.023316564151915988,-0.011194571634715558,0.9648640155792236,2019-06-20 16:00:09:719
4.042547668457031,-8.014467468261719,0.24719754028320312,0.042101584939115616,-0.025846567187491266,-0.01066193941669971,0.9699840545654297,2019-06-20 16:00:09:724
4.029379760742187,-8.040803283691407,0.2795187683105469,0.04449842992018693,-0.02531393496947542,-0.010928255525707633,0.9748480319976807,2019-06-20 16:00:09:729
3.9958614501953122,-8.045591613769531,0.26994210815429687,0.043166849375147316,-0.02464814469695561,-0.009596674980668015,0.9799680709838867,2019-06-20 16:00:09:734
4.017408935546875,-8.042000366210937,0.23881796264648436,0.04383263964766712,-0.025047618860467497,-0.010395623307691787,0.9848320484161377,2019-06-20 16:00:09:739
3.9898760375976563,-8.05397119140625,0.3166283264160156,0.045164220192706744,-0.025713409132987305,-0.01132772968921952,0.9899520874023438,2019-06-20 16:00:09:744
3.95516064453125,-8.080307006835938,0.3441612243652344,0.045164220192706744,-0.02531393496947542,-0.01265931023425914,0.9948160648345947,2019-06-20 16:00:09:749
3.9611460571289063,-8.113825317382812,0.36092037963867185,0.04543053630171467,-0.026645515514515036,-0.013325100506778948,0.9999361038208008,2019-06-20 16:00:09:754
3.9575548095703126,-8.158117370605469,0.3118399963378906,0.04609632657423447,-0.0295749927136022,-0.015322471324338376,1.0048000812530518,2019-06-20 16:00:09:759
3.8354523925781248,-8.012073303222657,0.23642379760742188,0.04756106517377806,-0.02624604135100315,-0.016520893814874035,1.0099201202392578,2019-06-20 16:00:09:764
3.9431898193359376,-8.082701171875,0.19332882690429687,0.04995791015484937,-0.027577621896042768,-0.018118791509218878,1.0147840976715088,2019-06-20 16:00:09:769
3.9862847900390626,-8.125796142578125,0.3046575012207031,0.046362642683242396,-0.03263762796719332,-0.02038247843578623,1.0199038982391357,2019-06-20 16:00:09:774
3.940795654296875,-8.161708618164063,0.2747304382324219,0.049425277936833524,-0.02890920244108239,-0.02331195563487339,1.0250239372253418,2019-06-20 16:00:09:779
3.9671314697265623,-8.068336181640625,0.26994210815429687,0.05142264875439295,-0.02771077995054673,-0.024909852288920935,1.0298879146575928,2019-06-20 16:00:09:784
3.9910731201171874,-8.067139099121093,0.24121212768554687,0.05049054237286522,-0.032903944076201244,-0.026507748942968475,1.0350079536437988,2019-06-20 16:00:09:789
3.9755110473632813,-8.0252412109375,0.32740206909179687,0.04822685544629787,-0.03143920547665766,-0.025043010343424897,1.0398719310760498,2019-06-20 16:00:09:794
4.019803100585937,-7.9773579101562495,0.4291540832519531,0.04609632657423447,-0.026778673569018998,-0.025043010343424897,1.0449919700622559,2019-06-20 16:00:09:799
4.0952192993164065,-7.966584167480469,0.48781112670898436,0.04543053630171467,-0.027577621896042768,-0.024643536179913012,1.0498559474945068,2019-06-20 16:00:09:804
4.096416381835938,-7.901941711425781,0.5069644470214844,0.042501059102627504,-0.02544709302397938,-0.02331195563487339,1.054975986480713,2019-06-20 16:00:09:809
4.14669384765625,-7.9103212890625,0.4147890930175781,0.038240001358500725,-0.02185182555237241,-0.021447742871817926,1.0598399639129639,2019-06-20 16:00:09:814
4.264007934570312,-7.955810424804687,0.3501466369628906,0.03544368221391753,-0.02251761582489222,-0.01905089789074661,1.06496000289917,2019-06-20 16:00:09:819
4.220912963867187,-7.892365051269531,0.24480337524414061,0.036375788595445255,-0.02185182555237241,-0.0155887874333463,1.069823980331421,2019-06-20 16:00:09:824
4.18500048828125,-7.870817565917968,0.35373788452148436,0.034777891941397715,-0.01825655808076544,-0.012925626343267063,1.074944019317627,2019-06-20 16:00:09:829
4.114372619628906,-8.008482055664063,0.3369787292480469,0.03317999528735017,-0.019854454734812982,-0.012392994125251213,1.079807996749878,2019-06-20 16:00:09:834
3.9156569213867187,-8.190438598632813,-0.001795623779296875,0.04756106517377806,-0.02038708695282883,-0.01345825856128291,1.084928035736084,2019-06-20 16:00:09:839
3.8617882080078125,-8.20839483642578,0.03531393432617187,0.05342001957195238,-0.029441834659098238,-0.014124048833802718,1.089792013168335,2019-06-20 16:00:09:844
3.9958614501953122,-8.012073303222657,0.3130370788574219,0.04156895272109977,-0.0351676330833632,-0.015855103542354223,1.094912052154541,2019-06-20 16:00:09:849
4.015014770507812,-7.972569580078125,0.15262802124023436,0.04436527186568297,-0.023050248042908065,-0.01692036797838592,1.099776029586792,2019-06-20 16:00:09:854
4.1179638671875,-8.000102478027344,0.5165411071777344,0.040503688285068076,-0.016525503372213934,-0.018118791509218878,1.104896068572998,2019-06-20 16:00:09:859
4.048533081054687,-8.13896405029297,0.46386947631835934,0.03570999832292545,-0.018789190298781285,-0.017852475400210954,1.110016107559204,2019-06-20 16:00:09:864
3.8498173828124997,-7.988131652832031,0.20529965209960938,0.039704739958044306,-0.022917089988404103,-0.018784581781738686,1.114880084991455,2019-06-20 16:00:09:869
3.900094848632812,-8.040803283691407,0.3429641418457031,0.04290053326613939,-0.032903944076201244,-0.02051563649029019,1.119999885559082,2019-06-20 16:00:09:874
3.983890625,-8.106642822265625,0.3764824523925781,0.04583001046522655,-0.03170552158566559,-0.02184721703532981,1.124864101409912,2019-06-20 16:00:09:879
4.06050390625,-8.013270385742187,0.3812707824707031,0.04423211381117901,-0.02278393193390014,-0.023711429798385274,1.129983901977539,2019-06-20 16:00:09:884
3.997058532714844,-8.027635375976562,0.2543800354003906,0.043965797702171086,-0.02438182858794769,-0.02530932645243282,1.1348481178283691,2019-06-20 16:00:09:889
3.9886789550781248,-8.050379943847656,0.06284683227539062,0.04503106213820278,-0.02624604135100315,-0.024110903961897166,1.139967918395996,2019-06-20 16:00:09:894
3.9743139648437498,-8.000102478027344,0.3010662536621094,0.03770736914048488,-0.02797709605955466,-0.025841958670448667,1.144831895828247,2019-06-20 16:00:09:899
4.115569702148437,-8.094671997070312,0.28430709838867185,0.04383263964766712,-0.026379199405507113,-0.025575642561440744,1.1499519348144531,2019-06-20 16:00:09:904
4.135920104980468,-7.9917229003906245,0.4315482482910156,0.04423211381117901,-0.02265077387939618,-0.025043010343424897,1.154815912246704,2019-06-20 16:00:09:909
4.121555114746093,-8.031226623535156,0.35373788452148436,0.03943842384903638,-0.02438182858794769,-0.023045639525865465,1.1599359512329102,2019-06-20 16:00:09:914
4.150285095214843,-7.893562133789063,0.2663508605957031,0.036375788595445255,-0.026778673569018998,-0.021314584817313964,1.1647999286651611,2019-06-20 16:00:09:919
4.170635498046875,-7.911518371582031,0.4135920104980469,0.03584315637742941,-0.025846567187491266,-0.021314584817313964,1.1699199676513672,2019-06-20 16:00:09:924
4.133525939941406,-8.012073303222657,0.5057673645019531,0.03570999832292545,-0.02278393193390014,-0.018784581781738686,1.1747839450836182,2019-06-20 16:00:09:929
4.091628051757812,-7.9869345703125,0.4147890930175781,0.0341121016688779,-0.01772392586274959,-0.018118791509218878,1.1799039840698242,2019-06-20 16:00:09:934
4.067686401367188,-8.038409118652343,0.13826303100585938,0.03504420805040564,-0.020786561116340713,-0.017852475400210954,1.1850240230560303,2019-06-20 16:00:09:939
4.083248474121094,-7.972569580078125,0.22684713745117188,0.03118262446979074,-0.02451498664245165,-0.018518265672730762,1.1898880004882812,2019-06-20 16:00:09:944
4.043744750976562,-8.061153686523438,0.20529965209960938,0.03570999832292545,-0.023849196369931835,-0.017453000196401766,1.1950080394744873,2019-06-20 16:00:09:949
4.088036804199219,-8.061153686523438,0.34056997680664064,0.03597631443193337,-0.020919719170844675,-0.017319842141897804,1.1998720169067383,2019-06-20 16:00:09:954
4.067686401367188,-8.059956604003906,0.33458456420898436,0.03384578555986998,-0.02265077387939618,-0.017453000196401766,1.2049920558929443,2019-06-20 16:00:09:959
3.9647373046875,-8.014467468261719,0.26515377807617185,0.032913679178342245,-0.023050248042908065,-0.01825194956372284,1.2098560333251953,2019-06-20 16:00:09:964
4.009029357910157,-8.031226623535156,0.2938837585449219,0.03451157583238979,-0.024781302751459573,-0.02038247843578623,1.2149760723114014,2019-06-20 16:00:09:969
4.0066351928710935,-8.129387390136719,0.3070516662597656,0.03757421108598091,-0.02544709302397938,-0.020648794544794152,1.2198400497436523,2019-06-20 16:00:09:974
3.9874818725585937,-8.06474493408203,0.3429641418457031,0.03770736914048488,-0.02265077387939618,-0.021447742871817926,1.2249600887298584,2019-06-20 16:00:09:979
3.9743139648437498,-8.04439453125,0.31064291381835935,0.03584315637742941,-0.026379199405507113,-0.022779323416857542,1.2298240661621094,2019-06-20 16:00:09:984
3.9743139648437498,-8.008482055664063,0.26994210815429687,0.03757421108598091,-0.029974466877114084,-0.025043010343424897,1.2349441051483154,2019-06-20 16:00:09:989
3.965934387207031,-8.021649963378906,0.25318295288085935,0.04143579466659581,-0.029308676604594276,-0.02610827477945659,1.2398080825805664,2019-06-20 16:00:09:994
4.005438110351562,-8.086292419433594,0.2950808410644531,0.04116947855758789,-0.029441834659098238,-0.027573013379000175,1.2449281215667725,2019-06-20 16:00:09:999
4.0509272460937495,-8.004890808105468,0.2878983459472656,0.04010421412155619,-0.03183867964016955,-0.0267740650519764,1.2497920989990234,2019-06-20 16:00:10:004
4.028182678222656,-7.9785549926757815,0.20170840454101563,0.042101584939115616,-0.03383605045772898,-0.026241432833960552,1.2549118995666504,2019-06-20 16:00:10:009
4.0509272460937495,-7.9773579101562495,0.31064291381835935,0.04503106213820278,-0.0334365762942171,-0.02610827477945659,1.2600319385528564,2019-06-20 16:00:10:014
4.111978454589844,-8.022847045898438,0.30944583129882813,0.045963168519730514,-0.03490131489376067,-0.025575642561440744,1.2648959159851074,2019-06-20 16:00:10:019
4.120358032226562,-8.014467468261719,0.22445297241210938,0.04569685241072259,-0.035034475028859244,-0.024244062016401127,1.2700159549713135,2019-06-20 16:00:10:024
4.111978454589844,-7.985737487792969,0.23881796264648436,0.04569685241072259,-0.0341023665667369,-0.023844587852889235,1.2748799324035645,2019-06-20 16:00:10:029
4.1179638671875,-7.974963745117187,0.31543124389648436,0.04649580073774636,-0.03649921362840282,-0.02171405898082585,1.2799999713897705,2019-06-20 16:00:10:034
4.134723022460937,-7.968978332519531,0.29627792358398436,0.04809369739179391,-0.03570026530137905,-0.021580900926321887,1.2848639488220215,2019-06-20 16:00:10:039
4.157467590332031,-7.9869345703125,0.25318295288085935,0.04809369739179391,-0.034368682675744826,-0.019849846217770382,1.2899839878082275,2019-06-20 16:00:10:044
4.14669384765625,-7.974963745117187,0.2567742004394531,0.046762116846754284,-0.03609973946489094,-0.017852475400210954,1.2948479652404785,2019-06-20 16:00:10:049
4.161058837890625,-7.949825012207031,0.23642379760742188,0.04875948766431372,-0.03689868779191471,-0.016387735760370073,1.2999680042266846,2019-06-20 16:00:10:054
4.149088012695312,-7.953416259765625,0.2783216857910156,0.04902580377332164,-0.03636605557389886,-0.014124048833802718,1.3048319816589355,2019-06-20 16:00:10:059
4.219715881347656,-7.959401672363281,0.29148959350585935,0.04822685544629787,-0.034768156839256714,-0.01265931023425914,1.3099520206451416,2019-06-20 16:00:10:064
4.189788818359375,-7.96778125,0.2591683654785156,0.04742790711927409,-0.034768156839256714,-0.011061413580211595,1.3148159980773926,2019-06-20 16:00:10:069
4.2113363037109375,-7.928277526855468,0.2424092102050781,0.046762116846754284,-0.03423552462124087,-0.008265094435628395,1.3199360370635986,2019-06-20 16:00:10:074
4.192182983398437,-7.917503784179687,0.30226333618164064,0.047827381282785984,-0.03490131489376067,-0.005335617236541234,1.3248000144958496,2019-06-20 16:00:10:079
4.212533386230469,-7.921095031738281,0.3309933166503906,0.04729474906477013,-0.03330341823971313,-0.002938772255469919,1.3299200534820557,2019-06-20 16:00:10:084
4.231686706542969,-7.925883361816406,0.3357816467285156,0.04649580073774636,-0.03263762796719332,0.0002570210526251668,1.3347840309143066,2019-06-20 16:00:10:089
4.250840026855468,-7.9043358764648435,0.3166283264160156,0.046362642683242396,-0.031306047422153704,0.0031864982517123288,1.3399040699005127,2019-06-20 16:00:10:094
4.244854614257813,-7.916306701660156,0.26395669555664064,0.04729474906477013,-0.03117288936764974,0.006382291559807415,1.3450241088867188,2019-06-20 16:00:10:099
4.254431274414062,-7.907927124023438,0.2974750061035156,0.04702843295576221,-0.029441834659098238,0.010776507358438157,1.3498880863189697,2019-06-20 16:00:10:104
4.265205017089843,-7.912715454101562,0.32979623413085934,0.04369948159316316,-0.02811025411405862,0.013173352339509472,1.3550078868865967,2019-06-20 16:00:10:109
4.2400662841796875,-7.916306701660156,0.3178254089355469,0.042101584939115616,-0.026645515514515036,0.016768619811116443,1.3598721027374268,2019-06-20 16:00:10:114
4.199365478515625,-7.909124206542969,0.32141665649414064,0.0435663235386592,-0.027444463841538806,0.01956493791540234,1.3649919033050537,2019-06-20 16:00:10:119
4.202956726074219,-7.887576721191406,0.3369787292480469,0.04276737521163543,-0.026778673569018998,0.02236125705998554,1.3698561191558838,2019-06-20 16:00:10:124
4.175423828125,-7.922292114257813,0.30226333618164064,0.04156895272109977,-0.026512357460011075,0.024758102041056856,1.3749759197235107,2019-06-20 16:00:10:129
4.177817993164062,-7.955810424804687,0.2938837585449219,0.04090316244857996,-0.02611288329649919,0.025690208422584588,1.3798398971557617,2019-06-20 16:00:10:134
4.135920104980468,-7.994117065429688,0.2855041809082031,0.04116947855758789,-0.02464814469695561,0.027288105076632135,1.3849599361419678,2019-06-20 16:00:10:139
4.115569702148437,-8.010876220703125,0.2735333557128906,0.041702110775603735,-0.02451498664245165,0.028220211458159866,1.3898239135742188,2019-06-20 16:00:10:144
4.1083872070312495,-8.010876220703125,0.2328325500488281,0.04156895272109977,-0.02358288026092391,0.029152317839687598,1.3949439525604248,2019-06-20 16:00:10:149
4.053321411132813,-8.004890808105468,0.2807158508300781,0.04156895272109977,-0.02424867053344372,0.029684950057703444,1.3998079299926758,2019-06-20 16:00:10:154
4.0353651733398435,-8.008482055664063,0.3058545837402344,0.04103632050308392,-0.022384457770388257,0.029818108112207406,1.4049279689788818,2019-06-20 16:00:10:159
4.058109741210937,-8.019255798339843,0.3166283264160156,0.04090316244857996,-0.021052877225348637,0.029152317839687598,1.4097919464111328,2019-06-20 16:00:10:164
4.0353651733398435,-8.046788696289063,0.3333874816894531,0.039704739958044306,-0.02052024500733279,0.028752843676175713,1.4149119853973389,2019-06-20 16:00:10:169
3.985087707519531,-8.079109924316406,0.2950808410644531,0.03837315941300468,-0.019454980571301093,0.029019159785183636,1.4197759628295898,2019-06-20 16:00:10:174
4.019803100585937,-8.071927429199219,0.2950808410644531,0.03863947552201261,-0.018656032244277324,0.027288105076632135,1.424896001815796,2019-06-20 16:00:10:179
4.019803100585937,-8.038409118652343,0.2926866760253906,0.039837898012548265,-0.018522874189773362,0.02688863091312025,1.430016040802002,2019-06-20 16:00:10:184
3.997058532714844,-8.033620788574218,0.2783216857910156,0.03930526579453242,-0.019321822516797132,0.026355998695104396,1.434880018234253,2019-06-20 16:00:10:189
4.01262060546875,-8.055168273925782,0.28430709838867185,0.038905791631020537,-0.018522874189773362,0.025557050368080626,1.440000057220459,2019-06-20 16:00:10:194
4.018606018066406,-8.040803283691407,0.2807158508300781,0.03850631746750865,-0.01918866446229317,0.025557050368080626,1.44486403465271,2019-06-20 16:00:10:199
4.022197265625,-8.052774108886718,0.24959170532226563,0.03850631746750865,-0.018789190298781285,0.02515757620456874,1.449984073638916,2019-06-20 16:00:10:204
4.043744750976562,-8.0635478515625,0.2675479431152344,0.039038949685524495,-0.018922348353285247,0.024092311768537048,1.454848051071167,2019-06-20 16:00:10:209
4.025788513183594,-8.051577026367188,0.2974750061035156,0.038240001358500725,-0.019721296680309017,0.023959153714033087,1.459968090057373,2019-06-20 16:00:10:214
4.026985595703125,-8.033620788574218,0.2878983459472656,0.039704739958044306,-0.018922348353285247,0.023692837605025163,1.464832067489624,2019-06-20 16:00:10:219
3.994664367675781,-8.069533264160157,0.3178254089355469,0.03943842384903638,-0.018789190298781285,0.0235596795505212,1.46995210647583,2019-06-20 16:00:10:224
4.007832275390625,-8.070730346679687,0.3381758117675781,0.03877263357651657,-0.017191293644733742,0.022627573168993463,1.474816083908081,2019-06-20 16:00:10:229
3.99346728515625,-8.050379943847656,0.2795187683105469,0.03850631746750865,-0.01772392586274959,0.022760731223497425,1.479936122894287,2019-06-20 16:00:10:234
3.9814964599609373,-8.052774108886718,0.32859915161132813,0.03810684330399676,-0.018789190298781285,0.022228099005481578,1.484800100326538,2019-06-20 16:00:10:239
4.009029357910157,-8.042000366210937,0.32979623413085934,0.03770736914048488,-0.018522874189773362,0.02169546678746573,1.489919900894165,2019-06-20 16:00:10:244
4.005438110351562,-8.031226623535156,0.3525408020019531,0.03744105303147695,-0.0183897161352694,0.02089651846044196,1.4947841167449951,2019-06-20 16:00:10:249
3.9910731201171874,-8.061153686523438,0.3573291320800781,0.03757421108598091,-0.018656032244277324,0.02063020235143404,1.499903917312622,2019-06-20 16:00:10:254
4.007832275390625,-8.062350769042968,0.34655538940429687,0.037041578867965066,-0.019321822516797132,0.02089651846044196,1.5050239562988281,2019-06-20 16:00:10:259
4.001846862792969,-8.057562438964844,0.35852621459960937,0.0362426305409413,-0.019454980571301093,0.02009757013341819,1.509887933731079,2019-06-20 16:00:10:264
4.007832275390625,-8.068336181640625,0.2759275207519531,0.037041578867965066,-0.018922348353285247,0.018899147642882533,1.5150079727172852,2019-06-20 16:00:10:269
3.997058532714844,-8.069533264160157,0.28311001586914064,0.03664210470445318,-0.01825655808076544,0.017700725152346875,1.5198719501495361,2019-06-20 16:00:10:274
3.979102294921875,-8.082701171875,0.2783216857910156,0.03664210470445318,-0.019854454734812982,0.017700725152346875,1.5249919891357422,2019-06-20 16:00:10:279
3.9755110473632813,-8.081504089355468,0.28311001586914064,0.037041578867965066,-0.019454980571301093,0.016901777865620405,1.5298559665679932,2019-06-20 16:00:10:284
3.951569396972656,-8.088686584472656,0.2783216857910156,0.03863947552201261,-0.02052024500733279,0.015303881211572862,1.5349760055541992,2019-06-20 16:00:10:289
3.95516064453125,-8.106642822265625,0.31543124389648436,0.039038949685524495,-0.02038708695282883,0.014504932884549092,1.5398399829864502,2019-06-20 16:00:10:294
3.9587518920898437,-8.06474493408203,0.33458456420898436,0.03877263357651657,-0.02131919333435656,0.0123744040124857,1.5449600219726562,2019-06-20 16:00:10:299
3.951569396972656,-8.059956604003906,0.3321903991699219,0.03837315941300468,-0.02131919333435656,0.011575455685461929,1.5498239994049072,2019-06-20 16:00:10:304
3.9204452514648436,-8.06474493408203,0.3333874816894531,0.03850631746750865,-0.022917089988404103,0.010510191249430234,1.5549440383911133,2019-06-20 16:00:10:309
3.8869269409179688,-8.07312451171875,0.34655538940429687,0.03863947552201261,-0.022251299715884295,0.00824650432286288,1.5598080158233643,2019-06-20 16:00:10:314
3.8941094360351562,-8.058759521484374,0.3178254089355469,0.03837315941300468,-0.02171866749786845,0.007048081832327224,1.5649280548095703,2019-06-20 16:00:10:319
3.900094848632812,-8.047985778808593,0.3752853698730469,0.03810684330399676,-0.02251761582489222,0.005317027123775719,1.5697920322418213,2019-06-20 16:00:10:324
3.9012919311523437,-8.058759521484374,0.3070516662597656,0.037840527194988836,-0.023050248042908065,0.0038522885242321388,1.5749120712280273,2019-06-20 16:00:10:329
3.9096715087890623,-8.059956604003906,0.3429641418457031,0.0379736852494928,-0.023183406097412027,0.003452814360720253,1.5800321102142334,2019-06-20 16:00:10:334
3.9156569213867187,-8.069533264160157,0.2807158508300781,0.037041578867965066,-0.02344972220641995,0.0018549177066727097,1.5848960876464844,2019-06-20 16:00:10:339
3.903686096191406,-8.091080749511718,0.3178254089355469,0.03744105303147695,-0.023716038315427873,0.0009228113251449763,1.5900158882141113,2019-06-20 16:00:10:344
3.902489013671875,-8.07312451171875,0.3262049865722656,0.0379736852494928,-0.022917089988404103,-0.0010745594924144524,1.5948801040649414,2019-06-20 16:00:10:349
3.9300219116210937,-8.082701171875,0.3501466369628906,0.03837315941300468,-0.022917089988404103,-0.0025392980919580334,1.5999999046325684,2019-06-20 16:00:10:354
3.9384014892578123,-8.049182861328125,0.3142341613769531,0.03850631746750865,-0.024914460805963535,-0.0038708786369976524,1.6048641204833984,2019-06-20 16:00:10:359
3.9587518920898437,-8.06474493408203,0.30944583129882813,0.03917210774002846,-0.02624604135100315,-0.004137194746005576,1.6099839210510254,2019-06-20 16:00:10:364
3.9611460571289063,-8.052774108886718,0.33458456420898436,0.038905791631020537,-0.025580251078483343,-0.0044035108550135,1.6148478984832764,2019-06-20 16:00:10:369
3.9336131591796875,-8.065942016601563,0.3525408020019531,0.039038949685524495,-0.025979725241995228,-0.0057350914000531186,1.6199679374694824,2019-06-20 16:00:10:374
3.9647373046875,-8.068336181640625,0.32740206909179687,0.0379736852494928,-0.026645515514515036,-0.0070666719450927385,1.6248319149017334,2019-06-20 16:00:10:379
3.95516064453125,-8.049182861328125,0.30824874877929687,0.03664210470445318,-0.026379199405507113,-0.006933513890588777,1.6299519538879395,2019-06-20 16:00:10:384
3.9384014892578123,-8.07312451171875,0.30226333618164064,0.037041578867965066,-0.02771077995054673,-0.008265094435628395,1.6348159313201904,2019-06-20 16:00:10:389
3.945583984375,-8.05397119140625,0.3262049865722656,0.03650894664994922,-0.02811025411405862,-0.008398252490132357,1.6399359703063965,2019-06-20 16:00:10:394
3.9587518920898437,-8.065942016601563,0.3369787292480469,0.03584315637742941,-0.02811025411405862,-0.00933035887166009,1.6447999477386475,2019-06-20 16:00:10:399
3.9635402221679685,-8.077912841796875,0.30824874877929687,0.03610947248643733,-0.02970815076810616,-0.011194571634715558,1.6499199867248535,2019-06-20 16:00:10:404
3.9779052124023435,-8.051577026367188,0.2938837585449219,0.03597631443193337,-0.02877604438657843,-0.011860361907235367,1.6547839641571045,2019-06-20 16:00:10:409
3.980299377441406,-8.056365356445312,0.3010662536621094,0.037041578867965066,-0.027444463841538806,-0.012792468288763102,1.6599040031433105,2019-06-20 16:00:10:414
3.969525634765625,-8.021649963378906,0.2603654479980469,0.036375788595445255,-0.02811025411405862,-0.01265931023425914,1.6650240421295166,2019-06-20 16:00:10:419
3.979102294921875,-8.03481787109375,0.26515377807617185,0.03650894664994922,-0.028509728277570506,-0.013325100506778948,1.6698880195617676,2019-06-20 16:00:10:424
4.005438110351562,-8.047985778808593,0.2627596130371094,0.036375788595445255,-0.02890920244108239,-0.013191942452274986,1.6750080585479736,2019-06-20 16:00:10:429
3.994664367675781,-8.051577026367188,0.3070516662597656,0.037041578867965066,-0.028376570223066545,-0.014390364942810641,1.6798720359802246,2019-06-20 16:00:10:434
4.009029357910157,-8.070730346679687,0.30226333618164064,0.03664210470445318,-0.02877604438657843,-0.01345825856128291,1.6849920749664307,2019-06-20 16:00:10:439
4.017408935546875,-8.057562438964844,0.30346041870117185,0.036375788595445255,-0.029974466877114084,-0.013191942452274986,1.6898560523986816,2019-06-20 16:00:10:444
3.979102294921875,-8.022847045898438,0.3070516662597656,0.036375788595445255,-0.02811025411405862,-0.013724574670290833,1.6949760913848877,2019-06-20 16:00:10:449
3.9862847900390626,-8.07312451171875,0.34775247192382813,0.036375788595445255,-0.027178147732530883,-0.014922997160826491,1.6998400688171387,2019-06-20 16:00:10:454
3.9874818725585937,-8.07312451171875,0.3645116271972656,0.03610947248643733,-0.026645515514515036,-0.015056155215330453,1.7049601078033447,2019-06-20 16:00:10:459
3.9671314697265623,-8.06474493408203,0.30944583129882813,0.03677526275895714,-0.026645515514515036,-0.015455629378842338,1.7098240852355957,2019-06-20 16:00:10:464
3.9719197998046876,-8.068336181640625,0.28909542846679687,0.03531052415941356,-0.026379199405507113,-0.016121419651362146,1.7149438858032227,2019-06-20 16:00:10:469
3.945583984375,-8.079109924316406,0.31064291381835935,0.03584315637742941,-0.02531393496947542,-0.01758615929120303,1.7198081016540527,2019-06-20 16:00:10:474
3.9767081298828124,-8.095869079589843,0.29148959350585935,0.03597631443193337,-0.02624604135100315,-0.01905089789074661,1.7249279022216797,2019-06-20 16:00:10:479
3.9479781494140624,-8.077912841796875,0.29029251098632813,0.03610947248643733,-0.025846567187491266,-0.019450372054258497,1.7297921180725098,2019-06-20 16:00:10:484
3.9755110473632813,-8.081504089355468,0.25198587036132813,0.037041578867965066,-0.027311305787034845,-0.01918405594525057,1.7349119186401367,2019-06-20 16:00:10:489
3.965934387207031,-8.057562438964844,0.25078878784179687,0.037174736922469025,-0.027178147732530883,-0.020249320381282267,1.7397758960723877,2019-06-20 16:00:10:494
3.9922702026367185,-8.05397119140625,0.2675479431152344,0.0369084208134611,-0.025713409132987305,-0.020648794544794152,1.7448959350585938,2019-06-20 16:00:10:499
4.007832275390625,-8.082701171875,0.31064291381835935,0.03650894664994922,-0.025713409132987305,-0.02171405898082585,1.7500159740447998,2019-06-20 16:00:10:504
3.994664367675781,-8.051577026367188,0.30346041870117185,0.03531052415941356,-0.025580251078483343,-0.021580900926321887,1.7548799514770508,2019-06-20 16:00:10:509
3.980299377441406,-8.045591613769531,0.2783216857910156,0.03597631443193337,-0.02531393496947542,-0.02171405898082585,1.7599999904632568,2019-06-20 16:00:10:514
4.005438110351562,-8.03481787109375,0.3429641418457031,0.0351773661049096,-0.025047618860467497,-0.022779323416857542,1.7648639678955078,2019-06-20 16:00:10:519
4.0030439453125,-8.061153686523438,0.3142341613769531,0.03278052112383829,-0.02624604135100315,-0.02264616536235358,1.7699840068817139,2019-06-20 16:00:10:524
3.9886789550781248,-8.051577026367188,0.3190224914550781,0.03224788890582244,-0.02531393496947542,-0.02171405898082585,1.7748479843139648,2019-06-20 16:00:10:529
4.0521243286132815,-8.042000366210937,0.3393728942871094,0.0323810469603264,-0.02424867053344372,-0.02251300730784962,1.779968023300171,2019-06-20 16:00:10:534
4.07008056640625,-8.021649963378906,0.3142341613769531,0.03144894057879867,-0.02358288026092391,-0.02171405898082585,1.7848320007324219,2019-06-20 16:00:10:539
4.038956420898438,-8.038409118652343,0.2926866760253906,0.03118262446979074,-0.022917089988404103,-0.021580900926321887,1.789952039718628,2019-06-20 16:00:10:544
4.018606018066406,-8.028832458496094,0.2998691711425781,0.030783150306278855,-0.023050248042908065,-0.02171405898082585,1.794816017150879,2019-06-20 16:00:10:549
4.013817687988281,-8.03601495361328,0.3142341613769531,0.030649992251774894,-0.02265077387939618,-0.021447742871817926,1.799936056137085,2019-06-20 16:00:10:554
4.026985595703125,-8.033620788574218,0.32979623413085934,0.03118262446979074,-0.02198498360687637,-0.020915110653802076,1.804800033569336,2019-06-20 16:00:10:559
4.026985595703125,-8.009679138183593,0.2567742004394531,0.03025051808826301,-0.02145235138886052,-0.020116162326778306,1.809920072555542,2019-06-20 16:00:10:564
4.010226440429688,-8.03601495361328,0.27712460327148436,0.029717885870247162,-0.02185182555237241,-0.01971668816326642,1.814784049987793,2019-06-20 16:00:10:569
4.03177392578125,-8.032423706054688,0.3046575012207031,0.03038367614276697,-0.02171866749786845,-0.019450372054258497,1.819904088973999,2019-06-20 16:00:10:574
4.030576843261719,-8.032423706054688,0.30944583129882813,0.029984201979255085,-0.021052877225348637,-0.019450372054258497,1.825023889541626,2019-06-20 16:00:10:579
4.0413505859375,-8.040803283691407,0.29627792358398436,0.03144894057879867,-0.02052024500733279,-0.01971668816326642,1.829888105392456,2019-06-20 16:00:10:584
4.009029357910157,-8.047985778808593,0.2867012634277344,0.031715256687806594,-0.02038708695282883,-0.019983004272274344,1.835007905960083,2019-06-20 16:00:10:589
4.016211853027344,-8.032423706054688,0.3058545837402344,0.031715256687806594,-0.02131919333435656,-0.019317213999754532,1.839872121810913,2019-06-20 16:00:10:594
4.018606018066406,-8.030029541015624,0.3573291320800781,0.031715256687806594,-0.020120770843820905,-0.019983004272274344,1.84499192237854,2019-06-20 16:00:10:599
4.018606018066406,-8.030029541015624,0.3573291320800781,0.031715256687806594,-0.020120770843820905,-0.019983004272274344,1.8478081226348877,2019-06-20 16:00:10:602
3.999452697753906,-8.009679138183593,0.2819129333496094,0.03278052112383829,-0.02185182555237241,-0.019983004272274344,1.854975938796997,2019-06-20 16:00:10:609
3.999452697753906,-8.009679138183593,0.2819129333496094,0.03278052112383829,-0.02185182555237241,-0.019983004272274344,1.8577919006347656,2019-06-20 16:00:10:612
3.9779052124023435,-8.0252412109375,0.23881796264648436,0.03357946945086206,-0.02171866749786845,-0.020116162326778306,1.864959955215454,2019-06-20 16:00:10:619
3.9779052124023435,-8.0252412109375,0.23881796264648436,0.03357946945086206,-0.02171866749786845,-0.020116162326778306,1.8677759170532227,2019-06-20 16:00:10:622
3.9958614501953122,-8.055168273925782,0.24480337524414061,0.037174736922469025,-0.02185182555237241,-0.02051563649029019,1.8749439716339111,2019-06-20 16:00:10:629
3.9958614501953122,-8.055168273925782,0.24480337524414061,0.037174736922469025,-0.02185182555237241,-0.02051563649029019,1.8777599334716797,2019-06-20 16:00:10:632
3.9874818725585937,-8.059956604003906,0.20889089965820312,0.03943842384903638,-0.022917089988404103,-0.022912481471361504,1.8849279880523682,2019-06-20 16:00:10:639
3.9874818725585937,-8.059956604003906,0.20889089965820312,0.03943842384903638,-0.022917089988404103,-0.022912481471361504,1.8877439498901367,2019-06-20 16:00:10:642
3.9623431396484374,-8.05397119140625,0.17776675415039062,0.043965797702171086,-0.02451498664245165,-0.024643536179913012,1.8949120044708252,2019-06-20 16:00:10:649
3.980299377441406,-8.109036987304687,0.19692007446289062,0.045164220192706744,-0.025580251078483343,-0.024643536179913012,1.8997759819030762,2019-06-20 16:00:10:654
3.9587518920898437,-8.101854492187499,0.21607339477539061,0.046762116846754284,-0.027444463841538806,-0.02437722007090509,1.9048960208892822,2019-06-20 16:00:10:659
3.9755110473632813,-8.09347491455078,0.20170840454101563,0.04902580377332164,-0.02771077995054673,-0.02517616839792886,1.9100160598754883,2019-06-20 16:00:10:664
3.99346728515625,-8.12220489501953,0.15382510375976563,0.04982475210034541,-0.027178147732530883,-0.025575642561440744,1.9148800373077393,2019-06-20 16:00:10:669
3.994664367675781,-8.089883666992188,0.17896383666992188,0.05062370042736918,-0.028642886332074468,-0.026507748942968475,1.9200000762939453,2019-06-20 16:00:10:674
3.979102294921875,-8.091080749511718,0.16100759887695312,0.05155580680889692,-0.02970815076810616,-0.027439855324496207,1.9248640537261963,2019-06-20 16:00:10:679
3.985087707519531,-8.098263244628907,0.23163546752929687,0.05435212595348011,-0.03037394104062597,-0.028371961706023945,1.9299840927124023,2019-06-20 16:00:10:684
3.9779052124023435,-8.076715759277343,0.2328325500488281,0.05648265482554351,-0.031039731313145778,-0.0295703841965596,1.9348480701446533,2019-06-20 16:00:10:689
4.000649780273437,-8.095869079589843,0.2603654479980469,0.0575479192615752,-0.0323713118581854,-0.03036933252358337,1.9399681091308594,2019-06-20 16:00:10:694
3.9898760375976563,-8.097066162109375,0.24001504516601563,0.05914581591562274,-0.034768156839256714,-0.031168280850607147,1.9448320865631104,2019-06-20 16:00:10:699
4.005438110351562,-8.082701171875,0.24121212768554687,0.06114318673318217,-0.03530079113786717,-0.03210038723213488,1.9499518871307373,2019-06-20 16:00:10:704
3.9814964599609373,-8.107839904785155,0.27712460327148436,0.06220845116921387,-0.03769763611893848,-0.03329880972267053,1.9548161029815674,2019-06-20 16:00:10:709
3.994664367675781,-8.101854492187499,0.2603654479980469,0.06300739949623764,-0.03836342639145829,-0.03449723221320619,1.9599359035491943,2019-06-20 16:00:10:714
4.015014770507812,-8.059956604003906,0.24480337524414061,0.06513792836830103,-0.03942869082748998,-0.03502986443122204,1.9648001194000244,2019-06-20 16:00:10:719
4.001846862792969,-8.051577026367188,0.26994210815429687,0.06633635085883668,-0.03956184888199395,-0.035163022485726,1.9699199199676514,2019-06-20 16:00:10:724
4.0030439453125,-8.05397119140625,0.27233627319335935,0.06686898307685253,-0.04115974553604149,-0.03609512886725374,1.9747838973999023,2019-06-20 16:00:10:729
4.034168090820312,-8.03601495361328,0.2819129333496094,0.0683337216763961,-0.04289080024459299,-0.036228286921757696,1.9799039363861084,2019-06-20 16:00:10:734
4.0509272460937495,-8.026438293457032,0.2867012634277344,0.06886635389441195,-0.0435565905171128,-0.03609512886725374,1.9850239753723145,2019-06-20 16:00:10:739
4.0664893188476565,-8.016861633300781,0.3333874816894531,0.06886635389441195,-0.043956064680624685,-0.03596197081274977,1.9898879528045654,2019-06-20 16:00:10:744
4.100007629394531,-7.985737487792969,0.30226333618164064,0.06926582805792385,-0.04435553884413657,-0.03569565470374185,1.9950079917907715,2019-06-20 16:00:10:749
4.110781372070313,-7.980949157714844,0.3333874816894531,0.06966530222143574,-0.046219751607192036,-0.034364074158702226,1.9998719692230225,2019-06-20 16:00:10:754
4.097613464355469,-7.9929199829101565,0.3369787292480469,0.06899951194891592,-0.04515448717116034,-0.03449723221320619,2.0049920082092285,2019-06-20 16:00:10:759
4.110781372070313,-7.990525817871093,0.35972329711914064,0.06766793140387631,-0.045420803280168266,-0.03383144194068638,2.0098559856414795,2019-06-20 16:00:10:764
4.135920104980468,-7.970175415039062,0.38007369995117185,0.06753477334937234,-0.04661922577070392,-0.03276617750465469,2.0149760246276855,2019-06-20 16:00:10:769
4.140708435058594,-7.952219177246094,0.3704970397949219,0.06646950891334065,-0.0452876452256643,-0.030901964741599217,2.0198400020599365,2019-06-20 16:00:10:774
4.173029663085938,-7.952219177246094,0.3573291320800781,0.06553740253181292,-0.04448869689864053,-0.03023617446907941,2.0249600410461426,2019-06-20 16:00:10:779
4.129934692382812,-7.953416259765625,0.3740882873535156,0.0631405575507416,-0.04289080024459299,-0.028105645597016022,2.0300800800323486,2019-06-20 16:00:10:784
4.120358032226562,-7.973766662597656,0.3824678649902344,0.06247476727822179,-0.04329027440810488,-0.02690722310648036,2.0349440574645996,2019-06-20 16:00:10:789
4.1395113525390625,-7.953416259765625,0.4088036804199219,0.061808977005701975,-0.04222500997207319,-0.02530932645243282,2.0398080348968506,2019-06-20 16:00:10:794
4.1179638671875,-7.9342629394531246,0.3704970397949219,0.05994476424264651,-0.04222500997207319,-0.022912481471361504,2.0449280738830566,2019-06-20 16:00:10:799
4.145496765136719,-7.949825012207031,0.38486203002929686,0.058613183697606895,-0.04169237775405733,-0.021580900926321887,2.0497920513153076,2019-06-20 16:00:10:804
4.162255920410156,-7.95820458984375,0.4279570007324219,0.057148445098063314,-0.03996132304550583,-0.02051563649029019,2.0549120903015137,2019-06-20 16:00:10:809
4.158664672851563,-7.937854187011719,0.4459132385253906,0.05661581288004747,-0.038896058609474135,-0.018784581781738686,2.0597760677337646,2019-06-20 16:00:10:814
4.170635498046875,-7.9629929199218745,0.4518986511230469,0.05488475817149597,-0.03676552973741074,-0.01758615929120303,2.0648961067199707,2019-06-20 16:00:10:819
4.144299682617188,-7.922292114257813,0.42316867065429686,0.052088439026912764,-0.037031845846418665,-0.014922997160826491,2.0700159072875977,2019-06-20 16:00:10:824
4.18500048828125,-7.921095031738281,0.40640951538085934,0.04995791015484937,-0.03649921362840282,-0.013191942452274986,2.0748801231384277,2019-06-20 16:00:10:829
4.1826063232421875,-7.915109619140625,0.4088036804199219,0.0491589618278256,-0.03636605557389886,-0.011061413580211595,2.0799999237060547,2019-06-20 16:00:10:834
4.170635498046875,-7.905532958984375,0.40521243286132813,0.047161591010266166,-0.03463499878475275,-0.0099961491441799,2.0848639011383057,2019-06-20 16:00:10:839
4.167044250488281,-7.912715454101562,0.3812707824707031,0.04503106213820278,-0.034768156839256714,-0.007599304163108585,2.0899839401245117,2019-06-20 16:00:10:844
4.170635498046875,-7.924686279296875,0.3764824523925781,0.043965797702171086,-0.03423552462124087,-0.005868249454557082,2.0948479175567627,2019-06-20 16:00:10:849
4.155073425292969,-7.9187008666992185,0.39204452514648436,0.04223474299361958,-0.03250446991268936,-0.0038708786369976524,2.0999679565429688,2019-06-20 16:00:10:854
4.161058837890625,-7.923489196777344,0.3573291320800781,0.04116947855758789,-0.03250446991268936,-0.001740349764934262,2.1048319339752197,2019-06-20 16:00:10:859
4.155073425292969,-7.911518371582031,0.3333874816894531,0.040503688285068076,-0.03117288936764974,-0.0004087692198946427,2.109951972961426,2019-06-20 16:00:10:864
4.145496765136719,-7.951022094726563,0.36570870971679686,0.03837315941300468,-0.030240782986122008,0.0015886015976647857,2.1148159503936768,2019-06-20 16:00:10:869
4.1227521972656245,-7.943839599609375,0.3393728942871094,0.03650894664994922,-0.02970815076810616,0.0026538660336964813,2.119935989379883,2019-06-20 16:00:10:874
4.090430969238281,-7.960598754882812,0.3178254089355469,0.0341121016688779,-0.027577621896042768,0.004384920742247986,2.124799966812134,2019-06-20 16:00:10:879
4.1179638671875,-7.972569580078125,0.3166283264160156,0.03304683723284621,-0.025846567187491266,0.0039854465787361,2.12992000579834,2019-06-20 16:00:10:884
4.0940222167968745,-7.974963745117187,0.2926866760253906,0.03264736306933432,-0.025846567187491266,0.006648607668815338,2.134783983230591,2019-06-20 16:00:10:889
4.119160949707031,-7.974963745117187,0.3010662536621094,0.03304683723284621,-0.02358288026092391,0.007048081832327224,2.139904022216797,2019-06-20 16:00:10:894
4.128737609863281,-8.004890808105468,0.2998691711425781,0.03278052112383829,-0.02438182858794769,0.007181239886831186,2.145024061203003,2019-06-20 16:00:10:899
4.077263061523437,-8.006087890625,0.28909542846679687,0.03158209863330263,-0.02358288026092391,0.008379662377366842,2.149888038635254,2019-06-20 16:00:10:904
4.0497301635742184,-8.001299560546874,0.3142341613769531,0.030916308360782817,-0.022251299715884295,0.008512820431870804,2.15500807762146,2019-06-20 16:00:10:909
4.044941833496094,-8.002496643066406,0.2543800354003906,0.03118262446979074,-0.02131919333435656,0.009178610704390614,2.159872055053711,2019-06-20 16:00:10:914
4.013817687988281,-8.016861633300781,0.28909542846679687,0.03038367614276697,-0.0211860352798526,0.007847030159350996,2.164992094039917,2019-06-20 16:00:10:919
4.010226440429688,-8.033620788574218,0.30346041870117185,0.030783150306278855,-0.021052877225348637,0.008779136540878729,2.169856071472168,2019-06-20 16:00:10:924
3.980299377441406,-8.016861633300781,0.2675479431152344,0.03118262446979074,-0.019721296680309017,0.007181239886831186,2.174976110458374,2019-06-20 16:00:10:929
3.997058532714844,-8.039606201171875,0.2867012634277344,0.03144894057879867,-0.02052024500733279,0.005716501287287605,2.179840087890625,2019-06-20 16:00:10:934
3.994664367675781,-8.038409118652343,0.3381758117675781,0.03118262446979074,-0.019987612789316943,0.005982817396295529,2.184959888458252,2019-06-20 16:00:10:939
3.994664367675781,-8.046788696289063,0.3429641418457031,0.03144894057879867,-0.020786561116340713,0.004384920742247986,2.189824104309082,2019-06-20 16:00:10:944
4.016211853027344,-8.039606201171875,0.31064291381835935,0.03158209863330263,-0.020253928898324867,0.004251762687744024,2.194943904876709,2019-06-20 16:00:10:949
4.029379760742187,-8.0252412109375,0.2591683654785156,0.03158209863330263,-0.019854454734812982,0.0038522885242321388,2.199808120727539,2019-06-20 16:00:10:954
4.015014770507812,-8.0252412109375,0.3250079040527344,0.03144894057879867,-0.019588138625805055,0.0031864982517123288,2.204927921295166,2019-06-20 16:00:10:959
4.062898071289062,-8.018058715820313,0.2675479431152344,0.03118262446979074,-0.0183897161352694,0.002787024088200443,2.209791898727417,2019-06-20 16:00:10:964
4.059306823730469,-8.019255798339843,0.28311001586914064,0.03118262446979074,-0.018522874189773362,0.0026538660336964813,2.214911937713623,2019-06-20 16:00:10:969
4.029379760742187,-8.049182861328125,0.29148959350585935,0.03158209863330263,-0.020253928898324867,0.0026538660336964813,2.219775915145874,2019-06-20 16:00:10:974
4.0664893188476565,-8.028832458496094,0.3058545837402344,0.032114730851318475,-0.020253928898324867,0.0022543918701845955,2.22489595413208,2019-06-20 16:00:10:979
4.025788513183594,-8.021649963378906,0.2675479431152344,0.03184841474231055,-0.020253928898324867,0.0019880757611766718,2.230015993118286,2019-06-20 16:00:10:984
4.000649780273437,-8.008482055664063,0.25318295288085935,0.031715256687806594,-0.01905550640778921,0.0023875499246885576,2.234879970550537,2019-06-20 16:00:10:989
4.001846862792969,-8.042000366210937,0.2735333557128906,0.031715256687806594,-0.0183897161352694,0.0017217596521687478,2.240000009536743,2019-06-20 16:00:10:994
4.022197265625,-8.038409118652343,0.28909542846679687,0.032514205014830364,-0.01918866446229317,0.0019880757611766718,2.244863986968994,2019-06-20 16:00:10:999
4.0210001831054685,-8.0252412109375,0.2878983459472656,0.032913679178342245,-0.01918866446229317,0.0021212338156806334,2.2499840259552,2019-06-20 16:00:11:004
4.0030439453125,-8.045591613769531,0.2627596130371094,0.033712627505366015,-0.0183897161352694,0.0019880757611766718,2.254848003387451,2019-06-20 16:00:11:009
4.016211853027344,-8.057562438964844,0.26515377807617185,0.03357946945086206,-0.017990241971757512,0.0018549177066727097,2.2599680423736572,2019-06-20 16:00:11:014
4.028182678222656,-8.051577026367188,0.2567742004394531,0.033712627505366015,-0.01785708391725355,0.0007896532706410145,2.264832019805908,2019-06-20 16:00:11:019
4.022197265625,-8.056365356445312,0.3058545837402344,0.03278052112383829,-0.018123400026261477,-0.00014245311088671893,2.2699520587921143,2019-06-20 16:00:11:024
4.030576843261719,-8.039606201171875,0.3046575012207031,0.03397894361437394,-0.017191293644733742,0.0009228113251449763,2.2748160362243652,2019-06-20 16:00:11:029
3.997058532714844,-8.056365356445312,0.2687450256347656,0.03424525972338187,-0.016392345317709972,-0.0005419272743986046,2.2799360752105713,2019-06-20 16:00:11:034
4.000649780273437,-8.06474493408203,0.2974750061035156,0.03464473388689375,-0.017191293644733742,-0.0022729819829501096,2.2848000526428223,2019-06-20 16:00:11:039
4.0066351928710935,-8.043197448730469,0.2567742004394531,0.0351773661049096,-0.016791819481221857,-0.0025392980919580334,2.2899200916290283,2019-06-20 16:00:11:044
3.999452697753906,-8.047985778808593,0.2807158508300781,0.03424525972338187,-0.018656032244277324,-0.002805614200965957,2.2947840690612793,2019-06-20 16:00:11:049
3.9874818725585937,-8.039606201171875,0.28430709838867185,0.03531052415941356,-0.018522874189773362,-0.0037377205824936904,2.2999041080474854,2019-06-20 16:00:11:054
3.9611460571289063,-8.049182861328125,0.2675479431152344,0.03570999832292545,-0.017191293644733742,-0.0044035108550135,2.3050239086151123,2019-06-20 16:00:11:059
3.9814964599609373,-8.047985778808593,0.2855041809082031,0.03584315637742941,-0.01772392586274959,-0.004536668909517462,2.3098878860473633,2019-06-20 16:00:11:064
3.997058532714844,-8.052774108886718,0.2555771179199219,0.037041578867965066,-0.018789190298781285,-0.0050693011275333094,2.3150079250335693,2019-06-20 16:00:11:069
3.982693542480469,-8.061153686523438,0.2878983459472656,0.03730789497697299,-0.01825655808076544,-0.005601933345549157,2.3198719024658203,2019-06-20 16:00:11:074
3.9647373046875,-8.075518676757813,0.3130370788574219,0.0379736852494928,-0.020919719170844675,-0.006134565563565005,2.3249919414520264,2019-06-20 16:00:11:079
3.965934387207031,-8.065942016601563,0.29029251098632813,0.038905791631020537,-0.019987612789316943,-0.0071998299995967,2.3298559188842773,2019-06-20 16:00:11:084
3.9910731201171874,-8.043197448730469,0.26515377807617185,0.03863947552201261,-0.020919719170844675,-0.009463516926164052,2.3349759578704834,2019-06-20 16:00:11:089
3.997058532714844,-8.07312451171875,0.24001504516601563,0.03877263357651657,-0.022251299715884295,-0.010129307198683862,2.3398399353027344,2019-06-20 16:00:11:094
4.010226440429688,-8.067139099121093,0.2591683654785156,0.03957158190354034,-0.021052877225348637,-0.00933035887166009,2.3449599742889404,2019-06-20 16:00:11:099
3.982693542480469,-8.101854492187499,0.27113919067382813,0.03997105606705223,-0.02265077387939618,-0.010129307198683862,2.3498239517211914,2019-06-20 16:00:11:104
3.9814964599609373,-8.052774108886718,0.3393728942871094,0.04037053023056411,-0.02265077387939618,-0.011594045798227443,2.3549439907073975,2019-06-20 16:00:11:109
3.9671314697265623,-8.06474493408203,0.28909542846679687,0.04010421412155619,-0.02265077387939618,-0.013325100506778948,2.3598079681396484,2019-06-20 16:00:11:114
3.9874818725585937,-8.079109924316406,0.3058545837402344,0.040770004394076,-0.02265077387939618,-0.014922997160826491,2.3649280071258545,2019-06-20 16:00:11:119
3.970722717285156,-8.083898254394532,0.3309933166503906,0.04156895272109977,-0.024781302751459573,-0.01425720688830668,2.3697919845581055,2019-06-20 16:00:11:124
3.985087707519531,-8.083898254394532,0.3142341613769531,0.041302636612091846,-0.02451498664245165,-0.015322471324338376,2.3749120235443115,2019-06-20 16:00:11:129
3.99346728515625,-8.04439453125,0.3321903991699219,0.04156895272109977,-0.02531393496947542,-0.014922997160826491,2.3797760009765625,2019-06-20 16:00:11:134
3.9898760375976563,-8.027635375976562,0.3309933166503906,0.042367901048123546,-0.026379199405507113,-0.015988261596858185,2.3848960399627686,2019-06-20 16:00:11:139
4.005438110351562,-8.018058715820313,0.2926866760253906,0.042501059102627504,-0.027311305787034845,-0.01692036797838592,2.3900160789489746,2019-06-20 16:00:11:144
4.0066351928710935,-8.012073303222657,0.3046575012207031,0.042501059102627504,-0.027178147732530883,-0.017719317345706993,2.3948800563812256,2019-06-20 16:00:11:149
4.034168090820312,-7.990525817871093,0.3250079040527344,0.043300007429651274,-0.02704498967802692,-0.017719317345706993,2.4000000953674316,2019-06-20 16:00:11:154
4.0413505859375,-7.988131652832031,0.3321903991699219,0.04383263964766712,-0.02691183162352296,-0.01825194956372284,2.4048640727996826,2019-06-20 16:00:11:159
4.076065979003906,-7.9773579101562495,0.2819129333496094,0.04343316548415524,-0.026512357460011075,-0.017319842141897804,2.4099841117858887,2019-06-20 16:00:11:164
4.086839721679687,-7.979752075195313,0.2938837585449219,0.04290053326613939,-0.02691183162352296,-0.01705352603288988,2.4148480892181396,2019-06-20 16:00:11:169
4.092825134277343,-7.972569580078125,0.2795187683105469,0.04343316548415524,-0.02611288329649919,-0.01705352603288988,2.4199678897857666,2019-06-20 16:00:11:174
4.078460144042968,-7.960598754882812,0.2998691711425781,0.04383263964766712,-0.02611288329649919,-0.01572194548785026,2.4248321056365967,2019-06-20 16:00:11:179
4.0808543090820315,-7.9929199829101565,0.3046575012207031,0.04343316548415524,-0.027311305787034845,-0.014656681051818568,2.4299519062042236,2019-06-20 16:00:11:184
4.091628051757812,-8.000102478027344,0.3118399963378906,0.04223474299361958,-0.027444463841538806,-0.013724574670290833,2.4348161220550537,2019-06-20 16:00:11:189
4.062898071289062,-8.00728497314453,0.31064291381835935,0.041702110775603735,-0.02704498967802692,-0.012392994125251213,2.4399359226226807,2019-06-20 16:00:11:194
4.100007629394531,-8.006087890625,0.3333874816894531,0.04090316244857996,-0.027311305787034845,-0.011727203852731405,2.4447999000549316,2019-06-20 16:00:11:199
4.105993041992187,-7.9869345703125,0.3441612243652344,0.040636846339572034,-0.026512357460011075,-0.01066193941669971,2.4499199390411377,2019-06-20 16:00:11:204
4.086839721679687,-7.99651123046875,0.39204452514648436,0.03917210774002846,-0.025713409132987305,-0.008930884708148205,2.4547839164733887,2019-06-20 16:00:11:209
4.07008056640625,-8.004890808105468,0.3573291320800781,0.038240001358500725,-0.02531393496947542,-0.008531410544636318,2.4599039554595947,2019-06-20 16:00:11:214
4.0652922363281245,-7.9929199829101565,0.36810287475585934,0.03837315941300468,-0.025180776914971458,-0.008265094435628395,2.465023994445801,2019-06-20 16:00:11:219
4.0652922363281245,-8.001299560546874,0.34176705932617185,0.037174736922469025,-0.024914460805963535,-0.008398252490132357,2.4698879718780518,2019-06-20 16:00:11:224
4.029379760742187,-7.983343322753906,0.3633145446777344,0.036375788595445255,-0.02438182858794769,-0.008398252490132357,2.475008010864258,2019-06-20 16:00:11:229
4.03177392578125,-7.970175415039062,0.36690579223632813,0.03570999832292545,-0.02438182858794769,-0.008131936381124433,2.479871988296509,2019-06-20 16:00:11:234
4.047335998535156,-7.946233764648437,0.37289120483398436,0.03491104999590168,-0.02265077387939618,-0.007599304163108585,2.484992027282715,2019-06-20 16:00:11:239
4.072474731445312,-7.972569580078125,0.3393728942871094,0.03424525972338187,-0.022384457770388257,-0.006800355836084815,2.489856004714966,2019-06-20 16:00:11:244
4.083248474121094,-7.994117065429688,0.33458456420898436,0.03331315334185413,-0.02198498360687637,-0.005868249454557082,2.494976043701172,2019-06-20 16:00:11:249
4.088036804199219,-7.972569580078125,0.31064291381835935,0.032913679178342245,-0.02251761582489222,-0.005468775291045195,2.499840021133423,2019-06-20 16:00:11:254
4.0940222167968745,-7.984540405273437,0.3262049865722656,0.032514205014830364,-0.02145235138886052,-0.004669826964021424,2.504960060119629,2019-06-20 16:00:11:259
4.0796572265624995,-7.965387084960938,0.3333874816894531,0.03224788890582244,-0.02065340306183675,-0.0037377205824936904,2.50982403755188,2019-06-20 16:00:11:264
4.076065979003906,-7.9785549926757815,0.2878983459472656,0.03158209863330263,-0.019987612789316943,-0.003071930309973881,2.514944076538086,2019-06-20 16:00:11:269
4.073671813964844,-8.004890808105468,0.28430709838867185,0.030117360033759047,-0.01918866446229317,-0.0024061400374540713,2.519808053970337,2019-06-20 16:00:11:274
4.062898071289062,-8.031226623535156,0.3058545837402344,0.03025051808826301,-0.01918866446229317,-0.0016071917104302999,2.524928092956543,2019-06-20 16:00:11:279
4.018606018066406,-8.03481787109375,0.3010662536621094,0.029851043924751124,-0.020919719170844675,-0.0014740336559263382,2.529792070388794,2019-06-20 16:00:11:284
4.0066351928710935,-8.042000366210937,0.2986720886230469,0.029984201979255085,-0.02065340306183675,-0.0014740336559263382,2.534912109375,2019-06-20 16:00:11:289
4.019803100585937,-8.032423706054688,0.28909542846679687,0.03118262446979074,-0.02131919333435656,-0.0020066658739421855,2.540031909942627,2019-06-20 16:00:11:294
4.018606018066406,-8.09227783203125,0.2878983459472656,0.030783150306278855,-0.021585509443364483,-0.002805614200965957,2.544895887374878,2019-06-20 16:00:11:299
4.009029357910157,-8.099460327148437,0.29148959350585935,0.030916308360782817,-0.020786561116340713,-0.002938772255469919,2.550015926361084,2019-06-20 16:00:11:304
3.979102294921875,-8.103051574707031,0.2627596130371094,0.03264736306933432,-0.021585509443364483,-0.004536668909517462,2.554879903793335,2019-06-20 16:00:11:309
3.9575548095703126,-8.083898254394532,0.25797128295898436,0.032514205014830364,-0.0211860352798526,-0.0064008816725729285,2.559999942779541,2019-06-20 16:00:11:314
3.9731168823242187,-8.055168273925782,0.2795187683105469,0.03317999528735017,-0.02185182555237241,-0.0071998299995967,2.564863920211792,2019-06-20 16:00:11:319
3.965934387207031,-8.056365356445312,0.2974750061035156,0.03344631139635809,-0.023849196369931835,-0.008398252490132357,2.569983959197998,2019-06-20 16:00:11:324
3.980299377441406,-8.068336181640625,0.27233627319335935,0.03424525972338187,-0.024914460805963535,-0.008797726653644243,2.574847936630249,2019-06-20 16:00:11:329
4.005438110351562,-8.077912841796875,0.2591683654785156,0.034777891941397715,-0.02358288026092391,-0.00933035887166009,2.579967975616455,2019-06-20 16:00:11:334
4.015014770507812,-8.021649963378906,0.23402963256835937,0.036375788595445255,-0.024115512478939758,-0.009596674980668015,2.584831953048706,2019-06-20 16:00:11:339
4.0413505859375,-8.006087890625,0.2232558898925781,0.037840527194988836,-0.025846567187491266,-0.009862991089675938,2.589951992034912,2019-06-20 16:00:11:344
4.0808543090820315,-7.9869345703125,0.25198587036132813,0.038905791631020537,-0.026645515514515036,-0.00933035887166009,2.594815969467163,2019-06-20 16:00:11:349
4.092825134277343,-7.973766662597656,0.22445297241210938,0.03997105606705223,-0.02784393800505069,-0.008664568599140282,2.599936008453369,2019-06-20 16:00:11:354
4.121555114746093,-7.966584167480469,0.2567742004394531,0.040636846339572034,-0.026379199405507113,-0.007998778326620472,2.60479998588562,2019-06-20 16:00:11:359
4.1095842895507815,-7.949825012207031,0.26515377807617185,0.04156895272109977,-0.026778673569018998,-0.006667197781580852,2.609920024871826,2019-06-20 16:00:11:364
4.1179638671875,-7.959401672363281,0.27233627319335935,0.04196842688461166,-0.027311305787034845,-0.004536668909517462,2.614784002304077,2019-06-20 16:00:11:369
4.143102600097656,-7.974963745117187,0.3070516662597656,0.04343316548415524,-0.028642886332074468,-0.002938772255469919,2.619904041290283,2019-06-20 16:00:11:374
4.1383142700195314,-8.001299560546874,0.2783216857910156,0.04423211381117901,-0.029042360495586353,-0.0009414014379104903,2.6250240802764893,2019-06-20 16:00:11:379
4.1179638671875,-7.980949157714844,0.2735333557128906,0.04449842992018693,-0.030640257149633893,0.0007896532706410145,2.6298880577087402,2019-06-20 16:00:11:384
4.100007629394531,-7.970175415039062,0.3046575012207031,0.044764746029194856,-0.030107624931618046,0.0031864982517123288,2.6350080966949463,2019-06-20 16:00:11:389
4.102401794433594,-8.002496643066406,0.3429641418457031,0.04489790408369882,-0.02890920244108239,0.004784394905759872,2.6398720741271973,2019-06-20 16:00:11:394
4.083248474121094,-8.019255798339843,0.3429641418457031,0.0452973782472107,-0.02890920244108239,0.005183869069271757,2.6449921131134033,2019-06-20 16:00:11:399
4.0808543090820315,-8.019255798339843,0.3058545837402344,0.044764746029194856,-0.02970815076810616,0.005450185178279681,2.6498560905456543,2019-06-20 16:00:11:404
4.0652922363281245,-8.018058715820313,0.28430709838867185,0.04503106213820278,-0.028376570223066545,0.005982817396295529,2.6549758911132812,2019-06-20 16:00:11:409
4.03177392578125,-8.03601495361328,0.3321903991699219,0.04436527186568297,-0.029441834659098238,0.005716501287287605,2.6598401069641113,2019-06-20 16:00:11:414
4.0030439453125,-8.038409118652343,0.2675479431152344,0.045563694356218626,-0.029974466877114084,0.0065154496143113765,2.6649599075317383,2019-06-20 16:00:11:419
4.018606018066406,-8.03601495361328,0.3250079040527344,0.04583001046522655,-0.029175518550090315,0.005982817396295529,2.6698241233825684,2019-06-20 16:00:11:424
4.004241027832031,-8.028832458496094,0.29627792358398436,0.04489790408369882,-0.028243412168562583,0.005050711014767796,2.6749439239501953,2019-06-20 16:00:11:429
4.034168090820312,-8.0252412109375,0.3178254089355469,0.04449842992018693,-0.02771077995054673,0.004784394905759872,2.6798079013824463,2019-06-20 16:00:11:434
4.0509272460937495,-8.040803283691407,0.28909542846679687,0.044098955756675044,-0.027577621896042768,0.005450185178279681,2.6849279403686523,2019-06-20 16:00:11:439
3.9958614501953122,-8.047985778808593,0.31064291381835935,0.04383263964766712,-0.02771077995054673,0.004251762687744024,2.6897919178009033,2019-06-20 16:00:11:444
4.03177392578125,-8.03601495361328,0.3525408020019531,0.04343316548415524,-0.027577621896042768,0.005050711014767796,2.6949119567871094,2019-06-20 16:00:11:449
4.026985595703125,-8.01566455078125,0.3178254089355469,0.042367901048123546,-0.026778673569018998,0.005583343232783643,2.6997759342193604,2019-06-20 16:00:11:454
4.029379760742187,-8.043197448730469,0.3393728942871094,0.042501059102627504,-0.026512357460011075,0.0065154496143113765,2.7048959732055664,2019-06-20 16:00:11:459
3.997058532714844,-8.027635375976562,0.3166283264160156,0.041302636612091846,-0.026379199405507113,0.005450185178279681,2.7100160121917725,2019-06-20 16:00:11:464
4.029379760742187,-8.050379943847656,0.32740206909179687,0.041302636612091846,-0.026778673569018998,0.004917552960263833,2.7148799896240234,2019-06-20 16:00:11:469
3.970722717285156,-8.062350769042968,0.3250079040527344,0.04156895272109977,-0.02531393496947542,0.004118604633240062,2.7200000286102295,2019-06-20 16:00:11:474
3.945583984375,-8.082701171875,0.3010662536621094,0.04143579466659581,-0.026379199405507113,0.0026538660336964813,2.7248640060424805,2019-06-20 16:00:11:479
3.945583984375,-8.089883666992188,0.3250079040527344,0.04116947855758789,-0.027178147732530883,0.0019880757611766718,2.7299840450286865,2019-06-20 16:00:11:484
3.9288248291015626,-8.09347491455078,0.27113919067382813,0.04116947855758789,-0.02691183162352296,0.00012386299812120486,2.7348480224609375,2019-06-20 16:00:11:489
3.9204452514648436,-8.105445739746093,0.2783216857910156,0.04103632050308392,-0.02797709605955466,-0.0020066658739421855,2.7399680614471436,2019-06-20 16:00:11:494
3.9144598388671876,-8.089883666992188,0.27233627319335935,0.04196842688461166,-0.029175518550090315,-0.0040040366915016145,2.7448320388793945,2019-06-20 16:00:11:499
3.902489013671875,-8.068336181640625,0.2878983459472656,0.04196842688461166,-0.03037394104062597,-0.0064008816725729285,2.7499520778656006,2019-06-20 16:00:11:504
3.921642333984375,-8.091080749511718,0.2807158508300781,0.042367901048123546,-0.030640257149633893,-0.008664568599140282,2.7548160552978516,2019-06-20 16:00:11:509
3.941992736816406,-8.0635478515625,0.28430709838867185,0.04383263964766712,-0.03050709909512993,-0.010129307198683862,2.7599360942840576,2019-06-20 16:00:11:514
3.969525634765625,-8.027635375976562,0.25318295288085935,0.0446315879746909,-0.030240782986122008,-0.010928255525707633,2.7648000717163086,2019-06-20 16:00:11:519
3.9886789550781248,-8.018058715820313,0.2675479431152344,0.04583001046522655,-0.03157236353116163,-0.010928255525707633,2.7699201107025146,2019-06-20 16:00:11:524
4.043744750976562,-8.01566455078125,0.2627596130371094,0.04622948462873844,-0.03157236353116163,-0.01132772968921952,2.7747840881347656,2019-06-20 16:00:11:529
4.048533081054687,-8.003693725585938,0.2855041809082031,0.04689527490125824,-0.03263762796719332,-0.011993519961739328,2.7799038887023926,2019-06-20 16:00:11:534
4.074868896484375,-7.982146240234375,0.2950808410644531,0.04756106517377806,-0.03117288936764974,-0.011460887743723482,2.7850239276885986,2019-06-20 16:00:11:539
4.0952192993164065,-7.966584167480469,0.30944583129882813,0.04742790711927409,-0.031039731313145778,-0.009197200817156128,2.7898879051208496,2019-06-20 16:00:11:544
4.091628051757812,-7.974963745117187,0.3238108215332031,0.04689527490125824,-0.03050709909512993,-0.00786562027211651,2.7950079441070557,2019-06-20 16:00:11:549
4.105993041992187,-7.9486279296874995,0.28909542846679687,0.046362642683242396,-0.032104995749177474,-0.006933513890588777,2.7998719215393066,2019-06-20 16:00:11:554
4.084445556640625,-7.994117065429688,0.33458456420898436,0.04662895879225032,-0.031971837694673516,-0.006800355836084815,2.8049919605255127,2019-06-20 16:00:11:559
4.084445556640625,-8.008482055664063,0.3441612243652344,0.04622948462873844,-0.030773415204137854,-0.004936143073029348,2.8098559379577637,2019-06-20 16:00:11:564
4.078460144042968,-8.013270385742187,0.34894955444335934,0.04543053630171467,-0.03050709909512993,-0.004536668909517462,2.8149759769439697,2019-06-20 16:00:11:569
4.0652922363281245,-8.013270385742187,0.30346041870117185,0.045164220192706744,-0.029841308822610123,-0.004137194746005576,2.8198399543762207,2019-06-20 16:00:11:574
4.017408935546875,-8.04439453125,0.2878983459472656,0.04489790408369882,-0.028642886332074468,-0.004137194746005576,2.8249599933624268,2019-06-20 16:00:11:579
3.9958614501953122,-8.059956604003906,0.24001504516601563,0.04343316548415524,-0.028642886332074468,-0.0037377205824936904,2.8298239707946777,2019-06-20 16:00:11:584
3.9814964599609373,-8.097066162109375,0.2938837585449219,0.04343316548415524,-0.02771077995054673,-0.0040040366915016145,2.834944009780884,2019-06-20 16:00:11:589
3.9324160766601564,-8.081504089355468,0.2783216857910156,0.04290053326613939,-0.026379199405507113,-0.004669826964021424,2.8398079872131348,2019-06-20 16:00:11:594
3.922839416503906,-8.09347491455078,0.30824874877929687,0.04223474299361958,-0.02544709302397938,-0.006800355836084815,2.844928026199341,2019-06-20 16:00:11:599
3.9180510864257814,-8.100657409667969,0.3202195739746094,0.041702110775603735,-0.025180776914971458,-0.00786562027211651,2.849792003631592,2019-06-20 16:00:11:604
3.8917152709960936,-8.117416564941406,0.2747304382324219,0.04156895272109977,-0.026379199405507113,-0.009729833035171977,2.854912042617798,2019-06-20 16:00:11:609
3.8929123535156247,-8.101854492187499,0.2795187683105469,0.04263421715713147,-0.02424867053344372,-0.01212667801624329,2.859776020050049,2019-06-20 16:00:11:614
3.927627746582031,-8.100657409667969,0.30226333618164064,0.04223474299361958,-0.02278393193390014,-0.01345825856128291,2.864896059036255,2019-06-20 16:00:11:619
3.951569396972656,-8.083898254394532,0.25318295288085935,0.042367901048123546,-0.02358288026092391,-0.015988261596858185,2.870016098022461,2019-06-20 16:00:11:624
3.9300219116210937,-8.082701171875,0.2795187683105469,0.043300007429651274,-0.02451498664245165,-0.018118791509218878,2.874880075454712,2019-06-20 16:00:11:629
3.9479781494140624,-8.099460327148437,0.3178254089355469,0.04436527186568297,-0.02424867053344372,-0.020648794544794152,2.880000114440918,2019-06-20 16:00:11:634
3.945583984375,-8.091080749511718,0.2819129333496094,0.044098955756675044,-0.024115512478939758,-0.02264616536235358,2.884864091873169,2019-06-20 16:00:11:639
3.965934387207031,-8.091080749511718,0.3262049865722656,0.04423211381117901,-0.025846567187491266,-0.023578271743881312,2.889983892440796,2019-06-20 16:00:11:644
3.9755110473632813,-8.071927429199219,0.3321903991699219,0.04423211381117901,-0.025713409132987305,-0.024643536179913012,2.894848108291626,2019-06-20 16:00:11:649
3.997058532714844,-8.049182861328125,0.29148959350585935,0.0435663235386592,-0.025713409132987305,-0.025841958670448667,2.899967908859253,2019-06-20 16:00:11:654
4.005438110351562,-8.033620788574218,0.30944583129882813,0.043166849375147316,-0.025580251078483343,-0.026374590888464514,2.904831886291504,2019-06-20 16:00:11:659
3.979102294921875,-8.039606201171875,0.32261373901367185,0.043300007429651274,-0.024914460805963535,-0.02690722310648036,2.90995192527771,2019-06-20 16:00:11:664
4.017408935546875,-8.058759521484374,0.32141665649414064,0.042367901048123546,-0.024914460805963535,-0.028238803651519984,2.914815902709961,2019-06-20 16:00:11:669
4.019803100585937,-8.037212036132813,0.3178254089355469,0.04223474299361958,-0.02451498664245165,-0.029703542251063562,2.919935941696167,2019-06-20 16:00:11:674
4.025788513183594,-8.030029541015624,0.31543124389648436,0.04276737521163543,-0.022384457770388257,-0.029969858360071485,2.924799919128418,2019-06-20 16:00:11:679
4.036562255859375,-8.040803283691407,0.3333874816894531,0.04116947855758789,-0.022384457770388257,-0.030768806687095255,2.929919958114624,2019-06-20 16:00:11:684
4.046138916015625,-8.020452880859375,0.3309933166503906,0.04010421412155619,-0.02185182555237241,-0.031168280850607147,2.934783935546875,2019-06-20 16:00:11:689
4.036562255859375,-8.014467468261719,0.3178254089355469,0.040636846339572034,-0.02185182555237241,-0.030635648632591293,2.939903974533081,2019-06-20 16:00:11:694
4.068883483886719,-8.019255798339843,0.29148959350585935,0.03943842384903638,-0.02065340306183675,-0.031035122796103178,2.945024013519287,2019-06-20 16:00:11:699
4.0652922363281245,-8.03481787109375,0.31543124389648436,0.03917210774002846,-0.0211860352798526,-0.030103016414575447,2.949887990951538,2019-06-20 16:00:11:704
4.083248474121094,-8.043197448730469,0.3190224914550781,0.039704739958044306,-0.022118141661380333,-0.029703542251063562,2.955008029937744,2019-06-20 16:00:11:709
4.053321411132813,-8.032423706054688,0.3453583068847656,0.039038949685524495,-0.021585509443364483,-0.029969858360071485,2.959872007369995,2019-06-20 16:00:11:714
4.062898071289062,-8.010876220703125,0.3178254089355469,0.03877263357651657,-0.02038708695282883,-0.029836700305567523,2.964992046356201,2019-06-20 16:00:11:719
4.038956420898438,-8.038409118652343,0.3393728942871094,0.03863947552201261,-0.022251299715884295,-0.030103016414575447,2.969856023788452,2019-06-20 16:00:11:724
4.046138916015625,-8.039606201171875,0.32740206909179687,0.03877263357651657,-0.02265077387939618,-0.0295703841965596,2.974976062774658,2019-06-20 16:00:11:729
4.0497301635742184,-8.006087890625,0.3573291320800781,0.03757421108598091,-0.023316564151915988,-0.029703542251063562,2.979840040206909,2019-06-20 16:00:11:734
4.061700988769531,-8.018058715820313,0.3369787292480469,0.037041578867965066,-0.024914460805963535,-0.0295703841965596,2.9849600791931152,2019-06-20 16:00:11:739
4.0497301635742184,-8.019255798339843,0.3357816467285156,0.03850631746750865,-0.02531393496947542,-0.029170910033047715,2.989824056625366,2019-06-20 16:00:11:744
4.036562255859375,-7.995314147949219,0.26515377807617185,0.03770736914048488,-0.025047618860467497,-0.02877143586953583,2.9949440956115723,2019-06-20 16:00:11:749
4.062898071289062,-7.9629929199218745,0.3166283264160156,0.03837315941300468,-0.026379199405507113,-0.029037751978543754,2.9998080730438232,2019-06-20 16:00:11:754
4.0509272460937495,-7.9929199829101565,0.3549349670410156,0.03837315941300468,-0.025979725241995228,-0.029037751978543754,3.0049281120300293,2019-06-20 16:00:11:759
4.054518493652344,-8.012073303222657,0.3250079040527344,0.03837315941300468,-0.026379199405507113,-0.02797248754251206,3.0097920894622803,2019-06-20 16:00:11:764
4.0808543090820315,-8.021649963378906,0.31543124389648436,0.03850631746750865,-0.02624604135100315,-0.027306697269992245,3.0149118900299072,2019-06-20 16:00:11:769
4.084445556640625,-7.994117065429688,0.32261373901367185,0.039038949685524495,-0.026379199405507113,-0.027040381160984322,3.0197761058807373,2019-06-20 16:00:11:774
4.085642639160156,-7.9917229003906245,0.2878983459472656,0.03863947552201261,-0.02771077995054673,-0.027173539215488283,3.0248959064483643,2019-06-20 16:00:11:779
4.076065979003906,-7.976160827636718,0.30226333618164064,0.03930526579453242,-0.026645515514515036,-0.026241432833960552,3.0300159454345703,2019-06-20 16:00:11:784
4.090430969238281,-7.952219177246094,0.3357816467285156,0.038905791631020537,-0.027178147732530883,-0.025442484506936782,3.0348799228668213,2019-06-20 16:00:11:789
4.085642639160156,-7.9486279296874995,0.2627596130371094,0.03943842384903638,-0.027577621896042768,-0.024110903961897166,3.0399999618530273,2019-06-20 16:00:11:794
4.131131774902344,-7.931868774414062,0.3525408020019531,0.039837898012548265,-0.02691183162352296,-0.022246691198841696,3.0448639392852783,2019-06-20 16:00:11:799
4.135920104980468,-7.91989794921875,0.31543124389648436,0.040503688285068076,-0.027444463841538806,-0.020915110653802076,3.0499839782714844,2019-06-20 16:00:11:804
4.144299682617188,-7.907927124023438,0.31543124389648436,0.040770004394076,-0.027444463841538806,-0.019317213999754532,3.0548479557037354,2019-06-20 16:00:11:809
4.157467590332031,-7.921095031738281,0.29627792358398436,0.04116947855758789,-0.028243412168562583,-0.01758615929120303,3.0599679946899414,2019-06-20 16:00:11:814
4.140708435058594,-7.95820458984375,0.32261373901367185,0.04116947855758789,-0.028642886332074468,-0.015189313269834415,3.0648319721221924,2019-06-20 16:00:11:819
4.114372619628906,-7.955810424804687,0.34894955444335934,0.04103632050308392,-0.02970815076810616,-0.013591416615786871,3.0699520111083984,2019-06-20 16:00:11:824
4.133525939941406,-7.959401672363281,0.3393728942871094,0.04156895272109977,-0.029974466877114084,-0.011460887743723482,3.0748159885406494,2019-06-20 16:00:11:829
4.1095842895507815,-7.970175415039062,0.30944583129882813,0.04037053023056411,-0.030240782986122008,-0.010395623307691787,3.0799360275268555,2019-06-20 16:00:11:834
4.0808543090820315,-7.985737487792969,0.30824874877929687,0.039837898012548265,-0.02890920244108239,-0.008664568599140282,3.0848000049591064,2019-06-20 16:00:11:839
4.061700988769531,-7.990525817871093,0.3238108215332031,0.04037053023056411,-0.029308676604594276,-0.00786562027211651,3.0899200439453125,2019-06-20 16:00:11:844
4.0652922363281245,-7.966584167480469,0.2974750061035156,0.04156895272109977,-0.030107624931618046,-0.006933513890588777,3.0947840213775635,2019-06-20 16:00:11:849
4.062898071289062,-7.9929199829101565,0.3010662536621094,0.04143579466659581,-0.031039731313145778,-0.0064008816725729285,3.0999040603637695,2019-06-20 16:00:11:854
4.044941833496094,-7.995314147949219,0.2663508605957031,0.04143579466659581,-0.030906573258641816,-0.005868249454557082,3.1050240993499756,2019-06-20 16:00:11:859
4.06050390625,-8.027635375976562,0.2543800354003906,0.04183526883010769,-0.032104995749177474,-0.006667197781580852,3.1098880767822266,2019-06-20 16:00:11:864
4.085642639160156,-8.000102478027344,0.23043838500976563,0.04290053326613939,-0.03170552158566559,-0.007599304163108585,3.1150081157684326,2019-06-20 16:00:11:869
4.08923388671875,-8.004890808105468,0.21727047729492188,0.04343316548415524,-0.0323713118581854,-0.006800355836084815,3.1198720932006836,2019-06-20 16:00:11:874
4.092825134277343,-8.014467468261719,0.2543800354003906,0.04489790408369882,-0.03170552158566559,-0.006001407509061044,3.1249918937683105,2019-06-20 16:00:11:879
4.129934692382812,-8.004890808105468,0.3046575012207031,0.04503106213820278,-0.031306047422153704,-0.005601933345549157,3.1298561096191406,2019-06-20 16:00:11:884
4.144299682617188,-8.010876220703125,0.2759275207519531,0.04449842992018693,-0.03157236353116163,-0.004936143073029348,3.1349759101867676,2019-06-20 16:00:11:889
4.128737609863281,-8.003693725585938,0.28311001586914064,0.0452973782472107,-0.030906573258641816,-0.0038708786369976524,3.1398398876190186,2019-06-20 16:00:11:894
4.167044250488281,-8.006087890625,0.2819129333496094,0.043965797702171086,-0.03143920547665766,-0.002805614200965957,3.1449599266052246,2019-06-20 16:00:11:899
4.149088012695312,-7.99651123046875,0.2926866760253906,0.04343316548415524,-0.032770786021697286,-0.0008082433834065285,3.1498239040374756,2019-06-20 16:00:11:904
4.128737609863281,-8.008482055664063,0.29148959350585935,0.04369948159316316,-0.030773415204137854,-0.0004087692198946427,3.1549439430236816,2019-06-20 16:00:11:909
4.128737609863281,-8.009679138183593,0.3369787292480469,0.04223474299361958,-0.03050709909512993,0.00012386299812120486,3.1598079204559326,2019-06-20 16:00:11:914
4.077263061523437,-8.032423706054688,0.28430709838867185,0.04196842688461166,-0.02970815076810616,0.0006564952161370526,3.1649279594421387,2019-06-20 16:00:11:919
4.064095153808593,-8.024044128417968,0.2795187683105469,0.04263421715713147,-0.029175518550090315,0.0014554435431608239,3.1697919368743896,2019-06-20 16:00:11:924
4.073671813964844,-8.027635375976562,0.27712460327148436,0.042101584939115616,-0.030107624931618046,0.0006564952161370526,3.1749119758605957,2019-06-20 16:00:11:929
4.0664893188476565,-8.027635375976562,0.2819129333496094,0.042101584939115616,-0.03037394104062597,0.0011891274341529002,3.1797759532928467,2019-06-20 16:00:11:934
4.046138916015625,-8.031226623535156,0.30226333618164064,0.042101584939115616,-0.029175518550090315,0.001322285488656862,3.1848959922790527,2019-06-20 16:00:11:939
4.059306823730469,-8.022847045898438,0.24480337524414061,0.04223474299361958,-0.028243412168562583,0.00012386299812120486,3.190016031265259,2019-06-20 16:00:11:944
4.062898071289062,-8.030029541015624,0.2819129333496094,0.0435663235386592,-0.027178147732530883,0.0005233371616330906,3.1948800086975098,2019-06-20 16:00:11:949
4.083248474121094,-8.028832458496094,0.2974750061035156,0.044098955756675044,-0.027311305787034845,-0.00027561116539068085,3.200000047683716,2019-06-20 16:00:11:954
4.071277648925781,-8.047985778808593,0.29627792358398436,0.044098955756675044,-0.02811025411405862,-0.00014245311088671893,3.204864025115967,2019-06-20 16:00:11:959
4.08923388671875,-8.010876220703125,0.2855041809082031,0.04449842992018693,-0.02704498967802692,0.0014554435431608239,3.209984064102173,2019-06-20 16:00:11:964
4.078460144042968,-8.000102478027344,0.3046575012207031,0.04436527186568297,-0.026645515514515036,0.0018549177066727097,3.214848041534424,2019-06-20 16:00:11:969
4.0796572265624995,-7.997708312988281,0.2795187683105469,0.0446315879746909,-0.02811025411405862,0.0023875499246885576,3.21996808052063,2019-06-20 16:00:11:974
4.08923388671875,-7.994117065429688,0.3190224914550781,0.043965797702171086,-0.027577621896042768,0.0021212338156806334,3.224832057952881,2019-06-20 16:00:11:979
4.085642639160156,-8.010876220703125,0.3130370788574219,0.04303369132064335,-0.02691183162352296,0.0033196563062162904,3.229952096939087,2019-06-20 16:00:11:984
4.074868896484375,-8.014467468261719,0.34176705932617185,0.04290053326613939,-0.02611288329649919,0.004118604633240062,3.234816074371338,2019-06-20 16:00:11:989
4.0509272460937495,-8.031226623535156,0.3190224914550781,0.042501059102627504,-0.025979725241995228,0.005317027123775719,3.239936113357544,2019-06-20 16:00:11:994
4.058109741210937,-8.016861633300781,0.31064291381835935,0.04183526883010769,-0.02544709302397938,0.004118604633240062,3.244800090789795,2019-06-20 16:00:11:999
4.048533081054687,-8.013270385742187,0.30824874877929687,0.040503688285068076,-0.025047618860467497,0.0038522885242321388,3.249919891357422,2019-06-20 16:00:12:004
4.03177392578125,-8.038409118652343,0.25797128295898436,0.04090316244857996,-0.023849196369931835,0.0035859724152242146,3.254784107208252,2019-06-20 16:00:12:009
4.032971008300781,-8.019255798339843,0.2867012634277344,0.040636846339572034,-0.023316564151915988,0.002787024088200443,3.259903907775879,2019-06-20 16:00:12:014
4.046138916015625,-8.004890808105468,0.27712460327148436,0.04183526883010769,-0.023849196369931835,0.0029201821427044046,3.265023946762085,2019-06-20 16:00:12:019
4.042547668457031,-7.994117065429688,0.25318295288085935,0.04196842688461166,-0.023982354424435796,0.003452814360720253,3.269887924194336,2019-06-20 16:00:12:024
4.0210001831054685,-8.028832458496094,0.24480337524414061,0.04276737521163543,-0.02358288026092391,0.0038522885242321388,3.275007963180542,2019-06-20 16:00:12:029
4.044941833496094,-7.994117065429688,0.2615625305175781,0.04116947855758789,-0.023183406097412027,0.0039854465787361,3.279871940612793,2019-06-20 16:00:12:034
4.046138916015625,-7.997708312988281,0.25797128295898436,0.040503688285068076,-0.02171866749786845,0.004384920742247986,3.284991979598999,2019-06-20 16:00:12:039
4.076065979003906,-7.9929199829101565,0.3381758117675781,0.039837898012548265,-0.021052877225348637,0.004251762687744024,3.28985595703125,2019-06-20 16:00:12:044
4.073671813964844,-7.994117065429688,0.35852621459960937,0.04010421412155619,-0.02198498360687637,0.005450185178279681,3.294975996017456,2019-06-20 16:00:12:049
4.084445556640625,-8.004890808105468,0.36092037963867185,0.039704739958044306,-0.020786561116340713,0.007580714050343071,3.299839973449707,2019-06-20 16:00:12:054
4.0664893188476565,-8.033620788574218,0.38486203002929686,0.03917210774002846,-0.019987612789316943,0.008379662377366842,3.304960012435913,2019-06-20 16:00:12:059
4.077263061523437,-8.019255798339843,0.3908474426269531,0.03837315941300468,-0.020253928898324867,0.009444926813398537,3.309823989868164,2019-06-20 16:00:12:064
4.054518493652344,-8.003693725585938,0.37887661743164064,0.037840527194988836,-0.019987612789316943,0.010110717085918347,3.31494402885437,2019-06-20 16:00:12:069
4.042547668457031,-8.008482055664063,0.35852621459960937,0.0369084208134611,-0.020253928898324867,0.0095780848679025,3.319808006286621,2019-06-20 16:00:12:074
4.0210001831054685,-8.01566455078125,0.34894955444335934,0.03677526275895714,-0.02145235138886052,0.00891229459538269,3.324928045272827,2019-06-20 16:00:12:079
4.023394348144532,-8.028832458496094,0.35972329711914064,0.03610947248643733,-0.021052877225348637,0.008779136540878729,3.329792022705078,2019-06-20 16:00:12:084
3.9898760375976563,-8.010876220703125,0.3142341613769531,0.035576840268421485,-0.020253928898324867,0.00891229459538269,3.334912061691284,2019-06-20 16:00:12:089
4.009029357910157,-7.985737487792969,0.30226333618164064,0.03451157583238979,-0.018922348353285247,0.00824650432286288,3.339776039123535,2019-06-20 16:00:12:094
3.999452697753906,-8.03601495361328,0.3549349670410156,0.03344631139635809,-0.018522874189773362,0.008113346268358919,3.344896078109741,2019-06-20 16:00:12:099
4.007832275390625,-8.04439453125,0.37767953491210937,0.03278052112383829,-0.01905550640778921,0.008779136540878729,3.3500161170959473,2019-06-20 16:00:12:104
3.99346728515625,-8.00728497314453,0.3309933166503906,0.03264736306933432,-0.02052024500733279,0.00824650432286288,3.3548800945281982,2019-06-20 16:00:12:109
4.0030439453125,-8.012073303222657,0.2747304382324219,0.031715256687806594,-0.019987612789316943,0.007580714050343071,3.359999895095825,2019-06-20 16:00:12:114
4.036562255859375,-8.045591613769531,0.2855041809082031,0.032114730851318475,-0.019588138625805055,0.0065154496143113765,3.3648641109466553,2019-06-20 16:00:12:119
4.016211853027344,-8.038409118652343,0.3453583068847656,0.03038367614276697,-0.019454980571301093,0.006382291559807415,3.3699839115142822,2019-06-20 16:00:12:124
4.022197265625,-8.056365356445312,0.31064291381835935,0.029984201979255085,-0.01905550640778921,0.005317027123775719,3.374847888946533,2019-06-20 16:00:12:129
4.015014770507812,-8.059956604003906,0.2867012634277344,0.029984201979255085,-0.018789190298781285,0.004917552960263833,3.3799679279327393,2019-06-20 16:00:12:134
3.9862847900390626,-8.106642822265625,0.27233627319335935,0.0295847278157432,-0.019454980571301093,0.004518078796751947,3.3848319053649902,2019-06-20 16:00:12:139
3.941992736816406,-8.069533264160157,0.26395669555664064,0.028918937543223392,-0.018922348353285247,0.003053340197208367,3.3899519443511963,2019-06-20 16:00:12:144
3.9479781494140624,-8.085095336914062,0.2938837585449219,0.029851043924751124,-0.0183897161352694,0.0021212338156806334,3.3948159217834473,2019-06-20 16:00:12:149
3.956357727050781,-8.098263244628907,0.25797128295898436,0.030117360033759047,-0.019987612789316943,0.0021212338156806334,3.3999359607696533,2019-06-20 16:00:12:154
3.931218994140625,-8.103051574707031,0.2328325500488281,0.030649992251774894,-0.0211860352798526,-0.00027561116539068085,3.4047999382019043,2019-06-20 16:00:12:159
3.925233581542969,-8.070730346679687,0.23881796264648436,0.031715256687806594,-0.02131919333435656,-0.0016071917104302999,3.4099199771881104,2019-06-20 16:00:12:164
3.9443869018554687,-8.065942016601563,0.20529965209960938,0.03384578555986998,-0.02198498360687637,-0.003071930309973881,3.4147839546203613,2019-06-20 16:00:12:169
3.9336131591796875,-8.083898254394532,0.26994210815429687,0.035576840268421485,-0.023716038315427873,-0.004137194746005576,3.4199039936065674,2019-06-20 16:00:12:174
3.9611460571289063,-8.062350769042968,0.22924130249023436,0.037174736922469025,-0.02438182858794769,-0.005202459182037272,3.4250240325927734,2019-06-20 16:00:12:179
3.9743139648437498,-8.055168273925782,0.23402963256835937,0.03930526579453242,-0.026512357460011075,-0.006800355836084815,3.4298880100250244,2019-06-20 16:00:12:184
3.999452697753906,-8.040803283691407,0.29029251098632813,0.03930526579453242,-0.025846567187491266,-0.006267723618068967,3.4350080490112305,2019-06-20 16:00:12:189
3.982693542480469,-8.05397119140625,0.32261373901367185,0.04023737217606015,-0.02877604438657843,-0.006667197781580852,3.4398720264434814,2019-06-20 16:00:12:194
3.970722717285156,-8.03481787109375,0.32979623413085934,0.041702110775603735,-0.02877604438657843,-0.00786562027211651,3.4449920654296875,2019-06-20 16:00:12:199
3.983890625,-8.040803283691407,0.3333874816894531,0.042367901048123546,-0.029441834659098238,-0.0077324622176125485,3.4498560428619385,2019-06-20 16:00:12:204
3.9814964599609373,-8.047985778808593,0.3573291320800781,0.04156895272109977,-0.030107624931618046,-0.008265094435628395,3.4549760818481445,2019-06-20 16:00:12:209
3.9671314697265623,-8.07312451171875,0.3010662536621094,0.04156895272109977,-0.03143920547665766,-0.009596674980668015,3.4598400592803955,2019-06-20 16:00:12:214
4.011423522949219,-8.068336181640625,0.2926866760253906,0.04183526883010769,-0.030773415204137854,-0.008664568599140282,3.4649600982666016,2019-06-20 16:00:12:219
3.9862847900390626,-8.071927429199219,0.2747304382324219,0.041702110775603735,-0.032104995749177474,-0.010262465253187823,3.4698240756988525,2019-06-20 16:00:12:224
3.9623431396484374,-8.091080749511718,0.25198587036132813,0.04156895272109977,-0.03157236353116163,-0.011860361907235367,3.4749441146850586,2019-06-20 16:00:12:229
3.9264306640625,-8.141358215332032,0.2663508605957031,0.042501059102627504,-0.03157236353116163,-0.014124048833802718,3.4798080921173096,2019-06-20 16:00:12:234
3.937204406738281,-8.117416564941406,0.20170840454101563,0.043300007429651274,-0.03330341823971313,-0.015189313269834415,3.4849278926849365,2019-06-20 16:00:12:239
3.902489013671875,-8.101854492187499,0.17656967163085938,0.045164220192706744,-0.03303710213070521,-0.017186684087393843,3.4897921085357666,2019-06-20 16:00:12:244
3.9240364990234373,-8.087489501953124,0.19692007446289062,0.04622948462873844,-0.032770786021697286,-0.01905089789074661,3.4949119091033936,2019-06-20 16:00:12:249
3.9336131591796875,-8.105445739746093,0.22684713745117188,0.04729474906477013,-0.033170260185209174,-0.02118142676281,3.4997758865356445,2019-06-20 16:00:12:254
3.950372314453125,-8.110234069824218,0.17656967163085938,0.048626329609809754,-0.0323713118581854,-0.022113533144337734,3.5048959255218506,2019-06-20 16:00:12:259
3.9491752319335935,-8.0635478515625,0.20889089965820312,0.04875948766431372,-0.03223815380368144,-0.02451037812540905,3.5100159645080566,2019-06-20 16:00:12:264
3.970722717285156,-8.070730346679687,0.18734341430664062,0.04889264571881768,-0.03223815380368144,-0.0267740650519764,3.5148799419403076,2019-06-20 16:00:12:269
3.9814964599609373,-8.047985778808593,0.2543800354003906,0.051023174590881064,-0.03170552158566559,-0.027573013379000175,3.5199999809265137,2019-06-20 16:00:12:274
3.9874818725585937,-8.03481787109375,0.2783216857910156,0.050890016536377106,-0.031306047422153704,-0.0278393294880081,3.5248639583587646,2019-06-20 16:00:12:279
3.9874818725585937,-8.018058715820313,0.31064291381835935,0.05128949069988899,-0.032104995749177474,-0.027573013379000175,3.5299839973449707,2019-06-20 16:00:12:284
4.054518493652344,-7.997708312988281,0.32141665649414064,0.051688964863400876,-0.032903944076201244,-0.02797248754251206,3.5348479747772217,2019-06-20 16:00:12:289
4.058109741210937,-7.997708312988281,0.3130370788574219,0.05142264875439295,-0.03157236353116163,-0.026374590888464514,3.5399680137634277,2019-06-20 16:00:12:294
4.08923388671875,-8.008482055664063,0.2974750061035156,0.05142264875439295,-0.03143920547665766,-0.026507748942968475,3.5448319911956787,2019-06-20 16:00:12:299
4.091628051757812,-8.014467468261719,0.3250079040527344,0.05222159708141672,-0.03183867964016955,-0.026640906997472437,3.5499520301818848,2019-06-20 16:00:12:304
4.097613464355469,-8.00728497314453,0.36570870971679686,0.0519552809724088,-0.03117288936764974,-0.025442484506936782,3.5548160076141357,2019-06-20 16:00:12:309
4.101204711914062,-8.000102478027344,0.30346041870117185,0.050890016536377106,-0.03223815380368144,-0.024110903961897166,3.559936046600342,2019-06-20 16:00:12:314
4.088036804199219,-8.016861633300781,0.27113919067382813,0.05035738431836126,-0.032770786021697286,-0.02344511368937735,3.5648000240325928,2019-06-20 16:00:12:319
4.0796572265624995,-8.014467468261719,0.30824874877929687,0.05062370042736918,-0.0323713118581854,-0.02344511368937735,3.569920063018799,2019-06-20 16:00:12:324
4.096416381835938,-8.000102478027344,0.3058545837402344,0.050890016536377106,-0.031971837694673516,-0.02264616536235358,3.57478404045105,2019-06-20 16:00:12:329
4.078460144042968,-7.995314147949219,0.29148959350585935,0.05062370042736918,-0.03303710213070521,-0.022379849253345657,3.579904079437256,2019-06-20 16:00:12:334
4.08923388671875,-8.024044128417968,0.2926866760253906,0.051023174590881064,-0.03383605045772898,-0.02051563649029019,3.585024118423462,2019-06-20 16:00:12:339
4.083248474121094,-8.031226623535156,0.30944583129882813,0.05049054237286522,-0.03223815380368144,-0.019849846217770382,3.589888095855713,2019-06-20 16:00:12:344
4.092825134277343,-8.019255798339843,0.3046575012207031,0.04969159404584145,-0.03223815380368144,-0.019983004272274344,3.59500789642334,2019-06-20 16:00:12:349
4.0796572265624995,-7.989328735351562,0.2998691711425781,0.05062370042736918,-0.0323713118581854,-0.018651423727234724,3.59987211227417,2019-06-20 16:00:12:354
4.058109741210937,-7.995314147949219,0.30226333618164064,0.050224226263857294,-0.03330341823971313,-0.01825194956372284,3.604991912841797,2019-06-20 16:00:12:359
4.1179638671875,-7.9773579101562495,0.30226333618164064,0.05035738431836126,-0.032104995749177474,-0.017453000196401766,3.609855890274048,2019-06-20 16:00:12:364
4.107190124511718,-7.973766662597656,0.2591683654785156,0.04969159404584145,-0.03117288936764974,-0.017319842141897804,3.614975929260254,2019-06-20 16:00:12:369
4.141905517578125,-7.976160827636718,0.2759275207519531,0.049292119882329566,-0.03183867964016955,-0.016787209923881958,3.619839906692505,2019-06-20 16:00:12:374
4.119160949707031,-7.970175415039062,0.2855041809082031,0.04902580377332164,-0.030773415204137854,-0.014922997160826491,3.624959945678711,2019-06-20 16:00:12:379
4.111978454589844,-7.973766662597656,0.2974750061035156,0.04729474906477013,-0.031039731313145778,-0.013724574670290833,3.629823923110962,2019-06-20 16:00:12:384
4.096416381835938,-7.957007507324218,0.3309933166503906,0.048626329609809754,-0.030240782986122008,-0.011993519961739328,3.634943962097168,2019-06-20 16:00:12:389
4.085642639160156,-7.945036682128906,0.32740206909179687,0.047694223228282026,-0.029175518550090315,-0.010928255525707633,3.639807939529419,2019-06-20 16:00:12:394
4.096416381835938,-7.964190002441406,0.30944583129882813,0.04756106517377806,-0.029974466877114084,-0.009596674980668015,3.644927978515625,2019-06-20 16:00:12:399
4.083248474121094,-7.968978332519531,0.3501466369628906,0.046762116846754284,-0.030240782986122008,-0.008131936381124433,3.649791955947876,2019-06-20 16:00:12:404
4.084445556640625,-7.9785549926757815,0.36092037963867185,0.045164220192706744,-0.02877604438657843,-0.007332988054100662,3.654911994934082,2019-06-20 16:00:12:409
4.08923388671875,-7.971372497558594,0.3369787292480469,0.04503106213820278,-0.02877604438657843,-0.0070666719450927385,3.659775972366333,2019-06-20 16:00:12:414
