ACCELEROMETER X (m/s²),ACCELEROMETER Y (m/s²),ACCELEROMETER Z (m/s²),GYROSCOPE X (rad/s),GYROSCOPE Y (rad/s),GYROSCOPE Z (rad/s),Time since start in ms ,YYYY-MO-DD HH-MI-SS_SSS
-7.487152618408203,-7.916905242919921,-0.3184239501953125,0.03264546140586844,-0.028775825924145258,-0.04755667511916863,0.0,2019-06-21 13:05:54:834
-7.471590545654297,-7.909722747802734,-0.339971435546875,0.033444409732892214,-0.02824319370612941,-0.046890884846648814,0.0048639774322509766,2019-06-21 13:05:54:839
-7.499123443603516,-7.866627777099609,-0.3315918579101562,0.03411020000541202,-0.027843719542617527,-0.04795614928268052,0.009984016418457031,2019-06-21 13:05:54:844
-7.5410213317871095,-7.872613189697265,-0.33638018798828123,0.03317809362388429,-0.027710561488113558,-0.0476898331736726,0.014847993850708008,2019-06-21 13:05:54:849
-7.537430084228515,-7.870219024658203,-0.33638018798828123,0.03264546140586844,-0.028775825924145258,-0.049021413718712215,0.019968032836914062,2019-06-21 13:05:54:854
-7.5410213317871095,-7.892963592529297,-0.344759765625,0.033044935569380325,-0.027444245379105635,-0.049820362045735984,0.02483201026916504,2019-06-21 13:05:54:859
-7.545809661865234,-7.879795684814453,-0.34715393066406247,0.03291177751487637,-0.028509509815137335,-0.04968720399123202,0.029952049255371094,2019-06-21 13:05:54:864
-7.544612579345703,-7.879795684814453,-0.33398602294921875,0.03237914529686051,-0.029308458142161105,-0.04995352010023994,0.03481602668762207,2019-06-21 13:05:54:869
-7.505108856201172,-7.908525665283203,-0.3375772705078125,0.03211282918785259,-0.029175300087657143,-0.050619310372759754,0.039936065673828125,2019-06-21 13:05:54:874
-7.473984710693359,-7.895357757568359,-0.339971435546875,0.031580196969836744,-0.02890898397864922,-0.05075246842726371,0.0448000431060791,2019-06-21 13:05:54:879
-7.473984710693359,-7.873810272216796,-0.36032183837890625,0.03131388086082882,-0.029974248414680913,-0.05088562648176768,0.049920082092285156,2019-06-21 13:05:54:884
-7.496729278564453,-7.88697817993164,-0.311241455078125,0.0327786194603724,-0.030107406469184875,-0.051418258699783524,0.05503988265991211,2019-06-21 13:05:54:890
-7.506305938720703,-7.895357757568359,-0.311241455078125,0.03331125167838825,-0.030107406469184875,-0.05168457480879145,0.05990409851074219,2019-06-21 13:05:54:894
-7.525459259033203,-7.91570816040039,-0.34116851806640625,0.033444409732892214,-0.028509509815137335,-0.052084048972303336,0.06502389907836914,2019-06-21 13:05:54:900
-7.4955321960449215,-7.9049344177246095,-0.3327889404296875,0.03291177751487637,-0.029441616196665066,-0.052882997299327106,0.06988811492919922,2019-06-21 13:05:54:904
-7.490743865966797,-7.914511077880859,-0.368701416015625,0.03291177751487637,-0.028509509815137335,-0.053016155353831064,0.07500791549682617,2019-06-21 13:05:54:910
-7.490743865966797,-7.900146087646484,-0.3423656005859375,0.03411020000541202,-0.02970793230567299,-0.05341562951734295,0.07987189292907715,2019-06-21 13:05:54:914
-7.485955535888672,-7.892963592529297,-0.30765020751953126,0.03437651611441994,-0.02904214203315318,-0.053016155353831064,0.0849919319152832,2019-06-21 13:05:54:919
-7.506305938720703,-7.902540252685546,-0.32680352783203126,0.033444409732892214,-0.028376351760633373,-0.05314931340833503,0.08985590934753418,2019-06-21 13:05:54:924
-7.487152618408203,-7.909722747802734,-0.3698984985351562,0.03251230335136447,-0.02904214203315318,-0.05328247146283899,0.09497594833374023,2019-06-21 13:05:54:929
-7.49433511352539,-7.918102325439453,-0.339971435546875,0.03331125167838825,-0.029441616196665066,-0.05434773589887068,0.09983992576599121,2019-06-21 13:05:54:934
-7.508700103759765,-7.896554840087891,-0.30884729003906247,0.033044935569380325,-0.029308458142161105,-0.05421457784436672,0.10495996475219727,2019-06-21 13:05:54:939
-7.464408050537109,-7.892963592529297,-0.2861027221679687,0.03211282918785259,-0.02811003565162545,-0.055945632552918234,0.10982394218444824,2019-06-21 13:05:54:944
-7.48356137084961,-7.902540252685546,-0.30765020751953126,0.03184651307884467,-0.028376351760633373,-0.055146684225894464,0.1149439811706543,2019-06-21 13:05:54:949
-7.47518179321289,-7.920496490478516,-0.33638018798828123,0.03291177751487637,-0.02904214203315318,-0.05567931644391031,0.11980795860290527,2019-06-21 13:05:54:954
-7.491940948486328,-7.916905242919921,-0.33518310546874996,0.03397704195090806,-0.028509509815137335,-0.05567931644391031,0.12492799758911133,2019-06-21 13:05:54:959
-7.482364288330078,-7.895357757568359,-0.33877435302734377,0.0327786194603724,-0.02811003565162545,-0.05434773589887068,0.1297919750213623,2019-06-21 13:05:54:964
-7.47518179321289,-7.931270233154296,-0.34835101318359374,0.031979671133348625,-0.02824319370612941,-0.054747210062382576,0.13491201400756836,2019-06-21 13:05:54:969
-7.476378875732422,-7.9336643981933594,-0.35433642578125,0.03264546140586844,-0.027444245379105635,-0.053815103680854834,0.14003205299377441,2019-06-21 13:05:54:975
-7.448845977783203,-7.928876068115234,-0.32680352783203126,0.03424335805991598,-0.02624582288856998,-0.05421457784436672,0.1448960304260254,2019-06-21 13:05:54:979
-7.44645181274414,-7.909722747802734,-0.3507451782226562,0.03477599027793183,-0.02717792927009771,-0.05421457784436672,0.15001606941223145,2019-06-21 13:05:54:985
-7.447648895263672,-7.9049344177246095,-0.31483270263671875,0.03424335805991598,-0.02811003565162545,-0.0539482617353588,0.15488004684448242,2019-06-21 13:05:54:989
-7.4668022155761715,-7.895357757568359,-0.3040589599609375,0.03411020000541202,-0.027710561488113558,-0.052084048972303336,0.16000008583068848,2019-06-21 13:05:54:994
-7.464408050537109,-7.916905242919921,-0.3567305908203125,0.03437651611441994,-0.026778455106585827,-0.05248352313581522,0.16486406326293945,2019-06-21 13:05:54:999
-7.426101409912109,-7.932467315673828,-0.35433642578125,0.033444409732892214,-0.026911613161089788,-0.052882997299327106,0.1699841022491455,2019-06-21 13:05:55:004
-7.415327667236328,-7.91570816040039,-0.339971435546875,0.033843883896404095,-0.02704477121559375,-0.05155141675428749,0.17484807968139648,2019-06-21 13:05:55:009
-7.426101409912109,-7.9492264709472655,-0.320818115234375,0.03331125167838825,-0.02717792927009771,-0.05035299426375183,0.17996788024902344,2019-06-21 13:05:55:014
-7.424904327392578,-7.926481903076172,-0.3423656005859375,0.03477599027793183,-0.027444245379105635,-0.05075246842726371,0.18483209609985352,2019-06-21 13:05:55:019
-7.41772183227539,-7.928876068115234,-0.36511016845703126,0.03570809665945956,-0.02717792927009771,-0.05155141675428749,0.18995189666748047,2019-06-21 13:05:55:024
-7.478773040771484,-7.918102325439453,-0.34715393066406247,0.03517546444144371,-0.026512138997577903,-0.05181773286329541,0.19481611251831055,2019-06-21 13:05:55:029
-7.464408050537109,-7.91570816040039,-0.34595684814453126,0.03530862249594768,-0.026512138997577903,-0.050219836209247866,0.1999359130859375,2019-06-21 13:05:55:034
-7.459619720458984,-7.91570816040039,-0.34116851806640625,0.036107570822971446,-0.025846348725058095,-0.04995352010023994,0.20479989051818848,2019-06-21 13:05:55:039
-7.445254730224609,-7.924087738037109,-0.35433642578125,0.03570809665945956,-0.02624582288856998,-0.050619310372759754,0.20991992950439453,2019-06-21 13:05:55:044
-7.434480987548828,-7.922890655517578,-0.36511016845703126,0.03477599027793183,-0.025580032616050172,-0.04968720399123202,0.2147839069366455,2019-06-21 13:05:55:049
-7.458422637939453,-7.943241058349609,-0.35433642578125,0.03490914833243579,-0.02637898094307394,-0.04955404593672806,0.21990394592285156,2019-06-21 13:05:55:054
-7.459619720458984,-7.926481903076172,-0.34116851806640625,0.03570809665945956,-0.024914242343530364,-0.04928772982772014,0.22502398490905762,2019-06-21 13:05:55:060
-7.460816802978515,-7.957606048583984,-0.27652606201171875,0.036107570822971446,-0.02544687456154621,-0.047822991228176556,0.2298879623413086,2019-06-21 13:05:55:064
-7.473984710693359,-7.9348614807128905,-0.3315918579101562,0.03637388693197938,-0.024115294016506587,-0.04795614928268052,0.23500800132751465,2019-06-21 13:05:55:070
-7.439269317626953,-7.943241058349609,-0.33398602294921875,0.035441780550451635,-0.024248452071010555,-0.04808930733718448,0.23987197875976562,2019-06-21 13:05:55:074
-7.448845977783203,-7.936058563232422,-0.2992706298828125,0.03637388693197938,-0.024781084289026402,-0.048621939555200326,0.24499201774597168,2019-06-21 13:05:55:079
-7.450043060302734,-7.930073150634765,-0.31962103271484377,0.03690651914999522,-0.024914242343530364,-0.04715720095565674,0.24985599517822266,2019-06-21 13:05:55:084
-7.467999298095703,-7.902540252685546,-0.3136356201171875,0.036107570822971446,-0.02451476818001848,-0.04702404290115278,0.2549760341644287,2019-06-21 13:05:55:089
-7.467999298095703,-7.909722747802734,-0.3244093627929687,0.036507044986483335,-0.023316345689482817,-0.04635825262863297,0.2598400115966797,2019-06-21 13:05:55:094
-7.471590545654297,-7.907328582763672,-0.30046771240234377,0.035441780550451635,-0.024381610125514517,-0.0455593043016092,0.26496005058288574,2019-06-21 13:05:55:099
-7.450043060302734,-7.921693572998047,-0.29687646484374997,0.0355749386049556,-0.02464792623452244,-0.04569246235611316,0.2698240280151367,2019-06-21 13:05:55:104
-7.445254730224609,-7.936058563232422,-0.32201519775390625,0.03597441276846748,-0.025047400398034325,-0.04476035597458543,0.2749440670013428,2019-06-21 13:05:55:109
-7.472787628173828,-7.942043975830078,-0.32201519775390625,0.03584125471396352,-0.024381610125514517,-0.045958778465121086,0.27980804443359375,2019-06-21 13:05:55:114
-7.4668022155761715,-7.936058563232422,-0.33518310546874996,0.036107570822971446,-0.025846348725058095,-0.0455593043016092,0.2849280834197998,2019-06-21 13:05:55:119
-7.424904327392578,-7.9336643981933594,-0.3315918579101562,0.03677336109549126,-0.023715819852994702,-0.045159830138097316,0.2897920608520508,2019-06-21 13:05:55:124
-7.4368751525878904,-7.937255645751953,-0.2932852172851562,0.036507044986483335,-0.022384239307955085,-0.044094565702065616,0.29491209983825684,2019-06-21 13:05:55:129
-7.44645181274414,-7.9348614807128905,-0.28131439208984377,0.03570809665945956,-0.0219847651444432,-0.04302930126603392,0.3000319004058838,2019-06-21 13:05:55:135
-7.45483139038086,-7.948029388427734,-0.3052560424804687,0.03530862249594768,-0.022517397362459047,-0.042762985157026,0.30489587783813477,2019-06-21 13:05:55:139
-7.440466400146485,-7.957606048583984,-0.33518310546874996,0.035441780550451635,-0.02185160708993924,-0.04236351099351412,0.3100159168243408,2019-06-21 13:05:55:145
-7.421313079833984,-7.9635914611816405,-0.28849688720703126,0.0366402030409873,-0.020919500708411504,-0.04143140461198638,0.3148798942565918,2019-06-21 13:05:55:149
-7.439269317626953,-7.970773956298828,-0.3315918579101562,0.03624072887747541,-0.02131897487192339,-0.04169772072099431,0.31999993324279785,2019-06-21 13:05:55:154
-7.451240142822265,-7.961197296142578,-0.330394775390625,0.03677336109549126,-0.021718449035435277,-0.04009982406694676,0.32486391067504883,2019-06-21 13:05:55:159
-7.459619720458984,-7.9492264709472655,-0.3136356201171875,0.03637388693197938,-0.02131897487192339,-0.03970034990343488,0.3299839496612549,2019-06-21 13:05:55:164
-7.4524372253417965,-7.931270233154296,-0.31004437255859374,0.03743915136801107,-0.019987394326883772,-0.03903455963091507,0.33484792709350586,2019-06-21 13:05:55:169
-7.456028472900391,-7.925284820556641,-0.3232122802734375,0.03703967720449918,-0.019055287945356037,-0.03890140157641111,0.3399679660797119,2019-06-21 13:05:55:174
-7.47518179321289,-7.9336643981933594,-0.3423656005859375,0.03677336109549126,-0.017990023509324344,-0.0382356113038913,0.3448319435119629,2019-06-21 13:05:55:179
-7.451240142822265,-7.936058563232422,-0.292088134765625,0.03690651914999522,-0.019454762108867922,-0.03810245324938733,0.34995198249816895,2019-06-21 13:05:55:184
-7.462013885498047,-7.912116912841797,-0.31962103271484377,0.03850441580404276,-0.018788971836348114,-0.03637139854083583,0.3548159599304199,2019-06-21 13:05:55:189
-7.44645181274414,-7.906131500244141,-0.3375772705078125,0.03783862553152295,-0.01918844599986,-0.0343740277232764,0.359935998916626,2019-06-21 13:05:55:194
-7.445254730224609,-7.927678985595703,-0.3136356201171875,0.03677336109549126,-0.020386868490395657,-0.035971924377323945,0.36479997634887695,2019-06-21 13:05:55:199
-7.456028472900391,-7.906131500244141,-0.32680352783203126,0.0366402030409873,-0.020253710435891695,-0.03557245021381206,0.369920015335083,2019-06-21 13:05:55:204
-7.445254730224609,-7.916905242919921,-0.320818115234375,0.03690651914999522,-0.02052002654489962,-0.03397455355976452,0.374783992767334,2019-06-21 13:05:55:209
-7.490743865966797,-7.925284820556641,-0.2872998046875,0.03743915136801107,-0.019987394326883772,-0.03397455355976452,0.37990403175354004,2019-06-21 13:05:55:214
-7.450043060302734,-7.91570816040039,-0.3327889404296875,0.0366402030409873,-0.019987394326883772,-0.03464034383228433,0.3850240707397461,2019-06-21 13:05:55:220
-7.441663482666016,-7.913313995361328,-0.31483270263671875,0.0366402030409873,-0.020386868490395657,-0.034107711614268475,0.38988804817199707,2019-06-21 13:05:55:224
-7.456028472900391,-7.913313995361328,-0.3232122802734375,0.03584125471396352,-0.021185816817419427,-0.03424086966877244,0.3950080871582031,2019-06-21 13:05:55:230
-7.469196380615235,-7.906131500244141,-0.3136356201171875,0.0366402030409873,-0.020253710435891695,-0.03464034383228433,0.3998720645904541,2019-06-21 13:05:55:234
-7.471590545654297,-7.903737335205078,-0.2992706298828125,0.03717283525900315,-0.02145213292642735,-0.034507185777780364,0.40499210357666016,2019-06-21 13:05:55:239
-7.485955535888672,-7.8750073547363275,-0.3423656005859375,0.0366402030409873,-0.0219847651444432,-0.0343740277232764,0.40985608100891113,2019-06-21 13:05:55:244
-7.46560513305664,-7.894160675048828,-0.311241455078125,0.03637388693197938,-0.022251081253451124,-0.034507185777780364,0.4149758815765381,2019-06-21 13:05:55:249
-7.490743865966797,-7.91570816040039,-0.3435626831054687,0.03637388693197938,-0.02265055541696301,-0.0361050824318279,0.41984009742736816,2019-06-21 13:05:55:254
-7.531444671630859,-7.901343170166015,-0.34116851806640625,0.035441780550451635,-0.022251081253451124,-0.03623824048633187,0.4249598979949951,2019-06-21 13:05:55:259
-7.525459259033203,-7.882189849853515,-0.3758839111328125,0.03584125471396352,-0.022517397362459047,-0.03690403075885167,0.4298241138458252,2019-06-21 13:05:55:264
-7.51229135131836,-7.864233612060547,-0.311241455078125,0.03490914833243579,-0.023715819852994702,-0.03743666297686753,0.43494391441345215,2019-06-21 13:05:55:269
-7.521868011474609,-7.873810272216796,-0.29089105224609374,0.03530862249594768,-0.023982135962002625,-0.03810245324938733,0.4398078918457031,2019-06-21 13:05:55:274
-7.527853424072266,-7.88697817993164,-0.32919769287109374,0.03584125471396352,-0.024248452071010555,-0.03930087573992299,0.4449279308319092,2019-06-21 13:05:55:279
-7.491940948486328,-7.926481903076172,-0.344759765625,0.03504230638693975,-0.02344950374398678,-0.0399666660124428,0.44979190826416016,2019-06-21 13:05:55:284
-7.533838836669922,-7.910919830322266,-0.32680352783203126,0.03624072887747541,-0.024248452071010555,-0.04089877239397054,0.4549119472503662,2019-06-21 13:05:55:289
-7.520670928955078,-7.903737335205078,-0.31602978515625,0.03504230638693975,-0.024914242343530364,-0.04049929823045865,0.46003198623657227,2019-06-21 13:05:55:295
-7.542218414306641,-7.903737335205078,-0.2944822998046875,0.03597441276846748,-0.025047400398034325,-0.041031930448474495,0.46489596366882324,2019-06-21 13:05:55:299
-7.531444671630859,-7.902540252685546,-0.311241455078125,0.03517546444144371,-0.02464792623452244,-0.042097194884506195,0.4700160026550293,2019-06-21 13:05:55:305
-7.518276763916015,-7.892963592529297,-0.31483270263671875,0.03450967416892391,-0.023982135962002625,-0.04356193348404977,0.4748799800872803,2019-06-21 13:05:55:309
-7.517079681396484,-7.896554840087891,-0.339971435546875,0.03317809362388429,-0.025713190670554133,-0.043695091538553735,0.48000001907348633,2019-06-21 13:05:55:314
-7.529050506591797,-7.902540252685546,-0.31962103271484377,0.03357756778739617,-0.02704477121559375,-0.042496669048018076,0.4848639965057373,2019-06-21 13:05:55:319
-7.517079681396484,-7.924087738037109,-0.3124385375976562,0.03411020000541202,-0.025979506779562057,-0.043295617375041846,0.48998403549194336,2019-06-21 13:05:55:324
-7.477575958251953,-7.882189849853515,-0.2932852172851562,0.03490914833243579,-0.025713190670554133,-0.043695091538553735,0.49484801292419434,2019-06-21 13:05:55:329
-7.470393463134766,-7.8893723449707025,-0.282511474609375,0.03450967416892391,-0.025580032616050172,-0.04422772375656958,0.4999680519104004,2019-06-21 13:05:55:334
-7.4811672058105465,-7.888175262451171,-0.30286187744140625,0.033444409732892214,-0.02637898094307394,-0.044494039865577505,0.5048320293426514,2019-06-21 13:05:55:339
-7.5098971862792965,-7.891766510009766,-0.32919769287109374,0.03317809362388429,-0.02464792623452244,-0.043695091538553735,0.5099520683288574,2019-06-21 13:05:55:344
-7.507503021240234,-7.903737335205078,-0.292088134765625,0.03357756778739617,-0.026512138997577903,-0.045292988192601275,0.5148160457611084,2019-06-21 13:05:55:349
-7.506305938720703,-7.913313995361328,-0.3507451782226562,0.03397704195090806,-0.026911613161089788,-0.046890884846648814,0.5199360847473145,2019-06-21 13:05:55:354
-7.490743865966797,-7.913313995361328,-0.33518310546874996,0.033843883896404095,-0.026512138997577903,-0.046757726792144856,0.5248000621795654,2019-06-21 13:05:55:359
-7.472787628173828,-7.900146087646484,-0.30765020751953126,0.03411020000541202,-0.027444245379105635,-0.0476898331736726,0.5299201011657715,2019-06-21 13:05:55:364
-7.48356137084961,-7.879795684814453,-0.2861027221679687,0.03397704195090806,-0.027311087324601673,-0.048621939555200326,0.5347840785980225,2019-06-21 13:05:55:369
-7.52306509399414,-7.88697817993164,-0.32680352783203126,0.03424335805991598,-0.027444245379105635,-0.049021413718712215,0.5399038791656494,2019-06-21 13:05:55:374
-7.49433511352539,-7.908525665283203,-0.339971435546875,0.03424335805991598,-0.026778455106585827,-0.049820362045735984,0.5450239181518555,2019-06-21 13:05:55:380
-7.478773040771484,-7.9336643981933594,-0.3136356201171875,0.03411020000541202,-0.027444245379105635,-0.049820362045735984,0.5498878955841064,2019-06-21 13:05:55:384
-7.52306509399414,-7.909722747802734,-0.30765020751953126,0.03397704195090806,-0.028509509815137335,-0.049820362045735984,0.5550079345703125,2019-06-21 13:05:55:390
-7.490743865966797,-7.931270233154296,-0.2932852172851562,0.03490914833243579,-0.02904214203315318,-0.05035299426375183,0.5598719120025635,2019-06-21 13:05:55:394
-7.485955535888672,-7.924087738037109,-0.33877435302734377,0.03570809665945956,-0.029175300087657143,-0.05035299426375183,0.5649919509887695,2019-06-21 13:05:55:399
-7.482364288330078,-7.9192994079589845,-0.34835101318359374,0.03490914833243579,-0.02890898397864922,-0.04995352010023994,0.5698559284210205,2019-06-21 13:05:55:404
-7.48356137084961,-7.908525665283203,-0.3615189208984375,0.03530862249594768,-0.02797687759712149,-0.04968720399123202,0.5749759674072266,2019-06-21 13:05:55:409
-7.470393463134766,-7.931270233154296,-0.3256064453125,0.0355749386049556,-0.026778455106585827,-0.04955404593672806,0.5798399448394775,2019-06-21 13:05:55:414
-7.484758453369141,-7.946832305908203,-0.31962103271484377,0.0355749386049556,-0.025979506779562057,-0.049420887882224096,0.5849599838256836,2019-06-21 13:05:55:419
-7.473984710693359,-7.9348614807128905,-0.32201519775390625,0.03450967416892391,-0.02624582288856998,-0.05035299426375183,0.5898239612579346,2019-06-21 13:05:55:424
-7.46560513305664,-7.925284820556641,-0.32680352783203126,0.03397704195090806,-0.027311087324601673,-0.04968720399123202,0.5949440002441406,2019-06-21 13:05:55:429
-7.499123443603516,-7.932467315673828,-0.3375772705078125,0.03570809665945956,-0.027444245379105635,-0.04915457177321617,0.5998079776763916,2019-06-21 13:05:55:434
-7.451240142822265,-7.897751922607422,-0.3232122802734375,0.03677336109549126,-0.027577403433609596,-0.049021413718712215,0.6049280166625977,2019-06-21 13:05:55:439
-7.469196380615235,-7.937255645751953,-0.3232122802734375,0.03584125471396352,-0.02611266483406602,-0.04968720399123202,0.6097919940948486,2019-06-21 13:05:55:444
-7.478773040771484,-7.951620635986328,-0.30884729003906247,0.0355749386049556,-0.025846348725058095,-0.04968720399123202,0.6149120330810547,2019-06-21 13:05:55:449
-7.440466400146485,-7.938452728271484,-0.28370855712890625,0.03530862249594768,-0.025846348725058095,-0.04968720399123202,0.6200320720672607,2019-06-21 13:05:55:455
-7.427298492431641,-7.913313995361328,-0.34835101318359374,0.03530862249594768,-0.02637898094307394,-0.048621939555200326,0.6248960494995117,2019-06-21 13:05:55:459
-7.471590545654297,-7.918102325439453,-0.3710955810546875,0.03570809665945956,-0.025713190670554133,-0.04795614928268052,0.6300160884857178,2019-06-21 13:05:55:465
-7.456028472900391,-7.937255645751953,-0.3327889404296875,0.0355749386049556,-0.02637898094307394,-0.046890884846648814,0.6348800659179688,2019-06-21 13:05:55:469
-7.471590545654297,-7.932467315673828,-0.3244093627929687,0.03597441276846748,-0.027710561488113558,-0.04702404290115278,0.6400001049041748,2019-06-21 13:05:55:474
-7.460816802978515,-7.9336643981933594,-0.32800061035156247,0.03411020000541202,-0.02717792927009771,-0.04702404290115278,0.6448640823364258,2019-06-21 13:05:55:479
-7.45483139038086,-7.943241058349609,-0.3052560424804687,0.0355749386049556,-0.02611266483406602,-0.046757726792144856,0.6499838829040527,2019-06-21 13:05:55:484
-7.44645181274414,-7.942043975830078,-0.3124385375976562,0.03530862249594768,-0.02704477121559375,-0.04649141068313693,0.6548480987548828,2019-06-21 13:05:55:489
-7.441663482666016,-7.955211883544922,-0.30286187744140625,0.03504230638693975,-0.02624582288856998,-0.04476035597458543,0.6599678993225098,2019-06-21 13:05:55:494
-7.447648895263672,-7.9492264709472655,-0.29807354736328123,0.03504230638693975,-0.026512138997577903,-0.04462719792008147,0.6648321151733398,2019-06-21 13:05:55:499
-7.470393463134766,-7.924087738037109,-0.31722686767578123,0.03570809665945956,-0.02464792623452244,-0.044494039865577505,0.6699519157409668,2019-06-21 13:05:55:504
-7.4368751525878904,-7.925284820556641,-0.3375772705078125,0.034642832223427865,-0.025979506779562057,-0.04356193348404977,0.6748158931732178,2019-06-21 13:05:55:509
-7.47518179321289,-7.928876068115234,-0.3507451782226562,0.035441780550451635,-0.025846348725058095,-0.042496669048018076,0.6799359321594238,2019-06-21 13:05:55:514
-7.470393463134766,-7.930073150634765,-0.31483270263671875,0.036507044986483335,-0.02451476818001848,-0.04196403683000223,0.6847999095916748,2019-06-21 13:05:55:519
-7.445254730224609,-7.942043975830078,-0.33638018798828123,0.035441780550451635,-0.02464792623452244,-0.04223035293901015,0.6899199485778809,2019-06-21 13:05:55:524
-7.44645181274414,-7.9336643981933594,-0.344759765625,0.03584125471396352,-0.024381610125514517,-0.04183087877549827,0.6950399875640869,2019-06-21 13:05:55:530
-7.4380722351074215,-7.946832305908203,-0.34595684814453126,0.03677336109549126,-0.02464792623452244,-0.04116508850297846,0.6999039649963379,2019-06-21 13:05:55:534
-7.473984710693359,-7.954014801025391,-0.34116851806640625,0.03570809665945956,-0.025979506779562057,-0.04076561433946657,0.705024003982544,2019-06-21 13:05:55:540
-7.462013885498047,-7.928876068115234,-0.35433642578125,0.03504230638693975,-0.025180558452538287,-0.04076561433946657,0.7098879814147949,2019-06-21 13:05:55:544
-7.448845977783203,-7.913313995361328,-0.3375772705078125,0.03717283525900315,-0.025580032616050172,-0.039833507957938837,0.715008020401001,2019-06-21 13:05:55:550
-7.471590545654297,-7.909722747802734,-0.3124385375976562,0.03743915136801107,-0.024914242343530364,-0.03956719184893091,0.719871997833252,2019-06-21 13:05:55:554
-7.456028472900391,-7.880992767333984,-0.29567938232421875,0.03570809665945956,-0.021718449035435277,-0.03903455963091507,0.724992036819458,2019-06-21 13:05:55:559
-7.469196380615235,-7.912116912841797,-0.349548095703125,0.03450967416892391,-0.02185160708993924,-0.03930087573992299,0.729856014251709,2019-06-21 13:05:55:564
-7.451240142822265,-7.9049344177246095,-0.3315918579101562,0.036507044986483335,-0.022251081253451124,-0.03916771768541903,0.734976053237915,2019-06-21 13:05:55:569
-7.4668022155761715,-7.901343170166015,-0.32680352783203126,0.036107570822971446,-0.02278371347146697,-0.0382356113038913,0.739840030670166,2019-06-21 13:05:55:574
-7.459619720458984,-7.9192994079589845,-0.3519422607421875,0.03624072887747541,-0.022517397362459047,-0.03796929519488337,0.7449600696563721,2019-06-21 13:05:55:579
-7.497926361083985,-7.928876068115234,-0.3256064453125,0.03703967720449918,-0.023050029580474894,-0.03743666297686753,0.749824047088623,2019-06-21 13:05:55:584
-7.50391177368164,-7.921693572998047,-0.2753289794921875,0.03703967720449918,-0.02185160708993924,-0.0382356113038913,0.7549440860748291,2019-06-21 13:05:55:589
-7.488349700927734,-7.885781097412109,-0.272934814453125,0.036507044986483335,-0.02185160708993924,-0.0382356113038913,0.7598080635070801,2019-06-21 13:05:55:594
-7.500320526123047,-7.906131500244141,-0.33877435302734377,0.035441780550451635,-0.021718449035435277,-0.03916771768541903,0.7649281024932861,2019-06-21 13:05:55:599
-7.5098971862792965,-7.8893723449707025,-0.28131439208984377,0.03570809665945956,-0.0219847651444432,-0.040232982121450725,0.7697920799255371,2019-06-21 13:05:55:604
-7.497926361083985,-7.913313995361328,-0.301664794921875,0.03517546444144371,-0.021052658762915465,-0.04036614017595468,0.7749118804931641,2019-06-21 13:05:55:609
-7.5098971862792965,-7.883386932373047,-0.32201519775390625,0.035441780550451635,-0.022117923198947162,-0.04036614017595468,0.7800319194793701,2019-06-21 13:05:55:615
-7.531444671630859,-7.895357757568359,-0.29089105224609374,0.03624072887747541,-0.022117923198947162,-0.04089877239397054,0.7848958969116211,2019-06-21 13:05:55:619
-7.491940948486328,-7.891766510009766,-0.306453125,0.035441780550451635,-0.020919500708411504,-0.04143140461198638,0.7900159358978271,2019-06-21 13:05:55:625
-7.4811672058105465,-7.894160675048828,-0.3519422607421875,0.03517546444144371,-0.022117923198947162,-0.04183087877549827,0.7948799133300781,2019-06-21 13:05:55:629
-7.50391177368164,-7.883386932373047,-0.33518310546874996,0.03490914833243579,-0.02065318459940358,-0.04302930126603392,0.7999999523162842,2019-06-21 13:05:55:634
-7.477575958251953,-7.900146087646484,-0.35433642578125,0.03437651611441994,-0.021585290980931315,-0.042762985157026,0.8048639297485352,2019-06-21 13:05:55:639
-7.497926361083985,-7.884584014892578,-0.31602978515625,0.03411020000541202,-0.021052658762915465,-0.043295617375041846,0.8099839687347412,2019-06-21 13:05:55:644
-7.519473846435547,-7.891766510009766,-0.3052560424804687,0.03490914833243579,-0.022117923198947162,-0.043295617375041846,0.8148479461669922,2019-06-21 13:05:55:649
-7.527853424072266,-7.900146087646484,-0.31962103271484377,0.03504230638693975,-0.021718449035435277,-0.044094565702065616,0.8199679851531982,2019-06-21 13:05:55:654
-7.502714691162109,-7.898949005126953,-0.37229266357421875,0.03437651611441994,-0.022517397362459047,-0.04476035597458543,0.8248319625854492,2019-06-21 13:05:55:659
-7.497926361083985,-7.9049344177246095,-0.35792767333984377,0.03450967416892391,-0.022251081253451124,-0.04382824959305769,0.8299520015716553,2019-06-21 13:05:55:664
-7.517079681396484,-7.900146087646484,-0.3327889404296875,0.03477599027793183,-0.023316345689482817,-0.04489351402908939,0.8348159790039062,2019-06-21 13:05:55:669
-7.525459259033203,-7.921693572998047,-0.30046771240234377,0.033444409732892214,-0.022517397362459047,-0.04569246235611316,0.8399360179901123,2019-06-21 13:05:55:674
-7.497926361083985,-7.907328582763672,-0.349548095703125,0.03411020000541202,-0.02358266179849074,-0.046757726792144856,0.8447999954223633,2019-06-21 13:05:55:679
-7.499123443603516,-7.898949005126953,-0.35313934326171875,0.03597441276846748,-0.024914242343530364,-0.045958778465121086,0.8499200344085693,2019-06-21 13:05:55:684
-7.529050506591797,-7.898949005126953,-0.3615189208984375,0.034642832223427865,-0.02464792623452244,-0.0476898331736726,0.8547840118408203,2019-06-21 13:05:55:689
-7.530247589111328,-7.9192994079589845,-0.3698984985351562,0.033044935569380325,-0.025580032616050172,-0.047423517064664675,0.8599040508270264,2019-06-21 13:05:55:694
-7.507503021240234,-7.928876068115234,-0.359124755859375,0.03437651611441994,-0.02531371650704225,-0.04888825566420825,0.8650240898132324,2019-06-21 13:05:55:700
-7.493138031005859,-7.925284820556641,-0.35433642578125,0.03411020000541202,-0.02531371650704225,-0.049021413718712215,0.8698880672454834,2019-06-21 13:05:55:704
-7.478773040771484,-7.909722747802734,-0.3244093627929687,0.033444409732892214,-0.025180558452538287,-0.04795614928268052,0.8750081062316895,2019-06-21 13:05:55:710
-7.470393463134766,-7.931270233154296,-0.3232122802734375,0.03411020000541202,-0.026512138997577903,-0.0476898331736726,0.8798720836639404,2019-06-21 13:05:55:714
-7.4668022155761715,-7.931270233154296,-0.3423656005859375,0.03424335805991598,-0.025713190670554133,-0.04928772982772014,0.8849918842315674,2019-06-21 13:05:55:719
-7.453634307861328,-7.927678985595703,-0.37229266357421875,0.03371072584190014,-0.02637898094307394,-0.049420887882224096,0.8898561000823975,2019-06-21 13:05:55:724
-7.439269317626953,-7.930073150634765,-0.32201519775390625,0.03237914529686051,-0.02611266483406602,-0.048222465391688445,0.8949759006500244,2019-06-21 13:05:55:729
-7.432086822509765,-7.924087738037109,-0.33638018798828123,0.03371072584190014,-0.02717792927009771,-0.047423517064664675,0.8998398780822754,2019-06-21 13:05:55:734
-7.432086822509765,-7.925284820556641,-0.3327889404296875,0.03437651611441994,-0.02717792927009771,-0.04755667511916863,0.9049599170684814,2019-06-21 13:05:55:739
-7.435678070068359,-7.937255645751953,-0.35792767333984377,0.03437651611441994,-0.026512138997577903,-0.04715720095565674,0.9098238945007324,2019-06-21 13:05:55:744
-7.453634307861328,-7.914511077880859,-0.35433642578125,0.03424335805991598,-0.026778455106585827,-0.04649141068313693,0.9149439334869385,2019-06-21 13:05:55:749
-7.447648895263672,-7.948029388427734,-0.3423656005859375,0.03371072584190014,-0.025979506779562057,-0.04582562041061712,0.9198079109191895,2019-06-21 13:05:55:754
-7.467999298095703,-7.9492264709472655,-0.3423656005859375,0.03224598724235655,-0.02637898094307394,-0.045159830138097316,0.9249279499053955,2019-06-21 13:05:55:759
-7.4368751525878904,-7.950423553466797,-0.31602978515625,0.03357756778739617,-0.024781084289026402,-0.04422772375656958,0.9297919273376465,2019-06-21 13:05:55:764
-7.430889739990234,-7.960000213623046,-0.31483270263671875,0.03357756778739617,-0.02544687456154621,-0.04302930126603392,0.9349119663238525,2019-06-21 13:05:55:769
-7.451240142822265,-7.948029388427734,-0.32919769287109374,0.03450967416892391,-0.025713190670554133,-0.04236351099351412,0.9400320053100586,2019-06-21 13:05:55:775
-7.429692657470703,-7.928876068115234,-0.3184239501953125,0.03477599027793183,-0.027311087324601673,-0.043295617375041846,0.9448959827423096,2019-06-21 13:05:55:779
-7.487152618408203,-7.925284820556641,-0.30765020751953126,0.03490914833243579,-0.026512138997577903,-0.04356193348404977,0.9500160217285156,2019-06-21 13:05:55:785
-7.471590545654297,-7.920496490478516,-0.35792767333984377,0.034642832223427865,-0.02544687456154621,-0.04356193348404977,0.9548799991607666,2019-06-21 13:05:55:789
-7.505108856201172,-7.892963592529297,-0.32919769287109374,0.034642832223427865,-0.02624582288856998,-0.043695091538553735,0.9600000381469727,2019-06-21 13:05:55:794
-7.476378875732422,-7.907328582763672,-0.29807354736328123,0.03450967416892391,-0.027444245379105635,-0.04262982710252204,0.9648640155792236,2019-06-21 13:05:55:799
-7.472787628173828,-7.906131500244141,-0.29567938232421875,0.036107570822971446,-0.026645297052081865,-0.04236351099351412,0.9699840545654297,2019-06-21 13:05:55:804
-7.485955535888672,-7.924087738037109,-0.3327889404296875,0.03624072887747541,-0.025846348725058095,-0.043295617375041846,0.9748480319976807,2019-06-21 13:05:55:809
-7.476378875732422,-7.914511077880859,-0.3758839111328125,0.03504230638693975,-0.025846348725058095,-0.04236351099351412,0.9799680709838867,2019-06-21 13:05:55:814
-7.491940948486328,-7.907328582763672,-0.3124385375976562,0.03637388693197938,-0.025713190670554133,-0.04129824655748242,0.9848320484161377,2019-06-21 13:05:55:819
-7.50391177368164,-7.908525665283203,-0.30765020751953126,0.03597441276846748,-0.024381610125514517,-0.042496669048018076,0.9899520874023438,2019-06-21 13:05:55:824
-7.500320526123047,-7.896554840087891,-0.32680352783203126,0.03424335805991598,-0.02544687456154621,-0.04262982710252204,0.9948160648345947,2019-06-21 13:05:55:829
-7.514685516357422,-7.910919830322266,-0.3375772705078125,0.03477599027793183,-0.026512138997577903,-0.043695091538553735,0.9999361038208008,2019-06-21 13:05:55:834
-7.500320526123047,-7.921693572998047,-0.31004437255859374,0.03477599027793183,-0.02464792623452244,-0.04382824959305769,1.0048000812530518,2019-06-21 13:05:55:839
-7.457225555419922,-7.918102325439453,-0.2992706298828125,0.03490914833243579,-0.02358266179849074,-0.044494039865577505,1.0099198818206787,2019-06-21 13:05:55:844
-7.484758453369141,-7.896554840087891,-0.301664794921875,0.03570809665945956,-0.02344950374398678,-0.04422772375656958,1.0147840976715088,2019-06-21 13:05:55:849
-7.471590545654297,-7.895357757568359,-0.30884729003906247,0.03677336109549126,-0.023982135962002625,-0.04476035597458543,1.0199038982391357,2019-06-21 13:05:55:854
-7.496729278564453,-7.883386932373047,-0.3244093627929687,0.0366402030409873,-0.02464792623452244,-0.044360881811073546,1.0250239372253418,2019-06-21 13:05:55:860
-7.47518179321289,-7.8893723449707025,-0.311241455078125,0.03504230638693975,-0.02451476818001848,-0.045292988192601275,1.0298879146575928,2019-06-21 13:05:55:864
-7.499123443603516,-7.907328582763672,-0.32800061035156247,0.03597441276846748,-0.024914242343530364,-0.04569246235611316,1.0350079536437988,2019-06-21 13:05:55:870
-7.497926361083985,-7.9336643981933594,-0.3232122802734375,0.03570809665945956,-0.024381610125514517,-0.04569246235611316,1.0398719310760498,2019-06-21 13:05:55:874
-7.497926361083985,-7.916905242919921,-0.3244093627929687,0.03570809665945956,-0.024781084289026402,-0.04702404290115278,1.0449919700622559,2019-06-21 13:05:55:879
-7.501517608642578,-7.9049344177246095,-0.330394775390625,0.03677336109549126,-0.024381610125514517,-0.04715720095565674,1.0498559474945068,2019-06-21 13:05:55:884
-7.479970123291015,-7.916905242919921,-0.339971435546875,0.03517546444144371,-0.024248452071010555,-0.047423517064664675,1.054975986480713,2019-06-21 13:05:55:889
-7.4955321960449215,-7.91570816040039,-0.32919769287109374,0.03504230638693975,-0.024781084289026402,-0.047822991228176556,1.0598399639129639,2019-06-21 13:05:55:894
-7.513488433837891,-7.916905242919921,-0.3315918579101562,0.036107570822971446,-0.026512138997577903,-0.0483556234461924,1.06496000289917,2019-06-21 13:05:55:899
-7.502714691162109,-7.913313995361328,-0.32919769287109374,0.03530862249594768,-0.026645297052081865,-0.04928772982772014,1.069823980331421,2019-06-21 13:05:55:904
-7.485955535888672,-7.906131500244141,-0.35313934326171875,0.034642832223427865,-0.02531371650704225,-0.04955404593672806,1.074944019317627,2019-06-21 13:05:55:909
-7.484758453369141,-7.921693572998047,-0.301664794921875,0.035441780550451635,-0.026911613161089788,-0.04888825566420825,1.079807996749878,2019-06-21 13:05:55:914
-7.487152618408203,-7.901343170166015,-0.29807354736328123,0.03570809665945956,-0.02717792927009771,-0.04848878150069637,1.084928035736084,2019-06-21 13:05:55:919
-7.4955321960449215,-7.903737335205078,-0.33518310546874996,0.03450967416892391,-0.02704477121559375,-0.04875509760970429,1.089792013168335,2019-06-21 13:05:55:924
-7.488349700927734,-7.898949005126953,-0.3507451782226562,0.03424335805991598,-0.026645297052081865,-0.04848878150069637,1.094912052154541,2019-06-21 13:05:55:929
-7.488349700927734,-7.908525665283203,-0.32680352783203126,0.03371072584190014,-0.026512138997577903,-0.0483556234461924,1.100032091140747,2019-06-21 13:05:55:935
-7.482364288330078,-7.9192994079589845,-0.29687646484374997,0.033843883896404095,-0.02624582288856998,-0.04888825566420825,1.104896068572998,2019-06-21 13:05:55:939
-7.491940948486328,-7.930073150634765,-0.30286187744140625,0.033444409732892214,-0.02544687456154621,-0.048222465391688445,1.110016107559204,2019-06-21 13:05:55:945
-7.493138031005859,-7.925284820556641,-0.2861027221679687,0.03371072584190014,-0.02637898094307394,-0.04848878150069637,1.114880084991455,2019-06-21 13:05:55:949
-7.467999298095703,-7.8905694274902345,-0.320818115234375,0.03371072584190014,-0.024914242343530364,-0.04875509760970429,1.119999885559082,2019-06-21 13:05:55:954
-7.456028472900391,-7.902540252685546,-0.31962103271484377,0.03317809362388429,-0.02624582288856998,-0.04808930733718448,1.124864101409912,2019-06-21 13:05:55:959
-7.427298492431641,-7.91570816040039,-0.30046771240234377,0.03411020000541202,-0.027311087324601673,-0.047822991228176556,1.129983901977539,2019-06-21 13:05:55:964
-7.458422637939453,-7.920496490478516,-0.29687646484374997,0.03504230638693975,-0.02611266483406602,-0.048222465391688445,1.13484787940979,2019-06-21 13:05:55:969
-7.4225101623535155,-7.916905242919921,-0.30884729003906247,0.03450967416892391,-0.02544687456154621,-0.049820362045735984,1.139967918395996,2019-06-21 13:05:55:974
-7.439269317626953,-7.921693572998047,-0.33518310546874996,0.03437651611441994,-0.024781084289026402,-0.049021413718712215,1.144831895828247,2019-06-21 13:05:55:979
-7.451240142822265,-7.913313995361328,-0.320818115234375,0.03357756778739617,-0.02464792623452244,-0.04968720399123202,1.1499519348144531,2019-06-21 13:05:55:984
-7.4811672058105465,-7.918102325439453,-0.28849688720703126,0.03357756778739617,-0.025846348725058095,-0.04875509760970429,1.154815912246704,2019-06-21 13:05:55:989
-7.459619720458984,-7.902540252685546,-0.3136356201171875,0.03424335805991598,-0.026512138997577903,-0.047423517064664675,1.1599359512329102,2019-06-21 13:05:55:994
-7.44645181274414,-7.928876068115234,-0.32800061035156247,0.033843883896404095,-0.026778455106585827,-0.04649141068313693,1.1647999286651611,2019-06-21 13:05:55:999
-7.462013885498047,-7.922890655517578,-0.33638018798828123,0.03357756778739617,-0.025979506779562057,-0.04649141068313693,1.1699199676513672,2019-06-21 13:05:56:004
-7.471590545654297,-7.943241058349609,-0.32201519775390625,0.033444409732892214,-0.02611266483406602,-0.04729035901016071,1.1747839450836182,2019-06-21 13:05:56:009
-7.471590545654297,-7.908525665283203,-0.3327889404296875,0.03411020000541202,-0.025979506779562057,-0.04755667511916863,1.1799039840698242,2019-06-21 13:05:56:014
-7.470393463134766,-7.908525665283203,-0.33398602294921875,0.03317809362388429,-0.025846348725058095,-0.046757726792144856,1.1850240230560303,2019-06-21 13:05:56:020
-7.470393463134766,-7.937255645751953,-0.30046771240234377,0.0327786194603724,-0.026512138997577903,-0.046091936519625044,1.1898880004882812,2019-06-21 13:05:56:024
-7.470393463134766,-7.931270233154296,-0.306453125,0.03424335805991598,-0.024914242343530364,-0.047423517064664675,1.1950080394744873,2019-06-21 13:05:56:030
-7.44645181274414,-7.9192994079589845,-0.32680352783203126,0.03477599027793183,-0.024914242343530364,-0.047822991228176556,1.1998720169067383,2019-06-21 13:05:56:034
-7.456028472900391,-7.918102325439453,-0.3327889404296875,0.03437651611441994,-0.024115294016506587,-0.04662456873764089,1.2049920558929443,2019-06-21 13:05:56:039
-7.49433511352539,-7.898949005126953,-0.3710955810546875,0.03437651611441994,-0.025713190670554133,-0.04729035901016071,1.2098560333251953,2019-06-21 13:05:56:044
-7.469196380615235,-7.908525665283203,-0.33638018798828123,0.033843883896404095,-0.02544687456154621,-0.04729035901016071,1.2149760723114014,2019-06-21 13:05:56:049
-7.476378875732422,-7.896554840087891,-0.33638018798828123,0.03291177751487637,-0.02451476818001848,-0.047423517064664675,1.2198400497436523,2019-06-21 13:05:56:054
-7.489546783447265,-7.912116912841797,-0.33398602294921875,0.03331125167838825,-0.024914242343530364,-0.04729035901016071,1.2249600887298584,2019-06-21 13:05:56:059
-7.444057647705078,-7.928876068115234,-0.3327889404296875,0.034642832223427865,-0.02531371650704225,-0.04635825262863297,1.2300798892974854,2019-06-21 13:05:56:065
-7.467999298095703,-7.943241058349609,-0.2992706298828125,0.03584125471396352,-0.024914242343530364,-0.04622509457412901,1.2349441051483154,2019-06-21 13:05:56:069
-7.460816802978515,-7.936058563232422,-0.31722686767578123,0.034642832223427865,-0.024914242343530364,-0.046757726792144856,1.2398080825805664,2019-06-21 13:05:56:074
-7.482364288330078,-7.931270233154296,-0.3244093627929687,0.03397704195090806,-0.025180558452538287,-0.04582562041061712,1.2449278831481934,2019-06-21 13:05:56:079
-7.469196380615235,-7.909722747802734,-0.34835101318359374,0.03424335805991598,-0.025979506779562057,-0.045958778465121086,1.2497920989990234,2019-06-21 13:05:56:084
-7.488349700927734,-7.9348614807128905,-0.3698984985351562,0.03331125167838825,-0.025979506779562057,-0.04662456873764089,1.2549118995666504,2019-06-21 13:05:56:089
-7.460816802978515,-7.9348614807128905,-0.30884729003906247,0.03397704195090806,-0.025580032616050172,-0.04649141068313693,1.2600319385528564,2019-06-21 13:05:56:095
-7.445254730224609,-7.913313995361328,-0.2801173095703125,0.03517546444144371,-0.024914242343530364,-0.04662456873764089,1.2648959159851074,2019-06-21 13:05:56:099
-7.426101409912109,-7.945635223388671,-0.35553350830078123,0.0355749386049556,-0.02544687456154621,-0.04542614624710524,1.2700159549713135,2019-06-21 13:05:56:105
-7.467999298095703,-7.936058563232422,-0.359124755859375,0.03437651611441994,-0.02637898094307394,-0.04569246235611316,1.2748799324035645,2019-06-21 13:05:56:109
-7.441663482666016,-7.938452728271484,-0.3124385375976562,0.03424335805991598,-0.025047400398034325,-0.04422772375656958,1.2799999713897705,2019-06-21 13:05:56:114
-7.470393463134766,-7.922890655517578,-0.31722686767578123,0.03597441276846748,-0.02451476818001848,-0.044094565702065616,1.2848639488220215,2019-06-21 13:05:56:119
-7.46560513305664,-7.930073150634765,-0.378278076171875,0.03584125471396352,-0.024781084289026402,-0.04489351402908939,1.2899839878082275,2019-06-21 13:05:56:124
-7.460816802978515,-7.910919830322266,-0.38665765380859374,0.03424335805991598,-0.023715819852994702,-0.044360881811073546,1.2948479652404785,2019-06-21 13:05:56:129
-7.433283905029297,-7.914511077880859,-0.4022197265625,0.03504230638693975,-0.023848977907498663,-0.044094565702065616,1.2999680042266846,2019-06-21 13:05:56:134
-7.430889739990234,-7.937255645751953,-0.35792767333984377,0.03637388693197938,-0.023982135962002625,-0.04356193348404977,1.3048319816589355,2019-06-21 13:05:56:139
-7.440466400146485,-7.930073150634765,-0.33877435302734377,0.03624072887747541,-0.022117923198947162,-0.043695091538553735,1.3099520206451416,2019-06-21 13:05:56:144
-7.440466400146485,-7.9336643981933594,-0.3232122802734375,0.03570809665945956,-0.023183187634978855,-0.04236351099351412,1.3148159980773926,2019-06-21 13:05:56:149
-7.445254730224609,-7.9348614807128905,-0.30884729003906247,0.03570809665945956,-0.023982135962002625,-0.04156456266649034,1.3199360370635986,2019-06-21 13:05:56:154
-7.457225555419922,-7.955211883544922,-0.2861027221679687,0.03637388693197938,-0.023848977907498663,-0.04129824655748242,1.3248000144958496,2019-06-21 13:05:56:159
-7.453634307861328,-7.926481903076172,-0.320818115234375,0.036507044986483335,-0.022251081253451124,-0.04196403683000223,1.3299200534820557,2019-06-21 13:05:56:164
-7.442860565185547,-7.9348614807128905,-0.33638018798828123,0.0366402030409873,-0.022251081253451124,-0.04049929823045865,1.3347840309143066,2019-06-21 13:05:56:169
-7.457225555419922,-7.940846893310547,-0.32201519775390625,0.03677336109549126,-0.02278371347146697,-0.04036614017595468,1.3399040699005127,2019-06-21 13:05:56:174
-7.471590545654297,-7.907328582763672,-0.32800061035156247,0.036107570822971446,-0.022384239307955085,-0.04036614017595468,1.3450241088867188,2019-06-21 13:05:56:180
-7.473984710693359,-7.912116912841797,-0.3244093627929687,0.036107570822971446,-0.022916871525970932,-0.04156456266649034,1.3498880863189697,2019-06-21 13:05:56:184
-7.507503021240234,-7.906131500244141,-0.31483270263671875,0.0366402030409873,-0.022384239307955085,-0.041031930448474495,1.3550078868865967,2019-06-21 13:05:56:190
-7.489546783447265,-7.918102325439453,-0.31483270263671875,0.037305993313507105,-0.02278371347146697,-0.04089877239397054,1.3598721027374268,2019-06-21 13:05:56:194
-7.462013885498047,-7.914511077880859,-0.3627160034179687,0.03690651914999522,-0.023050029580474894,-0.04009982406694676,1.3649919033050537,2019-06-21 13:05:56:199
-7.47518179321289,-7.906131500244141,-0.31962103271484377,0.0355749386049556,-0.02358266179849074,-0.04009982406694676,1.3698558807373047,2019-06-21 13:05:56:204
-7.477575958251953,-7.928876068115234,-0.30046771240234377,0.03690651914999522,-0.02344950374398678,-0.04089877239397054,1.3749759197235107,2019-06-21 13:05:56:209
-7.472787628173828,-7.895357757568359,-0.306453125,0.03624072887747541,-0.022916871525970932,-0.04076561433946657,1.3798398971557617,2019-06-21 13:05:56:214
-7.482364288330078,-7.906131500244141,-0.33638018798828123,0.0366402030409873,-0.02265055541696301,-0.04183087877549827,1.3849599361419678,2019-06-21 13:05:56:219
-7.484758453369141,-7.897751922607422,-0.31602978515625,0.03783862553152295,-0.02265055541696301,-0.04129824655748242,1.3898239135742188,2019-06-21 13:05:56:224
-7.476378875732422,-7.9049344177246095,-0.330394775390625,0.03717283525900315,-0.02265055541696301,-0.04049929823045865,1.3949439525604248,2019-06-21 13:05:56:229
-7.488349700927734,-7.910919830322266,-0.35792767333984377,0.03677336109549126,-0.024115294016506587,-0.04089877239397054,1.3998079299926758,2019-06-21 13:05:56:234
-7.442860565185547,-7.91570816040039,-0.3244093627929687,0.03624072887747541,-0.02451476818001848,-0.04143140461198638,1.4049279689788818,2019-06-21 13:05:56:239
-7.463210968017578,-7.892963592529297,-0.330394775390625,0.03530862249594768,-0.024115294016506587,-0.04129824655748242,1.4097919464111328,2019-06-21 13:05:56:244
-7.4955321960449215,-7.9192994079589845,-0.2872998046875,0.03517546444144371,-0.02544687456154621,-0.04156456266649034,1.4149119853973389,2019-06-21 13:05:56:249
-7.499123443603516,-7.920496490478516,-0.3375772705078125,0.03570809665945956,-0.024914242343530364,-0.04116508850297846,1.420032024383545,2019-06-21 13:05:56:255
-7.49433511352539,-7.8893723449707025,-0.320818115234375,0.03584125471396352,-0.024914242343530364,-0.04196403683000223,1.424896001815796,2019-06-21 13:05:56:259
-7.506305938720703,-7.883386932373047,-0.3124385375976562,0.03517546444144371,-0.024381610125514517,-0.04183087877549827,1.430016040802002,2019-06-21 13:05:56:265
-7.513488433837891,-7.8905694274902345,-0.311241455078125,0.03517546444144371,-0.025713190670554133,-0.04236351099351412,1.434880018234253,2019-06-21 13:05:56:269
-7.488349700927734,-7.894160675048828,-0.2944822998046875,0.03504230638693975,-0.02544687456154621,-0.04169772072099431,1.440000057220459,2019-06-21 13:05:56:274
-7.49433511352539,-7.900146087646484,-0.3184239501953125,0.03411020000541202,-0.025713190670554133,-0.042097194884506195,1.44486403465271,2019-06-21 13:05:56:279
-7.488349700927734,-7.912116912841797,-0.306453125,0.0355749386049556,-0.024115294016506587,-0.04262982710252204,1.449984073638916,2019-06-21 13:05:56:284
-7.506305938720703,-7.907328582763672,-0.311241455078125,0.03490914833243579,-0.024248452071010555,-0.042496669048018076,1.454848051071167,2019-06-21 13:05:56:289
-7.496729278564453,-7.880992767333984,-0.33518310546874996,0.034642832223427865,-0.025580032616050172,-0.04396140764756166,1.459968090057373,2019-06-21 13:05:56:294
-7.515882598876953,-7.894160675048828,-0.34595684814453126,0.03450967416892391,-0.027444245379105635,-0.04302930126603392,1.464832067489624,2019-06-21 13:05:56:299
-7.533838836669922,-7.885781097412109,-0.3184239501953125,0.03397704195090806,-0.02704477121559375,-0.044094565702065616,1.46995210647583,2019-06-21 13:05:56:304
-7.517079681396484,-7.912116912841797,-0.29687646484374997,0.03397704195090806,-0.025580032616050172,-0.04396140764756166,1.474816083908081,2019-06-21 13:05:56:309
-7.49433511352539,-7.882189849853515,-0.330394775390625,0.03477599027793183,-0.025979506779562057,-0.04582562041061712,1.479935884475708,2019-06-21 13:05:56:314
-7.506305938720703,-7.894160675048828,-0.3124385375976562,0.03437651611441994,-0.024914242343530364,-0.04569246235611316,1.484800100326538,2019-06-21 13:05:56:319
-7.5242621765136715,-7.8905694274902345,-0.2896939697265625,0.03411020000541202,-0.024248452071010555,-0.046091936519625044,1.489919900894165,2019-06-21 13:05:56:324
-7.501517608642578,-7.906131500244141,-0.34835101318359374,0.03397704195090806,-0.02544687456154621,-0.04635825262863297,1.494783878326416,2019-06-21 13:05:56:329
-7.4955321960449215,-7.908525665283203,-0.3423656005859375,0.03450967416892391,-0.025846348725058095,-0.046091936519625044,1.499903917312622,2019-06-21 13:05:56:334
-7.47518179321289,-7.928876068115234,-0.301664794921875,0.034642832223427865,-0.025979506779562057,-0.04715720095565674,1.5050239562988281,2019-06-21 13:05:56:340
-7.490743865966797,-7.900146087646484,-0.320818115234375,0.03437651611441994,-0.027444245379105635,-0.046757726792144856,1.509887933731079,2019-06-21 13:05:56:344
-7.508700103759765,-7.877401519775391,-0.378278076171875,0.03477599027793183,-0.026512138997577903,-0.0476898331736726,1.5150079727172852,2019-06-21 13:05:56:350
-7.47518179321289,-7.91570816040039,-0.339971435546875,0.03424335805991598,-0.02531371650704225,-0.046757726792144856,1.5198719501495361,2019-06-21 13:05:56:354
-7.467999298095703,-7.907328582763672,-0.31722686767578123,0.03411020000541202,-0.026645297052081865,-0.04635825262863297,1.5249919891357422,2019-06-21 13:05:56:359
-7.457225555419922,-7.91570816040039,-0.29089105224609374,0.03450967416892391,-0.026911613161089788,-0.04649141068313693,1.5298559665679932,2019-06-21 13:05:56:364
-7.485955535888672,-7.910919830322266,-0.29567938232421875,0.03437651611441994,-0.025580032616050172,-0.04808930733718448,1.5349760055541992,2019-06-21 13:05:56:369
-7.485955535888672,-7.913313995361328,-0.33638018798828123,0.03397704195090806,-0.02717792927009771,-0.04808930733718448,1.5398399829864502,2019-06-21 13:05:56:374
-7.485955535888672,-7.910919830322266,-0.30884729003906247,0.0327786194603724,-0.02611266483406602,-0.04755667511916863,1.5449600219726562,2019-06-21 13:05:56:379
-7.473984710693359,-7.907328582763672,-0.3124385375976562,0.033843883896404095,-0.027311087324601673,-0.04888825566420825,1.5498239994049072,2019-06-21 13:05:56:384
-7.506305938720703,-7.906131500244141,-0.29687646484374997,0.033843883896404095,-0.026911613161089788,-0.048222465391688445,1.5549440383911133,2019-06-21 13:05:56:389
-7.500320526123047,-7.892963592529297,-0.2753289794921875,0.03397704195090806,-0.025846348725058095,-0.048621939555200326,1.5598080158233643,2019-06-21 13:05:56:394
-7.48356137084961,-7.908525665283203,-0.3244093627929687,0.033044935569380325,-0.024914242343530364,-0.04848878150069637,1.5649280548095703,2019-06-21 13:05:56:399
-7.499123443603516,-7.912116912841797,-0.31962103271484377,0.03264546140586844,-0.025979506779562057,-0.048621939555200326,1.5697920322418213,2019-06-21 13:05:56:404
-7.487152618408203,-7.922890655517578,-0.3435626831054687,0.03331125167838825,-0.026778455106585827,-0.0483556234461924,1.5749120712280273,2019-06-21 13:05:56:409
-7.458422637939453,-7.931270233154296,-0.3567305908203125,0.033444409732892214,-0.02624582288856998,-0.0483556234461924,1.5800321102142334,2019-06-21 13:05:56:415
-7.469196380615235,-7.927678985595703,-0.3639130859375,0.03437651611441994,-0.02717792927009771,-0.04955404593672806,1.5848960876464844,2019-06-21 13:05:56:419
-7.470393463134766,-7.9336643981933594,-0.33638018798828123,0.03437651611441994,-0.026778455106585827,-0.04915457177321617,1.5900158882141113,2019-06-21 13:05:56:425
-7.463210968017578,-7.922890655517578,-0.36511016845703126,0.03437651611441994,-0.026778455106585827,-0.04915457177321617,1.5948801040649414,2019-06-21 13:05:56:429
-7.424904327392578,-7.9049344177246095,-0.35792767333984377,0.03424335805991598,-0.025979506779562057,-0.04875509760970429,1.5999999046325684,2019-06-21 13:05:56:434
-7.458422637939453,-7.938452728271484,-0.3507451782226562,0.03437651611441994,-0.02611266483406602,-0.048621939555200326,1.6048638820648193,2019-06-21 13:05:56:439
-7.441663482666016,-7.898949005126953,-0.31602978515625,0.034642832223427865,-0.02704477121559375,-0.047822991228176556,1.6099839210510254,2019-06-21 13:05:56:444
-7.441663482666016,-7.903737335205078,-0.3315918579101562,0.03450967416892391,-0.025713190670554133,-0.04729035901016071,1.6148478984832764,2019-06-21 13:05:56:449
-7.464408050537109,-7.913313995361328,-0.33398602294921875,0.03517546444144371,-0.02464792623452244,-0.0483556234461924,1.6199679374694824,2019-06-21 13:05:56:454
-7.471590545654297,-7.931270233154296,-0.32201519775390625,0.03504230638693975,-0.02451476818001848,-0.048222465391688445,1.6248319149017334,2019-06-21 13:05:56:459
-7.458422637939453,-7.930073150634765,-0.292088134765625,0.03450967416892391,-0.025713190670554133,-0.04795614928268052,1.6299519538879395,2019-06-21 13:05:56:464
-7.456028472900391,-7.882189849853515,-0.30884729003906247,0.033843883896404095,-0.024248452071010555,-0.0476898331736726,1.6348159313201904,2019-06-21 13:05:56:469
-7.47518179321289,-7.88697817993164,-0.32680352783203126,0.034642832223427865,-0.024115294016506587,-0.04755667511916863,1.6399359703063965,2019-06-21 13:05:56:474
-7.467999298095703,-7.914511077880859,-0.32800061035156247,0.033843883896404095,-0.024914242343530364,-0.04649141068313693,1.6447999477386475,2019-06-21 13:05:56:479
-7.464408050537109,-7.916905242919921,-0.36032183837890625,0.03584125471396352,-0.02358266179849074,-0.04662456873764089,1.6499199867248535,2019-06-21 13:05:56:484
-7.453634307861328,-7.936058563232422,-0.34595684814453126,0.03504230638693975,-0.024115294016506587,-0.04582562041061712,1.6547839641571045,2019-06-21 13:05:56:489
-7.463210968017578,-7.91570816040039,-0.35313934326171875,0.03517546444144371,-0.025713190670554133,-0.04582562041061712,1.6599040031433105,2019-06-21 13:05:56:494
-7.476378875732422,-7.951620635986328,-0.349548095703125,0.03517546444144371,-0.024381610125514517,-0.04582562041061712,1.6650240421295166,2019-06-21 13:05:56:500
-7.477575958251953,-7.927678985595703,-0.339971435546875,0.035441780550451635,-0.023050029580474894,-0.04582562041061712,1.6698880195617676,2019-06-21 13:05:56:504
-7.46560513305664,-7.902540252685546,-0.29089105224609374,0.036507044986483335,-0.024781084289026402,-0.045159830138097316,1.6750080585479736,2019-06-21 13:05:56:510
-7.442860565185547,-7.913313995361328,-0.359124755859375,0.03624072887747541,-0.02544687456154621,-0.04489351402908939,1.6798720359802246,2019-06-21 13:05:56:514
-7.470393463134766,-7.946832305908203,-0.3040589599609375,0.03517546444144371,-0.022117923198947162,-0.043695091538553735,1.6849920749664307,2019-06-21 13:05:56:519
-7.456028472900391,-7.951620635986328,-0.306453125,0.03517546444144371,-0.022384239307955085,-0.04396140764756166,1.6898560523986816,2019-06-21 13:05:56:524
-7.456028472900391,-7.9348614807128905,-0.3184239501953125,0.03637388693197938,-0.022916871525970932,-0.04396140764756166,1.6949760913848877,2019-06-21 13:05:56:529
-7.441663482666016,-7.928876068115234,-0.3519422607421875,0.036107570822971446,-0.024248452071010555,-0.04396140764756166,1.6998400688171387,2019-06-21 13:05:56:534
-7.456028472900391,-7.921693572998047,-0.3567305908203125,0.036107570822971446,-0.023715819852994702,-0.043695091538553735,1.7049601078033447,2019-06-21 13:05:56:539
-7.441663482666016,-7.932467315673828,-0.31483270263671875,0.036507044986483335,-0.024381610125514517,-0.042762985157026,1.7098240852355957,2019-06-21 13:05:56:544
-7.4524372253417965,-7.930073150634765,-0.3040589599609375,0.03597441276846748,-0.023982135962002625,-0.04396140764756166,1.7149438858032227,2019-06-21 13:05:56:549
-7.4668022155761715,-7.932467315673828,-0.34835101318359374,0.03624072887747541,-0.02344950374398678,-0.044494039865577505,1.7198081016540527,2019-06-21 13:05:56:554
-7.488349700927734,-7.924087738037109,-0.34715393066406247,0.03624072887747541,-0.024381610125514517,-0.04422772375656958,1.7249279022216797,2019-06-21 13:05:56:559
-7.453634307861328,-7.898949005126953,-0.3052560424804687,0.036507044986483335,-0.023715819852994702,-0.042896143211529965,1.7297918796539307,2019-06-21 13:05:56:564
-7.467999298095703,-7.9192994079589845,-0.2849056396484375,0.03584125471396352,-0.023183187634978855,-0.04382824959305769,1.7349119186401367,2019-06-21 13:05:56:569
-7.44645181274414,-7.921693572998047,-0.31602978515625,0.035441780550451635,-0.023982135962002625,-0.04356193348404977,1.7400319576263428,2019-06-21 13:05:56:575
-7.456028472900391,-7.8893723449707025,-0.3423656005859375,0.03477599027793183,-0.024248452071010555,-0.04316245932053789,1.7448959350585938,2019-06-21 13:05:56:579
-7.457225555419922,-7.910919830322266,-0.306453125,0.0355749386049556,-0.023316345689482817,-0.04196403683000223,1.7500159740447998,2019-06-21 13:05:56:585
-7.462013885498047,-7.926481903076172,-0.3375772705078125,0.03584125471396352,-0.021052658762915465,-0.04262982710252204,1.7548799514770508,2019-06-21 13:05:56:589
-7.44645181274414,-7.9049344177246095,-0.35433642578125,0.03597441276846748,-0.02344950374398678,-0.042496669048018076,1.7599999904632568,2019-06-21 13:05:56:594
-7.459619720458984,-7.906131500244141,-0.32201519775390625,0.036507044986483335,-0.023848977907498663,-0.042496669048018076,1.7648639678955078,2019-06-21 13:05:56:599
-7.451240142822265,-7.897751922607422,-0.3232122802734375,0.03624072887747541,-0.023050029580474894,-0.04196403683000223,1.7699840068817139,2019-06-21 13:05:56:604
-7.451240142822265,-7.912116912841797,-0.320818115234375,0.0366402030409873,-0.023982135962002625,-0.04156456266649034,1.7748479843139648,2019-06-21 13:05:56:609
-7.46560513305664,-7.9049344177246095,-0.33638018798828123,0.03637388693197938,-0.024914242343530364,-0.04183087877549827,1.779968023300171,2019-06-21 13:05:56:614
-7.484758453369141,-7.927678985595703,-0.33638018798828123,0.037305993313507105,-0.024248452071010555,-0.04236351099351412,1.7848320007324219,2019-06-21 13:05:56:619
-7.490743865966797,-7.902540252685546,-0.29687646484374997,0.0366402030409873,-0.023183187634978855,-0.042097194884506195,1.789952039718628,2019-06-21 13:05:56:624
-7.467999298095703,-7.898949005126953,-0.3136356201171875,0.0366402030409873,-0.023316345689482817,-0.04236351099351412,1.794816017150879,2019-06-21 13:05:56:629
-7.482364288330078,-7.891766510009766,-0.4010226440429687,0.03504230638693975,-0.024381610125514517,-0.042097194884506195,1.799936056137085,2019-06-21 13:05:56:634
-7.4668022155761715,-7.925284820556641,-0.3315918579101562,0.035441780550451635,-0.02464792623452244,-0.04156456266649034,1.804800033569336,2019-06-21 13:05:56:639
-7.482364288330078,-7.9192994079589845,-0.27173773193359374,0.03584125471396352,-0.024914242343530364,-0.04076561433946657,1.809920072555542,2019-06-21 13:05:56:644
-7.476378875732422,-7.906131500244141,-0.311241455078125,0.0366402030409873,-0.024914242343530364,-0.04183087877549827,1.814784049987793,2019-06-21 13:05:56:649
-7.491940948486328,-7.907328582763672,-0.3052560424804687,0.03517546444144371,-0.025180558452538287,-0.04342877542954581,1.819904088973999,2019-06-21 13:05:56:654
-7.471590545654297,-7.894160675048828,-0.3315918579101562,0.03517546444144371,-0.02531371650704225,-0.04342877542954581,1.825023889541626,2019-06-21 13:05:56:660
-7.479970123291015,-7.902540252685546,-0.2992706298828125,0.03490914833243579,-0.02544687456154621,-0.044494039865577505,1.829888105392456,2019-06-21 13:05:56:664
-7.485955535888672,-7.903737335205078,-0.28370855712890625,0.03477599027793183,-0.02451476818001848,-0.04489351402908939,1.835007905960083,2019-06-21 13:05:56:670
-7.473984710693359,-7.913313995361328,-0.3232122802734375,0.03424335805991598,-0.025180558452538287,-0.04396140764756166,1.839871883392334,2019-06-21 13:05:56:674
-7.4811672058105465,-7.908525665283203,-0.3040589599609375,0.03437651611441994,-0.02611266483406602,-0.04502667208359335,1.84499192237854,2019-06-21 13:05:56:679
-7.490743865966797,-7.907328582763672,-0.3124385375976562,0.03437651611441994,-0.026911613161089788,-0.045159830138097316,1.849855899810791,2019-06-21 13:05:56:684
-7.458422637939453,-7.9049344177246095,-0.330394775390625,0.03437651611441994,-0.024781084289026402,-0.045159830138097316,1.854975938796997,2019-06-21 13:05:56:689
-7.450043060302734,-7.895357757568359,-0.37947515869140624,0.03411020000541202,-0.025713190670554133,-0.04462719792008147,1.859839916229248,2019-06-21 13:05:56:694
-7.478773040771484,-7.910919830322266,-0.3698984985351562,0.03584125471396352,-0.026911613161089788,-0.04356193348404977,1.864959955215454,2019-06-21 13:05:56:699
-7.470393463134766,-7.884584014892578,-0.29687646484374997,0.03517546444144371,-0.027444245379105635,-0.043695091538553735,1.869823932647705,2019-06-21 13:05:56:704
-7.47518179321289,-7.898949005126953,-0.311241455078125,0.03397704195090806,-0.026512138997577903,-0.04542614624710524,1.8749439716339111,2019-06-21 13:05:56:709
-7.478773040771484,-7.909722747802734,-0.339971435546875,0.03517546444144371,-0.02717792927009771,-0.04462719792008147,1.879807949066162,2019-06-21 13:05:56:714
-7.491940948486328,-7.910919830322266,-0.31483270263671875,0.03530862249594768,-0.02624582288856998,-0.045159830138097316,1.8849279880523682,2019-06-21 13:05:56:719
-7.459619720458984,-7.894160675048828,-0.32919769287109374,0.03517546444144371,-0.026645297052081865,-0.045159830138097316,1.8897919654846191,2019-06-21 13:05:56:724
-7.476378875732422,-7.916905242919921,-0.349548095703125,0.035441780550451635,-0.02544687456154621,-0.04542614624710524,1.8949120044708252,2019-06-21 13:05:56:729
-7.47518179321289,-7.913313995361328,-0.33518310546874996,0.035441780550451635,-0.026778455106585827,-0.04462719792008147,1.9000320434570312,2019-06-21 13:05:56:735
-7.447648895263672,-7.936058563232422,-0.3507451782226562,0.03517546444144371,-0.026645297052081865,-0.04302930126603392,1.9048960208892822,2019-06-21 13:05:56:739
-7.496729278564453,-7.937255645751953,-0.320818115234375,0.03504230638693975,-0.026645297052081865,-0.045292988192601275,1.9100160598754883,2019-06-21 13:05:56:745
-7.4668022155761715,-7.924087738037109,-0.31004437255859374,0.03504230638693975,-0.026645297052081865,-0.04542614624710524,1.9148800373077393,2019-06-21 13:05:56:749
-7.472787628173828,-7.945635223388671,-0.349548095703125,0.03530862249594768,-0.026911613161089788,-0.04462719792008147,1.9200000762939453,2019-06-21 13:05:56:754
-7.49433511352539,-7.932467315673828,-0.378278076171875,0.03477599027793183,-0.02637898094307394,-0.04382824959305769,1.9248640537261963,2019-06-21 13:05:56:759
-7.479970123291015,-7.940846893310547,-0.30884729003906247,0.03450967416892391,-0.025846348725058095,-0.04502667208359335,1.9299840927124023,2019-06-21 13:05:56:764
-7.487152618408203,-7.9492264709472655,-0.34715393066406247,0.035441780550451635,-0.02544687456154621,-0.04396140764756166,1.9348480701446533,2019-06-21 13:05:56:769
-7.4811672058105465,-7.913313995361328,-0.33638018798828123,0.03517546444144371,-0.025180558452538287,-0.044494039865577505,1.9399681091308594,2019-06-21 13:05:56:774
-7.487152618408203,-7.937255645751953,-0.3256064453125,0.03517546444144371,-0.025979506779562057,-0.04622509457412901,1.9448320865631104,2019-06-21 13:05:56:779
-7.47518179321289,-7.937255645751953,-0.3184239501953125,0.03504230638693975,-0.02544687456154621,-0.04569246235611316,1.9499518871307373,2019-06-21 13:05:56:784
-7.491940948486328,-7.932467315673828,-0.2992706298828125,0.034642832223427865,-0.025979506779562057,-0.0455593043016092,1.9548161029815674,2019-06-21 13:05:56:789
-7.470393463134766,-7.924087738037109,-0.3040589599609375,0.03477599027793183,-0.02704477121559375,-0.04622509457412901,1.9599359035491943,2019-06-21 13:05:56:794
-7.463210968017578,-7.936058563232422,-0.301664794921875,0.03504230638693975,-0.026645297052081865,-0.04755667511916863,1.9647998809814453,2019-06-21 13:05:56:799
-7.470393463134766,-7.946832305908203,-0.3184239501953125,0.034642832223427865,-0.025580032616050172,-0.0455593043016092,1.9699199199676514,2019-06-21 13:05:56:804
-7.476378875732422,-7.9336643981933594,-0.344759765625,0.03477599027793183,-0.025846348725058095,-0.0455593043016092,1.9747838973999023,2019-06-21 13:05:56:809
-7.469196380615235,-7.918102325439453,-0.349548095703125,0.03477599027793183,-0.024115294016506587,-0.04396140764756166,1.9799039363861084,2019-06-21 13:05:56:814
-7.463210968017578,-7.909722747802734,-0.34595684814453126,0.03450967416892391,-0.024781084289026402,-0.04396140764756166,1.9850239753723145,2019-06-21 13:05:56:820
-7.45483139038086,-7.916905242919921,-0.26934356689453126,0.03570809665945956,-0.02544687456154621,-0.043295617375041846,1.9898879528045654,2019-06-21 13:05:56:824
-7.4524372253417965,-7.924087738037109,-0.3435626831054687,0.0355749386049556,-0.02544687456154621,-0.044360881811073546,1.9950079917907715,2019-06-21 13:05:56:830
-7.442860565185547,-7.939649810791016,-0.301664794921875,0.035441780550451635,-0.02544687456154621,-0.043695091538553735,1.9998719692230225,2019-06-21 13:05:56:834
-7.430889739990234,-7.928876068115234,-0.3184239501953125,0.03450967416892391,-0.026778455106585827,-0.04382824959305769,2.0049920082092285,2019-06-21 13:05:56:839
-7.450043060302734,-7.930073150634765,-0.301664794921875,0.03530862249594768,-0.02544687456154621,-0.04396140764756166,2.0098559856414795,2019-06-21 13:05:56:844
-7.478773040771484,-7.920496490478516,-0.38546057128906247,0.035441780550451635,-0.02464792623452244,-0.044094565702065616,2.0149760246276855,2019-06-21 13:05:56:849
-7.471590545654297,-7.918102325439453,-0.3435626831054687,0.03530862249594768,-0.023183187634978855,-0.044360881811073546,2.0198400020599365,2019-06-21 13:05:56:854
-7.48356137084961,-7.9336643981933594,-0.306453125,0.036507044986483335,-0.023982135962002625,-0.04262982710252204,2.0249600410461426,2019-06-21 13:05:56:859
-7.470393463134766,-7.942043975830078,-0.320818115234375,0.03690651914999522,-0.02265055541696301,-0.04129824655748242,2.0298240184783936,2019-06-21 13:05:56:864
-7.420115997314453,-7.908525665283203,-0.33877435302734377,0.03570809665945956,-0.02531371650704225,-0.04156456266649034,2.0349440574645996,2019-06-21 13:05:56:869
-7.462013885498047,-7.9348614807128905,-0.3567305908203125,0.03570809665945956,-0.024914242343530364,-0.04169772072099431,2.0398080348968506,2019-06-21 13:05:56:874
-7.464408050537109,-7.909722747802734,-0.34715393066406247,0.03624072887747541,-0.02611266483406602,-0.04183087877549827,2.0449280738830566,2019-06-21 13:05:56:879
-7.46560513305664,-7.928876068115234,-0.32201519775390625,0.034642832223427865,-0.025979506779562057,-0.040632456284962606,2.0497920513153076,2019-06-21 13:05:56:884
-7.4811672058105465,-7.914511077880859,-0.31962103271484377,0.03437651611441994,-0.025713190670554133,-0.04116508850297846,2.0549120903015137,2019-06-21 13:05:56:889
-7.44645181274414,-7.932467315673828,-0.30765020751953126,0.03424335805991598,-0.025713190670554133,-0.040232982121450725,2.0600318908691406,2019-06-21 13:05:56:895
-7.476378875732422,-7.9492264709472655,-0.3184239501953125,0.03477599027793183,-0.02544687456154621,-0.040232982121450725,2.0648961067199707,2019-06-21 13:05:56:899
-7.471590545654297,-7.945635223388671,-0.32919769287109374,0.03584125471396352,-0.024914242343530364,-0.04076561433946657,2.0700159072875977,2019-06-21 13:05:56:905
-7.453634307861328,-7.922890655517578,-0.31602978515625,0.03477599027793183,-0.023848977907498663,-0.04089877239397054,2.0748798847198486,2019-06-21 13:05:56:909
-7.444057647705078,-7.901343170166015,-0.25976690673828123,0.035441780550451635,-0.024381610125514517,-0.040632456284962606,2.0799999237060547,2019-06-21 13:05:56:914
-7.460816802978515,-7.906131500244141,-0.32201519775390625,0.03584125471396352,-0.025713190670554133,-0.040232982121450725,2.0848639011383057,2019-06-21 13:05:56:919
-7.472787628173828,-7.902540252685546,-0.31962103271484377,0.03570809665945956,-0.02451476818001848,-0.04076561433946657,2.0899839401245117,2019-06-21 13:05:56:924
-7.469196380615235,-7.912116912841797,-0.3375772705078125,0.03584125471396352,-0.02451476818001848,-0.04116508850297846,2.0948479175567627,2019-06-21 13:05:56:929
-7.493138031005859,-7.9049344177246095,-0.3519422607421875,0.035441780550451635,-0.023715819852994702,-0.04049929823045865,2.0999679565429688,2019-06-21 13:05:56:934
-7.4811672058105465,-7.903737335205078,-0.2753289794921875,0.03584125471396352,-0.02358266179849074,-0.04076561433946657,2.1048319339752197,2019-06-21 13:05:56:939
-7.472787628173828,-7.897751922607422,-0.3040589599609375,0.03517546444144371,-0.024248452071010555,-0.04116508850297846,2.109951972961426,2019-06-21 13:05:56:944
-7.470393463134766,-7.88697817993164,-0.31722686767578123,0.03584125471396352,-0.025580032616050172,-0.04076561433946657,2.1148159503936768,2019-06-21 13:05:56:949
-7.4811672058105465,-7.903737335205078,-0.31004437255859374,0.03677336109549126,-0.023848977907498663,-0.040632456284962606,2.119935989379883,2019-06-21 13:05:56:954
-7.489546783447265,-7.914511077880859,-0.33398602294921875,0.03597441276846748,-0.024115294016506587,-0.04049929823045865,2.124799966812134,2019-06-21 13:05:56:959
-7.467999298095703,-7.931270233154296,-0.32680352783203126,0.036507044986483335,-0.024248452071010555,-0.040232982121450725,2.12992000579834,2019-06-21 13:05:56:964
-7.463210968017578,-7.907328582763672,-0.35433642578125,0.036507044986483335,-0.025047400398034325,-0.04009982406694676,2.134783983230591,2019-06-21 13:05:56:969
-7.478773040771484,-7.897751922607422,-0.3375772705078125,0.0355749386049556,-0.02531371650704225,-0.04049929823045865,2.139904022216797,2019-06-21 13:05:56:974
-7.456028472900391,-7.921693572998047,-0.3519422607421875,0.03411020000541202,-0.023715819852994702,-0.040632456284962606,2.145024061203003,2019-06-21 13:05:56:980
-7.473984710693359,-7.912116912841797,-0.3040589599609375,0.03717283525900315,-0.02544687456154621,-0.040232982121450725,2.149888038635254,2019-06-21 13:05:56:984
-7.485955535888672,-7.896554840087891,-0.344759765625,0.03637388693197938,-0.02344950374398678,-0.04009982406694676,2.15500807762146,2019-06-21 13:05:56:990
-7.482364288330078,-7.902540252685546,-0.359124755859375,0.0366402030409873,-0.023050029580474894,-0.040632456284962606,2.159872055053711,2019-06-21 13:05:56:994
-7.476378875732422,-7.9192994079589845,-0.37229266357421875,0.037305993313507105,-0.023982135962002625,-0.04143140461198638,2.164992094039917,2019-06-21 13:05:56:999
-7.467999298095703,-7.897751922607422,-0.32201519775390625,0.03770546747701899,-0.022916871525970932,-0.041031930448474495,2.169856071472168,2019-06-21 13:05:57:004
-7.46560513305664,-7.903737335205078,-0.3136356201171875,0.036507044986483335,-0.022384239307955085,-0.04116508850297846,2.174976110458374,2019-06-21 13:05:57:009
-7.478773040771484,-7.8893723449707025,-0.31962103271484377,0.03530862249594768,-0.022916871525970932,-0.04169772072099431,2.179840087890625,2019-06-21 13:05:57:014
-7.49433511352539,-7.926481903076172,-0.3435626831054687,0.03597441276846748,-0.02451476818001848,-0.04129824655748242,2.184959888458252,2019-06-21 13:05:57:019
-7.487152618408203,-7.9049344177246095,-0.3315918579101562,0.03690651914999522,-0.023982135962002625,-0.041031930448474495,2.189824104309082,2019-06-21 13:05:57:024
-7.463210968017578,-7.902540252685546,-0.37708099365234377,0.035441780550451635,-0.02358266179849074,-0.042097194884506195,2.194943904876709,2019-06-21 13:05:57:029
-7.4955321960449215,-7.916905242919921,-0.344759765625,0.03597441276846748,-0.023183187634978855,-0.04302930126603392,2.19980788230896,2019-06-21 13:05:57:034
-7.476378875732422,-7.906131500244141,-0.36032183837890625,0.03637388693197938,-0.02344950374398678,-0.04302930126603392,2.204927921295166,2019-06-21 13:05:57:039
-7.469196380615235,-7.909722747802734,-0.368701416015625,0.03624072887747541,-0.023050029580474894,-0.042762985157026,2.209791898727417,2019-06-21 13:05:57:044
-7.479970123291015,-7.912116912841797,-0.35433642578125,0.03597441276846748,-0.023050029580474894,-0.044360881811073546,2.214911937713623,2019-06-21 13:05:57:049
-7.487152618408203,-7.942043975830078,-0.3519422607421875,0.03584125471396352,-0.021718449035435277,-0.04396140764756166,2.220031976699829,2019-06-21 13:05:57:055
-7.477575958251953,-7.91570816040039,-0.34595684814453126,0.034642832223427865,-0.02265055541696301,-0.04489351402908939,2.22489595413208,2019-06-21 13:05:57:059
-7.472787628173828,-7.908525665283203,-0.3615189208984375,0.03397704195090806,-0.024914242343530364,-0.043695091538553735,2.230015993118286,2019-06-21 13:05:57:065
-7.496729278564453,-7.906131500244141,-0.320818115234375,0.03504230638693975,-0.026512138997577903,-0.044494039865577505,2.234879970550537,2019-06-21 13:05:57:069
-7.491940948486328,-7.8905694274902345,-0.31004437255859374,0.03490914833243579,-0.025846348725058095,-0.045292988192601275,2.240000009536743,2019-06-21 13:05:57:074
-7.502714691162109,-7.901343170166015,-0.30884729003906247,0.03450967416892391,-0.024248452071010555,-0.04582562041061712,2.244863986968994,2019-06-21 13:05:57:079
-7.487152618408203,-7.888175262451171,-0.34715393066406247,0.034642832223427865,-0.025047400398034325,-0.045292988192601275,2.2499840259552,2019-06-21 13:05:57:084
-7.478773040771484,-7.91570816040039,-0.368701416015625,0.03517546444144371,-0.025580032616050172,-0.045159830138097316,2.254848003387451,2019-06-21 13:05:57:089
-7.511094268798828,-7.894160675048828,-0.32919769287109374,0.03530862249594768,-0.02531371650704225,-0.04582562041061712,2.2599680423736572,2019-06-21 13:05:57:094
-7.488349700927734,-7.9049344177246095,-0.29807354736328123,0.035441780550451635,-0.02544687456154621,-0.04662456873764089,2.264832019805908,2019-06-21 13:05:57:099
-7.48356137084961,-7.939649810791016,-0.30046771240234377,0.03504230638693975,-0.025047400398034325,-0.0483556234461924,2.2699520587921143,2019-06-21 13:05:57:104
-7.477575958251953,-7.909722747802734,-0.27892022705078123,0.03504230638693975,-0.025846348725058095,-0.0476898331736726,2.2748160362243652,2019-06-21 13:05:57:109
-7.506305938720703,-7.916905242919921,-0.3052560424804687,0.03477599027793183,-0.024914242343530364,-0.04729035901016071,2.2799360752105713,2019-06-21 13:05:57:114
-7.469196380615235,-7.895357757568359,-0.32680352783203126,0.03530862249594768,-0.023982135962002625,-0.04715720095565674,2.2848000526428223,2019-06-21 13:05:57:119
-7.4811672058105465,-7.8893723449707025,-0.3758839111328125,0.03437651611441994,-0.023848977907498663,-0.047423517064664675,2.2899200916290283,2019-06-21 13:05:57:124
-7.463210968017578,-7.914511077880859,-0.3818693237304687,0.0355749386049556,-0.02451476818001848,-0.047822991228176556,2.2947840690612793,2019-06-21 13:05:57:129
-7.476378875732422,-7.925284820556641,-0.35313934326171875,0.03490914833243579,-0.024115294016506587,-0.048222465391688445,2.2999041080474854,2019-06-21 13:05:57:134
-7.456028472900391,-7.913313995361328,-0.339971435546875,0.033444409732892214,-0.023050029580474894,-0.04729035901016071,2.3050239086151123,2019-06-21 13:05:57:140
-7.44645181274414,-7.924087738037109,-0.36511016845703126,0.033843883896404095,-0.023715819852994702,-0.04702404290115278,2.3098878860473633,2019-06-21 13:05:57:144
-7.444057647705078,-7.954014801025391,-0.33398602294921875,0.034642832223427865,-0.024914242343530364,-0.04649141068313693,2.3150079250335693,2019-06-21 13:05:57:150
-7.477575958251953,-7.948029388427734,-0.3698984985351562,0.034642832223427865,-0.02451476818001848,-0.04635825262863297,2.3198719024658203,2019-06-21 13:05:57:154
-7.473984710693359,-7.920496490478516,-0.3375772705078125,0.03477599027793183,-0.023715819852994702,-0.046091936519625044,2.3249919414520264,2019-06-21 13:05:57:159
-7.467999298095703,-7.91570816040039,-0.37708099365234377,0.036107570822971446,-0.024115294016506587,-0.045159830138097316,2.3298559188842773,2019-06-21 13:05:57:164
-7.47518179321289,-7.914511077880859,-0.339971435546875,0.03530862249594768,-0.025713190670554133,-0.04582562041061712,2.3349759578704834,2019-06-21 13:05:57:169
-7.464408050537109,-7.9192994079589845,-0.3244093627929687,0.03450967416892391,-0.022384239307955085,-0.045159830138097316,2.3398399353027344,2019-06-21 13:05:57:174
-7.447648895263672,-7.918102325439453,-0.28849688720703126,0.03450967416892391,-0.022916871525970932,-0.043295617375041846,2.3449599742889404,2019-06-21 13:05:57:179
-7.485955535888672,-7.922890655517578,-0.34715393066406247,0.03437651611441994,-0.02278371347146697,-0.043695091538553735,2.3498239517211914,2019-06-21 13:05:57:184
-7.469196380615235,-7.940846893310547,-0.35313934326171875,0.03584125471396352,-0.023982135962002625,-0.04356193348404977,2.3549439907073975,2019-06-21 13:05:57:189
-7.477575958251953,-7.931270233154296,-0.33877435302734377,0.03570809665945956,-0.022916871525970932,-0.04356193348404977,2.3598079681396484,2019-06-21 13:05:57:194
-7.491940948486328,-7.894160675048828,-0.33877435302734377,0.034642832223427865,-0.02451476818001848,-0.04356193348404977,2.3649280071258545,2019-06-21 13:05:57:199
-7.485955535888672,-7.9049344177246095,-0.29807354736328123,0.03504230638693975,-0.025047400398034325,-0.043295617375041846,2.3697919845581055,2019-06-21 13:05:57:204
-7.464408050537109,-7.912116912841797,-0.31004437255859374,0.03584125471396352,-0.024781084289026402,-0.042896143211529965,2.3749120235443115,2019-06-21 13:05:57:209
-7.487152618408203,-7.910919830322266,-0.34116851806640625,0.0355749386049556,-0.023715819852994702,-0.04262982710252204,2.3800320625305176,2019-06-21 13:05:57:215
-7.469196380615235,-7.906131500244141,-0.32800061035156247,0.03424335805991598,-0.023183187634978855,-0.043295617375041846,2.3848960399627686,2019-06-21 13:05:57:219
-7.460816802978515,-7.898949005126953,-0.31004437255859374,0.033843883896404095,-0.023982135962002625,-0.042762985157026,2.3900160789489746,2019-06-21 13:05:57:225
-7.460816802978515,-7.9192994079589845,-0.3435626831054687,0.03490914833243579,-0.023848977907498663,-0.043695091538553735,2.3948800563812256,2019-06-21 13:05:57:229
-7.482364288330078,-7.922890655517578,-0.34595684814453126,0.03517546444144371,-0.02265055541696301,-0.04396140764756166,2.4000000953674316,2019-06-21 13:05:57:234
-7.479970123291015,-7.930073150634765,-0.35792767333984377,0.03424335805991598,-0.026778455106585827,-0.04262982710252204,2.4048640727996826,2019-06-21 13:05:57:239
-7.511094268798828,-7.921693572998047,-0.3519422607421875,0.03477599027793183,-0.025846348725058095,-0.04356193348404977,2.4099841117858887,2019-06-21 13:05:57:244
-7.500320526123047,-7.906131500244141,-0.339971435546875,0.03530862249594768,-0.025846348725058095,-0.044094565702065616,2.4148480892181396,2019-06-21 13:05:57:249
-7.4955321960449215,-7.914511077880859,-0.31004437255859374,0.03450967416892391,-0.025846348725058095,-0.04342877542954581,2.4199678897857666,2019-06-21 13:05:57:254
-7.500320526123047,-7.91570816040039,-0.31962103271484377,0.03424335805991598,-0.026645297052081865,-0.04462719792008147,2.4248321056365967,2019-06-21 13:05:57:259
-7.484758453369141,-7.913313995361328,-0.32800061035156247,0.03450967416892391,-0.02531371650704225,-0.04422772375656958,2.4299519062042236,2019-06-21 13:05:57:264
-7.491940948486328,-7.924087738037109,-0.30765020751953126,0.03490914833243579,-0.02624582288856998,-0.043695091538553735,2.4348158836364746,2019-06-21 13:05:57:269
-7.472787628173828,-7.9192994079589845,-0.3519422607421875,0.03450967416892391,-0.026512138997577903,-0.04396140764756166,2.4399359226226807,2019-06-21 13:05:57:274
-7.478773040771484,-7.902540252685546,-0.36630725097656247,0.036107570822971446,-0.025180558452538287,-0.044494039865577505,2.4447999000549316,2019-06-21 13:05:57:279
-7.473984710693359,-7.913313995361328,-0.311241455078125,0.03517546444144371,-0.026911613161089788,-0.043295617375041846,2.4499199390411377,2019-06-21 13:05:57:284
-7.50391177368164,-7.912116912841797,-0.282511474609375,0.03570809665945956,-0.02811003565162545,-0.04342877542954581,2.4547839164733887,2019-06-21 13:05:57:289
-7.506305938720703,-7.882189849853515,-0.3375772705078125,0.03504230638693975,-0.02624582288856998,-0.04316245932053789,2.4599039554595947,2019-06-21 13:05:57:294
-7.50391177368164,-7.916905242919921,-0.34835101318359374,0.03424335805991598,-0.025180558452538287,-0.04382824959305769,2.465023994445801,2019-06-21 13:05:57:300
-7.47518179321289,-7.9192994079589845,-0.31962103271484377,0.03490914833243579,-0.02624582288856998,-0.04422772375656958,2.4698879718780518,2019-06-21 13:05:57:304
-7.46560513305664,-7.938452728271484,-0.3244093627929687,0.03570809665945956,-0.026778455106585827,-0.04382824959305769,2.475008010864258,2019-06-21 13:05:57:310
-7.463210968017578,-7.882189849853515,-0.344759765625,0.034642832223427865,-0.025846348725058095,-0.043295617375041846,2.479871988296509,2019-06-21 13:05:57:314
-7.458422637939453,-7.8893723449707025,-0.29089105224609374,0.035441780550451635,-0.027311087324601673,-0.04396140764756166,2.484992027282715,2019-06-21 13:05:57:319
-7.490743865966797,-7.936058563232422,-0.30286187744140625,0.03570809665945956,-0.025979506779562057,-0.044494039865577505,2.489856004714966,2019-06-21 13:05:57:324
-7.469196380615235,-7.932467315673828,-0.34116851806640625,0.03490914833243579,-0.02624582288856998,-0.043295617375041846,2.494976043701172,2019-06-21 13:05:57:329
-7.471590545654297,-7.897751922607422,-0.40341680908203126,0.03477599027793183,-0.025180558452538287,-0.04382824959305769,2.499840021133423,2019-06-21 13:05:57:334
-7.479970123291015,-7.8893723449707025,-0.2861027221679687,0.03637388693197938,-0.025846348725058095,-0.04396140764756166,2.504960060119629,2019-06-21 13:05:57:339
-7.506305938720703,-7.916905242919921,-0.29687646484374997,0.03624072887747541,-0.025713190670554133,-0.043695091538553735,2.50982403755188,2019-06-21 13:05:57:344
-7.476378875732422,-7.910919830322266,-0.31483270263671875,0.03624072887747541,-0.024781084289026402,-0.04396140764756166,2.514944076538086,2019-06-21 13:05:57:349
-7.4811672058105465,-7.900146087646484,-0.37468682861328123,0.03584125471396352,-0.02464792623452244,-0.04422772375656958,2.519808053970337,2019-06-21 13:05:57:354
-7.502714691162109,-7.921693572998047,-0.3256064453125,0.035441780550451635,-0.025713190670554133,-0.043695091538553735,2.524928092956543,2019-06-21 13:05:57:359
-7.493138031005859,-7.906131500244141,-0.2753289794921875,0.03437651611441994,-0.02611266483406602,-0.04316245932053789,2.529792070388794,2019-06-21 13:05:57:364
-7.4668022155761715,-7.891766510009766,-0.3315918579101562,0.0355749386049556,-0.02637898094307394,-0.04489351402908939,2.534912109375,2019-06-21 13:05:57:369
-7.453634307861328,-7.9192994079589845,-0.37708099365234377,0.0355749386049556,-0.026778455106585827,-0.04476035597458543,2.540031909942627,2019-06-21 13:05:57:375
-7.473984710693359,-7.912116912841797,-0.3327889404296875,0.03490914833243579,-0.02637898094307394,-0.044360881811073546,2.544895887374878,2019-06-21 13:05:57:379
-7.463210968017578,-7.908525665283203,-0.34595684814453126,0.03477599027793183,-0.025846348725058095,-0.044094565702065616,2.550015926361084,2019-06-21 13:05:57:385
-7.476378875732422,-7.9192994079589845,-0.3567305908203125,0.035441780550451635,-0.025713190670554133,-0.044360881811073546,2.554879903793335,2019-06-21 13:05:57:389
-7.511094268798828,-7.9336643981933594,-0.3615189208984375,0.03530862249594768,-0.02464792623452244,-0.043295617375041846,2.559999942779541,2019-06-21 13:05:57:394
-7.48356137084961,-7.908525665283203,-0.320818115234375,0.03504230638693975,-0.025580032616050172,-0.04462719792008147,2.564863920211792,2019-06-21 13:05:57:399
-7.44645181274414,-7.913313995361328,-0.2932852172851562,0.036507044986483335,-0.02464792623452244,-0.04476035597458543,2.569983959197998,2019-06-21 13:05:57:404
-7.472787628173828,-7.939649810791016,-0.31722686767578123,0.03490914833243579,-0.02464792623452244,-0.04489351402908939,2.574847936630249,2019-06-21 13:05:57:409
-7.464408050537109,-7.907328582763672,-0.3052560424804687,0.034642832223427865,-0.02451476818001848,-0.044094565702065616,2.579967975616455,2019-06-21 13:05:57:414
-7.476378875732422,-7.913313995361328,-0.3136356201171875,0.036107570822971446,-0.025846348725058095,-0.04342877542954581,2.584831953048706,2019-06-21 13:05:57:419
-7.479970123291015,-7.909722747802734,-0.3184239501953125,0.03490914833243579,-0.025580032616050172,-0.04462719792008147,2.589951992034912,2019-06-21 13:05:57:424
-7.47518179321289,-7.901343170166015,-0.30884729003906247,0.034642832223427865,-0.02451476818001848,-0.044360881811073546,2.594815969467163,2019-06-21 13:05:57:429
-7.4811672058105465,-7.924087738037109,-0.35433642578125,0.033444409732892214,-0.02464792623452244,-0.04476035597458543,2.599936008453369,2019-06-21 13:05:57:434
-7.5242621765136715,-7.909722747802734,-0.3423656005859375,0.03450967416892391,-0.02464792623452244,-0.044094565702065616,2.60479998588562,2019-06-21 13:05:57:439
-7.487152618408203,-7.914511077880859,-0.330394775390625,0.03477599027793183,-0.024914242343530364,-0.043695091538553735,2.609920024871826,2019-06-21 13:05:57:444
-7.50391177368164,-7.912116912841797,-0.35792767333984377,0.034642832223427865,-0.02544687456154621,-0.04489351402908939,2.614784002304077,2019-06-21 13:05:57:449
-7.472787628173828,-7.913313995361328,-0.349548095703125,0.033444409732892214,-0.025979506779562057,-0.04489351402908939,2.619904041290283,2019-06-21 13:05:57:454
-7.471590545654297,-7.91570816040039,-0.33638018798828123,0.03397704195090806,-0.025846348725058095,-0.04489351402908939,2.6250240802764893,2019-06-21 13:05:57:460
-7.479970123291015,-7.88697817993164,-0.29687646484374997,0.034642832223427865,-0.02451476818001848,-0.045159830138097316,2.6298880577087402,2019-06-21 13:05:57:464
-7.4668022155761715,-7.914511077880859,-0.320818115234375,0.03530862249594768,-0.023848977907498663,-0.0455593043016092,2.6350080966949463,2019-06-21 13:05:57:470
-7.47518179321289,-7.908525665283203,-0.36032183837890625,0.03517546444144371,-0.024248452071010555,-0.045159830138097316,2.6398720741271973,2019-06-21 13:05:57:474
-7.469196380615235,-7.888175262451171,-0.33877435302734377,0.03504230638693975,-0.024781084289026402,-0.04582562041061712,2.6449921131134033,2019-06-21 13:05:57:479
-7.471590545654297,-7.930073150634765,-0.3052560424804687,0.034642832223427865,-0.024248452071010555,-0.04582562041061712,2.6498560905456543,2019-06-21 13:05:57:484
-7.463210968017578,-7.927678985595703,-0.282511474609375,0.03517546444144371,-0.02544687456154621,-0.0455593043016092,2.6549758911132812,2019-06-21 13:05:57:489
-7.462013885498047,-7.938452728271484,-0.344759765625,0.03411020000541202,-0.02451476818001848,-0.044360881811073546,2.6598401069641113,2019-06-21 13:05:57:494
-7.493138031005859,-7.913313995361328,-0.3615189208984375,0.035441780550451635,-0.025979506779562057,-0.0455593043016092,2.6649599075317383,2019-06-21 13:05:57:499
-7.4668022155761715,-7.925284820556641,-0.3423656005859375,0.03490914833243579,-0.025846348725058095,-0.04489351402908939,2.6698238849639893,2019-06-21 13:05:57:504
-7.4668022155761715,-7.920496490478516,-0.28849688720703126,0.03584125471396352,-0.02544687456154621,-0.04476035597458543,2.6749439239501953,2019-06-21 13:05:57:509
-7.478773040771484,-7.94443814086914,-0.30286187744140625,0.03584125471396352,-0.023183187634978855,-0.04489351402908939,2.6798079013824463,2019-06-21 13:05:57:514
-7.485955535888672,-7.921693572998047,-0.320818115234375,0.03570809665945956,-0.023715819852994702,-0.04569246235611316,2.6849279403686523,2019-06-21 13:05:57:519
-7.477575958251953,-7.891766510009766,-0.25737274169921875,0.03517546444144371,-0.02451476818001848,-0.04502667208359335,2.6897919178009033,2019-06-21 13:05:57:524
-7.4668022155761715,-7.909722747802734,-0.3327889404296875,0.03477599027793183,-0.02464792623452244,-0.044494039865577505,2.6949119567871094,2019-06-21 13:05:57:529
-7.488349700927734,-7.916905242919921,-0.3327889404296875,0.03530862249594768,-0.023848977907498663,-0.04396140764756166,2.7000319957733154,2019-06-21 13:05:57:535
-7.487152618408203,-7.913313995361328,-0.31962103271484377,0.034642832223427865,-0.02464792623452244,-0.04489351402908939,2.7048959732055664,2019-06-21 13:05:57:539
-7.496729278564453,-7.91570816040039,-0.31483270263671875,0.0355749386049556,-0.02265055541696301,-0.04542614624710524,2.7100160121917725,2019-06-21 13:05:57:545
-7.488349700927734,-7.906131500244141,-0.35313934326171875,0.033843883896404095,-0.02464792623452244,-0.04542614624710524,2.7148799896240234,2019-06-21 13:05:57:549
-7.4668022155761715,-7.896554840087891,-0.36511016845703126,0.03291177751487637,-0.026778455106585827,-0.04569246235611316,2.7200000286102295,2019-06-21 13:05:57:554
-7.459619720458984,-7.91570816040039,-0.3244093627929687,0.033843883896404095,-0.02611266483406602,-0.045292988192601275,2.7248640060424805,2019-06-21 13:05:57:559
-7.488349700927734,-7.896554840087891,-0.2992706298828125,0.034642832223427865,-0.02624582288856998,-0.04476035597458543,2.7299840450286865,2019-06-21 13:05:57:564
-7.513488433837891,-7.900146087646484,-0.37229266357421875,0.03530862249594768,-0.025846348725058095,-0.044360881811073546,2.7348480224609375,2019-06-21 13:05:57:569
-7.499123443603516,-7.906131500244141,-0.344759765625,0.03597441276846748,-0.023715819852994702,-0.04502667208359335,2.7399680614471436,2019-06-21 13:05:57:574
-7.506305938720703,-7.928876068115234,-0.344759765625,0.03570809665945956,-0.023050029580474894,-0.04489351402908939,2.7450881004333496,2019-06-21 13:05:57:580
-7.497926361083985,-7.925284820556641,-0.28849688720703126,0.0355749386049556,-0.02344950374398678,-0.04489351402908939,2.7499520778656006,2019-06-21 13:05:57:584
-7.490743865966797,-7.916905242919921,-0.3327889404296875,0.03504230638693975,-0.023715819852994702,-0.04569246235611316,2.7548160552978516,2019-06-21 13:05:57:589
-7.490743865966797,-7.903737335205078,-0.36630725097656247,0.03397704195090806,-0.024781084289026402,-0.0455593043016092,2.7599360942840576,2019-06-21 13:05:57:594
-7.489546783447265,-7.902540252685546,-0.339971435546875,0.03477599027793183,-0.025580032616050172,-0.04635825262863297,2.7648000717163086,2019-06-21 13:05:57:599
-7.485955535888672,-7.927678985595703,-0.3423656005859375,0.03570809665945956,-0.025580032616050172,-0.04582562041061712,2.7699201107025146,2019-06-21 13:05:57:604
-7.496729278564453,-7.907328582763672,-0.3423656005859375,0.03570809665945956,-0.02611266483406602,-0.04662456873764089,2.7747840881347656,2019-06-21 13:05:57:609
-7.488349700927734,-7.913313995361328,-0.32680352783203126,0.03530862249594768,-0.025979506779562057,-0.04649141068313693,2.7799038887023926,2019-06-21 13:05:57:614
-7.513488433837891,-7.9192994079589845,-0.3507451782226562,0.036107570822971446,-0.025580032616050172,-0.04622509457412901,2.7850239276885986,2019-06-21 13:05:57:620
-7.488349700927734,-7.910919830322266,-0.31722686767578123,0.035441780550451635,-0.02611266483406602,-0.04622509457412901,2.7898879051208496,2019-06-21 13:05:57:624
-7.47518179321289,-7.909722747802734,-0.3136356201171875,0.03517546444144371,-0.02624582288856998,-0.04542614624710524,2.7950079441070557,2019-06-21 13:05:57:630
-7.490743865966797,-7.907328582763672,-0.29687646484374997,0.03584125471396352,-0.024115294016506587,-0.04582562041061712,2.7998719215393066,2019-06-21 13:05:57:634
-7.496729278564453,-7.932467315673828,-0.31722686767578123,0.03597441276846748,-0.023050029580474894,-0.04702404290115278,2.8049919605255127,2019-06-21 13:05:57:639
-7.47518179321289,-7.898949005126953,-0.3327889404296875,0.03584125471396352,-0.024381610125514517,-0.047423517064664675,2.8098559379577637,2019-06-21 13:05:57:644
-7.476378875732422,-7.878598602294922,-0.36630725097656247,0.03597441276846748,-0.023316345689482817,-0.04808930733718448,2.8149759769439697,2019-06-21 13:05:57:649
-7.478773040771484,-7.892963592529297,-0.282511474609375,0.03717283525900315,-0.023715819852994702,-0.04848878150069637,2.8198399543762207,2019-06-21 13:05:57:654
-7.489546783447265,-7.913313995361328,-0.3124385375976562,0.03597441276846748,-0.024115294016506587,-0.04928772982772014,2.8249599933624268,2019-06-21 13:05:57:659
-7.487152618408203,-7.908525665283203,-0.330394775390625,0.03504230638693975,-0.023848977907498663,-0.04928772982772014,2.8298239707946777,2019-06-21 13:05:57:664
-7.46560513305664,-7.909722747802734,-0.330394775390625,0.035441780550451635,-0.022916871525970932,-0.049820362045735984,2.834944009780884,2019-06-21 13:05:57:669
-7.487152618408203,-7.896554840087891,-0.339971435546875,0.03570809665945956,-0.022916871525970932,-0.049021413718712215,2.8398079872131348,2019-06-21 13:05:57:674
-7.458422637939453,-7.908525665283203,-0.38546057128906247,0.035441780550451635,-0.02358266179849074,-0.04968720399123202,2.844928026199341,2019-06-21 13:05:57:679
-7.479970123291015,-7.922890655517578,-0.36511016845703126,0.03517546444144371,-0.023982135962002625,-0.04928772982772014,2.849792003631592,2019-06-21 13:05:57:684
-7.48356137084961,-7.8905694274902345,-0.330394775390625,0.03624072887747541,-0.02531371650704225,-0.04968720399123202,2.854912042617798,2019-06-21 13:05:57:689
-7.478773040771484,-7.888175262451171,-0.3244093627929687,0.03597441276846748,-0.02451476818001848,-0.050219836209247866,2.860032081604004,2019-06-21 13:05:57:695
-7.48356137084961,-7.869021942138672,-0.330394775390625,0.03677336109549126,-0.024781084289026402,-0.04968720399123202,2.864896059036255,2019-06-21 13:05:57:699
-7.47518179321289,-7.918102325439453,-0.3244093627929687,0.0366402030409873,-0.024381610125514517,-0.04968720399123202,2.870016098022461,2019-06-21 13:05:57:705
-7.467999298095703,-7.9192994079589845,-0.33638018798828123,0.03570809665945956,-0.023715819852994702,-0.051018784536271636,2.874880075454712,2019-06-21 13:05:57:709
-7.485955535888672,-7.897751922607422,-0.30884729003906247,0.03490914833243579,-0.024248452071010555,-0.05088562648176768,2.880000114440918,2019-06-21 13:05:57:714
-7.460816802978515,-7.903737335205078,-0.3244093627929687,0.03570809665945956,-0.025047400398034325,-0.051018784536271636,2.884864091873169,2019-06-21 13:05:57:719
-7.453634307861328,-7.936058563232422,-0.32800061035156247,0.034642832223427865,-0.026911613161089788,-0.04995352010023994,2.889983892440796,2019-06-21 13:05:57:724
-7.491940948486328,-7.931270233154296,-0.3244093627929687,0.033843883896404095,-0.025979506779562057,-0.050619310372759754,2.894848108291626,2019-06-21 13:05:57:729
-7.482364288330078,-7.927678985595703,-0.33877435302734377,0.03371072584190014,-0.02611266483406602,-0.0511519425907756,2.899967908859253,2019-06-21 13:05:57:734
-7.440466400146485,-7.922890655517578,-0.3507451782226562,0.03517546444144371,-0.026512138997577903,-0.049820362045735984,2.904831886291504,2019-06-21 13:05:57:739
-7.435678070068359,-7.906131500244141,-0.344759765625,0.03624072887747541,-0.025713190670554133,-0.05075246842726371,2.90995192527771,2019-06-21 13:05:57:744
-7.4668022155761715,-7.8905694274902345,-0.32680352783203126,0.03450967416892391,-0.024781084289026402,-0.05075246842726371,2.914815902709961,2019-06-21 13:05:57:749
-7.45483139038086,-7.912116912841797,-0.2896939697265625,0.03357756778739617,-0.026512138997577903,-0.049021413718712215,2.919935941696167,2019-06-21 13:05:57:754
-7.4524372253417965,-7.931270233154296,-0.3232122802734375,0.03424335805991598,-0.025713190670554133,-0.049021413718712215,2.924799919128418,2019-06-21 13:05:57:759
-7.476378875732422,-7.927678985595703,-0.31962103271484377,0.034642832223427865,-0.02624582288856998,-0.04995352010023994,2.929919958114624,2019-06-21 13:05:57:764
-7.46560513305664,-7.924087738037109,-0.320818115234375,0.03530862249594768,-0.024781084289026402,-0.051018784536271636,2.93503999710083,2019-06-21 13:05:57:770
-7.470393463134766,-7.9192994079589845,-0.359124755859375,0.03517546444144371,-0.02611266483406602,-0.05008667815474391,2.939903974533081,2019-06-21 13:05:57:774
-7.447648895263672,-7.914511077880859,-0.29089105224609374,0.03450967416892391,-0.025713190670554133,-0.050219836209247866,2.945024013519287,2019-06-21 13:05:57:780
-7.457225555419922,-7.902540252685546,-0.32919769287109374,0.0355749386049556,-0.025846348725058095,-0.05008667815474391,2.949887990951538,2019-06-21 13:05:57:784
-7.482364288330078,-7.909722747802734,-0.30765020751953126,0.0355749386049556,-0.02611266483406602,-0.05035299426375183,2.955008029937744,2019-06-21 13:05:57:790
-7.4811672058105465,-7.9049344177246095,-0.35553350830078123,0.03411020000541202,-0.027710561488113558,-0.05075246842726371,2.959872007369995,2019-06-21 13:05:57:794
-7.467999298095703,-7.896554840087891,-0.3244093627929687,0.03490914833243579,-0.027444245379105635,-0.050219836209247866,2.964992046356201,2019-06-21 13:05:57:799
-7.469196380615235,-7.910919830322266,-0.31483270263671875,0.03530862249594768,-0.027843719542617527,-0.049820362045735984,2.969856023788452,2019-06-21 13:05:57:804
-7.484758453369141,-7.902540252685546,-0.3184239501953125,0.03490914833243579,-0.027577403433609596,-0.05168457480879145,2.974976062774658,2019-06-21 13:05:57:809
-7.463210968017578,-7.9049344177246095,-0.34116851806640625,0.033843883896404095,-0.02717792927009771,-0.05155141675428749,2.979840040206909,2019-06-21 13:05:57:814
-7.490743865966797,-7.897751922607422,-0.29687646484374997,0.03424335805991598,-0.027444245379105635,-0.05075246842726371,2.9849600791931152,2019-06-21 13:05:57:819
-7.48356137084961,-7.9192994079589845,-0.311241455078125,0.033044935569380325,-0.027444245379105635,-0.051018784536271636,2.989824056625366,2019-06-21 13:05:57:824
-7.472787628173828,-7.936058563232422,-0.31722686767578123,0.03317809362388429,-0.025580032616050172,-0.05168457480879145,2.9949440956115723,2019-06-21 13:05:57:829
-7.472787628173828,-7.9336643981933594,-0.3315918579101562,0.03317809362388429,-0.025580032616050172,-0.05274983924482314,2.9998080730438232,2019-06-21 13:05:57:834
-7.501517608642578,-7.913313995361328,-0.311241455078125,0.03411020000541202,-0.02544687456154621,-0.05274983924482314,3.0049281120300293,2019-06-21 13:05:57:839
-7.477575958251953,-7.903737335205078,-0.3232122802734375,0.03317809362388429,-0.025846348725058095,-0.05248352313581522,3.0097920894622803,2019-06-21 13:05:57:844
-7.488349700927734,-7.895357757568359,-0.30884729003906247,0.03397704195090806,-0.027311087324601673,-0.05274983924482314,3.0149118900299072,2019-06-21 13:05:57:849
-7.505108856201172,-7.910919830322266,-0.32800061035156247,0.0327786194603724,-0.026778455106585827,-0.052084048972303336,3.0200319290161133,2019-06-21 13:05:57:855
-7.484758453369141,-7.900146087646484,-0.306453125,0.0327786194603724,-0.02717792927009771,-0.05314931340833503,3.0248959064483643,2019-06-21 13:05:57:859
-7.479970123291015,-7.880992767333984,-0.2944822998046875,0.03291177751487637,-0.02624582288856998,-0.053681945626350876,3.0300159454345703,2019-06-21 13:05:57:865
-7.493138031005859,-7.884584014892578,-0.33877435302734377,0.03237914529686051,-0.025846348725058095,-0.05421457784436672,3.0348799228668213,2019-06-21 13:05:57:869
-7.497926361083985,-7.888175262451171,-0.3435626831054687,0.03251230335136447,-0.02611266483406602,-0.05661142282543804,3.0399999618530273,2019-06-21 13:05:57:874
-7.545809661865234,-7.865430694580078,-0.3639130859375,0.03411020000541202,-0.026645297052081865,-0.05767668726146973,3.0448639392852783,2019-06-21 13:05:57:879
-7.525459259033203,-7.894160675048828,-0.3136356201171875,0.03371072584190014,-0.026645297052081865,-0.057543529206965774,3.0499839782714844,2019-06-21 13:05:57:884
-7.537430084228515,-7.884584014892578,-0.3519422607421875,0.033044935569380325,-0.026512138997577903,-0.059141425861013314,3.0548479557037354,2019-06-21 13:05:57:889
-7.529050506591797,-7.891766510009766,-0.34116851806640625,0.03490914833243579,-0.02637898094307394,-0.061405112787580665,3.0599679946899414,2019-06-21 13:05:57:894
-7.545809661865234,-7.920496490478516,-0.31722686767578123,0.03424335805991598,-0.027444245379105635,-0.06113879667857274,3.0648319721221924,2019-06-21 13:05:57:899
-7.506305938720703,-7.908525665283203,-0.3256064453125,0.03411020000541202,-0.027311087324601673,-0.062070903060100484,3.0699520111083984,2019-06-21 13:05:57:904
-7.499123443603516,-7.900146087646484,-0.3639130859375,0.033843883896404095,-0.026645297052081865,-0.06273669333262029,3.0748159885406494,2019-06-21 13:05:57:909
-7.499123443603516,-7.9049344177246095,-0.33518310546874996,0.03424335805991598,-0.027444245379105635,-0.06260353527811632,3.0799360275268555,2019-06-21 13:05:57:914
-7.520670928955078,-7.872613189697265,-0.33638018798828123,0.033843883896404095,-0.026778455106585827,-0.06473406415017971,3.0848000049591064,2019-06-21 13:05:57:919
-7.491940948486328,-7.8905694274902345,-0.3052560424804687,0.03411020000541202,-0.02637898094307394,-0.06460090609567576,3.0899200439453125,2019-06-21 13:05:57:924
-7.448845977783203,-7.921693572998047,-0.3136356201171875,0.03317809362388429,-0.025580032616050172,-0.06500038025918764,3.0947840213775635,2019-06-21 13:05:57:929
-7.4524372253417965,-7.891766510009766,-0.36630725097656247,0.03331125167838825,-0.02717792927009771,-0.06606564469521933,3.0999040603637695,2019-06-21 13:05:57:934
-7.444057647705078,-7.910919830322266,-0.31722686767578123,0.03291177751487637,-0.026778455106585827,-0.06646511885873121,3.1050240993499756,2019-06-21 13:05:57:940
-7.448845977783203,-7.946832305908203,-0.27772314453125,0.03291177751487637,-0.02611266483406602,-0.06673143496773914,3.1098880767822266,2019-06-21 13:05:57:944
-7.457225555419922,-7.921693572998047,-0.30286187744140625,0.03291177751487637,-0.02637898094307394,-0.06699775107674706,3.1150078773498535,2019-06-21 13:05:57:950
-7.420115997314453,-7.916905242919921,-0.34835101318359374,0.03251230335136447,-0.026645297052081865,-0.06713090913125103,3.1198720932006836,2019-06-21 13:05:57:954
-7.447648895263672,-7.930073150634765,-0.35433642578125,0.03357756778739617,-0.02358266179849074,-0.06713090913125103,3.1249918937683105,2019-06-21 13:05:57:959
-7.478773040771484,-7.910919830322266,-0.3507451782226562,0.03371072584190014,-0.023848977907498663,-0.06659827691323518,3.1298561096191406,2019-06-21 13:05:57:964
-7.462013885498047,-7.960000213623046,-0.34595684814453126,0.033444409732892214,-0.02451476818001848,-0.06739722524025896,3.1349759101867676,2019-06-21 13:05:57:969
-7.457225555419922,-7.9492264709472655,-0.3375772705078125,0.03371072584190014,-0.023982135962002625,-0.06819617356728272,3.1398398876190186,2019-06-21 13:05:57:974
-7.441663482666016,-7.948029388427734,-0.3519422607421875,0.03251230335136447,-0.023848977907498663,-0.06699775107674706,3.1449599266052246,2019-06-21 13:05:57:979
-7.428495574951172,-7.921693572998047,-0.38306640625,0.033843883896404095,-0.024914242343530364,-0.06686459302224311,3.1498239040374756,2019-06-21 13:05:57:984
-7.430889739990234,-7.907328582763672,-0.3710955810546875,0.03371072584190014,-0.02531371650704225,-0.06526669636819557,3.1549439430236816,2019-06-21 13:05:57:989
-7.4225101623535155,-7.942043975830078,-0.35433642578125,0.033444409732892214,-0.02624582288856998,-0.06486722220468367,3.1598079204559326,2019-06-21 13:05:57:994
-7.384203521728516,-7.961197296142578,-0.306453125,0.03437651611441994,-0.02704477121559375,-0.06526669636819557,3.1649279594421387,2019-06-21 13:05:57:999
-7.399765594482422,-7.958803131103515,-0.3435626831054687,0.03477599027793183,-0.027577403433609596,-0.0651335383136916,3.1697919368743896,2019-06-21 13:05:58:004
-7.400962677001953,-7.943241058349609,-0.344759765625,0.03517546444144371,-0.02704477121559375,-0.06300300944162822,3.1749119758605957,2019-06-21 13:05:58:009
-7.396174346923828,-7.994715606689453,-0.339971435546875,0.03424335805991598,-0.028642667869641297,-0.06273669333262029,3.1800320148468018,2019-06-21 13:05:58:015
-7.371035614013672,-8.016263092041015,-0.3136356201171875,0.033444409732892214,-0.02797687759712149,-0.06286985138712425,3.1848959922790527,2019-06-21 13:05:58:019
-7.3650502014160155,-7.999503936767578,-0.3375772705078125,0.03357756778739617,-0.027710561488113558,-0.06113879667857274,3.190016031265259,2019-06-21 13:05:58:025
-7.3506852111816405,-8.00189810180664,-0.31722686767578123,0.03371072584190014,-0.028775825924145258,-0.05887510975200539,3.1948800086975098,2019-06-21 13:05:58:029
-7.344699798583984,-7.995912689208984,-0.33518310546874996,0.033044935569380325,-0.02890898397864922,-0.057543529206965774,3.200000047683716,2019-06-21 13:05:58:034
-7.347093963623046,-8.009080596923829,-0.306453125,0.03357756778739617,-0.027843719542617527,-0.05567931644391031,3.204864025115967,2019-06-21 13:05:58:039
-7.319561065673828,-8.034219329833984,-0.3040589599609375,0.03331125167838825,-0.028642667869641297,-0.05354878757184691,3.209984064102173,2019-06-21 13:05:58:044
-7.30280191040039,-8.033022247314452,-0.301664794921875,0.03251230335136447,-0.02797687759712149,-0.05181773286329541,3.214848041534424,2019-06-21 13:05:58:049
-7.308787322998047,-8.013868927001953,-0.33877435302734377,0.03224598724235655,-0.027710561488113558,-0.04875509760970429,3.21996808052063,2019-06-21 13:05:58:054
-7.319561065673828,-8.012671844482421,-0.330394775390625,0.03251230335136447,-0.02717792927009771,-0.04702404290115278,3.224832057952881,2019-06-21 13:05:58:059
-7.326743560791016,-8.04020474243164,-0.36032183837890625,0.03331125167838825,-0.026512138997577903,-0.044494039865577505,3.229952096939087,2019-06-21 13:05:58:064
-7.324349395751953,-8.031825164794922,-0.30286187744140625,0.03490914833243579,-0.02704477121559375,-0.04183087877549827,3.234816074371338,2019-06-21 13:05:58:069
-7.289634002685546,-8.031825164794922,-0.29687646484374997,0.03437651611441994,-0.027311087324601673,-0.03903455963091507,3.239936113357544,2019-06-21 13:05:58:074
-7.313575653076172,-8.044993072509765,-0.34595684814453126,0.03371072584190014,-0.02717792927009771,-0.0371703468678596,3.244800090789795,2019-06-21 13:05:58:079
-7.315969818115234,-8.042598907470703,-0.344759765625,0.033444409732892214,-0.02704477121559375,-0.03464034383228433,3.249919891357422,2019-06-21 13:05:58:084
-7.307590240478516,-8.028233917236328,-0.3315918579101562,0.0327786194603724,-0.026778455106585827,-0.031710866633197166,3.255039930343628,2019-06-21 13:05:58:090
-7.299210662841797,-8.02105142211914,-0.30765020751953126,0.03331125167838825,-0.024781084289026402,-0.029180863597621887,3.259903907775879,2019-06-21 13:05:58:094
-7.298013580322266,-8.010277679443359,-0.3124385375976562,0.03437651611441994,-0.026645297052081865,-0.026384544453038686,3.265023946762085,2019-06-21 13:05:58:100
-7.315969818115234,-8.041401824951171,-0.349548095703125,0.03477599027793183,-0.025580032616050172,-0.02438717363547926,3.269887924194336,2019-06-21 13:05:58:104
-7.307590240478516,-8.024642669677734,-0.33638018798828123,0.034642832223427865,-0.024115294016506587,-0.021857170599903983,3.275007963180542,2019-06-21 13:05:58:110
-7.318363983154296,-8.013868927001953,-0.34715393066406247,0.03584125471396352,-0.02544687456154621,-0.01906085145532078,3.279871940612793,2019-06-21 13:05:58:114
-7.353079376220703,-8.013868927001953,-0.31483270263671875,0.035441780550451635,-0.02531371650704225,-0.016664006474249468,3.284991979598999,2019-06-21 13:05:58:119
-7.348291046142578,-8.018657257080077,-0.29567938232421875,0.03450967416892391,-0.025180558452538287,-0.014134003438674192,3.28985595703125,2019-06-21 13:05:58:124
-7.342305633544922,-7.986336029052734,-0.306453125,0.0355749386049556,-0.022384239307955085,-0.0120034745666108,3.294975996017456,2019-06-21 13:05:58:129
-7.347093963623046,-8.022248504638672,-0.31722686767578123,0.036507044986483335,-0.02278371347146697,-0.010405577912563257,3.299839973449707,2019-06-21 13:05:58:134
-7.359064788818359,-7.979153533935547,-0.349548095703125,0.03770546747701899,-0.022384239307955085,-0.009340313476531562,3.304960012435913,2019-06-21 13:05:58:139
-7.353079376220703,-7.995912689208984,-0.33877435302734377,0.038104941640530875,-0.021585290980931315,-0.008275049040499867,3.309823989868164,2019-06-21 13:05:58:144
-7.3363202209472655,-7.981547698974609,-0.37348974609374996,0.03917020607656257,-0.020919500708411504,-0.006277678222940439,3.31494402885437,2019-06-21 13:05:58:149
-7.338714385986328,-7.9923214416503905,-0.3567305908203125,0.03903704802205861,-0.021718449035435277,-0.0038808332418691243,3.319808006286621,2019-06-21 13:05:58:154
-7.342305633544922,-7.993518524169922,-0.311241455078125,0.03903704802205861,-0.02185160708993924,-0.0018834624243096957,3.324928045272827,2019-06-21 13:05:58:159
-7.399765594482422,-7.982744781494141,-0.2932852172851562,0.03903704802205861,-0.021185816817419427,-0.0008181979882780005,3.329792022705078,2019-06-21 13:05:58:164
-7.387794769287109,-7.971971038818359,-0.36511016845703126,0.03850441580404276,-0.02065318459940358,-0.0006850399337740385,3.334912061691284,2019-06-21 13:05:58:169
-7.404553924560546,-7.969576873779297,-0.32800061035156247,0.03983599634908238,-0.02052002654489962,0.001711805047297276,3.3400321006774902,2019-06-21 13:05:58:175
-7.434480987548828,-7.930073150634765,-0.30765020751953126,0.03943652218557049,-0.01972107821787585,0.0021112792108091616,3.344896078109741,2019-06-21 13:05:58:179
-7.439269317626953,-7.907328582763672,-0.2872998046875,0.03863757385854672,-0.019454762108867922,0.002777069483328971,3.350015878677368,2019-06-21 13:05:58:185
-7.435678070068359,-7.918102325439453,-0.3327889404296875,0.03863757385854672,-0.01918844599986,0.003043385592336895,3.3548800945281982,2019-06-21 13:05:58:189
-7.456028472900391,-7.894160675048828,-0.3698984985351562,0.039969154403586345,-0.021052658762915465,0.004374966137376514,3.359999895095825,2019-06-21 13:05:58:194
-7.484758453369141,-7.902540252685546,-0.35792767333984377,0.039969154403586345,-0.020253710435891695,0.0038423339193606664,3.3648641109466553,2019-06-21 13:05:58:199
-7.537430084228515,-7.897751922607422,-0.301664794921875,0.04036862856709823,-0.019987394326883772,0.003176543646840857,3.3699839115142822,2019-06-21 13:05:58:204
-7.520670928955078,-7.866627777099609,-0.33518310546874996,0.04050178662160219,-0.020386868490395657,0.0019781211563051995,3.374847888946533,2019-06-21 13:05:58:209
-7.521868011474609,-7.849868621826172,-0.29089105224609374,0.04010231245809031,-0.020120552381387734,0.0010460147747774662,3.3799679279327393,2019-06-21 13:05:58:214
-7.55179507446289,-7.853459869384765,-0.31602978515625,0.040634944676106156,-0.01932160405436396,0.0010460147747774662,3.3848319053649902,2019-06-21 13:05:58:219
-7.557780487060547,-7.8750073547363275,-0.3375772705078125,0.04050178662160219,-0.018655813781844152,0.00024706644775369485,3.3899519443511963,2019-06-21 13:05:58:224
-7.550597991943359,-7.870219024658203,-0.38546057128906247,0.039569680240074456,-0.019454762108867922,-0.0026824107513334673,3.3948159217834473,2019-06-21 13:05:58:229
-7.576933807373047,-7.8307153015136715,-0.3627160034179687,0.03983599634908238,-0.019454762108867922,-0.0034813590783572385,3.3999359607696533,2019-06-21 13:05:58:234
-7.608057952880859,-7.848671539306641,-0.2896939697265625,0.04023547051259427,-0.01985423627237981,-0.004413465459884972,3.4047999382019043,2019-06-21 13:05:58:239
-7.602072540283203,-7.83909487915039,-0.30884729003906247,0.04023547051259427,-0.01838949767283623,-0.005611887950420629,3.4099199771881104,2019-06-21 13:05:58:244
-7.5984812927246095,-7.879795684814453,-0.37229266357421875,0.03930336413106653,-0.018655813781844152,-0.008008732931491944,3.4147839546203613,2019-06-21 13:05:58:249
-7.617634613037109,-7.865430694580078,-0.28370855712890625,0.03850441580404276,-0.018256339618332267,-0.01133768429409099,3.4199039936065674,2019-06-21 13:05:58:254
-7.620028778076172,-7.827124053955078,-0.30046771240234377,0.04036862856709823,-0.018123181563828306,-0.012536106784626648,3.4250240325927734,2019-06-21 13:05:58:260
-7.629605438232422,-7.825926971435547,-0.3124385375976562,0.038903889967554645,-0.01972107821787585,-0.015066109820201925,3.4298880100250244,2019-06-21 13:05:58:264
-7.606860870361328,-7.813956146240234,-0.34116851806640625,0.03943652218557049,-0.019454762108867922,-0.017995587019289088,3.4350080490112305,2019-06-21 13:05:58:270
-7.5984812927246095,-7.823532806396484,-0.2861027221679687,0.03863757385854672,-0.019587920163371884,-0.019327167564328708,3.4398720264434814,2019-06-21 13:05:58:274
-7.622422943115234,-7.825926971435547,-0.306453125,0.03850441580404276,-0.019454762108867922,-0.02159085449089606,3.4449920654296875,2019-06-21 13:05:58:279
-7.634393768310547,-7.813956146240234,-0.29567938232421875,0.038770731913050686,-0.01852265572734019,-0.02438717363547926,3.4498560428619385,2019-06-21 13:05:58:284
-7.610452117919921,-7.806773651123047,-0.2896939697265625,0.0383712577495388,-0.018788971836348114,-0.026118228344030762,3.4549760818481445,2019-06-21 13:05:58:289
-7.648758758544922,-7.824729888916015,-0.32800061035156247,0.0383712577495388,-0.018788971836348114,-0.028115599161590194,3.4598400592803955,2019-06-21 13:05:58:294
-7.640379180908203,-7.8307153015136715,-0.349548095703125,0.03823809969503484,-0.01785686545482038,-0.030512444142661504,3.4649600982666016,2019-06-21 13:05:58:299
-7.636787933349609,-7.809167816162109,-0.35433642578125,0.03703967720449918,-0.019587920163371884,-0.03237665690571697,3.4698240756988525,2019-06-21 13:05:58:304
-7.616437530517578,-7.821138641357422,-0.368701416015625,0.03743915136801107,-0.019454762108867922,-0.034507185777780364,3.4749441146850586,2019-06-21 13:05:58:309
-7.621225860595703,-7.823532806396484,-0.3040589599609375,0.03770546747701899,-0.021185816817419427,-0.036770872704347715,3.4798080921173096,2019-06-21 13:05:58:314
-7.610452117919921,-7.811561981201172,-0.2861027221679687,0.037971783586026917,-0.022117923198947162,-0.04036614017595468,3.4849278926849365,2019-06-21 13:05:58:319
-7.611649200439453,-7.825926971435547,-0.3184239501953125,0.03677336109549126,-0.0219847651444432,-0.042762985157026,3.4897921085357666,2019-06-21 13:05:58:324
-7.618831695556641,-7.81874447631836,-0.2872998046875,0.036507044986483335,-0.02265055541696301,-0.04422772375656958,3.4949119091033936,2019-06-21 13:05:58:329
-7.615240447998047,-7.81874447631836,-0.32800061035156247,0.03637388693197938,-0.024248452071010555,-0.045159830138097316,3.5000319480895996,2019-06-21 13:05:58:335
-7.593692962646484,-7.845080291748046,-0.3232122802734375,0.036107570822971446,-0.022517397362459047,-0.04702404290115278,3.5048959255218506,2019-06-21 13:05:58:339
-7.55179507446289,-7.869021942138672,-0.3435626831054687,0.03584125471396352,-0.02265055541696301,-0.04968720399123202,3.5100159645080566,2019-06-21 13:05:58:345
-7.557780487060547,-7.836700714111328,-0.330394775390625,0.0366402030409873,-0.023183187634978855,-0.05168457480879145,3.5148799419403076,2019-06-21 13:05:58:349
-7.570948394775391,-7.840291961669922,-0.3244093627929687,0.03690651914999522,-0.023715819852994702,-0.05314931340833503,3.5199999809265137,2019-06-21 13:05:58:354
-7.56137173461914,-7.848671539306641,-0.29807354736328123,0.03624072887747541,-0.025180558452538287,-0.05408141978986276,3.5248639583587646,2019-06-21 13:05:58:359
-7.56137173461914,-7.836700714111328,-0.29567938232421875,0.0355749386049556,-0.02531371650704225,-0.05461405200787862,3.5299839973449707,2019-06-21 13:05:58:364
-7.5697513122558595,-7.854656951904297,-0.2753289794921875,0.03517546444144371,-0.024115294016506587,-0.05527984228039842,3.5348479747772217,2019-06-21 13:05:58:369
-7.5685542297363275,-7.853459869384765,-0.31962103271484377,0.03477599027793183,-0.024115294016506587,-0.05727721309795785,3.5399680137634277,2019-06-21 13:05:58:374
-7.572145477294922,-7.864233612060547,-0.34835101318359374,0.034642832223427865,-0.024914242343530364,-0.058209319479485586,3.5448319911956787,2019-06-21 13:05:58:379
-7.5553863220214845,-7.840291961669922,-0.349548095703125,0.03504230638693975,-0.024781084289026402,-0.059141425861013314,3.5499520301818848,2019-06-21 13:05:58:384
-7.550597991943359,-7.864233612060547,-0.3327889404296875,0.03437651611441994,-0.024381610125514517,-0.060606164460556895,3.5548160076141357,2019-06-21 13:05:58:389
-7.5541892395019525,-7.870219024658203,-0.3639130859375,0.03477599027793183,-0.02451476818001848,-0.06153827084208462,3.559936046600342,2019-06-21 13:05:58:394
-7.5553863220214845,-7.877401519775391,-0.33638018798828123,0.03490914833243579,-0.024781084289026402,-0.062470377223612365,3.5648000240325928,2019-06-21 13:05:58:399
-7.529050506591797,-7.857051116943359,-0.35433642578125,0.03490914833243579,-0.024781084289026402,-0.06366879971414802,3.569920063018799,2019-06-21 13:05:58:404
-7.562568817138672,-7.873810272216796,-0.33877435302734377,0.03331125167838825,-0.026645297052081865,-0.06420143193216386,3.57478404045105,2019-06-21 13:05:58:409
-7.5697513122558595,-7.836700714111328,-0.29567938232421875,0.03411020000541202,-0.025580032616050172,-0.06566617053170745,3.579904079437256,2019-06-21 13:05:58:414
-7.550597991943359,-7.849868621826172,-0.28849688720703126,0.03371072584190014,-0.025713190670554133,-0.06686459302224311,3.585023880004883,2019-06-21 13:05:58:420
-7.572145477294922,-7.869021942138672,-0.3136356201171875,0.03371072584190014,-0.025846348725058095,-0.06819617356728272,3.589888095855713,2019-06-21 13:05:58:424
-7.545809661865234,-7.857051116943359,-0.330394775390625,0.033843883896404095,-0.02624582288856998,-0.06939459605781839,3.59500789642334,2019-06-21 13:05:58:430
-7.552992156982421,-7.8762044372558595,-0.32201519775390625,0.03411020000541202,-0.02704477121559375,-0.07059301854835404,3.59987211227417,2019-06-21 13:05:58:434
-7.558977569580078,-7.855854034423828,-0.2705406494140625,0.03291177751487637,-0.026778455106585827,-0.07325617963843328,3.604991912841797,2019-06-21 13:05:58:439
-7.5685542297363275,-7.848671539306641,-0.30884729003906247,0.03251230335136447,-0.026512138997577903,-0.07432144407446498,3.609855890274048,2019-06-21 13:05:58:444
-7.5697513122558595,-7.869021942138672,-0.32800061035156247,0.0317133550243407,-0.02704477121559375,-0.07405512796545705,3.614975929260254,2019-06-21 13:05:58:449
-7.53264175415039,-7.8618394470214845,-0.2992706298828125,0.03251230335136447,-0.027577403433609596,-0.07551986656500062,3.619839906692505,2019-06-21 13:05:58:454
-7.543415496826172,-7.877401519775391,-0.3124385375976562,0.03184651307884467,-0.027843719542617527,-0.07565302461950459,3.624959945678711,2019-06-21 13:05:58:459
