ACCELEROMETER X (m/s²),ACCELEROMETER Y (m/s²),ACCELEROMETER Z (m/s²),GYROSCOPE X (rad/s),GYROSCOPE Y (rad/s),GYROSCOPE Z (rad/s),Time since start in ms ,YYYY-MO-DD HH-MI-SS_SSS
-7.2626996459960935,-7.794204284667969,0.3633145446777344,0.039704739958044306,-0.030240782986122008,-0.010129307198683862,0.0,2019-06-20 15:03:37:230
-7.26868505859375,-7.797795532226562,0.32740206909179687,0.03917210774002846,-0.030240782986122008,-0.009862991089675938,0.005119800567626953,2019-06-20 15:03:37:235
-7.265093811035156,-7.801386779785156,0.3716941223144531,0.039038949685524495,-0.03050709909512993,-0.009729833035171977,0.010239839553833008,2019-06-20 15:03:37:240
-7.271079223632812,-7.796598449707031,0.39204452514648436,0.038905791631020537,-0.03143920547665766,-0.010129307198683862,0.015103816986083984,2019-06-20 15:03:37:245
-7.284247131347656,-7.782233459472656,0.3525408020019531,0.039038949685524495,-0.030773415204137854,-0.010262465253187823,0.02022385597229004,2019-06-20 15:03:37:250
-7.26868505859375,-7.826525512695312,0.3525408020019531,0.038240001358500725,-0.03037394104062597,-0.009463516926164052,0.025087833404541016,2019-06-20 15:03:37:255
-7.290232543945312,-7.80497802734375,0.3453583068847656,0.037840527194988836,-0.029042360495586353,-0.009596674980668015,0.03020787239074707,2019-06-20 15:03:37:260
-7.2914296264648435,-7.803780944824219,0.34894955444335934,0.03930526579453242,-0.02970815076810616,-0.01066193941669971,0.03507184982299805,2019-06-20 15:03:37:265
-7.295020874023438,-7.781036376953125,0.3645116271972656,0.039704739958044306,-0.029441834659098238,-0.0099961491441799,0.0401918888092041,2019-06-20 15:03:37:270
-7.290232543945312,-7.782233459472656,0.32859915161132813,0.03930526579453242,-0.029841308822610123,-0.009862991089675938,0.04505586624145508,2019-06-20 15:03:37:275
-7.281852966308594,-7.777445129394531,0.32979623413085934,0.039704739958044306,-0.03037394104062597,-0.010528781362195748,0.05017590522766113,2019-06-20 15:03:37:280
-7.279458801269531,-7.794204284667969,0.34894955444335934,0.03917210774002846,-0.03050709909512993,-0.010262465253187823,0.05503988265991211,2019-06-20 15:03:37:285
-7.274670471191406,-7.803780944824219,0.3525408020019531,0.03930526579453242,-0.03050709909512993,-0.01132772968921952,0.060159921646118164,2019-06-20 15:03:37:290
-7.289035461425781,-7.810963439941406,0.3381758117675781,0.04010421412155619,-0.02890920244108239,-0.010262465253187823,0.06502389907836914,2019-06-20 15:03:37:295
-7.295020874023438,-7.790613037109375,0.3393728942871094,0.03877263357651657,-0.029175518550090315,-0.0099961491441799,0.0701439380645752,2019-06-20 15:03:37:300
-7.275867553710937,-7.794204284667969,0.3621174621582031,0.037840527194988836,-0.029175518550090315,-0.00933035887166009,0.07500791549682617,2019-06-20 15:03:37:305
-7.290232543945312,-7.782233459472656,0.32979623413085934,0.03810684330399676,-0.029841308822610123,-0.010528781362195748,0.08012795448303223,2019-06-20 15:03:37:310
-7.2914296264648435,-7.796598449707031,0.3645116271972656,0.039704739958044306,-0.029308676604594276,-0.0099961491441799,0.0849919319152832,2019-06-20 15:03:37:315
-7.292626708984375,-7.809766357421875,0.35373788452148436,0.039038949685524495,-0.029441834659098238,-0.010262465253187823,0.09011197090148926,2019-06-20 15:03:37:320
-7.292626708984375,-7.7882188720703125,0.3321903991699219,0.038905791631020537,-0.030773415204137854,-0.010928255525707633,0.09523177146911621,2019-06-20 15:03:37:325
-7.298612121582031,-7.797795532226562,0.3250079040527344,0.039704739958044306,-0.029974466877114084,-0.009862991089675938,0.10009598731994629,2019-06-20 15:03:37:330
-7.274670471191406,-7.810963439941406,0.35373788452148436,0.03957158190354034,-0.029441834659098238,-0.009862991089675938,0.10521578788757324,2019-06-20 15:03:37:335
-7.290232543945312,-7.809766357421875,0.3764824523925781,0.03917210774002846,-0.029042360495586353,-0.01132772968921952,0.11008000373840332,2019-06-20 15:03:37:340
-7.28783837890625,-7.80497802734375,0.2807158508300781,0.03930526579453242,-0.029308676604594276,-0.01066193941669971,0.11519980430603027,2019-06-20 15:03:37:345
-7.254320068359375,-7.798992614746093,0.28909542846679687,0.03943842384903638,-0.030107624931618046,-0.010928255525707633,0.12006378173828125,2019-06-20 15:03:37:350
-7.267487976074219,-7.800189697265624,0.3190224914550781,0.03930526579453242,-0.030640257149633893,-0.011061413580211595,0.1251838207244873,2019-06-20 15:03:37:355
-7.26868505859375,-7.808569274902344,0.36092037963867185,0.03957158190354034,-0.029841308822610123,-0.010795097471203672,0.13004779815673828,2019-06-20 15:03:37:360
-7.280655883789063,-7.791810119628906,0.3573291320800781,0.03877263357651657,-0.028642886332074468,-0.010395623307691787,0.13516783714294434,2019-06-20 15:03:37:365
-7.284247131347656,-7.800189697265624,0.3238108215332031,0.038905791631020537,-0.028642886332074468,-0.009729833035171977,0.1400318145751953,2019-06-20 15:03:37:370
-7.281852966308594,-7.809766357421875,0.3525408020019531,0.04010421412155619,-0.028376570223066545,-0.010395623307691787,0.14515185356140137,2019-06-20 15:03:37:375
-7.284247131347656,-7.809766357421875,0.39683285522460937,0.04023737217606015,-0.02890920244108239,-0.009862991089675938,0.15001583099365234,2019-06-20 15:03:37:380
-7.281852966308594,-7.807372192382812,0.3501466369628906,0.04023737217606015,-0.029308676604594276,-0.010528781362195748,0.1551358699798584,2019-06-20 15:03:37:385
-7.2339696655273436,-7.808569274902344,0.3716941223144531,0.03997105606705223,-0.028376570223066545,-0.010528781362195748,0.16025590896606445,2019-06-20 15:03:37:390
-7.2626996459960935,-7.812160522460937,0.35972329711914064,0.039704739958044306,-0.027311305787034845,-0.010262465253187823,0.16511988639831543,2019-06-20 15:03:37:395
-7.254320068359375,-7.797795532226562,0.34894955444335934,0.03997105606705223,-0.029308676604594276,-0.010528781362195748,0.17023992538452148,2019-06-20 15:03:37:400
-7.263896728515625,-7.803780944824219,0.3429641418457031,0.039704739958044306,-0.02890920244108239,-0.010129307198683862,0.17510390281677246,2019-06-20 15:03:37:405
-7.257911315917968,-7.800189697265624,0.31543124389648436,0.039704739958044306,-0.0295749927136022,-0.010528781362195748,0.18022394180297852,2019-06-20 15:03:37:410
-7.295020874023438,-7.807372192382812,0.2950808410644531,0.04010421412155619,-0.029308676604594276,-0.010528781362195748,0.1850879192352295,2019-06-20 15:03:37:415
-7.2770646362304685,-7.814554687499999,0.35852621459960937,0.039704739958044306,-0.028509728277570506,-0.009862991089675938,0.19020795822143555,2019-06-20 15:03:37:420
-7.265093811035156,-7.791810119628906,0.36690579223632813,0.039837898012548265,-0.028509728277570506,-0.010129307198683862,0.19507193565368652,2019-06-20 15:03:37:425
-7.26868505859375,-7.775050964355469,0.3944386901855469,0.040503688285068076,-0.02970815076810616,-0.009463516926164052,0.20019197463989258,2019-06-20 15:03:37:430
-7.271079223632812,-7.755897644042968,0.34176705932617185,0.039837898012548265,-0.0295749927136022,-0.009729833035171977,0.20505595207214355,2019-06-20 15:03:37:435
-7.273473388671875,-7.794204284667969,0.34894955444335934,0.038905791631020537,-0.02890920244108239,-0.010528781362195748,0.2101759910583496,2019-06-20 15:03:37:440
-7.269882141113281,-7.809766357421875,0.34176705932617185,0.03943842384903638,-0.0295749927136022,-0.010262465253187823,0.21503996849060059,2019-06-20 15:03:37:445
-7.256714233398437,-7.819343017578125,0.32141665649414064,0.04010421412155619,-0.028642886332074468,-0.01066193941669971,0.22015976905822754,2019-06-20 15:03:37:450
-7.260305480957031,-7.818145935058594,0.35852621459960937,0.038905791631020537,-0.028243412168562583,-0.009596674980668015,0.22502398490905762,2019-06-20 15:03:37:455
-7.279458801269531,-7.828919677734375,0.3621174621582031,0.038240001358500725,-0.029308676604594276,-0.010528781362195748,0.23014378547668457,2019-06-20 15:03:37:460
-7.26868505859375,-7.830116760253906,0.3453583068847656,0.04037053023056411,-0.029441834659098238,-0.010262465253187823,0.23500800132751465,2019-06-20 15:03:37:465
-7.295020874023438,-7.8025838623046875,0.3309933166503906,0.040503688285068076,-0.031039731313145778,-0.009862991089675938,0.2401278018951416,2019-06-20 15:03:37:470
-7.269882141113281,-7.801386779785156,0.3381758117675781,0.039704739958044306,-0.03037394104062597,-0.009862991089675938,0.24499177932739258,2019-06-20 15:03:37:475
-7.26868505859375,-7.7954013671875,0.3453583068847656,0.03957158190354034,-0.029841308822610123,-0.00933035887166009,0.25011181831359863,2019-06-20 15:03:37:480
-7.2591083984375,-7.798992614746093,0.3309933166503906,0.03917210774002846,-0.029841308822610123,-0.008531410544636318,0.2552318572998047,2019-06-20 15:03:37:485
-7.26868505859375,-7.818145935058594,0.3333874816894531,0.03877263357651657,-0.029841308822610123,-0.008664568599140282,0.26009583473205566,2019-06-20 15:03:37:490
-7.2626996459960935,-7.7954013671875,0.3010662536621094,0.03810684330399676,-0.029308676604594276,-0.009064042762652167,0.2652158737182617,2019-06-20 15:03:37:495
-7.284247131347656,-7.803780944824219,0.3357816467285156,0.03810684330399676,-0.02890920244108239,-0.008930884708148205,0.2700798511505127,2019-06-20 15:03:37:500
-7.275867553710937,-7.7954013671875,0.36810287475585934,0.039038949685524495,-0.02797709605955466,-0.00933035887166009,0.27519989013671875,2019-06-20 15:03:37:505
-7.271079223632812,-7.825328430175781,0.36690579223632813,0.03837315941300468,-0.02890920244108239,-0.009862991089675938,0.2800638675689697,2019-06-20 15:03:37:510
-7.2770646362304685,-7.807372192382812,0.3573291320800781,0.03917210774002846,-0.029042360495586353,-0.009729833035171977,0.2851839065551758,2019-06-20 15:03:37:515
-7.24953173828125,-7.793007202148437,0.3573291320800781,0.03917210774002846,-0.029308676604594276,-0.008930884708148205,0.29004788398742676,2019-06-20 15:03:37:520
-7.284247131347656,-7.810963439941406,0.3621174621582031,0.03877263357651657,-0.030107624931618046,-0.00933035887166009,0.2951679229736328,2019-06-20 15:03:37:525
-7.292626708984375,-7.810963439941406,0.36570870971679686,0.03917210774002846,-0.029974466877114084,-0.009064042762652167,0.3000319004058838,2019-06-20 15:03:37:530
-7.2770646362304685,-7.8313138427734375,0.35373788452148436,0.03917210774002846,-0.029308676604594276,-0.00786562027211651,0.30515193939208984,2019-06-20 15:03:37:535
-7.261502563476562,-7.7954013671875,0.33458456420898436,0.03957158190354034,-0.030773415204137854,-0.007998778326620472,0.3100159168243408,2019-06-20 15:03:37:540
-7.271079223632812,-7.808569274902344,0.36092037963867185,0.039038949685524495,-0.031306047422153704,-0.008531410544636318,0.3151359558105469,2019-06-20 15:03:37:545
-7.26868505859375,-7.810963439941406,0.3932416076660156,0.038240001358500725,-0.03117288936764974,-0.008531410544636318,0.31999993324279785,2019-06-20 15:03:37:550
-7.269882141113281,-7.812160522460937,0.3752853698730469,0.039038949685524495,-0.030107624931618046,-0.008531410544636318,0.3251199722290039,2019-06-20 15:03:37:555
-7.267487976074219,-7.797795532226562,0.3573291320800781,0.03930526579453242,-0.029974466877114084,-0.008265094435628395,0.33023977279663086,2019-06-20 15:03:37:560
-7.28783837890625,-7.809766357421875,0.34056997680664064,0.039038949685524495,-0.030640257149633893,-0.00786562027211651,0.33510398864746094,2019-06-20 15:03:37:565
-7.255517150878906,-7.778642211914062,0.3381758117675781,0.037840527194988836,-0.030906573258641816,-0.008930884708148205,0.3402237892150879,2019-06-20 15:03:37:570
-7.274670471191406,-7.801386779785156,0.3333874816894531,0.03917210774002846,-0.030240782986122008,-0.008398252490132357,0.34508800506591797,2019-06-20 15:03:37:575
-7.298612121582031,-7.80497802734375,0.30824874877929687,0.03877263357651657,-0.029308676604594276,-0.0070666719450927385,0.3502078056335449,2019-06-20 15:03:37:580
-7.272276306152343,-7.800189697265624,0.3501466369628906,0.03917210774002846,-0.028642886332074468,-0.007599304163108585,0.3550717830657959,2019-06-20 15:03:37:585
-7.272276306152343,-7.7882188720703125,0.3393728942871094,0.03957158190354034,-0.028642886332074468,-0.006800355836084815,0.36019182205200195,2019-06-20 15:03:37:590
-7.2914296264648435,-7.818145935058594,0.3142341613769531,0.039038949685524495,-0.02877604438657843,-0.006667197781580852,0.36505579948425293,2019-06-20 15:03:37:595
-7.267487976074219,-7.827722595214843,0.3357816467285156,0.04010421412155619,-0.029175518550090315,-0.0064008816725729285,0.370175838470459,2019-06-20 15:03:37:600
-7.289035461425781,-7.830116760253906,0.3166283264160156,0.039704739958044306,-0.029308676604594276,-0.006933513890588777,0.37503981590270996,2019-06-20 15:03:37:605
-7.273473388671875,-7.797795532226562,0.3070516662597656,0.039038949685524495,-0.02811025411405862,-0.0064008816725729285,0.380159854888916,2019-06-20 15:03:37:610
-7.261502563476562,-7.7954013671875,0.3381758117675781,0.03863947552201261,-0.0295749927136022,-0.006800355836084815,0.385023832321167,2019-06-20 15:03:37:615
-7.254320068359375,-7.801386779785156,0.30944583129882813,0.03850631746750865,-0.0295749927136022,-0.00653403972707689,0.39014387130737305,2019-06-20 15:03:37:620
-7.221998840332031,-7.82413134765625,0.31543124389648436,0.039704739958044306,-0.02784393800505069,-0.0064008816725729285,0.395007848739624,2019-06-20 15:03:37:625
-7.251925903320313,-7.820540100097656,0.3190224914550781,0.039837898012548265,-0.029042360495586353,-0.0064008816725729285,0.4001278877258301,2019-06-20 15:03:37:630
-7.273473388671875,-7.815751770019531,0.36810287475585934,0.03943842384903638,-0.029308676604594276,-0.005468775291045195,0.40499186515808105,2019-06-20 15:03:37:635
-7.290232543945312,-7.8025838623046875,0.32859915161132813,0.039038949685524495,-0.029175518550090315,-0.004936143073029348,0.4101119041442871,2019-06-20 15:03:37:640
-7.279458801269531,-7.812160522460937,0.3740882873535156,0.03997105606705223,-0.030240782986122008,-0.006001407509061044,0.41523194313049316,2019-06-20 15:03:37:645
-7.267487976074219,-7.810963439941406,0.3633145446777344,0.03943842384903638,-0.030773415204137854,-0.005335617236541234,0.42009592056274414,2019-06-20 15:03:37:650
-7.241152160644531,-7.814554687499999,0.3429641418457031,0.03930526579453242,-0.03037394104062597,-0.005601933345549157,0.4252159595489502,2019-06-20 15:03:37:655
-7.274670471191406,-7.813357604980468,0.3381758117675781,0.039704739958044306,-0.029308676604594276,-0.005868249454557082,0.43007993698120117,2019-06-20 15:03:37:660
-7.251925903320313,-7.787021789550781,0.3513437194824219,0.039038949685524495,-0.0295749927136022,-0.004936143073029348,0.4351999759674072,2019-06-20 15:03:37:665
-7.269882141113281,-7.830116760253906,0.3525408020019531,0.03837315941300468,-0.0295749927136022,-0.004936143073029348,0.4400639533996582,2019-06-20 15:03:37:670
-7.2591083984375,-7.839693420410156,0.34775247192382813,0.038905791631020537,-0.030240782986122008,-0.006001407509061044,0.44518399238586426,2019-06-20 15:03:37:675
-7.2483346557617185,-7.822934265136719,0.3166283264160156,0.03863947552201261,-0.0295749927136022,-0.004936143073029348,0.45004796981811523,2019-06-20 15:03:37:680
-7.269882141113281,-7.803780944824219,0.3561320495605469,0.03850631746750865,-0.0295749927136022,-0.004536668909517462,0.4551677703857422,2019-06-20 15:03:37:685
-7.272276306152343,-7.821737182617188,0.3429641418457031,0.03850631746750865,-0.029308676604594276,-0.004669826964021424,0.46003198623657227,2019-06-20 15:03:37:690
-7.290232543945312,-7.810963439941406,0.35373788452148436,0.037840527194988836,-0.02890920244108239,-0.004802985018525386,0.4651517868041992,2019-06-20 15:03:37:695
-7.283050048828125,-7.801386779785156,0.35373788452148436,0.03770736914048488,-0.029841308822610123,-0.004270352800509538,0.4700160026550293,2019-06-20 15:03:37:700
-7.285444213867187,-7.82413134765625,0.3238108215332031,0.0379736852494928,-0.03170552158566559,-0.0040040366915016145,0.47513580322265625,2019-06-20 15:03:37:705
-7.274670471191406,-7.809766357421875,0.32979623413085934,0.03810684330399676,-0.031039731313145778,-0.0040040366915016145,0.4799997806549072,2019-06-20 15:03:37:710
-7.267487976074219,-7.803780944824219,0.3309933166503906,0.03863947552201261,-0.030906573258641816,-0.0037377205824936904,0.4851198196411133,2019-06-20 15:03:37:715
-7.26868505859375,-7.812160522460937,0.32859915161132813,0.03863947552201261,-0.030640257149633893,-0.004137194746005576,0.49023985862731934,2019-06-20 15:03:37:720
-7.2974150390625,-7.796598449707031,0.34176705932617185,0.039038949685524495,-0.029441834659098238,-0.004137194746005576,0.4951038360595703,2019-06-20 15:03:37:725
-7.283050048828125,-7.828919677734375,0.34655538940429687,0.039704739958044306,-0.030906573258641816,-0.0036045625279897287,0.5002238750457764,2019-06-20 15:03:37:730
-7.2770646362304685,-7.8025838623046875,0.3932416076660156,0.03917210774002846,-0.02970815076810616,-0.0038708786369976524,0.5050878524780273,2019-06-20 15:03:37:735
-7.27826171875,-7.781036376953125,0.3561320495605469,0.03957158190354034,-0.028642886332074468,-0.003205088364477843,0.5102078914642334,2019-06-20 15:03:37:740
-7.250728820800781,-7.791810119628906,0.3525408020019531,0.03917210774002846,-0.0295749927136022,-0.002938772255469919,0.5150718688964844,2019-06-20 15:03:37:745
-7.265093811035156,-7.803780944824219,0.3692999572753906,0.03877263357651657,-0.031039731313145778,-0.0038708786369976524,0.5201919078826904,2019-06-20 15:03:37:750
-7.28783837890625,-7.778642211914062,0.3633145446777344,0.038905791631020537,-0.030906573258641816,-0.0034714044734857666,0.5250558853149414,2019-06-20 15:03:37:755
-7.295020874023438,-7.8025838623046875,0.34655538940429687,0.039038949685524495,-0.028243412168562583,-0.0038708786369976524,0.5301759243011475,2019-06-20 15:03:37:760
-7.317765441894531,-7.791810119628906,0.3513437194824219,0.03917210774002846,-0.02877604438657843,-0.003205088364477843,0.5350399017333984,2019-06-20 15:03:37:765
-7.301006286621093,-7.798992614746093,0.36570870971679686,0.03837315941300468,-0.029308676604594276,-0.0038708786369976524,0.5401599407196045,2019-06-20 15:03:37:770
-7.292626708984375,-7.784627624511718,0.3357816467285156,0.03877263357651657,-0.02811025411405862,-0.0036045625279897287,0.5450239181518555,2019-06-20 15:03:37:775
-7.286641296386718,-7.7882188720703125,0.35972329711914064,0.03957158190354034,-0.02797709605955466,-0.0038708786369976524,0.5501439571380615,2019-06-20 15:03:37:780
-7.267487976074219,-7.791810119628906,0.34775247192382813,0.039704739958044306,-0.029308676604594276,-0.0038708786369976524,0.5550079345703125,2019-06-20 15:03:37:785
-7.293823791503906,-7.813357604980468,0.3549349670410156,0.03957158190354034,-0.029974466877114084,-0.004270352800509538,0.5601279735565186,2019-06-20 15:03:37:790
-7.301006286621093,-7.820540100097656,0.3178254089355469,0.04010421412155619,-0.0295749927136022,-0.003205088364477843,0.5652477741241455,2019-06-20 15:03:37:795
-7.289035461425781,-7.807372192382812,0.3250079040527344,0.04023737217606015,-0.029441834659098238,-0.0037377205824936904,0.5701119899749756,2019-06-20 15:03:37:800
-7.298612121582031,-7.784627624511718,0.3142341613769531,0.03943842384903638,-0.02970815076810616,-0.0037377205824936904,0.5752317905426025,2019-06-20 15:03:37:805
-7.273473388671875,-7.776248046875,0.30824874877929687,0.03837315941300468,-0.02811025411405862,-0.004137194746005576,0.5800960063934326,2019-06-20 15:03:37:810
-7.285444213867187,-7.812160522460937,0.32979623413085934,0.03863947552201261,-0.028509728277570506,-0.0033382464189818046,0.5852158069610596,2019-06-20 15:03:37:815
-7.289035461425781,-7.778642211914062,0.35972329711914064,0.03877263357651657,-0.028376570223066545,-0.0038708786369976524,0.5900797843933105,2019-06-20 15:03:37:820
-7.304597534179687,-7.8025838623046875,0.36092037963867185,0.039038949685524495,-0.028509728277570506,-0.0044035108550135,0.5951998233795166,2019-06-20 15:03:37:825
-7.309385864257813,-7.810963439941406,0.3441612243652344,0.039837898012548265,-0.029841308822610123,-0.004802985018525386,0.6000638008117676,2019-06-20 15:03:37:830
-7.285444213867187,-7.800189697265624,0.35373788452148436,0.03877263357651657,-0.029841308822610123,-0.004669826964021424,0.6051838397979736,2019-06-20 15:03:37:835
-7.263896728515625,-7.808569274902344,0.3369787292480469,0.03930526579453242,-0.029841308822610123,-0.004669826964021424,0.6100478172302246,2019-06-20 15:03:37:840
-7.280655883789063,-7.815751770019531,0.3309933166503906,0.039038949685524495,-0.029308676604594276,-0.004802985018525386,0.6151678562164307,2019-06-20 15:03:37:845
-7.299809204101562,-7.7882188720703125,0.30346041870117185,0.039837898012548265,-0.02890920244108239,-0.004936143073029348,0.6200318336486816,2019-06-20 15:03:37:850
-7.314174194335937,-7.778642211914062,0.31543124389648436,0.03957158190354034,-0.029841308822610123,-0.004536668909517462,0.6251518726348877,2019-06-20 15:03:37:855
-7.296217956542969,-7.800189697265624,0.34176705932617185,0.03877263357651657,-0.029841308822610123,-0.0057350914000531186,0.6300158500671387,2019-06-20 15:03:37:860
-7.298612121582031,-7.794204284667969,0.3238108215332031,0.03917210774002846,-0.030107624931618046,-0.005335617236541234,0.6351358890533447,2019-06-20 15:03:37:865
-7.279458801269531,-7.790613037109375,0.3633145446777344,0.039038949685524495,-0.029841308822610123,-0.004936143073029348,0.6399998664855957,2019-06-20 15:03:37:870
-7.271079223632812,-7.782233459472656,0.3573291320800781,0.038905791631020537,-0.029441834659098238,-0.005601933345549157,0.6451199054718018,2019-06-20 15:03:37:875
-7.265093811035156,-7.782233459472656,0.3561320495605469,0.038905791631020537,-0.031039731313145778,-0.006134565563565005,0.6502399444580078,2019-06-20 15:03:37:880
-7.269882141113281,-7.807372192382812,0.3178254089355469,0.03850631746750865,-0.03143920547665766,-0.007599304163108585,0.6551039218902588,2019-06-20 15:03:37:885
-7.286641296386718,-7.797795532226562,0.32979623413085934,0.03917210774002846,-0.03117288936764974,-0.00786562027211651,0.6602239608764648,2019-06-20 15:03:37:890
-7.289035461425781,-7.801386779785156,0.41718325805664064,0.03917210774002846,-0.03050709909512993,-0.00653403972707689,0.6650879383087158,2019-06-20 15:03:37:895
-7.274670471191406,-7.809766357421875,0.36810287475585934,0.03930526579453242,-0.031039731313145778,-0.006267723618068967,0.6702079772949219,2019-06-20 15:03:37:900
-7.263896728515625,-7.812160522460937,0.3333874816894531,0.03943842384903638,-0.03170552158566559,-0.00653403972707689,0.6750719547271729,2019-06-20 15:03:37:905
-7.266290893554688,-7.8169488525390625,0.3513437194824219,0.03850631746750865,-0.030906573258641816,-0.006267723618068967,0.6801919937133789,2019-06-20 15:03:37:910
-7.26868505859375,-7.793007202148437,0.3549349670410156,0.03930526579453242,-0.03143920547665766,-0.005868249454557082,0.6850559711456299,2019-06-20 15:03:37:915
-7.280655883789063,-7.793007202148437,0.3238108215332031,0.03957158190354034,-0.031039731313145778,-0.006267723618068967,0.6901757717132568,2019-06-20 15:03:37:920
-7.281852966308594,-7.798992614746093,0.3118399963378906,0.038905791631020537,-0.031039731313145778,-0.007332988054100662,0.6950399875640869,2019-06-20 15:03:37:925
-7.286641296386718,-7.806175109863281,0.32979623413085934,0.03957158190354034,-0.030640257149633893,-0.00653403972707689,0.7001597881317139,2019-06-20 15:03:37:930
-7.304597534179687,-7.803780944824219,0.3453583068847656,0.03930526579453242,-0.029841308822610123,-0.006267723618068967,0.705024003982544,2019-06-20 15:03:37:935
-7.273473388671875,-7.803780944824219,0.31543124389648436,0.039038949685524495,-0.029175518550090315,-0.006134565563565005,0.7101438045501709,2019-06-20 15:03:37:940
-7.2591083984375,-7.808569274902344,0.3046575012207031,0.04023737217606015,-0.0295749927136022,-0.005868249454557082,0.7150077819824219,2019-06-20 15:03:37:945
-7.283050048828125,-7.814554687499999,0.3309933166503906,0.03943842384903638,-0.030107624931618046,-0.0064008816725729285,0.7201278209686279,2019-06-20 15:03:37:950
-7.267487976074219,-7.777445129394531,0.3166283264160156,0.03997105606705223,-0.029175518550090315,-0.00653403972707689,0.7249917984008789,2019-06-20 15:03:37:955
-7.303400451660156,-7.782233459472656,0.34056997680664064,0.04023737217606015,-0.029042360495586353,-0.006933513890588777,0.730111837387085,2019-06-20 15:03:37:960
-7.292626708984375,-7.808569274902344,0.3321903991699219,0.038905791631020537,-0.030240782986122008,-0.006800355836084815,0.735231876373291,2019-06-20 15:03:37:965
-7.273473388671875,-7.789415954589844,0.3453583068847656,0.03930526579453242,-0.02970815076810616,-0.006933513890588777,0.740095853805542,2019-06-20 15:03:37:970
-7.254320068359375,-7.791810119628906,0.3429641418457031,0.03943842384903638,-0.02877604438657843,-0.006800355836084815,0.745215892791748,2019-06-20 15:03:37:975
-7.272276306152343,-7.800189697265624,0.3357816467285156,0.03930526579453242,-0.029308676604594276,-0.00653403972707689,0.750079870223999,2019-06-20 15:03:37:980
-7.267487976074219,-7.794204284667969,0.35972329711914064,0.03930526579453242,-0.029974466877114084,-0.005601933345549157,0.7551999092102051,2019-06-20 15:03:37:985
-7.256714233398437,-7.789415954589844,0.3441612243652344,0.03917210774002846,-0.029308676604594276,-0.006667197781580852,0.760063886642456,2019-06-20 15:03:37:990
-7.272276306152343,-7.787021789550781,0.3692999572753906,0.038905791631020537,-0.030640257149633893,-0.006267723618068967,0.7651839256286621,2019-06-20 15:03:37:995
-7.303400451660156,-7.76667138671875,0.34655538940429687,0.03863947552201261,-0.030773415204137854,-0.00653403972707689,0.7700479030609131,2019-06-20 15:03:38:000
-7.272276306152343,-7.830116760253906,0.3130370788574219,0.03837315941300468,-0.03037394104062597,-0.0074661461086046235,0.7751679420471191,2019-06-20 15:03:38:005
-7.290232543945312,-7.80497802734375,0.3944386901855469,0.03877263357651657,-0.02877604438657843,-0.0071998299995967,0.7800319194793701,2019-06-20 15:03:38:010
-7.286641296386718,-7.782233459472656,0.35852621459960937,0.04103632050308392,-0.028243412168562583,-0.00786562027211651,0.7851519584655762,2019-06-20 15:03:38:015
-7.26868505859375,-7.790613037109375,0.3333874816894531,0.03997105606705223,-0.029441834659098238,-0.007332988054100662,0.7900159358978271,2019-06-20 15:03:38:020
-7.274670471191406,-7.808569274902344,0.32979623413085934,0.03877263357651657,-0.029841308822610123,-0.007332988054100662,0.7951359748840332,2019-06-20 15:03:38:025
-7.27826171875,-7.7954013671875,0.3573291320800781,0.03850631746750865,-0.030107624931618046,-0.0074661461086046235,0.7999999523162842,2019-06-20 15:03:38:030
-7.289035461425781,-7.787021789550781,0.36690579223632813,0.039704739958044306,-0.0295749927136022,-0.009064042762652167,0.8051199913024902,2019-06-20 15:03:38:035
-7.254320068359375,-7.784627624511718,0.34655538940429687,0.03997105606705223,-0.029974466877114084,-0.010129307198683862,0.8102397918701172,2019-06-20 15:03:38:040
-7.311780029296875,-7.790613037109375,0.3501466369628906,0.039038949685524495,-0.029841308822610123,-0.009463516926164052,0.8151037693023682,2019-06-20 15:03:38:045
-7.295020874023438,-7.815751770019531,0.34894955444335934,0.039038949685524495,-0.030240782986122008,-0.008398252490132357,0.8202238082885742,2019-06-20 15:03:38:050
-7.295020874023438,-7.819343017578125,0.34056997680664064,0.03957158190354034,-0.030107624931618046,-0.008664568599140282,0.8250877857208252,2019-06-20 15:03:38:055
-7.274670471191406,-7.797795532226562,0.32141665649414064,0.03930526579453242,-0.02970815076810616,-0.008930884708148205,0.8302078247070312,2019-06-20 15:03:38:060
-7.275867553710937,-7.791810119628906,0.3621174621582031,0.03863947552201261,-0.030640257149633893,-0.009463516926164052,0.8350718021392822,2019-06-20 15:03:38:065
-7.261502563476562,-7.7738538818359375,0.3429641418457031,0.03917210774002846,-0.03117288936764974,-0.00933035887166009,0.8401918411254883,2019-06-20 15:03:38:070
-7.296217956542969,-7.793007202148437,0.3501466369628906,0.038240001358500725,-0.031039731313145778,-0.00933035887166009,0.8450558185577393,2019-06-20 15:03:38:075
-7.302203369140625,-7.789415954589844,0.34056997680664064,0.03810684330399676,-0.03157236353116163,-0.009463516926164052,0.8501758575439453,2019-06-20 15:03:38:080
-7.269882141113281,-7.806175109863281,0.3752853698730469,0.039038949685524495,-0.030640257149633893,-0.009463516926164052,0.8550398349761963,2019-06-20 15:03:38:085
-7.274670471191406,-7.789415954589844,0.37767953491210937,0.039038949685524495,-0.0295749927136022,-0.008664568599140282,0.8601598739624023,2019-06-20 15:03:38:090
-7.273473388671875,-7.814554687499999,0.33458456420898436,0.03863947552201261,-0.029308676604594276,-0.008797726653644243,0.8650238513946533,2019-06-20 15:03:38:095
-7.280655883789063,-7.809766357421875,0.3046575012207031,0.03810684330399676,-0.030640257149633893,-0.0099961491441799,0.8701438903808594,2019-06-20 15:03:38:100
-7.302203369140625,-7.822934265136719,0.33458456420898436,0.03917210774002846,-0.03157236353116163,-0.010528781362195748,0.8750078678131104,2019-06-20 15:03:38:105
-7.2770646362304685,-7.809766357421875,0.3369787292480469,0.03917210774002846,-0.030906573258641816,-0.01066193941669971,0.8801279067993164,2019-06-20 15:03:38:110
-7.257911315917968,-7.821737182617188,0.3525408020019531,0.03943842384903638,-0.029175518550090315,-0.009862991089675938,0.8849918842315674,2019-06-20 15:03:38:115
-7.275867553710937,-7.826525512695312,0.3333874816894531,0.03943842384903638,-0.03050709909512993,-0.010262465253187823,0.8901119232177734,2019-06-20 15:03:38:120
-7.27826171875,-7.809766357421875,0.3549349670410156,0.03943842384903638,-0.030640257149633893,-0.010395623307691787,0.8952319622039795,2019-06-20 15:03:38:125
-7.299809204101562,-7.807372192382812,0.3357816467285156,0.03930526579453242,-0.029841308822610123,-0.01066193941669971,0.9000959396362305,2019-06-20 15:03:38:130
-7.280655883789063,-7.815751770019531,0.3501466369628906,0.038905791631020537,-0.029175518550090315,-0.00933035887166009,0.9052159786224365,2019-06-20 15:03:38:135
-7.271079223632812,-7.807372192382812,0.3357816467285156,0.03930526579453242,-0.030240782986122008,-0.010129307198683862,0.9100799560546875,2019-06-20 15:03:38:140
-7.28783837890625,-7.796598449707031,0.36690579223632813,0.039038949685524495,-0.030640257149633893,-0.010262465253187823,0.9151999950408936,2019-06-20 15:03:38:145
-7.275867553710937,-7.801386779785156,0.3573291320800781,0.03837315941300468,-0.029175518550090315,-0.009729833035171977,0.9200639724731445,2019-06-20 15:03:38:150
-7.292626708984375,-7.818145935058594,0.2998691711425781,0.039704739958044306,-0.029175518550090315,-0.010528781362195748,0.9251837730407715,2019-06-20 15:03:38:155
-7.28783837890625,-7.801386779785156,0.3333874816894531,0.040503688285068076,-0.029175518550090315,-0.010795097471203672,0.9300479888916016,2019-06-20 15:03:38:160
-7.295020874023438,-7.807372192382812,0.30944583129882813,0.039837898012548265,-0.029308676604594276,-0.011061413580211595,0.9351677894592285,2019-06-20 15:03:38:165
-7.273473388671875,-7.8025838623046875,0.3381758117675781,0.039837898012548265,-0.02970815076810616,-0.010129307198683862,0.9400320053100586,2019-06-20 15:03:38:170
-7.296217956542969,-7.806175109863281,0.34176705932617185,0.03997105606705223,-0.029841308822610123,-0.01066193941669971,0.9451518058776855,2019-06-20 15:03:38:175
-7.298612121582031,-7.782233459472656,0.35373788452148436,0.03917210774002846,-0.03050709909512993,-0.010262465253187823,0.9500157833099365,2019-06-20 15:03:38:180
-7.2974150390625,-7.794204284667969,0.3633145446777344,0.039704739958044306,-0.03117288936764974,-0.010129307198683862,0.9551358222961426,2019-06-20 15:03:38:185
-7.279458801269531,-7.790613037109375,0.3501466369628906,0.039704739958044306,-0.029841308822610123,-0.010928255525707633,0.9599997997283936,2019-06-20 15:03:38:190
-7.283050048828125,-7.808569274902344,0.3932416076660156,0.039038949685524495,-0.029308676604594276,-0.011194571634715558,0.9651198387145996,2019-06-20 15:03:38:195
-7.2770646362304685,-7.801386779785156,0.3884532775878906,0.038240001358500725,-0.028376570223066545,-0.012259836070747251,0.9702398777008057,2019-06-20 15:03:38:200
-7.286641296386718,-7.800189697265624,0.3645116271972656,0.039038949685524495,-0.029441834659098238,-0.012392994125251213,0.9751038551330566,2019-06-20 15:03:38:205
-7.284247131347656,-7.821737182617188,0.3513437194824219,0.03917210774002846,-0.029175518550090315,-0.012392994125251213,0.9802238941192627,2019-06-20 15:03:38:210
-7.272276306152343,-7.80497802734375,0.3333874816894531,0.03863947552201261,-0.029308676604594276,-0.011594045798227443,0.9850878715515137,2019-06-20 15:03:38:215
-7.263896728515625,-7.790613037109375,0.34775247192382813,0.03917210774002846,-0.02970815076810616,-0.01265931023425914,0.9902079105377197,2019-06-20 15:03:38:220
-7.250728820800781,-7.80497802734375,0.3453583068847656,0.03930526579453242,-0.030640257149633893,-0.01265931023425914,0.9950718879699707,2019-06-20 15:03:38:225
-7.284247131347656,-7.797795532226562,0.30944583129882813,0.039837898012548265,-0.029441834659098238,-0.012925626343267063,1.0001919269561768,2019-06-20 15:03:38:230
-7.2626996459960935,-7.8025838623046875,0.32141665649414064,0.04010421412155619,-0.028376570223066545,-0.012526152179755175,1.0050559043884277,2019-06-20 15:03:38:235
-7.2770646362304685,-7.7954013671875,0.3692999572753906,0.03850631746750865,-0.028509728277570506,-0.011860361907235367,1.0101759433746338,2019-06-20 15:03:38:240
-7.269882141113281,-7.822934265136719,0.3549349670410156,0.03837315941300468,-0.02970815076810616,-0.012259836070747251,1.0150399208068848,2019-06-20 15:03:38:245
-7.280655883789063,-7.798992614746093,0.3704970397949219,0.03957158190354034,-0.030107624931618046,-0.012526152179755175,1.0201599597930908,2019-06-20 15:03:38:250
-7.279458801269531,-7.796598449707031,0.36092037963867185,0.03943842384903638,-0.030240782986122008,-0.012392994125251213,1.0250239372253418,2019-06-20 15:03:38:255
-7.243546325683593,-7.8025838623046875,0.3058545837402344,0.04010421412155619,-0.03050709909512993,-0.011860361907235367,1.0301439762115479,2019-06-20 15:03:38:260
-7.244743408203125,-7.791810119628906,0.3441612243652344,0.04010421412155619,-0.030107624931618046,-0.012259836070747251,1.0350079536437988,2019-06-20 15:03:38:265
-7.254320068359375,-7.775050964355469,0.3357816467285156,0.04037053023056411,-0.030240782986122008,-0.01132772968921952,1.0401279926300049,2019-06-20 15:03:38:270
-7.275867553710937,-7.803780944824219,0.2998691711425781,0.039704739958044306,-0.03050709909512993,-0.011061413580211595,1.0449919700622559,2019-06-20 15:03:38:275
-7.280655883789063,-7.818145935058594,0.35373788452148436,0.03943842384903638,-0.029974466877114084,-0.011460887743723482,1.0501117706298828,2019-06-20 15:03:38:280
-7.275867553710937,-7.793007202148437,0.3752853698730469,0.038905791631020537,-0.02970815076810616,-0.012792468288763102,1.0552318096160889,2019-06-20 15:03:38:285
-7.255517150878906,-7.820540100097656,0.3692999572753906,0.03930526579453242,-0.02970815076810616,-0.011860361907235367,1.0600957870483398,2019-06-20 15:03:38:290
-7.255517150878906,-7.8169488525390625,0.3561320495605469,0.03957158190354034,-0.02811025411405862,-0.012259836070747251,1.065215826034546,2019-06-20 15:03:38:295
-7.267487976074219,-7.798992614746093,0.3561320495605469,0.03917210774002846,-0.02811025411405862,-0.011727203852731405,1.0700798034667969,2019-06-20 15:03:38:300
-7.263896728515625,-7.800189697265624,0.34894955444335934,0.039704739958044306,-0.02877604438657843,-0.012259836070747251,1.075199842453003,2019-06-20 15:03:38:305
-7.27826171875,-7.814554687499999,0.3441612243652344,0.03943842384903638,-0.029042360495586353,-0.011860361907235367,1.080063819885254,2019-06-20 15:03:38:310
-7.293823791503906,-7.8025838623046875,0.34655538940429687,0.03943842384903638,-0.02797709605955466,-0.011594045798227443,1.08518385887146,2019-06-20 15:03:38:315
-7.267487976074219,-7.806175109863281,0.3441612243652344,0.03930526579453242,-0.02811025411405862,-0.012259836070747251,1.090047836303711,2019-06-20 15:03:38:320
-7.267487976074219,-7.815751770019531,0.3238108215332031,0.03917210774002846,-0.028243412168562583,-0.01132772968921952,1.095167875289917,2019-06-20 15:03:38:325
-7.267487976074219,-7.800189697265624,0.32859915161132813,0.03917210774002846,-0.027444463841538806,-0.010395623307691787,1.100031852722168,2019-06-20 15:03:38:330
-7.27826171875,-7.814554687499999,0.3070516662597656,0.03744105303147695,-0.02797709605955466,-0.011061413580211595,1.105151891708374,2019-06-20 15:03:38:335
-7.27826171875,-7.803780944824219,0.3429641418457031,0.039038949685524495,-0.028642886332074468,-0.011194571634715558,1.110015869140625,2019-06-20 15:03:38:340
-7.257911315917968,-7.822934265136719,0.32740206909179687,0.03943842384903638,-0.030107624931618046,-0.010528781362195748,1.115135908126831,2019-06-20 15:03:38:345
-7.237560913085938,-7.830116760253906,0.3740882873535156,0.039837898012548265,-0.02970815076810616,-0.011194571634715558,1.119999885559082,2019-06-20 15:03:38:350
-7.265093811035156,-7.818145935058594,0.3393728942871094,0.039704739958044306,-0.0295749927136022,-0.01066193941669971,1.125119924545288,2019-06-20 15:03:38:355
-7.269882141113281,-7.808569274902344,0.27233627319335935,0.03957158190354034,-0.0295749927136022,-0.011061413580211595,1.1302399635314941,2019-06-20 15:03:38:360
-7.263896728515625,-7.8025838623046875,0.3333874816894531,0.040503688285068076,-0.028509728277570506,-0.01066193941669971,1.1351039409637451,2019-06-20 15:03:38:365
-7.256714233398437,-7.801386779785156,0.3321903991699219,0.03957158190354034,-0.02890920244108239,-0.010795097471203672,1.1402239799499512,2019-06-20 15:03:38:370
-7.242349243164062,-7.801386779785156,0.3058545837402344,0.039038949685524495,-0.029841308822610123,-0.010528781362195748,1.1450879573822021,2019-06-20 15:03:38:375
-7.245940490722656,-7.7882188720703125,0.3357816467285156,0.03930526579453242,-0.030240782986122008,-0.01066193941669971,1.1502079963684082,2019-06-20 15:03:38:380
-7.284247131347656,-7.800189697265624,0.35972329711914064,0.03917210774002846,-0.029042360495586353,-0.0099961491441799,1.1550719738006592,2019-06-20 15:03:38:385
-7.260305480957031,-7.782233459472656,0.3501466369628906,0.03850631746750865,-0.029308676604594276,-0.009596674980668015,1.1601917743682861,2019-06-20 15:03:38:390
-7.263896728515625,-7.821737182617188,0.3381758117675781,0.03850631746750865,-0.029974466877114084,-0.0099961491441799,1.1650559902191162,2019-06-20 15:03:38:395
-7.256714233398437,-7.803780944824219,0.3357816467285156,0.039038949685524495,-0.03050709909512993,-0.009463516926164052,1.1701757907867432,2019-06-20 15:03:38:400
-7.2591083984375,-7.80497802734375,0.34176705932617185,0.038905791631020537,-0.028243412168562583,-0.009862991089675938,1.1750400066375732,2019-06-20 15:03:38:405
-7.24953173828125,-7.821737182617188,0.3202195739746094,0.03917210774002846,-0.029042360495586353,-0.0099961491441799,1.1801598072052002,2019-06-20 15:03:38:410
-7.231575500488281,-7.796598449707031,0.34775247192382813,0.03850631746750865,-0.029974466877114084,-0.009463516926164052,1.1850237846374512,2019-06-20 15:03:38:415
-7.27826171875,-7.810963439941406,0.34176705932617185,0.03850631746750865,-0.030107624931618046,-0.009596674980668015,1.1901438236236572,2019-06-20 15:03:38:420
-7.253122985839844,-7.796598449707031,0.3513437194824219,0.03863947552201261,-0.02970815076810616,-0.009596674980668015,1.1950078010559082,2019-06-20 15:03:38:425
-7.224393005371094,-7.8025838623046875,0.35972329711914064,0.038240001358500725,-0.0295749927136022,-0.009596674980668015,1.2001278400421143,2019-06-20 15:03:38:430
-7.243546325683593,-7.808569274902344,0.3309933166503906,0.038905791631020537,-0.029441834659098238,-0.00933035887166009,1.2052478790283203,2019-06-20 15:03:38:435
-7.284247131347656,-7.7954013671875,0.3393728942871094,0.03917210774002846,-0.03050709909512993,-0.008398252490132357,1.2101118564605713,2019-06-20 15:03:38:440
-7.2626996459960935,-7.821737182617188,0.34056997680664064,0.039704739958044306,-0.030906573258641816,-0.009064042762652167,1.2152318954467773,2019-06-20 15:03:38:445
-7.273473388671875,-7.826525512695312,0.3178254089355469,0.03943842384903638,-0.031039731313145778,-0.008398252490132357,1.2200958728790283,2019-06-20 15:03:38:450
-7.285444213867187,-7.828919677734375,0.34894955444335934,0.038905791631020537,-0.03117288936764974,-0.009862991089675938,1.2252159118652344,2019-06-20 15:03:38:455
-7.285444213867187,-7.828919677734375,0.3309933166503906,0.03930526579453242,-0.030240782986122008,-0.008531410544636318,1.2300798892974854,2019-06-20 15:03:38:460
-7.263896728515625,-7.806175109863281,0.32979623413085934,0.039038949685524495,-0.030240782986122008,-0.008265094435628395,1.2351999282836914,2019-06-20 15:03:38:465
-7.26868505859375,-7.807372192382812,0.30824874877929687,0.039038949685524495,-0.02970815076810616,-0.007599304163108585,1.2400639057159424,2019-06-20 15:03:38:470
-7.302203369140625,-7.818145935058594,0.3202195739746094,0.039704739958044306,-0.0295749927136022,-0.0071998299995967,1.2451839447021484,2019-06-20 15:03:38:475
-7.2770646362304685,-7.828919677734375,0.3453583068847656,0.039837898012548265,-0.029841308822610123,-0.0064008816725729285,1.2500479221343994,2019-06-20 15:03:38:480
-7.256714233398437,-7.813357604980468,0.36092037963867185,0.04037053023056411,-0.03037394104062597,-0.0071998299995967,1.2551679611206055,2019-06-20 15:03:38:485
-7.253122985839844,-7.827722595214843,0.3513437194824219,0.03930526579453242,-0.0295749927136022,-0.007332988054100662,1.2600319385528564,2019-06-20 15:03:38:490
-7.243546325683593,-7.815751770019531,0.3118399963378906,0.03877263357651657,-0.02970815076810616,-0.0071998299995967,1.2651519775390625,2019-06-20 15:03:38:495
-7.26868505859375,-7.812160522460937,0.3429641418457031,0.03930526579453242,-0.030773415204137854,-0.007998778326620472,1.2700159549713135,2019-06-20 15:03:38:500
-7.272276306152343,-7.818145935058594,0.3549349670410156,0.03943842384903638,-0.029974466877114084,-0.00933035887166009,1.2751359939575195,2019-06-20 15:03:38:505
-7.271079223632812,-7.838496337890625,0.34655538940429687,0.039704739958044306,-0.029308676604594276,-0.008930884708148205,1.2799999713897705,2019-06-20 15:03:38:510
-7.26868505859375,-7.8025838623046875,0.3190224914550781,0.03997105606705223,-0.030107624931618046,-0.008265094435628395,1.2851197719573975,2019-06-20 15:03:38:515
-7.272276306152343,-7.790613037109375,0.3202195739746094,0.04010421412155619,-0.029841308822610123,-0.0064008816725729285,1.2902398109436035,2019-06-20 15:03:38:520
-7.257911315917968,-7.8169488525390625,0.3633145446777344,0.039704739958044306,-0.029441834659098238,-0.006134565563565005,1.2951037883758545,2019-06-20 15:03:38:525
-7.255517150878906,-7.812160522460937,0.3908474426269531,0.03930526579453242,-0.0295749927136022,-0.0057350914000531186,1.3002238273620605,2019-06-20 15:03:38:530
-7.266290893554688,-7.80497802734375,0.3333874816894531,0.039038949685524495,-0.029042360495586353,-0.00653403972707689,1.3050878047943115,2019-06-20 15:03:38:535
-7.265093811035156,-7.807372192382812,0.34894955444335934,0.038905791631020537,-0.029175518550090315,-0.0064008816725729285,1.3102078437805176,2019-06-20 15:03:38:540
-7.26868505859375,-7.830116760253906,0.3321903991699219,0.03943842384903638,-0.02877604438657843,-0.005335617236541234,1.3150718212127686,2019-06-20 15:03:38:545
-7.272276306152343,-7.80497802734375,0.2986720886230469,0.03943842384903638,-0.02877604438657843,-0.005468775291045195,1.3201918601989746,2019-06-20 15:03:38:550
-7.251925903320313,-7.8169488525390625,0.3130370788574219,0.038905791631020537,-0.029441834659098238,-0.005335617236541234,1.3250558376312256,2019-06-20 15:03:38:555
-7.260305480957031,-7.798992614746093,0.3190224914550781,0.03943842384903638,-0.030640257149633893,-0.004669826964021424,1.3301758766174316,2019-06-20 15:03:38:560
-7.2626996459960935,-7.7954013671875,0.34176705932617185,0.03957158190354034,-0.031039731313145778,-0.004536668909517462,1.3350398540496826,2019-06-20 15:03:38:565
-7.272276306152343,-7.815751770019531,0.3633145446777344,0.03943842384903638,-0.029441834659098238,-0.005202459182037272,1.3401598930358887,2019-06-20 15:03:38:570
-7.269882141113281,-7.783430541992187,0.3238108215332031,0.03957158190354034,-0.0295749927136022,-0.005335617236541234,1.3450238704681396,2019-06-20 15:03:38:575
-7.255517150878906,-7.777445129394531,0.3525408020019531,0.039704739958044306,-0.02797709605955466,-0.0050693011275333094,1.3501439094543457,2019-06-20 15:03:38:580
-7.2914296264648435,-7.7954013671875,0.32740206909179687,0.039704739958044306,-0.029308676604594276,-0.0050693011275333094,1.3550078868865967,2019-06-20 15:03:38:585
-7.269882141113281,-7.820540100097656,0.34775247192382813,0.039704739958044306,-0.030906573258641816,-0.0057350914000531186,1.3601279258728027,2019-06-20 15:03:38:590
-7.275867553710937,-7.791810119628906,0.32261373901367185,0.04037053023056411,-0.03050709909512993,-0.005868249454557082,1.3649919033050537,2019-06-20 15:03:38:595
-7.279458801269531,-7.784627624511718,0.3010662536621094,0.03997105606705223,-0.03157236353116163,-0.006267723618068967,1.3701119422912598,2019-06-20 15:03:38:600
-7.269882141113281,-7.797795532226562,0.3190224914550781,0.03997105606705223,-0.0323713118581854,-0.005601933345549157,1.3752319812774658,2019-06-20 15:03:38:605
-7.279458801269531,-7.793007202148437,0.33458456420898436,0.04010421412155619,-0.03117288936764974,-0.005202459182037272,1.3800959587097168,2019-06-20 15:03:38:610
-7.290232543945312,-7.7954013671875,0.3453583068847656,0.03930526579453242,-0.031306047422153704,-0.005601933345549157,1.3852159976959229,2019-06-20 15:03:38:615
-7.2914296264648435,-7.809766357421875,0.3525408020019531,0.038905791631020537,-0.03117288936764974,-0.005335617236541234,1.3900799751281738,2019-06-20 15:03:38:620
-7.289035461425781,-7.797795532226562,0.35373788452148436,0.039038949685524495,-0.029974466877114084,-0.005468775291045195,1.3951997756958008,2019-06-20 15:03:38:625
-7.243546325683593,-7.813357604980468,0.3525408020019531,0.038905791631020537,-0.029841308822610123,-0.004669826964021424,1.4000639915466309,2019-06-20 15:03:38:630
-7.275867553710937,-7.806175109863281,0.3357816467285156,0.039038949685524495,-0.029841308822610123,-0.004936143073029348,1.4051837921142578,2019-06-20 15:03:38:635
-7.2974150390625,-7.801386779785156,0.38007369995117185,0.03930526579453242,-0.03037394104062597,-0.004802985018525386,1.4100477695465088,2019-06-20 15:03:38:640
-7.260305480957031,-7.818145935058594,0.3824678649902344,0.039704739958044306,-0.030240782986122008,-0.004802985018525386,1.4151678085327148,2019-06-20 15:03:38:645
-7.256714233398437,-7.820540100097656,0.3561320495605469,0.039837898012548265,-0.030107624931618046,-0.0038708786369976524,1.4200317859649658,2019-06-20 15:03:38:650
-7.254320068359375,-7.812160522460937,0.3393728942871094,0.03917210774002846,-0.03050709909512993,-0.004536668909517462,1.4251518249511719,2019-06-20 15:03:38:655
-7.266290893554688,-7.819343017578125,0.35373788452148436,0.038905791631020537,-0.029441834659098238,-0.004802985018525386,1.4300158023834229,2019-06-20 15:03:38:660
-7.279458801269531,-7.814554687499999,0.35373788452148436,0.039038949685524495,-0.029441834659098238,-0.004270352800509538,1.435135841369629,2019-06-20 15:03:38:665
-7.292626708984375,-7.794204284667969,0.32859915161132813,0.03837315941300468,-0.03050709909512993,-0.004137194746005576,1.4399998188018799,2019-06-20 15:03:38:670
-7.272276306152343,-7.803780944824219,0.3250079040527344,0.03943842384903638,-0.03117288936764974,-0.0044035108550135,1.445119857788086,2019-06-20 15:03:38:675
-7.257911315917968,-7.809766357421875,0.36092037963867185,0.03917210774002846,-0.03037394104062597,-0.004669826964021424,1.450239896774292,2019-06-20 15:03:38:680
-7.26868505859375,-7.828919677734375,0.3740882873535156,0.03877263357651657,-0.02970815076810616,-0.0044035108550135,1.455103874206543,2019-06-20 15:03:38:685
-7.251925903320313,-7.807372192382812,0.34056997680664064,0.039038949685524495,-0.029308676604594276,-0.0033382464189818046,1.460223913192749,2019-06-20 15:03:38:690
-7.263896728515625,-7.789415954589844,0.3453583068847656,0.03863947552201261,-0.030107624931618046,-0.002672456146461995,1.465087890625,2019-06-20 15:03:38:695
-7.273473388671875,-7.789415954589844,0.3441612243652344,0.03943842384903638,-0.029841308822610123,-0.0036045625279897287,1.470207929611206,2019-06-20 15:03:38:700
-7.253122985839844,-7.818145935058594,0.33458456420898436,0.039704739958044306,-0.029441834659098238,-0.0034714044734857666,1.475071907043457,2019-06-20 15:03:38:705
-7.273473388671875,-7.800189697265624,0.3333874816894531,0.039837898012548265,-0.0295749927136022,-0.004137194746005576,1.480191946029663,2019-06-20 15:03:38:710
-7.2770646362304685,-7.820540100097656,0.3333874816894531,0.03877263357651657,-0.029042360495586353,-0.0040040366915016145,1.485055923461914,2019-06-20 15:03:38:715
-7.250728820800781,-7.819343017578125,0.34176705932617185,0.03917210774002846,-0.02877604438657843,-0.004536668909517462,1.4901759624481201,2019-06-20 15:03:38:720
-7.295020874023438,-7.812160522460937,0.3309933166503906,0.038905791631020537,-0.029042360495586353,-0.0034714044734857666,1.495039939880371,2019-06-20 15:03:38:725
-7.269882141113281,-7.808569274902344,0.3357816467285156,0.04023737217606015,-0.02970815076810616,-0.0033382464189818046,1.5001599788665771,2019-06-20 15:03:38:730
-7.293823791503906,-7.785824707031249,0.2950808410644531,0.03957158190354034,-0.029441834659098238,-0.0033382464189818046,1.5050239562988281,2019-06-20 15:03:38:735
-7.275867553710937,-7.791810119628906,0.3309933166503906,0.039038949685524495,-0.029175518550090315,-0.004137194746005576,1.5101439952850342,2019-06-20 15:03:38:740
-7.27826171875,-7.800189697265624,0.32740206909179687,0.03863947552201261,-0.02890920244108239,-0.004270352800509538,1.5150079727172852,2019-06-20 15:03:38:745
-7.296217956542969,-7.789415954589844,0.3333874816894531,0.038240001358500725,-0.030240782986122008,-0.004669826964021424,1.520127773284912,2019-06-20 15:03:38:750
-7.299809204101562,-7.801386779785156,0.30226333618164064,0.03850631746750865,-0.030640257149633893,-0.004802985018525386,1.5249919891357422,2019-06-20 15:03:38:755
-7.301006286621093,-7.821737182617188,0.2938837585449219,0.039704739958044306,-0.03050709909512993,-0.005335617236541234,1.5301117897033691,2019-06-20 15:03:38:760
-7.27826171875,-7.794204284667969,0.32859915161132813,0.039038949685524495,-0.030107624931618046,-0.005202459182037272,1.5352318286895752,2019-06-20 15:03:38:765
-7.298612121582031,-7.797795532226562,0.34056997680664064,0.03837315941300468,-0.030240782986122008,-0.0064008816725729285,1.5400958061218262,2019-06-20 15:03:38:770
-7.271079223632812,-7.775050964355469,0.35972329711914064,0.03850631746750865,-0.03170552158566559,-0.00653403972707689,1.5452158451080322,2019-06-20 15:03:38:775
-7.296217956542969,-7.782233459472656,0.3178254089355469,0.038905791631020537,-0.031039731313145778,-0.006134565563565005,1.5500798225402832,2019-06-20 15:03:38:780
-7.301006286621093,-7.779839294433594,0.36092037963867185,0.03917210774002846,-0.030640257149633893,-0.005868249454557082,1.5551998615264893,2019-06-20 15:03:38:785
-7.301006286621093,-7.775050964355469,0.36690579223632813,0.03943842384903638,-0.031039731313145778,-0.006267723618068967,1.5600638389587402,2019-06-20 15:03:38:790
-7.290232543945312,-7.806175109863281,0.3429641418457031,0.03850631746750865,-0.030240782986122008,-0.006001407509061044,1.5651838779449463,2019-06-20 15:03:38:795
-7.289035461425781,-7.7954013671875,0.3836649475097656,0.037840527194988836,-0.032104995749177474,-0.0050693011275333094,1.5700478553771973,2019-06-20 15:03:38:800
-7.27826171875,-7.787021789550781,0.3633145446777344,0.03810684330399676,-0.030640257149633893,-0.0057350914000531186,1.5751678943634033,2019-06-20 15:03:38:805
-7.30699169921875,-7.803780944824219,0.3549349670410156,0.03837315941300468,-0.030640257149633893,-0.006800355836084815,1.5800318717956543,2019-06-20 15:03:38:810
-7.304597534179687,-7.828919677734375,0.3764824523925781,0.038905791631020537,-0.03050709909512993,-0.006001407509061044,1.5851519107818604,2019-06-20 15:03:38:815
-7.292626708984375,-7.80497802734375,0.36810287475585934,0.038905791631020537,-0.028642886332074468,-0.006667197781580852,1.5900158882141113,2019-06-20 15:03:38:820
-7.247137573242187,-7.796598449707031,0.3716941223144531,0.03770736914048488,-0.030107624931618046,-0.006667197781580852,1.5951359272003174,2019-06-20 15:03:38:825
-7.2591083984375,-7.801386779785156,0.34655538940429687,0.03850631746750865,-0.029974466877114084,-0.006134565563565005,1.5999999046325684,2019-06-20 15:03:38:830
-7.266290893554688,-7.8025838623046875,0.3381758117675781,0.038905791631020537,-0.03037394104062597,-0.0064008816725729285,1.6051199436187744,2019-06-20 15:03:38:835
-7.254320068359375,-7.800189697265624,0.3357816467285156,0.039704739958044306,-0.030240782986122008,-0.0064008816725729285,1.6102399826049805,2019-06-20 15:03:38:840
-7.275867553710937,-7.798992614746093,0.34176705932617185,0.04010421412155619,-0.030107624931618046,-0.005468775291045195,1.6151039600372314,2019-06-20 15:03:38:845
-7.261502563476562,-7.790613037109375,0.36570870971679686,0.03943842384903638,-0.029841308822610123,-0.005868249454557082,1.6202239990234375,2019-06-20 15:03:38:850
-7.24953173828125,-7.809766357421875,0.32141665649414064,0.03850631746750865,-0.030107624931618046,-0.004669826964021424,1.6250879764556885,2019-06-20 15:03:38:855
-7.263896728515625,-7.812160522460937,0.3573291320800781,0.03917210774002846,-0.029308676604594276,-0.004270352800509538,1.6302077770233154,2019-06-20 15:03:38:860
-7.2626996459960935,-7.814554687499999,0.34894955444335934,0.039038949685524495,-0.029308676604594276,-0.0050693011275333094,1.6350719928741455,2019-06-20 15:03:38:865
-7.272276306152343,-7.800189697265624,0.3357816467285156,0.040503688285068076,-0.0295749927136022,-0.005202459182037272,1.6401917934417725,2019-06-20 15:03:38:870
-7.250728820800781,-7.796598449707031,0.32141665649414064,0.040503688285068076,-0.029441834659098238,-0.004936143073029348,1.6450557708740234,2019-06-20 15:03:38:875
-7.284247131347656,-7.809766357421875,0.36810287475585934,0.04090316244857996,-0.030107624931618046,-0.004936143073029348,1.6501758098602295,2019-06-20 15:03:38:880
-7.271079223632812,-7.808569274902344,0.3573291320800781,0.03957158190354034,-0.029441834659098238,-0.0040040366915016145,1.6550397872924805,2019-06-20 15:03:38:885
-7.265093811035156,-7.808569274902344,0.34894955444335934,0.039038949685524495,-0.028509728277570506,-0.0044035108550135,1.6601598262786865,2019-06-20 15:03:38:890
-7.266290893554688,-7.793007202148437,0.34056997680664064,0.03957158190354034,-0.029308676604594276,-0.004669826964021424,1.6650238037109375,2019-06-20 15:03:38:895
-7.247137573242187,-7.7882188720703125,0.3178254089355469,0.039038949685524495,-0.028376570223066545,-0.004669826964021424,1.6701438426971436,2019-06-20 15:03:38:900
-7.2770646362304685,-7.813357604980468,0.34176705932617185,0.038905791631020537,-0.027311305787034845,-0.004802985018525386,1.6752638816833496,2019-06-20 15:03:38:905
-7.271079223632812,-7.807372192382812,0.3549349670410156,0.039837898012548265,-0.029042360495586353,-0.0040040366915016145,1.6801278591156006,2019-06-20 15:03:38:910
-7.289035461425781,-7.818145935058594,0.34655538940429687,0.039704739958044306,-0.029175518550090315,-0.0037377205824936904,1.6849918365478516,2019-06-20 15:03:38:915
-7.273473388671875,-7.787021789550781,0.33458456420898436,0.03957158190354034,-0.02811025411405862,-0.004669826964021424,1.6901118755340576,2019-06-20 15:03:38:920
-7.266290893554688,-7.797795532226562,0.3309933166503906,0.038905791631020537,-0.02784393800505069,-0.0037377205824936904,1.6952319145202637,2019-06-20 15:03:38:925
-7.283050048828125,-7.815751770019531,0.3142341613769531,0.03837315941300468,-0.028243412168562583,-0.0038708786369976524,1.7000958919525146,2019-06-20 15:03:38:930
-7.3201596069335935,-7.803780944824219,0.3501466369628906,0.03930526579453242,-0.0295749927136022,-0.004669826964021424,1.7052159309387207,2019-06-20 15:03:38:935
-7.309385864257813,-7.794204284667969,0.3178254089355469,0.03837315941300468,-0.029308676604594276,-0.005202459182037272,1.7100799083709717,2019-06-20 15:03:38:940
-7.285444213867187,-7.782233459472656,0.3166283264160156,0.03863947552201261,-0.029308676604594276,-0.005468775291045195,1.7151999473571777,2019-06-20 15:03:38:945
-7.284247131347656,-7.806175109863281,0.3393728942871094,0.03997105606705223,-0.030640257149633893,-0.006001407509061044,1.7200639247894287,2019-06-20 15:03:38:950
-7.318962524414062,-7.781036376953125,0.3202195739746094,0.03997105606705223,-0.030906573258641816,-0.006134565563565005,1.7251839637756348,2019-06-20 15:03:38:955
-7.312977111816406,-7.793007202148437,0.32859915161132813,0.039704739958044306,-0.03170552158566559,-0.007332988054100662,1.7300479412078857,2019-06-20 15:03:38:960
-7.2914296264648435,-7.791810119628906,0.34056997680664064,0.039704739958044306,-0.03143920547665766,-0.0070666719450927385,1.7351679801940918,2019-06-20 15:03:38:965
-7.298612121582031,-7.784627624511718,0.3453583068847656,0.039038949685524495,-0.03143920547665766,-0.006800355836084815,1.7400319576263428,2019-06-20 15:03:38:970
-7.295020874023438,-7.787021789550781,0.3250079040527344,0.03957158190354034,-0.03050709909512993,-0.0074661461086046235,1.7451519966125488,2019-06-20 15:03:38:975
-7.295020874023438,-7.782233459472656,0.3573291320800781,0.03930526579453242,-0.029974466877114084,-0.007599304163108585,1.7500159740447998,2019-06-20 15:03:38:980
-7.292626708984375,-7.785824707031249,0.3573291320800781,0.03917210774002846,-0.031039731313145778,-0.0074661461086046235,1.7551357746124268,2019-06-20 15:03:38:985
-7.275867553710937,-7.787021789550781,0.35852621459960937,0.03930526579453242,-0.030107624931618046,-0.008131936381124433,1.7599999904632568,2019-06-20 15:03:38:990
-7.303400451660156,-7.791810119628906,0.38605911254882813,0.039704739958044306,-0.03050709909512993,-0.008398252490132357,1.7651197910308838,2019-06-20 15:03:38:995
-7.293823791503906,-7.782233459472656,0.3716941223144531,0.03863947552201261,-0.030240782986122008,-0.0074661461086046235,1.7702398300170898,2019-06-20 15:03:39:000
-7.279458801269531,-7.789415954589844,0.34655538940429687,0.038905791631020537,-0.030240782986122008,-0.008664568599140282,1.7751038074493408,2019-06-20 15:03:39:005
-7.295020874023438,-7.790613037109375,0.3369787292480469,0.038905791631020537,-0.030773415204137854,-0.008930884708148205,1.7802238464355469,2019-06-20 15:03:39:010
-7.269882141113281,-7.7882188720703125,0.3250079040527344,0.03850631746750865,-0.029841308822610123,-0.010395623307691787,1.7850878238677979,2019-06-20 15:03:39:015
-7.283050048828125,-7.783430541992187,0.3333874816894531,0.03810684330399676,-0.03050709909512993,-0.009729833035171977,1.790207862854004,2019-06-20 15:03:39:020
-7.281852966308594,-7.790613037109375,0.3118399963378906,0.03877263357651657,-0.030640257149633893,-0.010528781362195748,1.7950718402862549,2019-06-20 15:03:39:025
-7.302203369140625,-7.80497802734375,0.2998691711425781,0.03837315941300468,-0.030107624931618046,-0.010395623307691787,1.800191879272461,2019-06-20 15:03:39:030
-7.289035461425781,-7.798992614746093,0.3333874816894531,0.039038949685524495,-0.029441834659098238,-0.009197200817156128,1.805055856704712,2019-06-20 15:03:39:035
-7.286641296386718,-7.783430541992187,0.32859915161132813,0.039038949685524495,-0.029974466877114084,-0.00933035887166009,1.810175895690918,2019-06-20 15:03:39:040
-7.2770646362304685,-7.801386779785156,0.3058545837402344,0.03850631746750865,-0.029441834659098238,-0.00933035887166009,1.815039873123169,2019-06-20 15:03:39:045
-7.267487976074219,-7.797795532226562,0.3333874816894531,0.037840527194988836,-0.02890920244108239,-0.009197200817156128,1.820159912109375,2019-06-20 15:03:39:050
-7.253122985839844,-7.790613037109375,0.35972329711914064,0.03837315941300468,-0.030240782986122008,-0.010528781362195748,1.825023889541626,2019-06-20 15:03:39:055
-7.269882141113281,-7.776248046875,0.3716941223144531,0.038905791631020537,-0.02970815076810616,-0.010528781362195748,1.830143928527832,2019-06-20 15:03:39:060
-7.274670471191406,-7.777445129394531,0.2878983459472656,0.03930526579453242,-0.029308676604594276,-0.010129307198683862,1.835007905960083,2019-06-20 15:03:39:065
-7.2770646362304685,-7.794204284667969,0.3262049865722656,0.03957158190354034,-0.03037394104062597,-0.010129307198683862,1.840127944946289,2019-06-20 15:03:39:070
-7.250728820800781,-7.789415954589844,0.3321903991699219,0.04010421412155619,-0.03050709909512993,-0.009463516926164052,1.84499192237854,2019-06-20 15:03:39:075
-7.255517150878906,-7.803780944824219,0.3740882873535156,0.039837898012548265,-0.0295749927136022,-0.009064042762652167,1.850111961364746,2019-06-20 15:03:39:080
-7.250728820800781,-7.8025838623046875,0.35373788452148436,0.039837898012548265,-0.028509728277570506,-0.008664568599140282,1.8552320003509521,2019-06-20 15:03:39:085
-7.271079223632812,-7.819343017578125,0.36570870971679686,0.039837898012548265,-0.029042360495586353,-0.007599304163108585,1.8600959777832031,2019-06-20 15:03:39:090
-7.26868505859375,-7.822934265136719,0.3561320495605469,0.039837898012548265,-0.0295749927136022,-0.008930884708148205,1.86521577835083,2019-06-20 15:03:39:095
-7.284247131347656,-7.806175109863281,0.35373788452148436,0.039837898012548265,-0.029441834659098238,-0.008265094435628395,1.8700799942016602,2019-06-20 15:03:39:100
-7.293823791503906,-7.812160522460937,0.2938837585449219,0.03943842384903638,-0.02877604438657843,-0.008265094435628395,1.875199794769287,2019-06-20 15:03:39:105
-7.283050048828125,-7.8169488525390625,0.33458456420898436,0.03917210774002846,-0.02877604438657843,-0.008797726653644243,1.880063772201538,2019-06-20 15:03:39:110
-7.283050048828125,-7.819343017578125,0.3309933166503906,0.039704739958044306,-0.02890920244108239,-0.008930884708148205,1.8851838111877441,2019-06-20 15:03:39:115
-7.295020874023438,-7.791810119628906,0.3752853698730469,0.03957158190354034,-0.029175518550090315,-0.008797726653644243,1.8900477886199951,2019-06-20 15:03:39:120
-7.271079223632812,-7.782233459472656,0.3441612243652344,0.03943842384903638,-0.028376570223066545,-0.008398252490132357,1.8951678276062012,2019-06-20 15:03:39:125
-7.310582946777344,-7.801386779785156,0.3369787292480469,0.03930526579453242,-0.028376570223066545,-0.009197200817156128,1.9000318050384521,2019-06-20 15:03:39:130
-7.275867553710937,-7.806175109863281,0.35373788452148436,0.039837898012548265,-0.029175518550090315,-0.009463516926164052,1.9051518440246582,2019-06-20 15:03:39:135
-7.285444213867187,-7.784627624511718,0.3513437194824219,0.040503688285068076,-0.029042360495586353,-0.009197200817156128,1.9100158214569092,2019-06-20 15:03:39:140
-7.283050048828125,-7.814554687499999,0.35852621459960937,0.03997105606705223,-0.029042360495586353,-0.009064042762652167,1.9151358604431152,2019-06-20 15:03:39:145
-7.301006286621093,-7.790613037109375,0.3704970397949219,0.04037053023056411,-0.029441834659098238,-0.008664568599140282,1.9199998378753662,2019-06-20 15:03:39:150
-7.310582946777344,-7.787021789550781,0.34176705932617185,0.03957158190354034,-0.02797709605955466,-0.009862991089675938,1.9251198768615723,2019-06-20 15:03:39:155
-7.3057946166992185,-7.8025838623046875,0.3393728942871094,0.03917210774002846,-0.029308676604594276,-0.009862991089675938,1.9302399158477783,2019-06-20 15:03:39:160
-7.308188781738281,-7.807372192382812,0.3190224914550781,0.03930526579453242,-0.028243412168562583,-0.009596674980668015,1.9351038932800293,2019-06-20 15:03:39:165
-7.275867553710937,-7.806175109863281,0.3309933166503906,0.03943842384903638,-0.029441834659098238,-0.00933035887166009,1.9402239322662354,2019-06-20 15:03:39:170
-7.275867553710937,-7.785824707031249,0.3262049865722656,0.04010421412155619,-0.028509728277570506,-0.00786562027211651,1.9450879096984863,2019-06-20 15:03:39:175
-7.266290893554688,-7.7954013671875,0.3321903991699219,0.03943842384903638,-0.02784393800505069,-0.00786562027211651,1.9502079486846924,2019-06-20 15:03:39:180
-7.284247131347656,-7.801386779785156,0.34176705932617185,0.03917210774002846,-0.02691183162352296,-0.008797726653644243,1.9550719261169434,2019-06-20 15:03:39:185
-7.289035461425781,-7.796598449707031,0.38605911254882813,0.039704739958044306,-0.028243412168562583,-0.009197200817156128,1.9601919651031494,2019-06-20 15:03:39:190
-7.271079223632812,-7.797795532226562,0.3645116271972656,0.03997105606705223,-0.0295749927136022,-0.010262465253187823,1.9650559425354004,2019-06-20 15:03:39:195
-7.263896728515625,-7.765474304199219,0.3262049865722656,0.039837898012548265,-0.028509728277570506,-0.009596674980668015,1.9701759815216064,2019-06-20 15:03:39:200
-7.269882141113281,-7.7594888916015625,0.34056997680664064,0.03917210774002846,-0.029042360495586353,-0.009729833035171977,1.9750399589538574,2019-06-20 15:03:39:205
-7.280655883789063,-7.777445129394531,0.3561320495605469,0.03930526579453242,-0.02970815076810616,-0.009463516926164052,1.9801599979400635,2019-06-20 15:03:39:210
-7.280655883789063,-7.777445129394531,0.3561320495605469,0.03930526579453242,-0.02970815076810616,-0.009463516926164052,1.982975959777832,2019-06-20 15:03:39:213
-7.301006286621093,-7.809766357421875,0.35852621459960937,0.03877263357651657,-0.029841308822610123,-0.009862991089675938,1.9901437759399414,2019-06-20 15:03:39:220
-7.301006286621093,-7.809766357421875,0.35852621459960937,0.03877263357651657,-0.029841308822610123,-0.009862991089675938,1.992959976196289,2019-06-20 15:03:39:223
-7.308188781738281,-7.784627624511718,0.30944583129882813,0.039038949685524495,-0.029841308822610123,-0.009862991089675938,2.0001277923583984,2019-06-20 15:03:39:230
-7.308188781738281,-7.784627624511718,0.30944583129882813,0.039038949685524495,-0.029841308822610123,-0.009862991089675938,2.002943992614746,2019-06-20 15:03:39:233
-7.28783837890625,-7.785824707031249,0.33458456420898436,0.037840527194988836,-0.02890920244108239,-0.010395623307691787,2.0101118087768555,2019-06-20 15:03:39:240
-7.28783837890625,-7.785824707031249,0.33458456420898436,0.037840527194988836,-0.02890920244108239,-0.010395623307691787,2.012927770614624,2019-06-20 15:03:39:243
-7.275867553710937,-7.7954013671875,0.3357816467285156,0.039038949685524495,-0.028509728277570506,-0.010129307198683862,2.0200958251953125,2019-06-20 15:03:39:250
-7.275867553710937,-7.7954013671875,0.3357816467285156,0.039038949685524495,-0.028509728277570506,-0.010129307198683862,2.022911787033081,2019-06-20 15:03:39:253
-7.285444213867187,-7.782233459472656,0.3441612243652344,0.038905791631020537,-0.02890920244108239,-0.010528781362195748,2.0300798416137695,2019-06-20 15:03:39:260
-7.275867553710937,-7.787021789550781,0.30944583129882813,0.03837315941300468,-0.02890920244108239,-0.011061413580211595,2.0351998805999756,2019-06-20 15:03:39:265
-7.274670471191406,-7.800189697265624,0.3621174621582031,0.038905791631020537,-0.029308676604594276,-0.011194571634715558,2.0400638580322266,2019-06-20 15:03:39:270
-7.295020874023438,-7.80497802734375,0.34775247192382813,0.03837315941300468,-0.029175518550090315,-0.010129307198683862,2.0451838970184326,2019-06-20 15:03:39:275
-7.257911315917968,-7.783430541992187,0.34056997680664064,0.03837315941300468,-0.02890920244108239,-0.0099961491441799,2.0500478744506836,2019-06-20 15:03:39:280
-7.245940490722656,-7.810963439941406,0.32979623413085934,0.038240001358500725,-0.028243412168562583,-0.011194571634715558,2.0551679134368896,2019-06-20 15:03:39:285
-7.24953173828125,-7.80497802734375,0.2938837585449219,0.038905791631020537,-0.027178147732530883,-0.011460887743723482,2.0600318908691406,2019-06-20 15:03:39:290
-7.247137573242187,-7.794204284667969,0.31064291381835935,0.03917210774002846,-0.029042360495586353,-0.01132772968921952,2.0651519298553467,2019-06-20 15:03:39:295
-7.271079223632812,-7.812160522460937,0.32740206909179687,0.03957158190354034,-0.029441834659098238,-0.010795097471203672,2.0700159072875977,2019-06-20 15:03:39:300
-7.26868505859375,-7.808569274902344,0.3429641418457031,0.03943842384903638,-0.029441834659098238,-0.010928255525707633,2.0751359462738037,2019-06-20 15:03:39:305
-7.243546325683593,-7.815751770019531,0.38605911254882813,0.03837315941300468,-0.03050709909512993,-0.010795097471203672,2.0799999237060547,2019-06-20 15:03:39:310
-7.279458801269531,-7.798992614746093,0.3501466369628906,0.03850631746750865,-0.030240782986122008,-0.011061413580211595,2.0851199626922607,2019-06-20 15:03:39:315
-7.271079223632812,-7.82413134765625,0.36570870971679686,0.03810684330399676,-0.03117288936764974,-0.010262465253187823,2.090240001678467,2019-06-20 15:03:39:320
-7.290232543945312,-7.818145935058594,0.3441612243652344,0.03863947552201261,-0.029841308822610123,-0.010528781362195748,2.0951039791107178,2019-06-20 15:03:39:325
-7.279458801269531,-7.809766357421875,0.3441612243652344,0.03930526579453242,-0.0295749927136022,-0.01066193941669971,2.1002237796783447,2019-06-20 15:03:39:330
-7.273473388671875,-7.801386779785156,0.30226333618164064,0.03917210774002846,-0.030640257149633893,-0.010928255525707633,2.105087995529175,2019-06-20 15:03:39:335
-7.241152160644531,-7.796598449707031,0.36690579223632813,0.0379736852494928,-0.029841308822610123,-0.010262465253187823,2.1102077960968018,2019-06-20 15:03:39:340
-7.247137573242187,-7.803780944824219,0.32740206909179687,0.03837315941300468,-0.029441834659098238,-0.0099961491441799,2.1150717735290527,2019-06-20 15:03:39:345
-7.24953173828125,-7.809766357421875,0.3561320495605469,0.03850631746750865,-0.02890920244108239,-0.0099961491441799,2.120191812515259,2019-06-20 15:03:39:350
-7.273473388671875,-7.807372192382812,0.34894955444335934,0.03850631746750865,-0.02890920244108239,-0.009463516926164052,2.1250557899475098,2019-06-20 15:03:39:355
-7.265093811035156,-7.819343017578125,0.3740882873535156,0.03810684330399676,-0.02890920244108239,-0.009729833035171977,2.130175828933716,2019-06-20 15:03:39:360
-7.261502563476562,-7.813357604980468,0.3250079040527344,0.03863947552201261,-0.028642886332074468,-0.009862991089675938,2.135039806365967,2019-06-20 15:03:39:365
-7.244743408203125,-7.8313138427734375,0.34775247192382813,0.039038949685524495,-0.029042360495586353,-0.009596674980668015,2.140159845352173,2019-06-20 15:03:39:370
-7.254320068359375,-7.791810119628906,0.3250079040527344,0.03917210774002846,-0.029042360495586353,-0.008797726653644243,2.145023822784424,2019-06-20 15:03:39:375
-7.247137573242187,-7.800189697265624,0.33458456420898436,0.039704739958044306,-0.029308676604594276,-0.008664568599140282,2.15014386177063,2019-06-20 15:03:39:380
-7.266290893554688,-7.82413134765625,0.32859915161132813,0.038905791631020537,-0.029042360495586353,-0.007998778326620472,2.155007839202881,2019-06-20 15:03:39:385
-7.296217956542969,-7.818145935058594,0.3321903991699219,0.03957158190354034,-0.030107624931618046,-0.00786562027211651,2.160127878189087,2019-06-20 15:03:39:390
-7.265093811035156,-7.8025838623046875,0.3716941223144531,0.039837898012548265,-0.029841308822610123,-0.008398252490132357,2.165247917175293,2019-06-20 15:03:39:395
-7.275867553710937,-7.8025838623046875,0.3238108215332031,0.03943842384903638,-0.030240782986122008,-0.009064042762652167,2.170111894607544,2019-06-20 15:03:39:400
-7.2626996459960935,-7.820540100097656,0.3262049865722656,0.039704739958044306,-0.029974466877114084,-0.00933035887166009,2.17523193359375,2019-06-20 15:03:39:405
-7.265093811035156,-7.815751770019531,0.28909542846679687,0.039837898012548265,-0.029974466877114084,-0.008531410544636318,2.180095911026001,2019-06-20 15:03:39:410
-7.2770646362304685,-7.807372192382812,0.36092037963867185,0.039704739958044306,-0.029441834659098238,-0.0071998299995967,2.185215950012207,2019-06-20 15:03:39:415
-7.231575500488281,-7.803780944824219,0.34056997680664064,0.03957158190354034,-0.02877604438657843,-0.008398252490132357,2.190079927444458,2019-06-20 15:03:39:420
-7.261502563476562,-7.7954013671875,0.34655538940429687,0.039704739958044306,-0.02784393800505069,-0.008131936381124433,2.195199966430664,2019-06-20 15:03:39:425
-7.279458801269531,-7.806175109863281,0.3513437194824219,0.03917210774002846,-0.02890920244108239,-0.008265094435628395,2.200063943862915,2019-06-20 15:03:39:430
-7.286641296386718,-7.814554687499999,0.3836649475097656,0.039038949685524495,-0.0295749927136022,-0.009197200817156128,2.205183982849121,2019-06-20 15:03:39:435
-7.255517150878906,-7.82413134765625,0.28909542846679687,0.039837898012548265,-0.029974466877114084,-0.008265094435628395,2.210047960281372,2019-06-20 15:03:39:440
-7.24953173828125,-7.839693420410156,0.35972329711914064,0.04023737217606015,-0.029974466877114084,-0.008265094435628395,2.215167999267578,2019-06-20 15:03:39:445
-7.261502563476562,-7.818145935058594,0.3633145446777344,0.039837898012548265,-0.02970815076810616,-0.0077324622176125485,2.220031976699829,2019-06-20 15:03:39:450
-7.303400451660156,-7.8025838623046875,0.3525408020019531,0.03930526579453242,-0.03037394104062597,-0.008131936381124433,2.225151777267456,2019-06-20 15:03:39:455
-7.289035461425781,-7.779839294433594,0.3321903991699219,0.03943842384903638,-0.030640257149633893,-0.007332988054100662,2.230015993118286,2019-06-20 15:03:39:460
-7.27826171875,-7.797795532226562,0.36810287475585934,0.03930526579453242,-0.029841308822610123,-0.007998778326620472,2.235135793685913,2019-06-20 15:03:39:465
-7.273473388671875,-7.819343017578125,0.3369787292480469,0.039704739958044306,-0.028509728277570506,-0.0077324622176125485,2.239999771118164,2019-06-20 15:03:39:470
-7.273473388671875,-7.803780944824219,0.34894955444335934,0.039837898012548265,-0.02784393800505069,-0.007332988054100662,2.24511981010437,2019-06-20 15:03:39:475
-7.290232543945312,-7.801386779785156,0.38725619506835934,0.03917210774002846,-0.0295749927136022,-0.007332988054100662,2.250239849090576,2019-06-20 15:03:39:480
-7.267487976074219,-7.803780944824219,0.38007369995117185,0.03877263357651657,-0.029308676604594276,-0.0077324622176125485,2.255103826522827,2019-06-20 15:03:39:485
-7.273473388671875,-7.787021789550781,0.3525408020019531,0.03943842384903638,-0.02877604438657843,-0.00786562027211651,2.260223865509033,2019-06-20 15:03:39:490
-7.256714233398437,-7.787021789550781,0.3441612243652344,0.03863947552201261,-0.028642886332074468,-0.008265094435628395,2.265087842941284,2019-06-20 15:03:39:495
-7.280655883789063,-7.797795532226562,0.35972329711914064,0.038905791631020537,-0.029441834659098238,-0.008131936381124433,2.2702078819274902,2019-06-20 15:03:39:500
-7.266290893554688,-7.790613037109375,0.3441612243652344,0.03957158190354034,-0.029175518550090315,-0.007998778326620472,2.275071859359741,2019-06-20 15:03:39:505
-7.272276306152343,-7.809766357421875,0.3070516662597656,0.03943842384903638,-0.030906573258641816,-0.009064042762652167,2.2801918983459473,2019-06-20 15:03:39:510
-7.257911315917968,-7.810963439941406,0.3561320495605469,0.039038949685524495,-0.029841308822610123,-0.007998778326620472,2.2850558757781982,2019-06-20 15:03:39:515
-7.2483346557617185,-7.8313138427734375,0.3202195739746094,0.03917210774002846,-0.029441834659098238,-0.00786562027211651,2.2901759147644043,2019-06-20 15:03:39:520
-7.298612121582031,-7.8169488525390625,0.3429641418457031,0.039038949685524495,-0.02970815076810616,-0.008797726653644243,2.2950398921966553,2019-06-20 15:03:39:525
-7.289035461425781,-7.821737182617188,0.34894955444335934,0.03957158190354034,-0.028509728277570506,-0.008398252490132357,2.3001599311828613,2019-06-20 15:03:39:530
-7.280655883789063,-7.808569274902344,0.33458456420898436,0.039704739958044306,-0.02970815076810616,-0.0074661461086046235,2.3050239086151123,2019-06-20 15:03:39:535
-7.266290893554688,-7.789415954589844,0.30824874877929687,0.03957158190354034,-0.030240782986122008,-0.008797726653644243,2.3101439476013184,2019-06-20 15:03:39:540
-7.285444213867187,-7.797795532226562,0.32979623413085934,0.038905791631020537,-0.029974466877114084,-0.008131936381124433,2.3150079250335693,2019-06-20 15:03:39:545
-7.311780029296875,-7.794204284667969,0.3381758117675781,0.03863947552201261,-0.029042360495586353,-0.008797726653644243,2.3201279640197754,2019-06-20 15:03:39:550
-7.269882141113281,-7.783430541992187,0.34176705932617185,0.03917210774002846,-0.030107624931618046,-0.008398252490132357,2.3249919414520264,2019-06-20 15:03:39:555
-7.26868505859375,-7.812160522460937,0.3130370788574219,0.03877263357651657,-0.031306047422153704,-0.008664568599140282,2.3301119804382324,2019-06-20 15:03:39:560
-7.281852966308594,-7.800189697265624,0.33458456420898436,0.03863947552201261,-0.03117288936764974,-0.008531410544636318,2.3352317810058594,2019-06-20 15:03:39:565
-7.24953173828125,-7.789415954589844,0.3262049865722656,0.037840527194988836,-0.030906573258641816,-0.008797726653644243,2.3400959968566895,2019-06-20 15:03:39:570
-7.231575500488281,-7.819343017578125,0.3357816467285156,0.039704739958044306,-0.03143920547665766,-0.009729833035171977,2.3452157974243164,2019-06-20 15:03:39:575
-7.2591083984375,-7.8025838623046875,0.3190224914550781,0.03997105606705223,-0.03303710213070521,-0.008265094435628395,2.3500797748565674,2019-06-20 15:03:39:580
-7.260305480957031,-7.814554687499999,0.30944583129882813,0.039704739958044306,-0.0323713118581854,-0.008531410544636318,2.3551998138427734,2019-06-20 15:03:39:585
-7.271079223632812,-7.830116760253906,0.3166283264160156,0.03850631746750865,-0.031039731313145778,-0.009729833035171977,2.3600637912750244,2019-06-20 15:03:39:590
-7.2483346557617185,-7.825328430175781,0.32141665649414064,0.03930526579453242,-0.03183867964016955,-0.008664568599140282,2.3651838302612305,2019-06-20 15:03:39:595
-7.26868505859375,-7.820540100097656,0.3142341613769531,0.039038949685524495,-0.03117288936764974,-0.007998778326620472,2.3700478076934814,2019-06-20 15:03:39:600
-7.256714233398437,-7.797795532226562,0.3549349670410156,0.039038949685524495,-0.0295749927136022,-0.008131936381124433,2.3751678466796875,2019-06-20 15:03:39:605
-7.272276306152343,-7.8169488525390625,0.3250079040527344,0.03957158190354034,-0.029441834659098238,-0.008930884708148205,2.3800318241119385,2019-06-20 15:03:39:610
-7.256714233398437,-7.82413134765625,0.31543124389648436,0.03943842384903638,-0.029974466877114084,-0.008664568599140282,2.3851518630981445,2019-06-20 15:03:39:615
-7.2626996459960935,-7.819343017578125,0.3429641418457031,0.039038949685524495,-0.029175518550090315,-0.008265094435628395,2.3900158405303955,2019-06-20 15:03:39:620
-7.2626996459960935,-7.842087585449218,0.32740206909179687,0.03877263357651657,-0.029841308822610123,-0.008265094435628395,2.3951358795166016,2019-06-20 15:03:39:625
-7.254320068359375,-7.830116760253906,0.34894955444335934,0.03863947552201261,-0.029175518550090315,-0.008131936381124433,2.3999998569488525,2019-06-20 15:03:39:630
-7.271079223632812,-7.8325109252929686,0.34894955444335934,0.039038949685524495,-0.029974466877114084,-0.0074661461086046235,2.4051198959350586,2019-06-20 15:03:39:635
-7.273473388671875,-7.828919677734375,0.3824678649902344,0.03917210774002846,-0.029441834659098238,-0.0074661461086046235,2.4102399349212646,2019-06-20 15:03:39:640
-7.279458801269531,-7.813357604980468,0.3429641418457031,0.03957158190354034,-0.029175518550090315,-0.007332988054100662,2.4151039123535156,2019-06-20 15:03:39:645
-7.260305480957031,-7.801386779785156,0.34176705932617185,0.03917210774002846,-0.030107624931618046,-0.006800355836084815,2.4202239513397217,2019-06-20 15:03:39:650
-7.2483346557617185,-7.796598449707031,0.3453583068847656,0.03810684330399676,-0.030240782986122008,-0.0070666719450927385,2.4250879287719727,2019-06-20 15:03:39:655
-7.256714233398437,-7.796598449707031,0.3429641418457031,0.03943842384903638,-0.028509728277570506,-0.0070666719450927385,2.4302079677581787,2019-06-20 15:03:39:660
-7.284247131347656,-7.796598449707031,0.3645116271972656,0.039038949685524495,-0.02890920244108239,-0.006800355836084815,2.4350719451904297,2019-06-20 15:03:39:665
-7.260305480957031,-7.826525512695312,0.3441612243652344,0.03957158190354034,-0.028509728277570506,-0.006267723618068967,2.4401919841766357,2019-06-20 15:03:39:670
-7.263896728515625,-7.803780944824219,0.3812707824707031,0.038905791631020537,-0.030107624931618046,-0.006800355836084815,2.4450559616088867,2019-06-20 15:03:39:675
-7.2770646362304685,-7.7954013671875,0.3645116271972656,0.04023737217606015,-0.02877604438657843,-0.0070666719450927385,2.4501760005950928,2019-06-20 15:03:39:680
-7.271079223632812,-7.80497802734375,0.35972329711914064,0.03943842384903638,-0.02890920244108239,-0.0064008816725729285,2.4550399780273438,2019-06-20 15:03:39:685
-7.275867553710937,-7.810963439941406,0.3262049865722656,0.03930526579453242,-0.029841308822610123,-0.0064008816725729285,2.4601597785949707,2019-06-20 15:03:39:690
-7.2626996459960935,-7.807372192382812,0.35852621459960937,0.03997105606705223,-0.029974466877114084,-0.006001407509061044,2.465023994445801,2019-06-20 15:03:39:695
-7.243546325683593,-7.806175109863281,0.30226333618164064,0.04010421412155619,-0.02970815076810616,-0.005468775291045195,2.4701437950134277,2019-06-20 15:03:39:700
-7.256714233398437,-7.819343017578125,0.3309933166503906,0.039704739958044306,-0.028642886332074468,-0.0057350914000531186,2.4750077724456787,2019-06-20 15:03:39:705
-7.274670471191406,-7.80497802734375,0.3549349670410156,0.039837898012548265,-0.029841308822610123,-0.006001407509061044,2.4801278114318848,2019-06-20 15:03:39:710
-7.255517150878906,-7.82413134765625,0.3740882873535156,0.039704739958044306,-0.029841308822610123,-0.0057350914000531186,2.4849917888641357,2019-06-20 15:03:39:715
-7.2626996459960935,-7.820540100097656,0.3393728942871094,0.04010421412155619,-0.029441834659098238,-0.005468775291045195,2.490111827850342,2019-06-20 15:03:39:720
-7.2770646362304685,-7.8025838623046875,0.34775247192382813,0.03917210774002846,-0.029974466877114084,-0.0057350914000531186,2.495231866836548,2019-06-20 15:03:39:725
-7.266290893554688,-7.80497802734375,0.3309933166503906,0.03930526579453242,-0.030640257149633893,-0.0057350914000531186,2.500095844268799,2019-06-20 15:03:39:730
-7.244743408203125,-7.798992614746093,0.3238108215332031,0.03930526579453242,-0.03037394104062597,-0.0057350914000531186,2.505215883255005,2019-06-20 15:03:39:735
-7.239955078125,-7.80497802734375,0.3142341613769531,0.03930526579453242,-0.030773415204137854,-0.004669826964021424,2.510079860687256,2019-06-20 15:03:39:740
-7.239955078125,-7.821737182617188,0.3333874816894531,0.03930526579453242,-0.03050709909512993,-0.004536668909517462,2.515199899673462,2019-06-20 15:03:39:745
-7.275867553710937,-7.785824707031249,0.3633145446777344,0.039704739958044306,-0.030773415204137854,-0.0040040366915016145,2.520063877105713,2019-06-20 15:03:39:750
-7.274670471191406,-7.8169488525390625,0.3525408020019531,0.039837898012548265,-0.030240782986122008,-0.004536668909517462,2.525183916091919,2019-06-20 15:03:39:755
-7.2591083984375,-7.784627624511718,0.3369787292480469,0.039038949685524495,-0.030240782986122008,-0.0038708786369976524,2.53004789352417,2019-06-20 15:03:39:760
-7.292626708984375,-7.797795532226562,0.3633145446777344,0.039038949685524495,-0.030640257149633893,-0.004137194746005576,2.535167932510376,2019-06-20 15:03:39:765
-7.266290893554688,-7.782233459472656,0.3333874816894531,0.03850631746750865,-0.030107624931618046,-0.004536668909517462,2.540031909942627,2019-06-20 15:03:39:770
-7.260305480957031,-7.7954013671875,0.37289120483398436,0.03863947552201261,-0.03050709909512993,-0.005202459182037272,2.545151948928833,2019-06-20 15:03:39:775
-7.281852966308594,-7.806175109863281,0.4028182678222656,0.03837315941300468,-0.030773415204137854,-0.004802985018525386,2.550015926361084,2019-06-20 15:03:39:780
-7.289035461425781,-7.803780944824219,0.36092037963867185,0.03877263357651657,-0.030640257149633893,-0.004137194746005576,2.55513596534729,2019-06-20 15:03:39:785
-7.279458801269531,-7.809766357421875,0.3561320495605469,0.03930526579453242,-0.031039731313145778,-0.0050693011275333094,2.559999942779541,2019-06-20 15:03:39:790
-7.26868505859375,-7.80497802734375,0.3633145446777344,0.03917210774002846,-0.03050709909512993,-0.004669826964021424,2.565119981765747,2019-06-20 15:03:39:795
-7.284247131347656,-7.80497802734375,0.32859915161132813,0.03930526579453242,-0.031039731313145778,-0.0050693011275333094,2.570239782333374,2019-06-20 15:03:39:800
-7.303400451660156,-7.800189697265624,0.32141665649414064,0.03930526579453242,-0.03157236353116163,-0.0040040366915016145,2.575103998184204,2019-06-20 15:03:39:805
-7.286641296386718,-7.797795532226562,0.3262049865722656,0.039704739958044306,-0.03117288936764974,-0.004802985018525386,2.580223798751831,2019-06-20 15:03:39:810
-7.285444213867187,-7.793007202148437,0.3321903991699219,0.03917210774002846,-0.030240782986122008,-0.005868249454557082,2.585087776184082,2019-06-20 15:03:39:815
-7.273473388671875,-7.777445129394531,0.36570870971679686,0.038240001358500725,-0.02970815076810616,-0.006001407509061044,2.590207815170288,2019-06-20 15:03:39:820
-7.284247131347656,-7.784627624511718,0.36810287475585934,0.03877263357651657,-0.02970815076810616,-0.006267723618068967,2.595071792602539,2019-06-20 15:03:39:825
-7.295020874023438,-7.810963439941406,0.35373788452148436,0.03917210774002846,-0.030107624931618046,-0.005601933345549157,2.600191831588745,2019-06-20 15:03:39:830
-7.275867553710937,-7.801386779785156,0.34056997680664064,0.03917210774002846,-0.03117288936764974,-0.005601933345549157,2.605055809020996,2019-06-20 15:03:39:835
-7.284247131347656,-7.787021789550781,0.35852621459960937,0.038905791631020537,-0.03050709909512993,-0.006001407509061044,2.610175848007202,2019-06-20 15:03:39:840
-7.279458801269531,-7.80497802734375,0.35852621459960937,0.039038949685524495,-0.030640257149633893,-0.007998778326620472,2.615039825439453,2019-06-20 15:03:39:845
-7.285444213867187,-7.808569274902344,0.3453583068847656,0.039837898012548265,-0.028642886332074468,-0.00786562027211651,2.620159864425659,2019-06-20 15:03:39:850
-7.26868505859375,-7.776248046875,0.3429641418457031,0.03877263357651657,-0.028243412168562583,-0.007332988054100662,2.62502384185791,2019-06-20 15:03:39:855
-7.2914296264648435,-7.807372192382812,0.3453583068847656,0.03837315941300468,-0.029841308822610123,-0.0077324622176125485,2.630143880844116,2019-06-20 15:03:39:860
-7.3201596069335935,-7.807372192382812,0.34775247192382813,0.039038949685524495,-0.02970815076810616,-0.007599304163108585,2.635007858276367,2019-06-20 15:03:39:865
-7.292626708984375,-7.8169488525390625,0.34655538940429687,0.03863947552201261,-0.02877604438657843,-0.00786562027211651,2.6401278972625732,2019-06-20 15:03:39:870
-7.263896728515625,-7.787021789550781,0.35972329711914064,0.038905791631020537,-0.029308676604594276,-0.008797726653644243,2.644991874694824,2019-06-20 15:03:39:875
-7.273473388671875,-7.789415954589844,0.34894955444335934,0.038905791631020537,-0.029974466877114084,-0.008797726653644243,2.6501119136810303,2019-06-20 15:03:39:880
-7.238757995605469,-7.7954013671875,0.3453583068847656,0.03930526579453242,-0.029841308822610123,-0.009064042762652167,2.6552319526672363,2019-06-20 15:03:39:885
-7.254320068359375,-7.790613037109375,0.3142341613769531,0.03997105606705223,-0.02970815076810616,-0.008398252490132357,2.6600959300994873,2019-06-20 15:03:39:890
-7.255517150878906,-7.803780944824219,0.32740206909179687,0.03957158190354034,-0.029441834659098238,-0.009596674980668015,2.6652159690856934,2019-06-20 15:03:39:895
-7.28783837890625,-7.801386779785156,0.2878983459472656,0.03943842384903638,-0.02890920244108239,-0.009463516926164052,2.6700799465179443,2019-06-20 15:03:39:900
-7.27826171875,-7.806175109863281,0.34775247192382813,0.039038949685524495,-0.02890920244108239,-0.009197200817156128,2.6751999855041504,2019-06-20 15:03:39:905
-7.295020874023438,-7.822934265136719,0.34894955444335934,0.03997105606705223,-0.028376570223066545,-0.009862991089675938,2.6800639629364014,2019-06-20 15:03:39:910
-7.261502563476562,-7.826525512695312,0.3549349670410156,0.03943842384903638,-0.028509728277570506,-0.00933035887166009,2.6851840019226074,2019-06-20 15:03:39:915
-7.266290893554688,-7.793007202148437,0.34894955444335934,0.03997105606705223,-0.028376570223066545,-0.008797726653644243,2.6900479793548584,2019-06-20 15:03:39:920
-7.279458801269531,-7.791810119628906,0.35373788452148436,0.039704739958044306,-0.0295749927136022,-0.009197200817156128,2.6951677799224854,2019-06-20 15:03:39:925
-7.257911315917968,-7.793007202148437,0.3501466369628906,0.03957158190354034,-0.029042360495586353,-0.00933035887166009,2.7000319957733154,2019-06-20 15:03:39:930
-7.238757995605469,-7.787021789550781,0.3393728942871094,0.04037053023056411,-0.029042360495586353,-0.009197200817156128,2.7051517963409424,2019-06-20 15:03:39:935
-7.2339696655273436,-7.819343017578125,0.33458456420898436,0.039704739958044306,-0.02877604438657843,-0.008664568599140282,2.7100157737731934,2019-06-20 15:03:39:940
-7.263896728515625,-7.8169488525390625,0.34775247192382813,0.03957158190354034,-0.029308676604594276,-0.00933035887166009,2.7151358127593994,2019-06-20 15:03:39:945
-7.27826171875,-7.794204284667969,0.3321903991699219,0.03957158190354034,-0.02890920244108239,-0.009064042762652167,2.7199997901916504,2019-06-20 15:03:39:950
-7.266290893554688,-7.807372192382812,0.36092037963867185,0.039704739958044306,-0.028243412168562583,-0.009463516926164052,2.7251198291778564,2019-06-20 15:03:39:955
-7.271079223632812,-7.819343017578125,0.3381758117675781,0.03997105606705223,-0.02877604438657843,-0.010262465253187823,2.7302398681640625,2019-06-20 15:03:39:960
-7.28783837890625,-7.779839294433594,0.36570870971679686,0.03957158190354034,-0.02771077995054673,-0.010262465253187823,2.7351038455963135,2019-06-20 15:03:39:965
-7.261502563476562,-7.803780944824219,0.37289120483398436,0.039704739958044306,-0.029441834659098238,-0.011061413580211595,2.7402238845825195,2019-06-20 15:03:39:970
-7.272276306152343,-7.796598449707031,0.34655538940429687,0.039704739958044306,-0.029175518550090315,-0.011194571634715558,2.7450878620147705,2019-06-20 15:03:39:975
-7.275867553710937,-7.783430541992187,0.34894955444335934,0.03997105606705223,-0.02970815076810616,-0.010928255525707633,2.7502079010009766,2019-06-20 15:03:39:980
-7.2483346557617185,-7.813357604980468,0.30226333618164064,0.039837898012548265,-0.02890920244108239,-0.011727203852731405,2.7550718784332275,2019-06-20 15:03:39:985
-7.26868505859375,-7.80497802734375,0.3381758117675781,0.04010421412155619,-0.028509728277570506,-0.011460887743723482,2.7601919174194336,2019-06-20 15:03:39:990
-7.251925903320313,-7.776248046875,0.2998691711425781,0.03957158190354034,-0.02797709605955466,-0.011460887743723482,2.7650558948516846,2019-06-20 15:03:39:995
-7.2483346557617185,-7.7882188720703125,0.3070516662597656,0.039038949685524495,-0.029042360495586353,-0.011460887743723482,2.7701759338378906,2019-06-20 15:03:40:000
-7.261502563476562,-7.809766357421875,0.3357816467285156,0.03877263357651657,-0.030107624931618046,-0.01066193941669971,2.7750399112701416,2019-06-20 15:03:40:005
-7.245940490722656,-7.798992614746093,0.30346041870117185,0.03863947552201261,-0.03037394104062597,-0.010795097471203672,2.7801599502563477,2019-06-20 15:03:40:010
-7.283050048828125,-7.798992614746093,0.31543124389648436,0.03997105606705223,-0.0295749927136022,-0.010528781362195748,2.7850239276885986,2019-06-20 15:03:40:015
-7.2770646362304685,-7.791810119628906,0.3357816467285156,0.039704739958044306,-0.02970815076810616,-0.010395623307691787,2.7901439666748047,2019-06-20 15:03:40:020
-7.281852966308594,-7.815751770019531,0.32979623413085934,0.0379736852494928,-0.029308676604594276,-0.010129307198683862,2.7950079441070557,2019-06-20 15:03:40:025
-7.284247131347656,-7.813357604980468,0.36092037963867185,0.038240001358500725,-0.029841308822610123,-0.0099961491441799,2.8001279830932617,2019-06-20 15:03:40:030
-7.244743408203125,-7.826525512695312,0.36690579223632813,0.038240001358500725,-0.029175518550090315,-0.010129307198683862,2.8049919605255127,2019-06-20 15:03:40:035
-7.273473388671875,-7.8169488525390625,0.36570870971679686,0.038240001358500725,-0.03037394104062597,-0.0099961491441799,2.8101119995117188,2019-06-20 15:03:40:040
-7.263896728515625,-7.830116760253906,0.3633145446777344,0.038905791631020537,-0.030240782986122008,-0.010395623307691787,2.8152318000793457,2019-06-20 15:03:40:045
-7.26868505859375,-7.808569274902344,0.30944583129882813,0.03917210774002846,-0.03050709909512993,-0.010395623307691787,2.8200957775115967,2019-06-20 15:03:40:050
-7.292626708984375,-7.80497802734375,0.2735333557128906,0.038905791631020537,-0.030640257149633893,-0.010395623307691787,2.8252158164978027,2019-06-20 15:03:40:055
-7.2914296264648435,-7.807372192382812,0.3333874816894531,0.039038949685524495,-0.031306047422153704,-0.010395623307691787,2.8300797939300537,2019-06-20 15:03:40:060
-7.2591083984375,-7.8025838623046875,0.3238108215332031,0.03863947552201261,-0.031039731313145778,-0.011061413580211595,2.8351998329162598,2019-06-20 15:03:40:065
-7.265093811035156,-7.8169488525390625,0.3130370788574219,0.037840527194988836,-0.03037394104062597,-0.011194571634715558,2.8400638103485107,2019-06-20 15:03:40:070
-7.269882141113281,-7.837299255371094,0.3393728942871094,0.03837315941300468,-0.0295749927136022,-0.010528781362195748,2.845183849334717,2019-06-20 15:03:40:075
-7.271079223632812,-7.828919677734375,0.3621174621582031,0.03837315941300468,-0.029441834659098238,-0.010795097471203672,2.8500478267669678,2019-06-20 15:03:40:080
-7.271079223632812,-7.808569274902344,0.3704970397949219,0.038905791631020537,-0.030640257149633893,-0.009596674980668015,2.855167865753174,2019-06-20 15:03:40:085
-7.261502563476562,-7.7954013671875,0.3633145446777344,0.03930526579453242,-0.030773415204137854,-0.009463516926164052,2.860031843185425,2019-06-20 15:03:40:090
-7.239955078125,-7.789415954589844,0.38725619506835934,0.03850631746750865,-0.030640257149633893,-0.009862991089675938,2.865151882171631,2019-06-20 15:03:40:095
-7.236363830566406,-7.814554687499999,0.3333874816894531,0.03877263357651657,-0.031039731313145778,-0.009197200817156128,2.870015859603882,2019-06-20 15:03:40:100
-7.254320068359375,-7.828919677734375,0.3238108215332031,0.03917210774002846,-0.030906573258641816,-0.009463516926164052,2.875135898590088,2019-06-20 15:03:40:105
-7.267487976074219,-7.803780944824219,0.3309933166503906,0.03957158190354034,-0.029841308822610123,-0.009596674980668015,2.879999876022339,2019-06-20 15:03:40:110
-7.257911315917968,-7.791810119628906,0.2986720886230469,0.03930526579453242,-0.03117288936764974,-0.009596674980668015,2.885119915008545,2019-06-20 15:03:40:115
-7.286641296386718,-7.815751770019531,0.3202195739746094,0.039038949685524495,-0.030240782986122008,-0.009463516926164052,2.890239953994751,2019-06-20 15:03:40:120
-7.244743408203125,-7.812160522460937,0.3166283264160156,0.03863947552201261,-0.029441834659098238,-0.009064042762652167,2.895103931427002,2019-06-20 15:03:40:125
-7.275867553710937,-7.806175109863281,0.3369787292480469,0.038905791631020537,-0.029441834659098238,-0.009862991089675938,2.900223970413208,2019-06-20 15:03:40:130
-7.266290893554688,-7.834905090332031,0.3262049865722656,0.039704739958044306,-0.030107624931618046,-0.008531410544636318,2.905087947845459,2019-06-20 15:03:40:135
-7.269882141113281,-7.807372192382812,0.3357816467285156,0.03957158190354034,-0.029441834659098238,-0.008398252490132357,2.910207986831665,2019-06-20 15:03:40:140
-7.265093811035156,-7.810963439941406,0.3393728942871094,0.03917210774002846,-0.02877604438657843,-0.0077324622176125485,2.915071964263916,2019-06-20 15:03:40:145
-7.271079223632812,-7.808569274902344,0.3561320495605469,0.03917210774002846,-0.029974466877114084,-0.007998778326620472,2.920192003250122,2019-06-20 15:03:40:150
-7.24953173828125,-7.834905090332031,0.3633145446777344,0.039837898012548265,-0.02970815076810616,-0.009197200817156128,2.925055980682373,2019-06-20 15:03:40:155
-7.2591083984375,-7.821737182617188,0.31543124389648436,0.04010421412155619,-0.029175518550090315,-0.008664568599140282,2.93017578125,2019-06-20 15:03:40:160
-7.267487976074219,-7.800189697265624,0.3381758117675781,0.039837898012548265,-0.028509728277570506,-0.008930884708148205,2.93503999710083,2019-06-20 15:03:40:165
-7.247137573242187,-7.793007202148437,0.3321903991699219,0.03943842384903638,-0.029042360495586353,-0.008531410544636318,2.940159797668457,2019-06-20 15:03:40:170
-7.275867553710937,-7.796598449707031,0.3633145446777344,0.03930526579453242,-0.029308676604594276,-0.008664568599140282,2.945023775100708,2019-06-20 15:03:40:175
-7.275867553710937,-7.7882188720703125,0.3513437194824219,0.03930526579453242,-0.02970815076810616,-0.008664568599140282,2.950143814086914,2019-06-20 15:03:40:180
-7.244743408203125,-7.819343017578125,0.34894955444335934,0.03930526579453242,-0.029841308822610123,-0.008797726653644243,2.955007791519165,2019-06-20 15:03:40:185
-7.261502563476562,-7.8025838623046875,0.3333874816894531,0.03997105606705223,-0.02970815076810616,-0.008930884708148205,2.960127830505371,2019-06-20 15:03:40:190
-7.24953173828125,-7.801386779785156,0.3250079040527344,0.039837898012548265,-0.0295749927136022,-0.00786562027211651,2.964991807937622,2019-06-20 15:03:40:195
-7.257911315917968,-7.825328430175781,0.3381758117675781,0.03863947552201261,-0.029841308822610123,-0.007332988054100662,2.970111846923828,2019-06-20 15:03:40:200
-7.27826171875,-7.820540100097656,0.3262049865722656,0.039837898012548265,-0.030107624931618046,-0.00786562027211651,2.975231885910034,2019-06-20 15:03:40:205
-7.2770646362304685,-7.808569274902344,0.34894955444335934,0.04037053023056411,-0.030107624931618046,-0.007998778326620472,2.980095863342285,2019-06-20 15:03:40:210
-7.273473388671875,-7.813357604980468,0.3250079040527344,0.04023737217606015,-0.028509728277570506,-0.008531410544636318,2.985215902328491,2019-06-20 15:03:40:215
-7.296217956542969,-7.787021789550781,0.32859915161132813,0.04010421412155619,-0.029308676604594276,-0.008265094435628395,2.990079879760742,2019-06-20 15:03:40:220
-7.293823791503906,-7.8025838623046875,0.3250079040527344,0.04037053023056411,-0.030640257149633893,-0.008531410544636318,2.9951999187469482,2019-06-20 15:03:40:225
-7.280655883789063,-7.838496337890625,0.36570870971679686,0.039837898012548265,-0.029841308822610123,-0.009729833035171977,3.000063896179199,2019-06-20 15:03:40:230
-7.283050048828125,-7.800189697265624,0.3501466369628906,0.03957158190354034,-0.03143920547665766,-0.009463516926164052,3.0051839351654053,2019-06-20 15:03:40:235
-7.275867553710937,-7.8169488525390625,0.32859915161132813,0.039837898012548265,-0.03050709909512993,-0.008930884708148205,3.0100479125976562,2019-06-20 15:03:40:240
-7.263896728515625,-7.790613037109375,0.3393728942871094,0.04023737217606015,-0.029841308822610123,-0.008531410544636318,3.0151679515838623,2019-06-20 15:03:40:245
-7.261502563476562,-7.8025838623046875,0.34056997680664064,0.03917210774002846,-0.030107624931618046,-0.008531410544636318,3.0200319290161133,2019-06-20 15:03:40:250
-7.250728820800781,-7.8025838623046875,0.37887661743164064,0.03877263357651657,-0.029974466877114084,-0.008131936381124433,3.0251519680023193,2019-06-20 15:03:40:255
-7.261502563476562,-7.813357604980468,0.39922702026367185,0.038905791631020537,-0.029042360495586353,-0.008398252490132357,3.0300159454345703,2019-06-20 15:03:40:260
-7.269882141113281,-7.82413134765625,0.4028182678222656,0.03930526579453242,-0.029441834659098238,-0.009064042762652167,3.0351359844207764,2019-06-20 15:03:40:265
-7.2483346557617185,-7.812160522460937,0.3704970397949219,0.03997105606705223,-0.029974466877114084,-0.008930884708148205,3.0399999618530273,2019-06-20 15:03:40:270
-7.2770646362304685,-7.814554687499999,0.3309933166503906,0.039837898012548265,-0.030773415204137854,-0.009729833035171977,3.0451200008392334,2019-06-20 15:03:40:275
-7.250728820800781,-7.813357604980468,0.3381758117675781,0.03837315941300468,-0.029841308822610123,-0.010262465253187823,3.0502398014068604,2019-06-20 15:03:40:280
-7.283050048828125,-7.8025838623046875,0.3573291320800781,0.03863947552201261,-0.0295749927136022,-0.009197200817156128,3.0551037788391113,2019-06-20 15:03:40:285
-7.267487976074219,-7.790613037109375,0.3130370788574219,0.03877263357651657,-0.029308676604594276,-0.009463516926164052,3.0602238178253174,2019-06-20 15:03:40:290
-7.2626996459960935,-7.8025838623046875,0.3130370788574219,0.03930526579453242,-0.030240782986122008,-0.008664568599140282,3.0650877952575684,2019-06-20 15:03:40:295
-7.2626996459960935,-7.810963439941406,0.30944583129882813,0.039704739958044306,-0.029308676604594276,-0.008131936381124433,3.0702078342437744,2019-06-20 15:03:40:300
-7.272276306152343,-7.814554687499999,0.32740206909179687,0.03877263357651657,-0.030240782986122008,-0.008131936381124433,3.0750718116760254,2019-06-20 15:03:40:305
-7.27826171875,-7.815751770019531,0.34775247192382813,0.039038949685524495,-0.03037394104062597,-0.009064042762652167,3.0801918506622314,2019-06-20 15:03:40:310
-7.271079223632812,-7.783430541992187,0.3692999572753906,0.039038949685524495,-0.029841308822610123,-0.008797726653644243,3.0850558280944824,2019-06-20 15:03:40:315
-7.2339696655273436,-7.7954013671875,0.3118399963378906,0.03863947552201261,-0.029974466877114084,-0.008531410544636318,3.0901758670806885,2019-06-20 15:03:40:320
-7.26868505859375,-7.815751770019531,0.34775247192382813,0.03917210774002846,-0.029175518550090315,-0.008531410544636318,3.0950398445129395,2019-06-20 15:03:40:325
-7.2770646362304685,-7.806175109863281,0.3561320495605469,0.03877263357651657,-0.028376570223066545,-0.008398252490132357,3.1001598834991455,2019-06-20 15:03:40:330
-7.279458801269531,-7.815751770019531,0.3645116271972656,0.03810684330399676,-0.03037394104062597,-0.008531410544636318,3.1050238609313965,2019-06-20 15:03:40:335
-7.308188781738281,-7.8025838623046875,0.3501466369628906,0.03877263357651657,-0.030640257149633893,-0.00933035887166009,3.1101438999176025,2019-06-20 15:03:40:340
-7.281852966308594,-7.793007202148437,0.3238108215332031,0.038905791631020537,-0.03117288936764974,-0.008265094435628395,3.1150078773498535,2019-06-20 15:03:40:345
-7.280655883789063,-7.798992614746093,0.35373788452148436,0.03930526579453242,-0.0295749927136022,-0.0071998299995967,3.1201279163360596,2019-06-20 15:03:40:350
-7.281852966308594,-7.803780944824219,0.34176705932617185,0.038905791631020537,-0.029974466877114084,-0.0071998299995967,3.1249918937683105,2019-06-20 15:03:40:355
-7.257911315917968,-7.819343017578125,0.3369787292480469,0.03930526579453242,-0.029308676604594276,-0.008664568599140282,3.1301119327545166,2019-06-20 15:03:40:360
-7.231575500488281,-7.834905090332031,0.3333874816894531,0.03957158190354034,-0.029841308822610123,-0.008930884708148205,3.1352319717407227,2019-06-20 15:03:40:365
-7.2770646362304685,-7.798992614746093,0.34894955444335934,0.03957158190354034,-0.029441834659098238,-0.008664568599140282,3.1400959491729736,2019-06-20 15:03:40:370
-7.271079223632812,-7.7954013671875,0.3142341613769531,0.03850631746750865,-0.028376570223066545,-0.0074661461086046235,3.1452159881591797,2019-06-20 15:03:40:375
-7.317765441894531,-7.800189697265624,0.3381758117675781,0.038905791631020537,-0.028642886332074468,-0.0074661461086046235,3.1500799655914307,2019-06-20 15:03:40:380
-7.296217956542969,-7.808569274902344,0.41598617553710937,0.039704739958044306,-0.029974466877114084,-0.00786562027211651,3.1552000045776367,2019-06-20 15:03:40:385
-7.2770646362304685,-7.830116760253906,0.3836649475097656,0.03943842384903638,-0.03117288936764974,-0.007332988054100662,3.1600639820098877,2019-06-20 15:03:40:390
-7.273473388671875,-7.808569274902344,0.2938837585449219,0.03917210774002846,-0.03050709909512993,-0.007599304163108585,3.1651837825775146,2019-06-20 15:03:40:395
-7.292626708984375,-7.801386779785156,0.31543124389648436,0.039038949685524495,-0.03050709909512993,-0.008664568599140282,3.1700479984283447,2019-06-20 15:03:40:400
-7.283050048828125,-7.800189697265624,0.3178254089355469,0.03850631746750865,-0.029974466877114084,-0.008398252490132357,3.1751677989959717,2019-06-20 15:03:40:405
-7.265093811035156,-7.825328430175781,0.3429641418457031,0.03837315941300468,-0.030773415204137854,-0.008398252490132357,3.1800317764282227,2019-06-20 15:03:40:410
-7.263896728515625,-7.825328430175781,0.3190224914550781,0.038240001358500725,-0.030773415204137854,-0.008531410544636318,3.1851518154144287,2019-06-20 15:03:40:415
-7.261502563476562,-7.813357604980468,0.3010662536621094,0.038905791631020537,-0.03117288936764974,-0.008797726653644243,3.1902718544006348,2019-06-20 15:03:40:420
-7.2626996459960935,-7.8025838623046875,0.3453583068847656,0.03877263357651657,-0.03143920547665766,-0.009197200817156128,3.1951358318328857,2019-06-20 15:03:40:425
-7.263896728515625,-7.815751770019531,0.34056997680664064,0.03957158190354034,-0.03157236353116163,-0.00933035887166009,3.1999998092651367,2019-06-20 15:03:40:430
-7.239955078125,-7.798992614746093,0.3333874816894531,0.03917210774002846,-0.03050709909512993,-0.009729833035171977,3.2051198482513428,2019-06-20 15:03:40:435
-7.219604675292969,-7.813357604980468,0.3357816467285156,0.03917210774002846,-0.029974466877114084,-0.00933035887166009,3.210239887237549,2019-06-20 15:03:40:440
-7.250728820800781,-7.798992614746093,0.4004241027832031,0.039704739958044306,-0.030240782986122008,-0.009197200817156128,3.2151038646698,2019-06-20 15:03:40:445
-7.283050048828125,-7.813357604980468,0.4135920104980469,0.04023737217606015,-0.03050709909512993,-0.009064042762652167,3.220223903656006,2019-06-20 15:03:40:450
-7.256714233398437,-7.8313138427734375,0.34056997680664064,0.039704739958044306,-0.030107624931618046,-0.007332988054100662,3.225087881088257,2019-06-20 15:03:40:455
-7.260305480957031,-7.809766357421875,0.34176705932617185,0.03850631746750865,-0.0295749927136022,-0.0070666719450927385,3.230207920074463,2019-06-20 15:03:40:460
-7.265093811035156,-7.813357604980468,0.3621174621582031,0.039704739958044306,-0.029175518550090315,-0.0064008816725729285,3.235071897506714,2019-06-20 15:03:40:465
-7.257911315917968,-7.84328466796875,0.3561320495605469,0.039704739958044306,-0.0295749927136022,-0.0064008816725729285,3.24019193649292,2019-06-20 15:03:40:470
-7.256714233398437,-7.836102172851563,0.3692999572753906,0.039837898012548265,-0.028376570223066545,-0.006134565563565005,3.245055913925171,2019-06-20 15:03:40:475
-7.241152160644531,-7.836102172851563,0.3704970397949219,0.03997105606705223,-0.02890920244108239,-0.005868249454557082,3.250175952911377,2019-06-20 15:03:40:480
-7.255517150878906,-7.803780944824219,0.3956357727050781,0.039704739958044306,-0.028642886332074468,-0.0057350914000531186,3.255039930343628,2019-06-20 15:03:40:485
-7.273473388671875,-7.807372192382812,0.3633145446777344,0.03997105606705223,-0.029974466877114084,-0.005202459182037272,3.260159969329834,2019-06-20 15:03:40:490
-7.261502563476562,-7.819343017578125,0.32740206909179687,0.04010421412155619,-0.028642886332074468,-0.0050693011275333094,3.265023946762085,2019-06-20 15:03:40:495
-7.2770646362304685,-7.803780944824219,0.3453583068847656,0.03943842384903638,-0.029042360495586353,-0.004802985018525386,3.270143985748291,2019-06-20 15:03:40:500
-7.263896728515625,-7.806175109863281,0.34655538940429687,0.03877263357651657,-0.02890920244108239,-0.0050693011275333094,3.275007963180542,2019-06-20 15:03:40:505
-7.247137573242187,-7.820540100097656,0.3321903991699219,0.03997105606705223,-0.02877604438657843,-0.004802985018525386,3.280128002166748,2019-06-20 15:03:40:510
-7.242349243164062,-7.822934265136719,0.3321903991699219,0.04037053023056411,-0.028509728277570506,-0.004669826964021424,3.284991979598999,2019-06-20 15:03:40:515
-7.238757995605469,-7.819343017578125,0.3633145446777344,0.040503688285068076,-0.028376570223066545,-0.004137194746005576,3.290111780166626,2019-06-20 15:03:40:520
-7.266290893554688,-7.830116760253906,0.3501466369628906,0.03997105606705223,-0.028509728277570506,-0.0033382464189818046,3.295231819152832,2019-06-20 15:03:40:525
-7.260305480957031,-7.80497802734375,0.35852621459960937,0.03943842384903638,-0.027444463841538806,-0.0036045625279897287,3.300095796585083,2019-06-20 15:03:40:530
-7.254320068359375,-7.815751770019531,0.3309933166503906,0.03997105606705223,-0.026512357460011075,-0.0034714044734857666,3.305215835571289,2019-06-20 15:03:40:535
-7.26868505859375,-7.826525512695312,0.32141665649414064,0.039837898012548265,-0.02771077995054673,-0.002938772255469919,3.31007981300354,2019-06-20 15:03:40:540
-7.283050048828125,-7.794204284667969,0.3178254089355469,0.03957158190354034,-0.02811025411405862,-0.0050693011275333094,3.315199851989746,2019-06-20 15:03:40:545
-7.273473388671875,-7.8169488525390625,0.32261373901367185,0.03930526579453242,-0.029175518550090315,-0.004802985018525386,3.320063829421997,2019-06-20 15:03:40:550
-7.257911315917968,-7.803780944824219,0.3250079040527344,0.040503688285068076,-0.02877604438657843,-0.004270352800509538,3.325183868408203,2019-06-20 15:03:40:555
-7.286641296386718,-7.803780944824219,0.3238108215332031,0.04010421412155619,-0.028642886332074468,-0.0040040366915016145,3.330047845840454,2019-06-20 15:03:40:560
-7.293823791503906,-7.803780944824219,0.34894955444335934,0.039038949685524495,-0.028642886332074468,-0.0044035108550135,3.33516788482666,2019-06-20 15:03:40:565
-7.311780029296875,-7.782233459472656,0.3621174621582031,0.03957158190354034,-0.028509728277570506,-0.0034714044734857666,3.340031862258911,2019-06-20 15:03:40:570
-7.281852966308594,-7.789415954589844,0.36690579223632813,0.03930526579453242,-0.02797709605955466,-0.004137194746005576,3.345151901245117,2019-06-20 15:03:40:575
-7.285444213867187,-7.784627624511718,0.32859915161132813,0.038905791631020537,-0.02890920244108239,-0.0050693011275333094,3.350015878677368,2019-06-20 15:03:40:580
-7.2770646362304685,-7.809766357421875,0.35373788452148436,0.038240001358500725,-0.02877604438657843,-0.005202459182037272,3.355135917663574,2019-06-20 15:03:40:585
-7.261502563476562,-7.809766357421875,0.3429641418457031,0.03850631746750865,-0.028243412168562583,-0.004802985018525386,3.359999895095825,2019-06-20 15:03:40:590
-7.26868505859375,-7.822934265136719,0.3501466369628906,0.038240001358500725,-0.028376570223066545,-0.005601933345549157,3.3651199340820312,2019-06-20 15:03:40:595
-7.244743408203125,-7.80497802734375,0.3381758117675781,0.03810684330399676,-0.029974466877114084,-0.0050693011275333094,3.3702399730682373,2019-06-20 15:03:40:600
-7.2914296264648435,-7.826525512695312,0.3309933166503906,0.03850631746750865,-0.030773415204137854,-0.005868249454557082,3.3751039505004883,2019-06-20 15:03:40:605
-7.280655883789063,-7.819343017578125,0.34894955444335934,0.03810684330399676,-0.02890920244108239,-0.005468775291045195,3.3802239894866943,2019-06-20 15:03:40:610
-7.24953173828125,-7.810963439941406,0.3429641418457031,0.038240001358500725,-0.03050709909512993,-0.0057350914000531186,3.3850879669189453,2019-06-20 15:03:40:615
-7.28783837890625,-7.798992614746093,0.3381758117675781,0.0379736852494928,-0.031039731313145778,-0.004669826964021424,3.3902080059051514,2019-06-20 15:03:40:620
-7.257911315917968,-7.777445129394531,0.3525408020019531,0.03877263357651657,-0.03117288936764974,-0.005868249454557082,3.3950719833374023,2019-06-20 15:03:40:625
-7.266290893554688,-7.791810119628906,0.34056997680664064,0.03877263357651657,-0.03157236353116163,-0.006001407509061044,3.4001917839050293,2019-06-20 15:03:40:630
-7.298612121582031,-7.812160522460937,0.31543124389648436,0.03837315941300468,-0.03170552158566559,-0.006667197781580852,3.4050559997558594,2019-06-20 15:03:40:635
-7.289035461425781,-7.793007202148437,0.3573291320800781,0.038905791631020537,-0.031039731313145778,-0.006001407509061044,3.4101758003234863,2019-06-20 15:03:40:640
-7.275867553710937,-7.812160522460937,0.3393728942871094,0.03810684330399676,-0.03250446991268936,-0.005601933345549157,3.4150397777557373,2019-06-20 15:03:40:645
-7.263896728515625,-7.793007202148437,0.35972329711914064,0.03850631746750865,-0.03263762796719332,-0.005335617236541234,3.4201598167419434,2019-06-20 15:03:40:650
-7.274670471191406,-7.801386779785156,0.2783216857910156,0.038240001358500725,-0.03170552158566559,-0.006933513890588777,3.4250237941741943,2019-06-20 15:03:40:655
-7.260305480957031,-7.821737182617188,0.34056997680664064,0.03810684330399676,-0.030640257149633893,-0.0064008816725729285,3.4301438331604004,2019-06-20 15:03:40:660
-7.2626996459960935,-7.8325109252929686,0.34176705932617185,0.03810684330399676,-0.03157236353116163,-0.006667197781580852,3.4350078105926514,2019-06-20 15:03:40:665
-7.251925903320313,-7.801386779785156,0.3178254089355469,0.03810684330399676,-0.0323713118581854,-0.0064008816725729285,3.4401278495788574,2019-06-20 15:03:40:670
-7.241152160644531,-7.777445129394531,0.3549349670410156,0.03837315941300468,-0.032770786021697286,-0.0070666719450927385,3.4452478885650635,2019-06-20 15:03:40:675
-7.266290893554688,-7.818145935058594,0.3357816467285156,0.03863947552201261,-0.03050709909512993,-0.007599304163108585,3.4501118659973145,2019-06-20 15:03:40:680
-7.290232543945312,-7.812160522460937,0.3321903991699219,0.037840527194988836,-0.03050709909512993,-0.0071998299995967,3.4552319049835205,2019-06-20 15:03:40:685
-7.296217956542969,-7.812160522460937,0.33458456420898436,0.03863947552201261,-0.031306047422153704,-0.0077324622176125485,3.4600958824157715,2019-06-20 15:03:40:690
-7.26868505859375,-7.7882188720703125,0.3178254089355469,0.039038949685524495,-0.031971837694673516,-0.007599304163108585,3.4652159214019775,2019-06-20 15:03:40:695
-7.289035461425781,-7.794204284667969,0.30824874877929687,0.03877263357651657,-0.03050709909512993,-0.0074661461086046235,3.4700798988342285,2019-06-20 15:03:40:700
-7.318962524414062,-7.793007202148437,0.30944583129882813,0.03930526579453242,-0.03050709909512993,-0.008131936381124433,3.4751999378204346,2019-06-20 15:03:40:705
-7.2914296264648435,-7.803780944824219,0.3262049865722656,0.040503688285068076,-0.0295749927136022,-0.008131936381124433,3.4800639152526855,2019-06-20 15:03:40:710
-7.284247131347656,-7.793007202148437,0.32261373901367185,0.039038949685524495,-0.03050709909512993,-0.0071998299995967,3.4851839542388916,2019-06-20 15:03:40:715
-7.28783837890625,-7.814554687499999,0.33458456420898436,0.03810684330399676,-0.029841308822610123,-0.007599304163108585,3.4900479316711426,2019-06-20 15:03:40:720
-7.275867553710937,-7.7954013671875,0.3453583068847656,0.038240001358500725,-0.030906573258641816,-0.008797726653644243,3.4951679706573486,2019-06-20 15:03:40:725
-7.280655883789063,-7.777445129394531,0.36690579223632813,0.0379736852494928,-0.030906573258641816,-0.008797726653644243,3.5000319480895996,2019-06-20 15:03:40:730
-7.298612121582031,-7.806175109863281,0.38007369995117185,0.03943842384903638,-0.030107624931618046,-0.009463516926164052,3.5051519870758057,2019-06-20 15:03:40:735
-7.279458801269531,-7.814554687499999,0.3393728942871094,0.03957158190354034,-0.03037394104062597,-0.009729833035171977,3.5100159645080566,2019-06-20 15:03:40:740
-7.26868505859375,-7.801386779785156,0.3333874816894531,0.03957158190354034,-0.031039731313145778,-0.008664568599140282,3.5151360034942627,2019-06-20 15:03:40:745
-7.256714233398437,-7.8025838623046875,0.3010662536621094,0.039837898012548265,-0.03050709909512993,-0.008265094435628395,3.5199999809265137,2019-06-20 15:03:40:750
-7.273473388671875,-7.783430541992187,0.34655538940429687,0.03957158190354034,-0.03143920547665766,-0.008664568599140282,3.5251197814941406,2019-06-20 15:03:40:755
-7.241152160644531,-7.806175109863281,0.3633145446777344,0.03957158190354034,-0.029974466877114084,-0.008664568599140282,3.5302398204803467,2019-06-20 15:03:40:760
-7.286641296386718,-7.793007202148437,0.3441612243652344,0.03917210774002846,-0.030240782986122008,-0.008531410544636318,3.5351037979125977,2019-06-20 15:03:40:765
-7.290232543945312,-7.813357604980468,0.35852621459960937,0.03997105606705223,-0.02877604438657843,-0.007998778326620472,3.5402238368988037,2019-06-20 15:03:40:770
-7.280655883789063,-7.7954013671875,0.3549349670410156,0.039038949685524495,-0.029974466877114084,-0.008131936381124433,3.5450878143310547,2019-06-20 15:03:40:775
-7.285444213867187,-7.800189697265624,0.3381758117675781,0.039704739958044306,-0.029974466877114084,-0.008531410544636318,3.5502078533172607,2019-06-20 15:03:40:780
-7.2974150390625,-7.771459716796874,0.32740206909179687,0.03943842384903638,-0.029441834659098238,-0.009064042762652167,3.5550718307495117,2019-06-20 15:03:40:785
-7.266290893554688,-7.794204284667969,0.30944583129882813,0.03930526579453242,-0.030240782986122008,-0.008531410544636318,3.5601918697357178,2019-06-20 15:03:40:790
-7.284247131347656,-7.794204284667969,0.32740206909179687,0.04010421412155619,-0.029308676604594276,-0.008797726653644243,3.5650558471679688,2019-06-20 15:03:40:795
-7.27826171875,-7.789415954589844,0.3333874816894531,0.04023737217606015,-0.03037394104062597,-0.009729833035171977,3.570175886154175,2019-06-20 15:03:40:800
-7.280655883789063,-7.797795532226562,0.2974750061035156,0.039704739958044306,-0.029441834659098238,-0.009596674980668015,3.575039863586426,2019-06-20 15:03:40:805
-7.27826171875,-7.810963439941406,0.3070516662597656,0.04023737217606015,-0.0295749927136022,-0.010795097471203672,3.580159902572632,2019-06-20 15:03:40:810
-7.301006286621093,-7.803780944824219,0.3561320495605469,0.040503688285068076,-0.030107624931618046,-0.01066193941669971,3.585023880004883,2019-06-20 15:03:40:815
-7.296217956542969,-7.789415954589844,0.3262049865722656,0.039704739958044306,-0.0295749927136022,-0.010528781362195748,3.590143918991089,2019-06-20 15:03:40:820
-7.285444213867187,-7.797795532226562,0.3250079040527344,0.03930526579453242,-0.02970815076810616,-0.011061413580211595,3.59500789642334,2019-06-20 15:03:40:825
-7.281852966308594,-7.810963439941406,0.3381758117675781,0.03957158190354034,-0.030640257149633893,-0.010795097471203672,3.600127935409546,2019-06-20 15:03:40:830
-7.295020874023438,-7.800189697265624,0.3645116271972656,0.03957158190354034,-0.029308676604594276,-0.010395623307691787,3.604991912841797,2019-06-20 15:03:40:835
-7.2770646362304685,-7.7882188720703125,0.3453583068847656,0.04010421412155619,-0.0295749927136022,-0.011194571634715558,3.610111951828003,2019-06-20 15:03:40:840
-7.3057946166992185,-7.822934265136719,0.36092037963867185,0.039837898012548265,-0.029308676604594276,-0.011460887743723482,3.615231990814209,2019-06-20 15:03:40:845
-7.299809204101562,-7.820540100097656,0.3238108215332031,0.03957158190354034,-0.02970815076810616,-0.011727203852731405,3.62009596824646,2019-06-20 15:03:40:850
-7.2770646362304685,-7.818145935058594,0.3453583068847656,0.03863947552201261,-0.030107624931618046,-0.011194571634715558,3.625215768814087,2019-06-20 15:03:40:855
