ACCELEROMETER X (m/s²),ACCELEROMETER Y (m/s²),ACCELEROMETER Z (m/s²),GYROSCOPE X (rad/s),GYROSCOPE Y (rad/s),GYROSCOPE Z (rad/s),Time since start in ms ,YYYY-MO-DD HH-MI-SS_SSS
8.018058715820313,-2.3630408935546874,0.06883224487304687,0.04116947855758789,-0.027178147732530883,-0.009197200817156128,0.0,2019-06-20 16:03:03:052
7.99651123046875,-2.3594496459960936,0.09875930786132812,0.04183526883010769,-0.02611288329649919,-0.008531410544636318,0.0048639774322509766,2019-06-20 16:03:03:057
7.994117065429688,-2.3642379760742185,0.09995639038085938,0.04116947855758789,-0.02691183162352296,-0.008398252490132357,0.009984016418457031,2019-06-20 16:03:03:062
8.013270385742187,-2.352267150878906,0.08319723510742187,0.041702110775603735,-0.026512357460011075,-0.008664568599140282,0.014847993850708008,2019-06-20 16:03:03:067
8.0252412109375,-2.3726175537109375,0.07960598754882812,0.04090316244857996,-0.02531393496947542,-0.009064042762652167,0.019968032836914062,2019-06-20 16:03:03:072
8.009679138183593,-2.392967956542969,0.08559140014648438,0.04143579466659581,-0.025180776914971458,-0.009463516926164052,0.02483201026916504,2019-06-20 16:03:03:077
8.020452880859375,-2.3905737915039063,0.10713888549804687,0.04090316244857996,-0.02624604135100315,-0.009463516926164052,0.029952049255371094,2019-06-20 16:03:03:082
8.032423706054688,-2.378602966308594,0.08559140014648438,0.040636846339572034,-0.026645515514515036,-0.008797726653644243,0.03481602668762207,2019-06-20 16:03:03:087
8.031226623535156,-2.3558583984375,0.09397097778320312,0.04103632050308392,-0.025713409132987305,-0.008531410544636318,0.039936065673828125,2019-06-20 16:03:03:092
8.019255798339843,-2.3774058837890624,0.08439431762695312,0.04103632050308392,-0.025713409132987305,-0.00933035887166009,0.0448000431060791,2019-06-20 16:03:03:097
8.028832458496094,-2.3690263061523438,0.10474472045898438,0.04156895272109977,-0.026512357460011075,-0.009197200817156128,0.049920082092285156,2019-06-20 16:03:03:102
8.039606201171875,-2.3750117187499997,0.09397097778320312,0.042101584939115616,-0.025979725241995228,-0.008664568599140282,0.05478405952453613,2019-06-20 16:03:03:107
8.006087890625,-2.379800048828125,0.12150387573242187,0.04156895272109977,-0.024914460805963535,-0.009064042762652167,0.05990409851074219,2019-06-20 16:03:03:112
8.001299560546874,-2.380997131347656,0.09397097778320312,0.04103632050308392,-0.024781302751459573,-0.007998778326620472,0.06476807594299316,2019-06-20 16:03:03:117
8.006087890625,-2.3642379760742185,0.11432138061523438,0.04116947855758789,-0.026512357460011075,-0.008531410544636318,0.06988811492919922,2019-06-20 16:03:03:122
8.027635375976562,-2.3738146362304686,0.09995639038085938,0.04103632050308392,-0.02704498967802692,-0.008930884708148205,0.07500815391540527,2019-06-20 16:03:03:127
8.028832458496094,-2.3390992431640623,0.06284683227539062,0.04116947855758789,-0.026379199405507113,-0.009463516926164052,0.07987213134765625,2019-06-20 16:03:03:132
8.03601495361328,-2.366632141113281,0.053270172119140625,0.04143579466659581,-0.025580251078483343,-0.009463516926164052,0.0849921703338623,2019-06-20 16:03:03:137
8.031226623535156,-2.3678292236328122,0.09636514282226562,0.04156895272109977,-0.02451498664245165,-0.008398252490132357,0.08985614776611328,2019-06-20 16:03:03:142
8.016861633300781,-2.3941650390625,0.13108053588867188,0.040503688285068076,-0.024781302751459573,-0.007998778326620472,0.09497618675231934,2019-06-20 16:03:03:147
8.033620788574218,-2.357055480957031,0.055664337158203125,0.03997105606705223,-0.025979725241995228,-0.00786562027211651,0.09984016418457031,2019-06-20 16:03:03:152
8.037212036132813,-2.3558583984375,0.04728475952148437,0.040503688285068076,-0.026645515514515036,-0.00786562027211651,0.10496020317077637,2019-06-20 16:03:03:157
8.052774108886718,-2.380997131347656,0.09875930786132812,0.04010421412155619,-0.026512357460011075,-0.007998778326620472,0.10982418060302734,2019-06-20 16:03:03:162
8.040803283691407,-2.378602966308594,0.09636514282226562,0.03943842384903638,-0.026379199405507113,-0.0070666719450927385,0.1149439811706543,2019-06-20 16:03:03:167
8.043197448730469,-2.3869825439453125,0.06284683227539062,0.040636846339572034,-0.02544709302397938,-0.0070666719450927385,0.11980819702148438,2019-06-20 16:03:03:172
8.03481787109375,-2.3881796264648436,0.08200015258789062,0.04156895272109977,-0.025846567187491266,-0.006800355836084815,0.12492799758911133,2019-06-20 16:03:03:177
8.038409118652343,-2.3594496459960936,0.11432138061523438,0.041302636612091846,-0.02611288329649919,-0.0077324622176125485,0.1297922134399414,2019-06-20 16:03:03:182
8.046788696289063,-2.3678292236328122,0.11073013305664062,0.04090316244857996,-0.026379199405507113,-0.008131936381124433,0.13491201400756836,2019-06-20 16:03:03:187
8.039606201171875,-2.36543505859375,0.07122640991210938,0.04010421412155619,-0.025846567187491266,-0.00786562027211651,0.13977599143981934,2019-06-20 16:03:03:192
8.046788696289063,-2.3917708740234374,0.09995639038085938,0.04010421412155619,-0.025180776914971458,-0.007599304163108585,0.1448960304260254,2019-06-20 16:03:03:197
8.0252412109375,-2.378602966308594,0.09037973022460938,0.04143579466659581,-0.026778673569018998,-0.0077324622176125485,0.14976000785827637,2019-06-20 16:03:03:202
8.067139099121093,-2.3869825439453125,0.1274892883300781,0.04183526883010769,-0.026379199405507113,-0.0071998299995967,0.15488004684448242,2019-06-20 16:03:03:207
8.057562438964844,-2.3965592041015626,0.09516806030273438,0.04090316244857996,-0.026645515514515036,-0.008131936381124433,0.16000008583068848,2019-06-20 16:03:03:212
8.037212036132813,-2.4001504516601564,0.10235055541992187,0.04037053023056411,-0.02704498967802692,-0.008265094435628395,0.16486406326293945,2019-06-20 16:03:03:217
8.019255798339843,-2.3690263061523438,0.12030679321289062,0.04023737217606015,-0.02704498967802692,-0.008265094435628395,0.1699841022491455,2019-06-20 16:03:03:222
8.021649963378906,-2.3678292236328122,0.08080307006835938,0.04037053023056411,-0.02624604135100315,-0.00786562027211651,0.17484807968139648,2019-06-20 16:03:03:227
8.012073303222657,-2.366632141113281,0.09277389526367187,0.040503688285068076,-0.02624604135100315,-0.007332988054100662,0.17996811866760254,2019-06-20 16:03:03:232
8.008482055664063,-2.3618438110351563,0.07601473999023438,0.041302636612091846,-0.026512357460011075,-0.007599304163108585,0.18483209609985352,2019-06-20 16:03:03:237
8.010876220703125,-2.3738146362304686,0.09875930786132812,0.04023737217606015,-0.025846567187491266,-0.0077324622176125485,0.18995213508605957,2019-06-20 16:03:03:242
7.9917229003906245,-2.371420471191406,0.10235055541992187,0.03943842384903638,-0.026645515514515036,-0.007332988054100662,0.19481611251831055,2019-06-20 16:03:03:247
7.998905395507812,-2.380997131347656,0.09397097778320312,0.03997105606705223,-0.026778673569018998,-0.006933513890588777,0.1999361515045166,2019-06-20 16:03:03:252
8.010876220703125,-2.3630408935546874,0.07122640991210938,0.04143579466659581,-0.02691183162352296,-0.006933513890588777,0.20480012893676758,2019-06-20 16:03:03:257
8.030029541015624,-2.3474788208007813,0.10235055541992187,0.04143579466659581,-0.026379199405507113,-0.007599304163108585,0.20992016792297363,2019-06-20 16:03:03:262
8.046788696289063,-2.366632141113281,0.08559140014648438,0.04156895272109977,-0.02624604135100315,-0.008930884708148205,0.2147841453552246,2019-06-20 16:03:03:267
8.037212036132813,-2.371420471191406,0.024540191650390626,0.040770004394076,-0.02624604135100315,-0.00786562027211651,0.21990418434143066,2019-06-20 16:03:03:272
8.018058715820313,-2.395362121582031,0.09636514282226562,0.040503688285068076,-0.02691183162352296,-0.006667197781580852,0.22476816177368164,2019-06-20 16:03:03:277
8.019255798339843,-2.38458837890625,0.08080307006835938,0.04143579466659581,-0.02624604135100315,-0.006933513890588777,0.2298882007598877,2019-06-20 16:03:03:282
7.9917229003906245,-2.379800048828125,0.10115347290039062,0.041302636612091846,-0.02704498967802692,-0.007332988054100662,0.23475217819213867,2019-06-20 16:03:03:287
8.008482055664063,-2.3750117187499997,0.10713888549804687,0.04103632050308392,-0.02611288329649919,-0.0074661461086046235,0.23987197875976562,2019-06-20 16:03:03:292
8.03601495361328,-2.370223388671875,0.09636514282226562,0.03997105606705223,-0.026512357460011075,-0.007599304163108585,0.24499201774597168,2019-06-20 16:03:03:297
8.00728497314453,-2.370223388671875,0.06524099731445313,0.04103632050308392,-0.02691183162352296,-0.0074661461086046235,0.24985599517822266,2019-06-20 16:03:03:302
8.009679138183593,-2.366632141113281,0.09516806030273438,0.04037053023056411,-0.026645515514515036,-0.007332988054100662,0.2549760341644287,2019-06-20 16:03:03:307
8.027635375976562,-2.3774058837890624,0.08319723510742187,0.04090316244857996,-0.02691183162352296,-0.006800355836084815,0.2598400115966797,2019-06-20 16:03:03:312
8.027635375976562,-2.378602966308594,0.08559140014648438,0.04090316244857996,-0.02771077995054673,-0.006933513890588777,0.26496005058288574,2019-06-20 16:03:03:317
8.018058715820313,-2.354661315917969,0.11192721557617187,0.041302636612091846,-0.026512357460011075,-0.006933513890588777,0.2698240280151367,2019-06-20 16:03:03:322
8.024044128417968,-2.366632141113281,0.09397097778320312,0.041702110775603735,-0.026778673569018998,-0.00786562027211651,0.2749440670013428,2019-06-20 16:03:03:327
8.00728497314453,-2.3881796264648436,0.09756222534179687,0.04143579466659581,-0.025979725241995228,-0.006800355836084815,0.27980804443359375,2019-06-20 16:03:03:332
8.00728497314453,-2.389376708984375,0.06524099731445313,0.041302636612091846,-0.026645515514515036,-0.006134565563565005,0.2849280834197998,2019-06-20 16:03:03:337
8.012073303222657,-2.3618438110351563,0.09516806030273438,0.040770004394076,-0.025846567187491266,-0.0070666719450927385,0.2897920608520508,2019-06-20 16:03:03:342
8.038409118652343,-2.3630408935546874,0.10594180297851562,0.039704739958044306,-0.025846567187491266,-0.0064008816725729285,0.29491209983825684,2019-06-20 16:03:03:347
7.985737487792969,-2.380997131347656,0.08798556518554687,0.040503688285068076,-0.025979725241995228,-0.006800355836084815,0.2997760772705078,2019-06-20 16:03:03:352
8.010876220703125,-2.3857854614257814,0.11910971069335938,0.04090316244857996,-0.025846567187491266,-0.00653403972707689,0.30489611625671387,2019-06-20 16:03:03:357
8.024044128417968,-2.380997131347656,0.13347470092773436,0.041302636612091846,-0.026379199405507113,-0.0064008816725729285,0.30976009368896484,2019-06-20 16:03:03:362
8.013270385742187,-2.3738146362304686,0.08200015258789062,0.040636846339572034,-0.02611288329649919,-0.006134565563565005,0.3148801326751709,2019-06-20 16:03:03:367
8.046788696289063,-2.379800048828125,0.10474472045898438,0.04023737217606015,-0.02691183162352296,-0.006267723618068967,0.32000017166137695,2019-06-20 16:03:03:372
8.031226623535156,-2.4001504516601564,0.11671554565429687,0.04023737217606015,-0.02611288329649919,-0.006001407509061044,0.32486414909362793,2019-06-20 16:03:03:377
8.027635375976562,-2.4025446166992186,0.10115347290039062,0.040503688285068076,-0.027178147732530883,-0.006134565563565005,0.329984188079834,2019-06-20 16:03:03:382
8.00728497314453,-2.40374169921875,0.050876007080078126,0.04037053023056411,-0.027577621896042768,-0.0070666719450927385,0.33484816551208496,2019-06-20 16:03:03:387
8.030029541015624,-2.4061358642578123,0.07840890502929687,0.03957158190354034,-0.02611288329649919,-0.0070666719450927385,0.339968204498291,2019-06-20 16:03:03:392
8.014467468261719,-2.3678292236328122,0.09397097778320312,0.03997105606705223,-0.027178147732530883,-0.0070666719450927385,0.344832181930542,2019-06-20 16:03:03:397
8.016861633300781,-2.3582525634765625,0.055664337158203125,0.03997105606705223,-0.025979725241995228,-0.008131936381124433,0.34995198249816895,2019-06-20 16:03:03:402
8.00728497314453,-2.3762088012695313,0.11312429809570312,0.040770004394076,-0.025979725241995228,-0.008398252490132357,0.354816198348999,2019-06-20 16:03:03:407
8.040803283691407,-2.389376708984375,0.08678848266601562,0.04143579466659581,-0.026379199405507113,-0.008797726653644243,0.359935998916626,2019-06-20 16:03:03:412
7.988131652832031,-2.3857854614257814,0.12150387573242187,0.040503688285068076,-0.02691183162352296,-0.008664568599140282,0.36480021476745605,2019-06-20 16:03:03:417
7.990525817871093,-2.3678292236328122,0.09157681274414062,0.04090316244857996,-0.026778673569018998,-0.008131936381124433,0.369920015335083,2019-06-20 16:03:03:422
8.012073303222657,-2.371420471191406,0.12509512329101563,0.04023737217606015,-0.02611288329649919,-0.008664568599140282,0.374783992767334,2019-06-20 16:03:03:427
8.001299560546874,-2.371420471191406,0.08319723510742187,0.03997105606705223,-0.02704498967802692,-0.008797726653644243,0.37990403175354004,2019-06-20 16:03:03:432
7.995314147949219,-2.3630408935546874,0.10115347290039062,0.03997105606705223,-0.026512357460011075,-0.008930884708148205,0.384768009185791,2019-06-20 16:03:03:437
8.00728497314453,-2.3833912963867188,0.10115347290039062,0.04090316244857996,-0.025846567187491266,-0.008531410544636318,0.38988804817199707,2019-06-20 16:03:03:442
8.018058715820313,-2.370223388671875,0.09037973022460938,0.040503688285068076,-0.026512357460011075,-0.008930884708148205,0.39475202560424805,2019-06-20 16:03:03:447
8.037212036132813,-2.370223388671875,0.08439431762695312,0.039837898012548265,-0.026512357460011075,-0.008131936381124433,0.3998720645904541,2019-06-20 16:03:03:452
8.019255798339843,-2.366632141113281,0.08678848266601562,0.03943842384903638,-0.027178147732530883,-0.008265094435628395,0.40499210357666016,2019-06-20 16:03:03:457
7.995314147949219,-2.370223388671875,0.06643807983398438,0.04037053023056411,-0.026512357460011075,-0.008265094435628395,0.40985608100891113,2019-06-20 16:03:03:462
8.00728497314453,-2.3642379760742185,0.09875930786132812,0.04090316244857996,-0.02464814469695561,-0.008531410544636318,0.4149761199951172,2019-06-20 16:03:03:467
8.024044128417968,-2.3594496459960936,0.08918264770507812,0.04010421412155619,-0.025979725241995228,-0.008797726653644243,0.41984009742736816,2019-06-20 16:03:03:472
8.021649963378906,-2.3857854614257814,0.11073013305664062,0.040770004394076,-0.02704498967802692,-0.008398252490132357,0.4249601364135742,2019-06-20 16:03:03:477
8.028832458496094,-2.38458837890625,0.10833596801757812,0.04037053023056411,-0.02624604135100315,-0.008930884708148205,0.4298241138458252,2019-06-20 16:03:03:482
8.013270385742187,-2.3738146362304686,0.10953305053710938,0.04116947855758789,-0.027311305787034845,-0.009197200817156128,0.43494415283203125,2019-06-20 16:03:03:487
8.043197448730469,-2.379800048828125,0.10833596801757812,0.04090316244857996,-0.026379199405507113,-0.008797726653644243,0.4398081302642822,2019-06-20 16:03:03:492
8.038409118652343,-2.389376708984375,0.11671554565429687,0.040770004394076,-0.02611288329649919,-0.008531410544636318,0.4449281692504883,2019-06-20 16:03:03:497
8.0252412109375,-2.3905737915039063,0.13826303100585938,0.040636846339572034,-0.025713409132987305,-0.008664568599140282,0.44979214668273926,2019-06-20 16:03:03:502
8.013270385742187,-2.4013475341796875,0.07840890502929687,0.04010421412155619,-0.02531393496947542,-0.008531410544636318,0.4549121856689453,2019-06-20 16:03:03:507
8.010876220703125,-2.4049387817382812,0.05925558471679687,0.040636846339572034,-0.025713409132987305,-0.008398252490132357,0.4597761631011963,2019-06-20 16:03:03:512
8.020452880859375,-2.3630408935546874,0.12030679321289062,0.041302636612091846,-0.02611288329649919,-0.008131936381124433,0.46489620208740234,2019-06-20 16:03:03:517
8.022847045898438,-2.3606467285156247,0.10115347290039062,0.04103632050308392,-0.02531393496947542,-0.008930884708148205,0.4697601795196533,2019-06-20 16:03:03:522
8.037212036132813,-2.3558583984375,0.08319723510742187,0.04103632050308392,-0.02544709302397938,-0.008797726653644243,0.4748799800872803,2019-06-20 16:03:03:527
8.0252412109375,-2.3630408935546874,0.11192721557617187,0.040636846339572034,-0.025846567187491266,-0.008131936381124433,0.48000001907348633,2019-06-20 16:03:03:532
8.024044128417968,-2.3774058837890624,0.10474472045898438,0.040770004394076,-0.026379199405507113,-0.008131936381124433,0.4848639965057373,2019-06-20 16:03:03:537
8.032423706054688,-2.3726175537109375,0.06524099731445313,0.04023737217606015,-0.027311305787034845,-0.008265094435628395,0.48998403549194336,2019-06-20 16:03:03:542
8.038409118652343,-2.3558583984375,0.12030679321289062,0.04116947855758789,-0.02611288329649919,-0.008131936381124433,0.49484801292419434,2019-06-20 16:03:03:547
8.019255798339843,-2.3726175537109375,0.12509512329101563,0.04037053023056411,-0.026379199405507113,-0.008664568599140282,0.4999680519104004,2019-06-20 16:03:03:552
8.040803283691407,-2.371420471191406,0.09995639038085938,0.040770004394076,-0.026512357460011075,-0.008265094435628395,0.5048320293426514,2019-06-20 16:03:03:557
8.009679138183593,-2.3857854614257814,0.09875930786132812,0.040636846339572034,-0.026645515514515036,-0.00786562027211651,0.5099520683288574,2019-06-20 16:03:03:562
7.9869345703125,-2.38458837890625,0.09875930786132812,0.03997105606705223,-0.027311305787034845,-0.008131936381124433,0.5148160457611084,2019-06-20 16:03:03:567
8.001299560546874,-2.398953369140625,0.07601473999023438,0.040503688285068076,-0.02811025411405862,-0.008531410544636318,0.5199360847473145,2019-06-20 16:03:03:572
8.047985778808593,-2.4169096069335936,0.09756222534179687,0.04103632050308392,-0.02704498967802692,-0.008398252490132357,0.5248000621795654,2019-06-20 16:03:03:577
8.019255798339843,-2.3941650390625,0.05925558471679687,0.04090316244857996,-0.026512357460011075,-0.009064042762652167,0.5299201011657715,2019-06-20 16:03:03:582
8.006087890625,-2.3726175537109375,0.10953305053710938,0.04143579466659581,-0.026645515514515036,-0.00933035887166009,0.5347840785980225,2019-06-20 16:03:03:587
8.001299560546874,-2.3630408935546874,0.09516806030273438,0.04116947855758789,-0.025580251078483343,-0.008664568599140282,0.5399041175842285,2019-06-20 16:03:03:592
8.014467468261719,-2.3774058837890624,0.07840890502929687,0.040503688285068076,-0.024781302751459573,-0.008797726653644243,0.5447680950164795,2019-06-20 16:03:03:597
8.0252412109375,-2.3606467285156247,0.08798556518554687,0.04143579466659581,-0.024914460805963535,-0.008531410544636318,0.5498881340026855,2019-06-20 16:03:03:602
8.021649963378906,-2.323537170410156,0.12270095825195312,0.04103632050308392,-0.026379199405507113,-0.009729833035171977,0.5547521114349365,2019-06-20 16:03:03:607
8.022847045898438,-2.3726175537109375,0.11551846313476562,0.04090316244857996,-0.02611288329649919,-0.009197200817156128,0.5598721504211426,2019-06-20 16:03:03:612
8.016861633300781,-2.380997131347656,0.14783969116210938,0.041702110775603735,-0.025846567187491266,-0.008131936381124433,0.5649921894073486,2019-06-20 16:03:03:617
8.0252412109375,-2.366632141113281,0.14185427856445312,0.040770004394076,-0.025979725241995228,-0.008664568599140282,0.5698561668395996,2019-06-20 16:03:03:622
8.038409118652343,-2.378602966308594,0.09277389526367187,0.04143579466659581,-0.024781302751459573,-0.009197200817156128,0.5749762058258057,2019-06-20 16:03:03:627
8.021649963378906,-2.379800048828125,0.09037973022460938,0.04263421715713147,-0.025713409132987305,-0.008265094435628395,0.5798401832580566,2019-06-20 16:03:03:632
8.012073303222657,-2.3690263061523438,0.06883224487304687,0.04276737521163543,-0.025846567187491266,-0.008664568599140282,0.5849599838256836,2019-06-20 16:03:03:637
7.980949157714844,-2.380997131347656,0.055664337158203125,0.04156895272109977,-0.026379199405507113,-0.008930884708148205,0.5898241996765137,2019-06-20 16:03:03:642
8.006087890625,-2.3941650390625,0.09875930786132812,0.040770004394076,-0.026778673569018998,-0.008398252490132357,0.5949440002441406,2019-06-20 16:03:03:647
8.03481787109375,-2.3558583984375,0.11073013305664062,0.04103632050308392,-0.027178147732530883,-0.009064042762652167,0.5998079776763916,2019-06-20 16:03:03:652
8.057562438964844,-2.378602966308594,0.10713888549804687,0.04156895272109977,-0.02704498967802692,-0.008930884708148205,0.6049280166625977,2019-06-20 16:03:03:657
8.024044128417968,-2.3774058837890624,0.09756222534179687,0.040503688285068076,-0.025979725241995228,-0.008131936381124433,0.6097919940948486,2019-06-20 16:03:03:662
8.019255798339843,-2.3390992431640623,0.10713888549804687,0.040770004394076,-0.025580251078483343,-0.009064042762652167,0.6149120330810547,2019-06-20 16:03:03:667
8.020452880859375,-2.3630408935546874,0.07242349243164062,0.04023737217606015,-0.025979725241995228,-0.0077324622176125485,0.6197760105133057,2019-06-20 16:03:03:672
8.045591613769531,-2.3582525634765625,0.07721182250976562,0.04010421412155619,-0.026778673569018998,-0.0071998299995967,0.6248960494995117,2019-06-20 16:03:03:677
8.020452880859375,-2.3486759033203124,0.07960598754882812,0.040503688285068076,-0.027311305787034845,-0.0064008816725729285,0.6297600269317627,2019-06-20 16:03:03:682
8.008482055664063,-2.3606467285156247,0.10354763793945312,0.03997105606705223,-0.02691183162352296,-0.006667197781580852,0.6348800659179688,2019-06-20 16:03:03:687
8.00728497314453,-2.357055480957031,0.12988345336914062,0.04023737217606015,-0.026645515514515036,-0.006667197781580852,0.6400001049041748,2019-06-20 16:03:03:692
8.040803283691407,-2.3642379760742185,0.09756222534179687,0.041302636612091846,-0.02624604135100315,-0.006933513890588777,0.6448640823364258,2019-06-20 16:03:03:697
8.037212036132813,-2.352267150878906,0.09636514282226562,0.040770004394076,-0.02784393800505069,-0.007599304163108585,0.6499841213226318,2019-06-20 16:03:03:702
8.01566455078125,-2.3762088012695313,0.1274892883300781,0.03997105606705223,-0.026645515514515036,-0.007332988054100662,0.6548480987548828,2019-06-20 16:03:03:707
8.009679138183593,-2.3618438110351563,0.09037973022460938,0.04037053023056411,-0.025580251078483343,-0.006001407509061044,0.6599681377410889,2019-06-20 16:03:03:712
8.016861633300781,-2.3881796264648436,0.09277389526367187,0.04023737217606015,-0.02531393496947542,-0.004536668909517462,0.6648321151733398,2019-06-20 16:03:03:717
8.028832458496094,-2.3857854614257814,0.08918264770507812,0.039837898012548265,-0.02691183162352296,-0.0050693011275333094,0.6699521541595459,2019-06-20 16:03:03:722
8.028832458496094,-2.3738146362304686,0.11671554565429687,0.03957158190354034,-0.026778673569018998,-0.0050693011275333094,0.6748161315917969,2019-06-20 16:03:03:727
8.027635375976562,-2.3774058837890624,0.058058502197265625,0.03957158190354034,-0.026379199405507113,-0.005468775291045195,0.6799361705780029,2019-06-20 16:03:03:732
8.027635375976562,-2.3821942138671877,0.043693511962890626,0.03930526579453242,-0.025580251078483343,-0.005468775291045195,0.6848001480102539,2019-06-20 16:03:03:737
8.013270385742187,-2.3738146362304686,0.05925558471679687,0.039837898012548265,-0.025713409132987305,-0.004669826964021424,0.68992018699646,2019-06-20 16:03:03:742
8.010876220703125,-2.3630408935546874,0.09756222534179687,0.040503688285068076,-0.025180776914971458,-0.005202459182037272,0.6947841644287109,2019-06-20 16:03:03:747
8.014467468261719,-2.370223388671875,0.09995639038085938,0.04023737217606015,-0.025713409132987305,-0.006001407509061044,0.699904203414917,2019-06-20 16:03:03:752
8.000102478027344,-2.3750117187499997,0.11791262817382812,0.03917210774002846,-0.026645515514515036,-0.005868249454557082,0.704768180847168,2019-06-20 16:03:03:757
7.994117065429688,-2.380997131347656,0.11791262817382812,0.039038949685524495,-0.02704498967802692,-0.0064008816725729285,0.7098879814147949,2019-06-20 16:03:03:762
7.994117065429688,-2.4013475341796875,0.10594180297851562,0.03943842384903638,-0.02691183162352296,-0.0064008816725729285,0.714752197265625,2019-06-20 16:03:03:767
8.020452880859375,-2.407332946777344,0.09756222534179687,0.039837898012548265,-0.027444463841538806,-0.005868249454557082,0.719871997833252,2019-06-20 16:03:03:772
8.016861633300781,-2.389376708984375,0.12988345336914062,0.03997105606705223,-0.025180776914971458,-0.006134565563565005,0.724992036819458,2019-06-20 16:03:03:777
8.024044128417968,-2.4001504516601564,0.09397097778320312,0.04010421412155619,-0.02531393496947542,-0.00653403972707689,0.729856014251709,2019-06-20 16:03:03:782
8.010876220703125,-2.398953369140625,0.10235055541992187,0.040636846339572034,-0.026512357460011075,-0.0070666719450927385,0.734976053237915,2019-06-20 16:03:03:787
8.026438293457032,-2.3977562866210937,0.08200015258789062,0.04103632050308392,-0.02704498967802692,-0.006800355836084815,0.739840030670166,2019-06-20 16:03:03:792
8.01566455078125,-2.4001504516601564,0.08559140014648438,0.041302636612091846,-0.02624604135100315,-0.007599304163108585,0.7449600696563721,2019-06-20 16:03:03:797
8.04439453125,-2.407332946777344,0.07122640991210938,0.04090316244857996,-0.026379199405507113,-0.006800355836084815,0.749824047088623,2019-06-20 16:03:03:802
8.033620788574218,-2.38458837890625,0.08918264770507812,0.040770004394076,-0.025979725241995228,-0.00653403972707689,0.7549440860748291,2019-06-20 16:03:03:807
8.03601495361328,-2.380997131347656,0.06883224487304687,0.040503688285068076,-0.025580251078483343,-0.006800355836084815,0.7598080635070801,2019-06-20 16:03:03:812
8.031226623535156,-2.378602966308594,0.10953305053710938,0.04010421412155619,-0.026778673569018998,-0.00786562027211651,0.7649281024932861,2019-06-20 16:03:03:817
8.016861633300781,-2.3941650390625,0.09157681274414062,0.039837898012548265,-0.02704498967802692,-0.007998778326620472,0.7697920799255371,2019-06-20 16:03:03:822
8.003693725585938,-2.36543505859375,0.043693511962890626,0.040636846339572034,-0.025713409132987305,-0.008531410544636318,0.7749121189117432,2019-06-20 16:03:03:827
8.0252412109375,-2.370223388671875,0.08319723510742187,0.04116947855758789,-0.02611288329649919,-0.0074661461086046235,0.7797760963439941,2019-06-20 16:03:03:832
8.021649963378906,-2.3606467285156247,0.07960598754882812,0.040770004394076,-0.026645515514515036,-0.0071998299995967,0.7848961353302002,2019-06-20 16:03:03:837
8.021649963378906,-2.3618438110351563,0.12988345336914062,0.04116947855758789,-0.026778673569018998,-0.007599304163108585,0.7897601127624512,2019-06-20 16:03:03:842
8.01566455078125,-2.3857854614257814,0.11073013305664062,0.041302636612091846,-0.02531393496947542,-0.008664568599140282,0.7948801517486572,2019-06-20 16:03:03:847
8.030029541015624,-2.4001504516601564,0.10235055541992187,0.04090316244857996,-0.02544709302397938,-0.008398252490132357,0.8000001907348633,2019-06-20 16:03:03:852
8.022847045898438,-2.4001504516601564,0.11312429809570312,0.040770004394076,-0.026778673569018998,-0.010528781362195748,0.8048641681671143,2019-06-20 16:03:03:857
8.021649963378906,-2.3917708740234374,0.12629220581054687,0.04143579466659581,-0.026645515514515036,-0.009729833035171977,0.8099842071533203,2019-06-20 16:03:03:862
8.024044128417968,-2.3857854614257814,0.07840890502929687,0.04037053023056411,-0.025580251078483343,-0.008930884708148205,0.8148481845855713,2019-06-20 16:03:03:867
8.010876220703125,-2.409727111816406,0.09636514282226562,0.04037053023056411,-0.025979725241995228,-0.009197200817156128,0.8199679851531982,2019-06-20 16:03:03:872
8.010876220703125,-2.4169096069335936,0.10594180297851562,0.040503688285068076,-0.026778673569018998,-0.010262465253187823,0.8248322010040283,2019-06-20 16:03:03:877
8.000102478027344,-2.4061358642578123,0.11910971069335938,0.039837898012548265,-0.026778673569018998,-0.0099961491441799,0.8299520015716553,2019-06-20 16:03:03:882
8.028832458496094,-2.413318359375,0.13946011352539062,0.04023737217606015,-0.025047618860467497,-0.010528781362195748,0.8348159790039062,2019-06-20 16:03:03:887
8.002496643066406,-2.395362121582031,0.11910971069335938,0.041302636612091846,-0.02531393496947542,-0.010129307198683862,0.8399360179901123,2019-06-20 16:03:03:892
7.988131652832031,-2.3917708740234374,0.07242349243164062,0.041702110775603735,-0.025180776914971458,-0.0099961491441799,0.8447999954223633,2019-06-20 16:03:03:897
8.00728497314453,-2.407332946777344,0.05686141967773437,0.041302636612091846,-0.026512357460011075,-0.010528781362195748,0.8499200344085693,2019-06-20 16:03:03:902
8.002496643066406,-2.3965592041015626,0.09277389526367187,0.04183526883010769,-0.02704498967802692,-0.01066193941669971,0.8547840118408203,2019-06-20 16:03:03:907
7.997708312988281,-2.38458837890625,0.11551846313476562,0.04196842688461166,-0.026645515514515036,-0.011061413580211595,0.8599040508270264,2019-06-20 16:03:03:912
8.00728497314453,-2.380997131347656,0.11432138061523438,0.042367901048123546,-0.02624604135100315,-0.011460887743723482,0.8647680282592773,2019-06-20 16:03:03:917
7.971372497558594,-2.3821942138671877,0.060452667236328125,0.04223474299361958,-0.02611288329649919,-0.01132772968921952,0.8698880672454834,2019-06-20 16:03:03:922
8.013270385742187,-2.371420471191406,0.09277389526367187,0.041702110775603735,-0.026512357460011075,-0.011727203852731405,0.8747520446777344,2019-06-20 16:03:03:927
8.002496643066406,-2.3738146362304686,0.07481765747070312,0.04143579466659581,-0.02784393800505069,-0.011460887743723482,0.8798720836639404,2019-06-20 16:03:03:932
8.001299560546874,-2.3690263061523438,0.07840890502929687,0.04116947855758789,-0.02624604135100315,-0.01212667801624329,0.8849921226501465,2019-06-20 16:03:03:937
8.022847045898438,-2.3582525634765625,0.07840890502929687,0.04103632050308392,-0.026645515514515036,-0.01212667801624329,0.8898561000823975,2019-06-20 16:03:03:942
8.008482055664063,-2.3726175537109375,0.09037973022460938,0.041702110775603735,-0.02691183162352296,-0.011993519961739328,0.8949761390686035,2019-06-20 16:03:03:947
8.028832458496094,-2.352267150878906,0.10115347290039062,0.04196842688461166,-0.02611288329649919,-0.011594045798227443,0.8998401165008545,2019-06-20 16:03:03:952
8.039606201171875,-2.380997131347656,0.08200015258789062,0.040770004394076,-0.026379199405507113,-0.01066193941669971,0.9049601554870605,2019-06-20 16:03:03:957
8.0252412109375,-2.371420471191406,0.07481765747070312,0.04116947855758789,-0.025713409132987305,-0.01066193941669971,0.9098241329193115,2019-06-20 16:03:03:962
8.021649963378906,-2.3558583984375,0.12150387573242187,0.042501059102627504,-0.025846567187491266,-0.011860361907235367,0.9149441719055176,2019-06-20 16:03:03:967
8.055168273925782,-2.3618438110351563,0.07002932739257813,0.042367901048123546,-0.025979725241995228,-0.011993519961739328,0.9198081493377686,2019-06-20 16:03:03:972
8.049182861328125,-2.3678292236328122,0.09037973022460938,0.041702110775603735,-0.025713409132987305,-0.011727203852731405,0.9249281883239746,2019-06-20 16:03:03:977
8.070730346679687,-2.366632141113281,0.08918264770507812,0.041302636612091846,-0.026778673569018998,-0.011727203852731405,0.9297921657562256,2019-06-20 16:03:03:982
8.037212036132813,-2.3750117187499997,0.12509512329101563,0.04116947855758789,-0.025180776914971458,-0.010129307198683862,0.9349122047424316,2019-06-20 16:03:03:987
7.9929199829101565,-2.36543505859375,0.10115347290039062,0.04196842688461166,-0.027311305787034845,-0.009862991089675938,0.9400320053100586,2019-06-20 16:03:03:992
8.013270385742187,-2.3630408935546874,0.07601473999023438,0.042101584939115616,-0.026379199405507113,-0.010262465253187823,0.9448959827423096,2019-06-20 16:03:03:997
8.033620788574218,-2.3390992431640623,0.08559140014648438,0.04156895272109977,-0.02611288329649919,-0.010129307198683862,0.9497601985931396,2019-06-20 16:03:04:002
8.006087890625,-2.3534642333984372,0.10474472045898438,0.040636846339572034,-0.02611288329649919,-0.009197200817156128,0.9548799991607666,2019-06-20 16:03:04:007
8.049182861328125,-2.342690490722656,0.06404391479492187,0.04143579466659581,-0.02531393496947542,-0.00933035887166009,0.9600000381469727,2019-06-20 16:03:04:012
8.024044128417968,-2.3343109130859374,0.09037973022460938,0.04183526883010769,-0.02611288329649919,-0.008797726653644243,0.9648640155792236,2019-06-20 16:03:04:017
8.009679138183593,-2.3462817382812498,0.09277389526367187,0.04196842688461166,-0.02611288329649919,-0.008930884708148205,0.9699840545654297,2019-06-20 16:03:04:022
8.043197448730469,-2.366632141113281,0.10235055541992187,0.04090316244857996,-0.025713409132987305,-0.008398252490132357,0.9748480319976807,2019-06-20 16:03:04:027
8.040803283691407,-2.3630408935546874,0.09516806030273438,0.04116947855758789,-0.02624604135100315,-0.009064042762652167,0.9799680709838867,2019-06-20 16:03:04:032
8.049182861328125,-2.337902160644531,0.11073013305664062,0.042101584939115616,-0.026379199405507113,-0.009463516926164052,0.9848320484161377,2019-06-20 16:03:04:037
8.026438293457032,-2.3618438110351563,0.10713888549804687,0.04196842688461166,-0.026778673569018998,-0.009197200817156128,0.9899520874023438,2019-06-20 16:03:04:042
8.03481787109375,-2.371420471191406,0.11432138061523438,0.041302636612091846,-0.026512357460011075,-0.008265094435628395,0.9948160648345947,2019-06-20 16:03:04:047
8.022847045898438,-2.3618438110351563,0.11192721557617187,0.040770004394076,-0.026512357460011075,-0.007998778326620472,0.9999361038208008,2019-06-20 16:03:04:052
8.022847045898438,-2.380997131347656,0.09516806030273438,0.040636846339572034,-0.026778673569018998,-0.007599304163108585,1.0048000812530518,2019-06-20 16:03:04:057
8.010876220703125,-2.38458837890625,0.08559140014648438,0.040636846339572034,-0.02531393496947542,-0.008265094435628395,1.0099201202392578,2019-06-20 16:03:04:062
8.020452880859375,-2.36543505859375,0.06763516235351562,0.03997105606705223,-0.025713409132987305,-0.007998778326620472,1.0147840976715088,2019-06-20 16:03:04:067
8.008482055664063,-2.3857854614257814,0.09636514282226562,0.040636846339572034,-0.02544709302397938,-0.00786562027211651,1.0199041366577148,2019-06-20 16:03:04:072
8.0252412109375,-2.366632141113281,0.06284683227539062,0.04023737217606015,-0.02624604135100315,-0.006933513890588777,1.0247681140899658,2019-06-20 16:03:04:077
8.031226623535156,-2.371420471191406,0.10833596801757812,0.03943842384903638,-0.026379199405507113,-0.0057350914000531186,1.0298881530761719,2019-06-20 16:03:04:082
8.022847045898438,-2.3881796264648436,0.08798556518554687,0.03930526579453242,-0.025979725241995228,-0.006667197781580852,1.0347521305084229,2019-06-20 16:03:04:087
8.040803283691407,-2.3821942138671877,0.09397097778320312,0.039704739958044306,-0.02611288329649919,-0.0074661461086046235,1.039872169494629,2019-06-20 16:03:04:092
8.038409118652343,-2.3774058837890624,0.08200015258789062,0.03997105606705223,-0.02464814469695561,-0.007998778326620472,1.044992208480835,2019-06-20 16:03:04:097
8.009679138183593,-2.3833912963867188,0.11432138061523438,0.040503688285068076,-0.02531393496947542,-0.006667197781580852,1.049856185913086,2019-06-20 16:03:04:102
8.018058715820313,-2.3630408935546874,0.12270095825195312,0.040636846339572034,-0.026379199405507113,-0.006134565563565005,1.054975986480713,2019-06-20 16:03:04:107
8.018058715820313,-2.3474788208007813,0.050876007080078126,0.03997105606705223,-0.026512357460011075,-0.00653403972707689,1.059840202331543,2019-06-20 16:03:04:112
8.01566455078125,-2.341493408203125,0.09157681274414062,0.039704739958044306,-0.025846567187491266,-0.0070666719450927385,1.06496000289917,2019-06-20 16:03:04:117
8.009679138183593,-2.3762088012695313,0.07840890502929687,0.04090316244857996,-0.025047618860467497,-0.006667197781580852,1.069823980331421,2019-06-20 16:03:04:122
8.009679138183593,-2.392967956542969,0.09157681274414062,0.04010421412155619,-0.024914460805963535,-0.0070666719450927385,1.074944019317627,2019-06-20 16:03:04:127
7.979752075195313,-2.36543505859375,0.07960598754882812,0.039704739958044306,-0.024781302751459573,-0.006134565563565005,1.079807996749878,2019-06-20 16:03:04:132
8.024044128417968,-2.4001504516601564,0.07002932739257813,0.039704739958044306,-0.02531393496947542,-0.006134565563565005,1.084928035736084,2019-06-20 16:03:04:137
8.020452880859375,-2.413318359375,0.07960598754882812,0.04037053023056411,-0.02531393496947542,-0.006933513890588777,1.089792013168335,2019-06-20 16:03:04:142
8.016861633300781,-2.3917708740234374,0.11551846313476562,0.040503688285068076,-0.025180776914971458,-0.006134565563565005,1.094912052154541,2019-06-20 16:03:04:147
8.002496643066406,-2.3857854614257814,0.08319723510742187,0.04010421412155619,-0.025047618860467497,-0.00653403972707689,1.099776029586792,2019-06-20 16:03:04:152
8.040803283691407,-2.3905737915039063,0.06164974975585937,0.04023737217606015,-0.02544709302397938,-0.006134565563565005,1.104896068572998,2019-06-20 16:03:04:157
8.028832458496094,-2.3738146362304686,0.10713888549804687,0.040636846339572034,-0.02624604135100315,-0.0071998299995967,1.109760046005249,2019-06-20 16:03:04:162
7.9869345703125,-2.3917708740234374,0.11432138061523438,0.040636846339572034,-0.025846567187491266,-0.0070666719450927385,1.114880084991455,2019-06-20 16:03:04:167
8.010876220703125,-2.3857854614257814,0.12150387573242187,0.04023737217606015,-0.026512357460011075,-0.006667197781580852,1.1200001239776611,2019-06-20 16:03:04:172
8.012073303222657,-2.370223388671875,0.11791262817382812,0.04037053023056411,-0.025979725241995228,-0.00653403972707689,1.124864101409912,2019-06-20 16:03:04:177
8.01566455078125,-2.378602966308594,0.10953305053710938,0.040770004394076,-0.025979725241995228,-0.0070666719450927385,1.1299841403961182,2019-06-20 16:03:04:182
8.032423706054688,-2.3726175537109375,0.12389804077148438,0.040503688285068076,-0.025047618860467497,-0.007599304163108585,1.1348481178283691,2019-06-20 16:03:04:187
8.012073303222657,-2.380997131347656,0.10713888549804687,0.03997105606705223,-0.02531393496947542,-0.0077324622176125485,1.1399681568145752,2019-06-20 16:03:04:192
8.038409118652343,-2.379800048828125,0.09397097778320312,0.040636846339572034,-0.02624604135100315,-0.008131936381124433,1.1448321342468262,2019-06-20 16:03:04:197
8.038409118652343,-2.38458837890625,0.09756222534179687,0.04037053023056411,-0.026645515514515036,-0.00786562027211651,1.1499521732330322,2019-06-20 16:03:04:202
8.006087890625,-2.3594496459960936,0.09037973022460938,0.040636846339572034,-0.025580251078483343,-0.0070666719450927385,1.1548161506652832,2019-06-20 16:03:04:207
8.013270385742187,-2.3750117187499997,0.07242349243164062,0.040503688285068076,-0.025580251078483343,-0.0070666719450927385,1.1599361896514893,2019-06-20 16:03:04:212
8.033620788574218,-2.3762088012695313,0.07362057495117187,0.04116947855758789,-0.025580251078483343,-0.008265094435628395,1.1648001670837402,2019-06-20 16:03:04:217
8.002496643066406,-2.3869825439453125,0.10354763793945312,0.041702110775603735,-0.025713409132987305,-0.008265094435628395,1.1699202060699463,2019-06-20 16:03:04:222
8.016861633300781,-2.3917708740234374,0.10953305053710938,0.041302636612091846,-0.02624604135100315,-0.008131936381124433,1.1747841835021973,2019-06-20 16:03:04:227
8.032423706054688,-2.3498729858398435,0.09995639038085938,0.041302636612091846,-0.02624604135100315,-0.008930884708148205,1.1799039840698242,2019-06-20 16:03:04:232
8.00728497314453,-2.354661315917969,0.09277389526367187,0.040636846339572034,-0.025979725241995228,-0.008664568599140282,1.1847681999206543,2019-06-20 16:03:04:237
8.016861633300781,-2.370223388671875,0.11432138061523438,0.04037053023056411,-0.025846567187491266,-0.008664568599140282,1.1898880004882812,2019-06-20 16:03:04:242
8.018058715820313,-2.4001504516601564,0.12389804077148438,0.04090316244857996,-0.026645515514515036,-0.008398252490132357,1.1947519779205322,2019-06-20 16:03:04:247
8.01566455078125,-2.3869825439453125,0.12629220581054687,0.040636846339572034,-0.02704498967802692,-0.008531410544636318,1.1998720169067383,2019-06-20 16:03:04:252
8.049182861328125,-2.3618438110351563,0.11551846313476562,0.04103632050308392,-0.02624604135100315,-0.008797726653644243,1.2049920558929443,2019-06-20 16:03:04:257
8.032423706054688,-2.3738146362304686,0.11192721557617187,0.04116947855758789,-0.026379199405507113,-0.008531410544636318,1.2098560333251953,2019-06-20 16:03:04:262
8.010876220703125,-2.370223388671875,0.08439431762695312,0.04183526883010769,-0.025580251078483343,-0.009197200817156128,1.2149760723114014,2019-06-20 16:03:04:267
8.020452880859375,-2.370223388671875,0.06284683227539062,0.04103632050308392,-0.025979725241995228,-0.009064042762652167,1.2198400497436523,2019-06-20 16:03:04:272
8.006087890625,-2.370223388671875,0.09756222534179687,0.04090316244857996,-0.025979725241995228,-0.008930884708148205,1.2249600887298584,2019-06-20 16:03:04:277
8.008482055664063,-2.3690263061523438,0.12389804077148438,0.041702110775603735,-0.025979725241995228,-0.009197200817156128,1.2298240661621094,2019-06-20 16:03:04:282
8.04439453125,-2.3762088012695313,0.11910971069335938,0.041702110775603735,-0.027577621896042768,-0.009197200817156128,1.2349441051483154,2019-06-20 16:03:04:287
8.009679138183593,-2.3750117187499997,0.10713888549804687,0.04196842688461166,-0.027311305787034845,-0.009596674980668015,1.2398080825805664,2019-06-20 16:03:04:292
8.043197448730469,-2.371420471191406,0.08559140014648438,0.042101584939115616,-0.026379199405507113,-0.00933035887166009,1.2449281215667725,2019-06-20 16:03:04:297
8.040803283691407,-2.3642379760742185,0.11791262817382812,0.04143579466659581,-0.027444463841538806,-0.009463516926164052,1.2497920989990234,2019-06-20 16:03:04:302
8.030029541015624,-2.371420471191406,0.07721182250976562,0.04037053023056411,-0.027311305787034845,-0.008930884708148205,1.2549121379852295,2019-06-20 16:03:04:307
8.006087890625,-2.378602966308594,0.07122640991210938,0.04143579466659581,-0.02611288329649919,-0.008131936381124433,1.2597761154174805,2019-06-20 16:03:04:312
8.020452880859375,-2.3881796264648436,0.06883224487304687,0.04090316244857996,-0.02464814469695561,-0.008265094435628395,1.2648961544036865,2019-06-20 16:03:04:317
8.033620788574218,-2.3558583984375,0.09516806030273438,0.04090316244857996,-0.025047618860467497,-0.008131936381124433,1.2697601318359375,2019-06-20 16:03:04:322
8.033620788574218,-2.3642379760742185,0.09037973022460938,0.041702110775603735,-0.027444463841538806,-0.009064042762652167,1.2748801708221436,2019-06-20 16:03:04:327
8.030029541015624,-2.378602966308594,0.07362057495117187,0.04156895272109977,-0.025713409132987305,-0.009596674980668015,1.2800002098083496,2019-06-20 16:03:04:332
8.052774108886718,-2.3642379760742185,0.09277389526367187,0.04103632050308392,-0.025580251078483343,-0.009862991089675938,1.2848641872406006,2019-06-20 16:03:04:337
8.03481787109375,-2.357055480957031,0.11551846313476562,0.040636846339572034,-0.025180776914971458,-0.010395623307691787,1.2899839878082275,2019-06-20 16:03:04:342
8.040803283691407,-2.3821942138671877,0.10115347290039062,0.04090316244857996,-0.02624604135100315,-0.008797726653644243,1.2948482036590576,2019-06-20 16:03:04:347
8.008482055664063,-2.3690263061523438,0.06524099731445313,0.04143579466659581,-0.02624604135100315,-0.008531410544636318,1.2999680042266846,2019-06-20 16:03:04:352
7.989328735351562,-2.3905737915039063,0.09636514282226562,0.041302636612091846,-0.026512357460011075,-0.009197200817156128,1.3048319816589355,2019-06-20 16:03:04:357
8.00728497314453,-2.3821942138671877,0.11192721557617187,0.04116947855758789,-0.026379199405507113,-0.009064042762652167,1.3099520206451416,2019-06-20 16:03:04:362
8.00728497314453,-2.3738146362304686,0.09277389526367187,0.040503688285068076,-0.025846567187491266,-0.009064042762652167,1.3148159980773926,2019-06-20 16:03:04:367
8.04439453125,-2.3642379760742185,0.10115347290039062,0.040770004394076,-0.025580251078483343,-0.009064042762652167,1.3199360370635986,2019-06-20 16:03:04:372
8.046788696289063,-2.3750117187499997,0.07002932739257813,0.040503688285068076,-0.025979725241995228,-0.009197200817156128,1.3248000144958496,2019-06-20 16:03:04:377
8.039606201171875,-2.351070068359375,0.08678848266601562,0.040770004394076,-0.025713409132987305,-0.009064042762652167,1.3299200534820557,2019-06-20 16:03:04:382
8.018058715820313,-2.3917708740234374,0.09277389526367187,0.04116947855758789,-0.025713409132987305,-0.009197200817156128,1.3347840309143066,2019-06-20 16:03:04:387
8.018058715820313,-2.354661315917969,0.09277389526367187,0.04183526883010769,-0.02531393496947542,-0.008398252490132357,1.3399040699005127,2019-06-20 16:03:04:392
8.01566455078125,-2.357055480957031,0.10354763793945312,0.041302636612091846,-0.025979725241995228,-0.00786562027211651,1.3447680473327637,2019-06-20 16:03:04:397
7.994117065429688,-2.3594496459960936,0.10833596801757812,0.04156895272109977,-0.027311305787034845,-0.007332988054100662,1.3498880863189697,2019-06-20 16:03:04:402
7.9917229003906245,-2.3750117187499997,0.10713888549804687,0.040770004394076,-0.027311305787034845,-0.0077324622176125485,1.3550081253051758,2019-06-20 16:03:04:407
8.024044128417968,-2.3977562866210937,0.08678848266601562,0.041302636612091846,-0.02704498967802692,-0.0077324622176125485,1.3598721027374268,2019-06-20 16:03:04:412
8.010876220703125,-2.3594496459960936,0.09756222534179687,0.040636846339572034,-0.026379199405507113,-0.007599304163108585,1.3649921417236328,2019-06-20 16:03:04:417
8.031226623535156,-2.3534642333984372,0.08918264770507812,0.039704739958044306,-0.026645515514515036,-0.008664568599140282,1.3698561191558838,2019-06-20 16:03:04:422
8.020452880859375,-2.3594496459960936,0.09037973022460938,0.03930526579453242,-0.026512357460011075,-0.008531410544636318,1.3749761581420898,2019-06-20 16:03:04:427
8.026438293457032,-2.378602966308594,0.07242349243164062,0.040770004394076,-0.025713409132987305,-0.009064042762652167,1.3798401355743408,2019-06-20 16:03:04:432
8.012073303222657,-2.3618438110351563,0.08798556518554687,0.04090316244857996,-0.026379199405507113,-0.00933035887166009,1.3849601745605469,2019-06-20 16:03:04:437
8.008482055664063,-2.378602966308594,0.07601473999023438,0.03930526579453242,-0.025979725241995228,-0.008930884708148205,1.3898241519927979,2019-06-20 16:03:04:442
8.020452880859375,-2.3941650390625,0.09636514282226562,0.04010421412155619,-0.024781302751459573,-0.010262465253187823,1.394944190979004,2019-06-20 16:03:04:447
8.022847045898438,-2.3821942138671877,0.11073013305664062,0.04116947855758789,-0.025047618860467497,-0.009729833035171977,1.3998081684112549,2019-06-20 16:03:04:452
7.985737487792969,-2.3582525634765625,0.09397097778320312,0.04183526883010769,-0.025047618860467497,-0.008930884708148205,1.404928207397461,2019-06-20 16:03:04:457
8.019255798339843,-2.3762088012695313,0.12389804077148438,0.041702110775603735,-0.025979725241995228,-0.008531410544636318,1.409792184829712,2019-06-20 16:03:04:462
8.020452880859375,-2.3857854614257814,0.07242349243164062,0.04196842688461166,-0.025713409132987305,-0.009463516926164052,1.4149119853973389,2019-06-20 16:03:04:467
8.003693725585938,-2.392967956542969,0.07960598754882812,0.04116947855758789,-0.02611288329649919,-0.0099961491441799,1.419776201248169,2019-06-20 16:03:04:472
8.021649963378906,-2.3833912963867188,0.11073013305664062,0.040503688285068076,-0.026379199405507113,-0.009596674980668015,1.424896001815796,2019-06-20 16:03:04:477
8.037212036132813,-2.395362121582031,0.16459884643554687,0.04116947855758789,-0.025979725241995228,-0.008664568599140282,1.4297599792480469,2019-06-20 16:03:04:482
8.014467468261719,-2.3917708740234374,0.10594180297851562,0.040636846339572034,-0.025180776914971458,-0.008664568599140282,1.434880018234253,2019-06-20 16:03:04:487
8.00728497314453,-2.3869825439453125,0.10115347290039062,0.04090316244857996,-0.025713409132987305,-0.009463516926164052,1.440000057220459,2019-06-20 16:03:04:492
8.030029541015624,-2.366632141113281,0.09277389526367187,0.040770004394076,-0.025979725241995228,-0.008531410544636318,1.44486403465271,2019-06-20 16:03:04:497
8.024044128417968,-2.357055480957031,0.08439431762695312,0.04103632050308392,-0.02624604135100315,-0.008930884708148205,1.449984073638916,2019-06-20 16:03:04:502
8.014467468261719,-2.3606467285156247,0.09756222534179687,0.041302636612091846,-0.025180776914971458,-0.009197200817156128,1.454848051071167,2019-06-20 16:03:04:507
8.00728497314453,-2.379800048828125,0.12868637084960938,0.04156895272109977,-0.026778673569018998,-0.009596674980668015,1.459968090057373,2019-06-20 16:03:04:512
8.004890808105468,-2.366632141113281,0.11671554565429687,0.04103632050308392,-0.025180776914971458,-0.008930884708148205,1.464832067489624,2019-06-20 16:03:04:517
8.022847045898438,-2.3390992431640623,0.09636514282226562,0.040503688285068076,-0.026379199405507113,-0.008930884708148205,1.46995210647583,2019-06-20 16:03:04:522
8.037212036132813,-2.3486759033203124,0.10235055541992187,0.040770004394076,-0.026645515514515036,-0.008797726653644243,1.474816083908081,2019-06-20 16:03:04:527
8.033620788574218,-2.3762088012695313,0.13467178344726563,0.03997105606705223,-0.025713409132987305,-0.008930884708148205,1.479936122894287,2019-06-20 16:03:04:532
8.001299560546874,-2.3594496459960936,0.08080307006835938,0.040770004394076,-0.026379199405507113,-0.008797726653644243,1.484800100326538,2019-06-20 16:03:04:537
8.024044128417968,-2.3606467285156247,0.07601473999023438,0.04023737217606015,-0.026379199405507113,-0.008531410544636318,1.4899201393127441,2019-06-20 16:03:04:542
8.026438293457032,-2.354661315917969,0.08439431762695312,0.04037053023056411,-0.027311305787034845,-0.0077324622176125485,1.4947841167449951,2019-06-20 16:03:04:547
8.033620788574218,-2.342690490722656,0.05686141967773437,0.04023737217606015,-0.026778673569018998,-0.0074661461086046235,1.4999041557312012,2019-06-20 16:03:04:552
8.0635478515625,-2.3534642333984372,0.07362057495117187,0.04023737217606015,-0.02544709302397938,-0.00786562027211651,1.5047681331634521,2019-06-20 16:03:04:557
8.05397119140625,-2.3630408935546874,0.09397097778320312,0.040636846339572034,-0.026778673569018998,-0.008265094435628395,1.5098881721496582,2019-06-20 16:03:04:562
8.013270385742187,-2.3678292236328122,0.07362057495117187,0.04116947855758789,-0.025580251078483343,-0.0070666719450927385,1.5147521495819092,2019-06-20 16:03:04:567
8.024044128417968,-2.371420471191406,0.08200015258789062,0.041702110775603735,-0.02531393496947542,-0.006001407509061044,1.5198721885681152,2019-06-20 16:03:04:572
8.049182861328125,-2.3977562866210937,0.10474472045898438,0.04183526883010769,-0.026645515514515036,-0.0071998299995967,1.5249919891357422,2019-06-20 16:03:04:577
8.026438293457032,-2.3774058837890624,0.08798556518554687,0.041702110775603735,-0.02611288329649919,-0.0070666719450927385,1.5298562049865723,2019-06-20 16:03:04:582
8.026438293457032,-2.3726175537109375,0.11910971069335938,0.040503688285068076,-0.025846567187491266,-0.006267723618068967,1.5349760055541992,2019-06-20 16:03:04:587
8.045591613769531,-2.3905737915039063,0.1370659484863281,0.039704739958044306,-0.025846567187491266,-0.005868249454557082,1.5398399829864502,2019-06-20 16:03:04:592
8.020452880859375,-2.3678292236328122,0.07840890502929687,0.04037053023056411,-0.025047618860467497,-0.0057350914000531186,1.5449600219726562,2019-06-20 16:03:04:597
8.009679138183593,-2.3821942138671877,0.10594180297851562,0.039704739958044306,-0.025713409132987305,-0.005335617236541234,1.5498239994049072,2019-06-20 16:03:04:602
7.995314147949219,-2.352267150878906,0.10354763793945312,0.04023737217606015,-0.02624604135100315,-0.006667197781580852,1.5549440383911133,2019-06-20 16:03:04:607
8.019255798339843,-2.3881796264648436,0.12509512329101563,0.04037053023056411,-0.02611288329649919,-0.006267723618068967,1.5598080158233643,2019-06-20 16:03:04:612
8.0252412109375,-2.3833912963867188,0.04489059448242187,0.04143579466659581,-0.026645515514515036,-0.006667197781580852,1.5649280548095703,2019-06-20 16:03:04:617
8.012073303222657,-2.4025446166992186,0.11551846313476562,0.04196842688461166,-0.025979725241995228,-0.0057350914000531186,1.5697920322418213,2019-06-20 16:03:04:622
8.046788696289063,-2.3857854614257814,0.08439431762695312,0.041302636612091846,-0.02611288329649919,-0.006267723618068967,1.5749120712280273,2019-06-20 16:03:04:627
8.028832458496094,-2.357055480957031,0.09875930786132812,0.04116947855758789,-0.026512357460011075,-0.005601933345549157,1.5797760486602783,2019-06-20 16:03:04:632
8.022847045898438,-2.38458837890625,0.11312429809570312,0.04090316244857996,-0.027178147732530883,-0.005202459182037272,1.5848960876464844,2019-06-20 16:03:04:637
8.03481787109375,-2.3630408935546874,0.058058502197265625,0.04090316244857996,-0.026512357460011075,-0.0057350914000531186,1.5897600650787354,2019-06-20 16:03:04:642
8.030029541015624,-2.3678292236328122,0.13347470092773436,0.04023737217606015,-0.02611288329649919,-0.005468775291045195,1.5948801040649414,2019-06-20 16:03:04:647
8.002496643066406,-2.3618438110351563,0.12629220581054687,0.04023737217606015,-0.02691183162352296,-0.006134565563565005,1.6000001430511475,2019-06-20 16:03:04:652
8.006087890625,-2.380997131347656,0.09995639038085938,0.041702110775603735,-0.027311305787034845,-0.006267723618068967,1.6048641204833984,2019-06-20 16:03:04:657
7.995314147949219,-2.3762088012695313,0.10594180297851562,0.04196842688461166,-0.02611288329649919,-0.006667197781580852,1.6099841594696045,2019-06-20 16:03:04:662
7.998905395507812,-2.3965592041015626,0.09277389526367187,0.04223474299361958,-0.026512357460011075,-0.006933513890588777,1.6148481369018555,2019-06-20 16:03:04:667
8.016861633300781,-2.380997131347656,0.08319723510742187,0.041302636612091846,-0.025979725241995228,-0.006267723618068967,1.6199681758880615,2019-06-20 16:03:04:672
8.024044128417968,-2.3762088012695313,0.07721182250976562,0.04183526883010769,-0.02691183162352296,-0.0057350914000531186,1.6248321533203125,2019-06-20 16:03:04:677
8.03601495361328,-2.3857854614257814,0.07960598754882812,0.04116947855758789,-0.02544709302397938,-0.005601933345549157,1.6299521923065186,2019-06-20 16:03:04:682
8.020452880859375,-2.392967956542969,0.10713888549804687,0.04090316244857996,-0.02438182858794769,-0.006800355836084815,1.6348161697387695,2019-06-20 16:03:04:687
8.052774108886718,-2.379800048828125,0.11551846313476562,0.040636846339572034,-0.025580251078483343,-0.00653403972707689,1.6399362087249756,2019-06-20 16:03:04:692
8.050379943847656,-2.3917708740234374,0.1274892883300781,0.041302636612091846,-0.026379199405507113,-0.006800355836084815,1.6448001861572266,2019-06-20 16:03:04:697
8.028832458496094,-2.3833912963867188,0.1370659484863281,0.04037053023056411,-0.025713409132987305,-0.00786562027211651,1.6499199867248535,2019-06-20 16:03:04:702
8.032423706054688,-2.38458837890625,0.11551846313476562,0.040770004394076,-0.02624604135100315,-0.008131936381124433,1.6547842025756836,2019-06-20 16:03:04:707
8.013270385742187,-2.366632141113281,0.07481765747070312,0.04116947855758789,-0.025047618860467497,-0.007998778326620472,1.6599040031433105,2019-06-20 16:03:04:712
8.010876220703125,-2.3857854614257814,0.06524099731445313,0.04023737217606015,-0.025580251078483343,-0.008531410544636318,1.6647679805755615,2019-06-20 16:03:04:717
8.018058715820313,-2.3965592041015626,0.09995639038085938,0.040636846339572034,-0.025180776914971458,-0.008131936381124433,1.6698880195617676,2019-06-20 16:03:04:722
7.997708312988281,-2.3821942138671877,0.06284683227539062,0.04090316244857996,-0.025713409132987305,-0.008531410544636318,1.6747519969940186,2019-06-20 16:03:04:727
8.022847045898438,-2.3857854614257814,0.09756222534179687,0.04116947855758789,-0.025846567187491266,-0.008531410544636318,1.6798720359802246,2019-06-20 16:03:04:732
8.024044128417968,-2.407332946777344,0.07960598754882812,0.04037053023056411,-0.025979725241995228,-0.0074661461086046235,1.6849920749664307,2019-06-20 16:03:04:737
8.000102478027344,-2.3965592041015626,0.09277389526367187,0.04010421412155619,-0.025713409132987305,-0.007998778326620472,1.6898560523986816,2019-06-20 16:03:04:742
7.980949157714844,-2.4013475341796875,0.11791262817382812,0.04023737217606015,-0.027178147732530883,-0.007998778326620472,1.6949760913848877,2019-06-20 16:03:04:747
7.997708312988281,-2.392967956542969,0.10713888549804687,0.040503688285068076,-0.02691183162352296,-0.009729833035171977,1.6998400688171387,2019-06-20 16:03:04:752
8.003693725585938,-2.3917708740234374,0.07481765747070312,0.04037053023056411,-0.027444463841538806,-0.008930884708148205,1.7049601078033447,2019-06-20 16:03:04:757
7.9917229003906245,-2.3869825439453125,0.04010226440429687,0.040770004394076,-0.026645515514515036,-0.008664568599140282,1.7098240852355957,2019-06-20 16:03:04:762
7.995314147949219,-2.379800048828125,0.055664337158203125,0.04010421412155619,-0.026512357460011075,-0.008531410544636318,1.7149441242218018,2019-06-20 16:03:04:767
8.037212036132813,-2.370223388671875,0.05446725463867187,0.040503688285068076,-0.025047618860467497,-0.008797726653644243,1.7198081016540527,2019-06-20 16:03:04:772
8.027635375976562,-2.3726175537109375,0.10953305053710938,0.04090316244857996,-0.02531393496947542,-0.008930884708148205,1.7249281406402588,2019-06-20 16:03:04:777
8.003693725585938,-2.3857854614257814,0.12270095825195312,0.04116947855758789,-0.02424867053344372,-0.009463516926164052,1.7297921180725098,2019-06-20 16:03:04:782
8.009679138183593,-2.3690263061523438,0.11910971069335938,0.04156895272109977,-0.025979725241995228,-0.010395623307691787,1.7349121570587158,2019-06-20 16:03:04:787
7.997708312988281,-2.3726175537109375,0.13586886596679687,0.04156895272109977,-0.026778673569018998,-0.011460887743723482,1.7397761344909668,2019-06-20 16:03:04:792
8.03481787109375,-2.371420471191406,0.11192721557617187,0.041302636612091846,-0.025580251078483343,-0.011460887743723482,1.7448961734771729,2019-06-20 16:03:04:797
8.024044128417968,-2.3678292236328122,0.10474472045898438,0.040770004394076,-0.02611288329649919,-0.010129307198683862,1.7497601509094238,2019-06-20 16:03:04:802
8.026438293457032,-2.3618438110351563,0.12509512329101563,0.042367901048123546,-0.02624604135100315,-0.0099961491441799,1.7548801898956299,2019-06-20 16:03:04:807
8.018058715820313,-2.3690263061523438,0.07601473999023438,0.04196842688461166,-0.025580251078483343,-0.010795097471203672,1.7599999904632568,2019-06-20 16:03:04:812
8.021649963378906,-2.36543505859375,0.10474472045898438,0.04156895272109977,-0.02611288329649919,-0.010129307198683862,1.764864206314087,2019-06-20 16:03:04:817
8.022847045898438,-2.3438875732421875,0.07481765747070312,0.04143579466659581,-0.02611288329649919,-0.010395623307691787,1.7699840068817139,2019-06-20 16:03:04:822
8.027635375976562,-2.3474788208007813,0.09995639038085938,0.04143579466659581,-0.025846567187491266,-0.010395623307691787,1.7748479843139648,2019-06-20 16:03:04:827
8.06474493408203,-2.3582525634765625,0.10953305053710938,0.04156895272109977,-0.025713409132987305,-0.010795097471203672,1.779968023300171,2019-06-20 16:03:04:832
8.047985778808593,-2.379800048828125,0.10953305053710938,0.04156895272109977,-0.025580251078483343,-0.010395623307691787,1.7848320007324219,2019-06-20 16:03:04:837
8.030029541015624,-2.3905737915039063,0.09037973022460938,0.04156895272109977,-0.02611288329649919,-0.010129307198683862,1.789952039718628,2019-06-20 16:03:04:842
8.03601495361328,-2.366632141113281,0.08200015258789062,0.04156895272109977,-0.027444463841538806,-0.0099961491441799,1.794816017150879,2019-06-20 16:03:04:847
8.033620788574218,-2.3905737915039063,0.08080307006835938,0.041302636612091846,-0.027444463841538806,-0.009064042762652167,1.799936056137085,2019-06-20 16:03:04:852
8.024044128417968,-2.3582525634765625,0.10833596801757812,0.04156895272109977,-0.026778673569018998,-0.009064042762652167,1.804800033569336,2019-06-20 16:03:04:857
8.028832458496094,-2.36543505859375,0.11671554565429687,0.04223474299361958,-0.02624604135100315,-0.008797726653644243,1.809920072555542,2019-06-20 16:03:04:862
8.040803283691407,-2.3606467285156247,0.11910971069335938,0.04196842688461166,-0.025846567187491266,-0.008398252490132357,1.814784049987793,2019-06-20 16:03:04:867
8.040803283691407,-2.3642379760742185,0.09157681274414062,0.04276737521163543,-0.027178147732530883,-0.009197200817156128,1.819904088973999,2019-06-20 16:03:04:872
8.010876220703125,-2.357055480957031,0.10594180297851562,0.04263421715713147,-0.02691183162352296,-0.009197200817156128,1.82476806640625,2019-06-20 16:03:04:877
8.016861633300781,-2.3498729858398435,0.09277389526367187,0.04103632050308392,-0.025979725241995228,-0.009197200817156128,1.829888105392456,2019-06-20 16:03:04:882
8.043197448730469,-2.3486759033203124,0.14305136108398436,0.04090316244857996,-0.027311305787034845,-0.008664568599140282,1.834752082824707,2019-06-20 16:03:04:887
8.00728497314453,-2.340296325683594,0.13946011352539062,0.040503688285068076,-0.026645515514515036,-0.008265094435628395,1.839872121810913,2019-06-20 16:03:04:892
8.046788696289063,-2.3618438110351563,0.12030679321289062,0.041302636612091846,-0.026512357460011075,-0.008265094435628395,1.8449921607971191,2019-06-20 16:03:04:897
8.031226623535156,-2.36543505859375,0.12509512329101563,0.04103632050308392,-0.02797709605955466,-0.0071998299995967,1.8498561382293701,2019-06-20 16:03:04:902
8.022847045898438,-2.3738146362304686,0.07960598754882812,0.040636846339572034,-0.027311305787034845,-0.006933513890588777,1.8549761772155762,2019-06-20 16:03:04:907
8.012073303222657,-2.3618438110351563,0.06883224487304687,0.040636846339572034,-0.026512357460011075,-0.0070666719450927385,1.8598401546478271,2019-06-20 16:03:04:912
8.001299560546874,-2.380997131347656,0.05207308959960937,0.04090316244857996,-0.02544709302397938,-0.007599304163108585,1.8649601936340332,2019-06-20 16:03:04:917
8.01566455078125,-2.3690263061523438,0.12270095825195312,0.04103632050308392,-0.025580251078483343,-0.007332988054100662,1.8698241710662842,2019-06-20 16:03:04:922
8.020452880859375,-2.379800048828125,0.11910971069335938,0.04023737217606015,-0.025979725241995228,-0.006267723618068967,1.8749442100524902,2019-06-20 16:03:04:927
8.037212036132813,-2.3726175537109375,0.09756222534179687,0.038905791631020537,-0.02544709302397938,-0.005868249454557082,1.8798081874847412,2019-06-20 16:03:04:932
8.018058715820313,-2.3606467285156247,0.12150387573242187,0.03957158190354034,-0.02691183162352296,-0.0057350914000531186,1.8849279880523682,2019-06-20 16:03:04:937
8.055168273925782,-2.3582525634765625,0.11432138061523438,0.04037053023056411,-0.026379199405507113,-0.00653403972707689,1.8897922039031982,2019-06-20 16:03:04:942
8.028832458496094,-2.3857854614257814,0.09037973022460938,0.04103632050308392,-0.026778673569018998,-0.00653403972707689,1.8949120044708252,2019-06-20 16:03:04:947
8.046788696289063,-2.380997131347656,0.10235055541992187,0.04116947855758789,-0.027178147732530883,-0.006134565563565005,1.8997759819030762,2019-06-20 16:03:04:952
8.018058715820313,-2.3738146362304686,0.09397097778320312,0.04156895272109977,-0.02611288329649919,-0.006134565563565005,1.9048960208892822,2019-06-20 16:03:04:957
8.039606201171875,-2.3762088012695313,0.07242349243164062,0.04090316244857996,-0.025713409132987305,-0.00653403972707689,1.9097599983215332,2019-06-20 16:03:04:962
8.030029541015624,-2.3750117187499997,0.06763516235351562,0.04103632050308392,-0.025846567187491266,-0.0064008816725729285,1.9148800373077393,2019-06-20 16:03:04:967
8.024044128417968,-2.370223388671875,0.08918264770507812,0.04037053023056411,-0.026512357460011075,-0.006267723618068967,1.9200000762939453,2019-06-20 16:03:04:972
8.002496643066406,-2.3630408935546874,0.12629220581054687,0.040503688285068076,-0.027178147732530883,-0.006134565563565005,1.9248640537261963,2019-06-20 16:03:04:977
8.038409118652343,-2.3869825439453125,0.07960598754882812,0.03997105606705223,-0.027577621896042768,-0.0057350914000531186,1.9299840927124023,2019-06-20 16:03:04:982
8.019255798339843,-2.3738146362304686,0.06164974975585937,0.03997105606705223,-0.026778673569018998,-0.0057350914000531186,1.9348480701446533,2019-06-20 16:03:04:987
8.013270385742187,-2.3774058837890624,0.050876007080078126,0.039704739958044306,-0.02624604135100315,-0.0064008816725729285,1.9399681091308594,2019-06-20 16:03:04:992
8.021649963378906,-2.3618438110351563,0.058058502197265625,0.03957158190354034,-0.026512357460011075,-0.006800355836084815,1.9448320865631104,2019-06-20 16:03:04:997
8.045591613769531,-2.389376708984375,0.11671554565429687,0.03997105606705223,-0.026645515514515036,-0.006267723618068967,1.9499521255493164,2019-06-20 16:03:05:002
8.037212036132813,-2.3833912963867188,0.13586886596679687,0.04023737217606015,-0.026379199405507113,-0.006134565563565005,1.9548161029815674,2019-06-20 16:03:05:007
8.040803283691407,-2.3762088012695313,0.07481765747070312,0.039837898012548265,-0.026512357460011075,-0.006267723618068967,1.9599361419677734,2019-06-20 16:03:05:012
8.038409118652343,-2.379800048828125,0.058058502197265625,0.038905791631020537,-0.025846567187491266,-0.00653403972707689,1.9648001194000244,2019-06-20 16:03:05:017
8.046788696289063,-2.380997131347656,0.10594180297851562,0.03957158190354034,-0.027444463841538806,-0.006134565563565005,1.9699201583862305,2019-06-20 16:03:05:022
8.058759521484374,-2.3762088012695313,0.09516806030273438,0.039837898012548265,-0.027311305787034845,-0.006134565563565005,1.9747841358184814,2019-06-20 16:03:05:027
8.028832458496094,-2.3833912963867188,0.07242349243164062,0.03917210774002846,-0.02611288329649919,-0.007332988054100662,1.9799041748046875,2019-06-20 16:03:05:032
8.009679138183593,-2.395362121582031,0.07122640991210938,0.03930526579453242,-0.024914460805963535,-0.006933513890588777,1.9847681522369385,2019-06-20 16:03:05:037
8.022847045898438,-2.4169096069335936,0.11551846313476562,0.03957158190354034,-0.024914460805963535,-0.007332988054100662,1.9898881912231445,2019-06-20 16:03:05:042
8.006087890625,-2.3774058837890624,0.08200015258789062,0.039704739958044306,-0.02438182858794769,-0.0070666719450927385,1.9950079917907715,2019-06-20 16:03:05:047
8.019255798339843,-2.3606467285156247,0.08559140014648438,0.040770004394076,-0.02531393496947542,-0.007332988054100662,1.9998722076416016,2019-06-20 16:03:05:052
7.99651123046875,-2.3917708740234374,0.07481765747070312,0.04103632050308392,-0.024914460805963535,-0.007599304163108585,2.0049920082092285,2019-06-20 16:03:05:057
8.009679138183593,-2.38458837890625,0.03291976928710937,0.04183526883010769,-0.02464814469695561,-0.0070666719450927385,2.0098559856414795,2019-06-20 16:03:05:062
8.040803283691407,-2.3738146362304686,0.07122640991210938,0.040503688285068076,-0.025180776914971458,-0.006800355836084815,2.0149760246276855,2019-06-20 16:03:05:067
8.016861633300781,-2.3941650390625,0.07362057495117187,0.041302636612091846,-0.026645515514515036,-0.0071998299995967,2.0198400020599365,2019-06-20 16:03:05:072
8.0252412109375,-2.3750117187499997,0.13946011352539062,0.041302636612091846,-0.026379199405507113,-0.00786562027211651,2.0249600410461426,2019-06-20 16:03:05:077
8.022847045898438,-2.4049387817382812,0.11671554565429687,0.04156895272109977,-0.02611288329649919,-0.006933513890588777,2.0298240184783936,2019-06-20 16:03:05:082
8.000102478027344,-2.3833912963867188,0.11312429809570312,0.041702110775603735,-0.02544709302397938,-0.0074661461086046235,2.0349440574645996,2019-06-20 16:03:05:087
8.00728497314453,-2.4025446166992186,0.07721182250976562,0.04116947855758789,-0.025580251078483343,-0.0070666719450927385,2.0398080348968506,2019-06-20 16:03:05:092
8.028832458496094,-2.38458837890625,0.09277389526367187,0.04156895272109977,-0.027311305787034845,-0.008797726653644243,2.0449280738830566,2019-06-20 16:03:05:097
8.019255798339843,-2.40374169921875,0.07122640991210938,0.04183526883010769,-0.02771077995054673,-0.008797726653644243,2.0497920513153076,2019-06-20 16:03:05:102
8.019255798339843,-2.4025446166992186,0.07122640991210938,0.04196842688461166,-0.027178147732530883,-0.008531410544636318,2.0549120903015137,2019-06-20 16:03:05:107
8.043197448730469,-2.3690263061523438,0.06404391479492187,0.04143579466659581,-0.02624604135100315,-0.009197200817156128,2.0597760677337646,2019-06-20 16:03:05:112
8.032423706054688,-2.3881796264648436,0.07601473999023438,0.04103632050308392,-0.026645515514515036,-0.008664568599140282,2.0648961067199707,2019-06-20 16:03:05:117
8.009679138183593,-2.3821942138671877,0.07122640991210938,0.04156895272109977,-0.026379199405507113,-0.008664568599140282,2.0697600841522217,2019-06-20 16:03:05:122
8.008482055664063,-2.378602966308594,0.08918264770507812,0.04223474299361958,-0.024914460805963535,-0.009064042762652167,2.0748801231384277,2019-06-20 16:03:05:127
8.028832458496094,-2.3558583984375,0.08200015258789062,0.04143579466659581,-0.025713409132987305,-0.008930884708148205,2.080000162124634,2019-06-20 16:03:05:132
8.032423706054688,-2.366632141113281,0.06643807983398438,0.040770004394076,-0.025580251078483343,-0.008797726653644243,2.0848641395568848,2019-06-20 16:03:05:137
8.004890808105468,-2.366632141113281,0.10833596801757812,0.04116947855758789,-0.025846567187491266,-0.008664568599140282,2.089984178543091,2019-06-20 16:03:05:142
8.013270385742187,-2.3750117187499997,0.11073013305664062,0.04090316244857996,-0.025979725241995228,-0.008265094435628395,2.094848155975342,2019-06-20 16:03:05:147
8.003693725585938,-2.3678292236328122,0.1274892883300781,0.041702110775603735,-0.02531393496947542,-0.008664568599140282,2.099968194961548,2019-06-20 16:03:05:152
8.008482055664063,-2.38458837890625,0.10474472045898438,0.04183526883010769,-0.02544709302397938,-0.009197200817156128,2.104832172393799,2019-06-20 16:03:05:157
8.008482055664063,-2.4001504516601564,0.11192721557617187,0.04223474299361958,-0.02704498967802692,-0.008797726653644243,2.109952211380005,2019-06-20 16:03:05:162
8.004890808105468,-2.395362121582031,0.10594180297851562,0.041302636612091846,-0.026645515514515036,-0.008930884708148205,2.114816188812256,2019-06-20 16:03:05:167
8.001299560546874,-2.3642379760742185,0.12509512329101563,0.04116947855758789,-0.02624604135100315,-0.008797726653644243,2.119935989379883,2019-06-20 16:03:05:172
8.014467468261719,-2.378602966308594,0.11312429809570312,0.041702110775603735,-0.025713409132987305,-0.008664568599140282,2.124800205230713,2019-06-20 16:03:05:177
8.009679138183593,-2.3750117187499997,0.14424844360351563,0.040770004394076,-0.027311305787034845,-0.008398252490132357,2.12992000579834,2019-06-20 16:03:05:182
8.002496643066406,-2.3917708740234374,0.09875930786132812,0.04143579466659581,-0.025580251078483343,-0.008797726653644243,2.134783983230591,2019-06-20 16:03:05:187
8.046788696289063,-2.3965592041015626,0.09995639038085938,0.04103632050308392,-0.025580251078483343,-0.009862991089675938,2.139904022216797,2019-06-20 16:03:05:192
8.012073303222657,-2.371420471191406,0.09037973022460938,0.04196842688461166,-0.024781302751459573,-0.009729833035171977,2.144767999649048,2019-06-20 16:03:05:197
8.00728497314453,-2.354661315917969,0.08678848266601562,0.04143579466659581,-0.026379199405507113,-0.009862991089675938,2.149888038635254,2019-06-20 16:03:05:202
8.013270385742187,-2.357055480957031,0.07122640991210938,0.04103632050308392,-0.027311305787034845,-0.009463516926164052,2.154752016067505,2019-06-20 16:03:05:207
8.042000366210937,-2.3726175537109375,0.05686141967773437,0.04183526883010769,-0.02691183162352296,-0.0099961491441799,2.159872055053711,2019-06-20 16:03:05:212
8.020452880859375,-2.3905737915039063,0.09397097778320312,0.04183526883010769,-0.02544709302397938,-0.009729833035171977,2.164992094039917,2019-06-20 16:03:05:217
7.995314147949219,-2.392967956542969,0.11312429809570312,0.041702110775603735,-0.025846567187491266,-0.009463516926164052,2.169856071472168,2019-06-20 16:03:05:222
8.016861633300781,-2.371420471191406,0.12150387573242187,0.04143579466659581,-0.025047618860467497,-0.010129307198683862,2.174976110458374,2019-06-20 16:03:05:227
8.016861633300781,-2.3630408935546874,0.10594180297851562,0.041702110775603735,-0.024781302751459573,-0.01066193941669971,2.179840087890625,2019-06-20 16:03:05:232
8.057562438964844,-2.371420471191406,0.09516806030273438,0.04090316244857996,-0.02544709302397938,-0.010395623307691787,2.184960126876831,2019-06-20 16:03:05:237
8.001299560546874,-2.3690263061523438,0.12030679321289062,0.04103632050308392,-0.026379199405507113,-0.009197200817156128,2.189824104309082,2019-06-20 16:03:05:242
8.01566455078125,-2.3642379760742185,0.07721182250976562,0.04010421412155619,-0.026778673569018998,-0.009197200817156128,2.194944143295288,2019-06-20 16:03:05:247
8.038409118652343,-2.357055480957031,0.08439431762695312,0.039837898012548265,-0.026778673569018998,-0.008930884708148205,2.199808120727539,2019-06-20 16:03:05:252
8.047985778808593,-2.3558583984375,0.055664337158203125,0.040770004394076,-0.027311305787034845,-0.008930884708148205,2.204928159713745,2019-06-20 16:03:05:257
8.052774108886718,-2.3690263061523438,0.10713888549804687,0.04103632050308392,-0.026379199405507113,-0.009596674980668015,2.209792137145996,2019-06-20 16:03:05:262
8.061153686523438,-2.392967956542969,0.11671554565429687,0.04090316244857996,-0.02691183162352296,-0.00933035887166009,2.214912176132202,2019-06-20 16:03:05:267
8.031226623535156,-2.3690263061523438,0.08439431762695312,0.039704739958044306,-0.025180776914971458,-0.008930884708148205,2.219776153564453,2019-06-20 16:03:05:272
8.016861633300781,-2.3750117187499997,0.08678848266601562,0.039837898012548265,-0.026778673569018998,-0.009463516926164052,2.224896192550659,2019-06-20 16:03:05:277
8.049182861328125,-2.3690263061523438,0.09636514282226562,0.04090316244857996,-0.02691183162352296,-0.009463516926164052,2.22976016998291,2019-06-20 16:03:05:282
8.009679138183593,-2.371420471191406,0.08439431762695312,0.040770004394076,-0.02624604135100315,-0.009064042762652167,2.234880208969116,2019-06-20 16:03:05:287
8.022847045898438,-2.380997131347656,0.05686141967773437,0.04010421412155619,-0.025979725241995228,-0.008265094435628395,2.240000009536743,2019-06-20 16:03:05:292
8.009679138183593,-2.3977562866210937,0.09157681274414062,0.03997105606705223,-0.027311305787034845,-0.008131936381124433,2.244863986968994,2019-06-20 16:03:05:297
7.998905395507812,-2.389376708984375,0.07002932739257813,0.04090316244857996,-0.025713409132987305,-0.008398252490132357,2.2499840259552,2019-06-20 16:03:05:302
8.01566455078125,-2.3917708740234374,0.07481765747070312,0.040770004394076,-0.026512357460011075,-0.009197200817156128,2.254848003387451,2019-06-20 16:03:05:307
8.013270385742187,-2.407332946777344,0.1274892883300781,0.04023737217606015,-0.025979725241995228,-0.009596674980668015,2.2599680423736572,2019-06-20 16:03:05:312
7.9929199829101565,-2.3821942138671877,0.06883224487304687,0.04037053023056411,-0.02544709302397938,-0.009729833035171977,2.264832019805908,2019-06-20 16:03:05:317
7.9917229003906245,-2.3977562866210937,0.08080307006835938,0.04023737217606015,-0.024914460805963535,-0.009729833035171977,2.2699520587921143,2019-06-20 16:03:05:322
8.028832458496094,-2.408530029296875,0.12988345336914062,0.04090316244857996,-0.02611288329649919,-0.009596674980668015,2.2748160362243652,2019-06-20 16:03:05:327
8.016861633300781,-2.36543505859375,0.08559140014648438,0.040770004394076,-0.025713409132987305,-0.009463516926164052,2.2799360752105713,2019-06-20 16:03:05:332
8.010876220703125,-2.378602966308594,0.07960598754882812,0.04156895272109977,-0.02531393496947542,-0.009197200817156128,2.2848000526428223,2019-06-20 16:03:05:337
8.03601495361328,-2.378602966308594,0.08080307006835938,0.040770004394076,-0.02531393496947542,-0.010129307198683862,2.2899200916290283,2019-06-20 16:03:05:342
8.00728497314453,-2.3738146362304686,0.05207308959960937,0.04183526883010769,-0.025580251078483343,-0.010395623307691787,2.2947840690612793,2019-06-20 16:03:05:347
8.042000366210937,-2.357055480957031,0.08798556518554687,0.04090316244857996,-0.025180776914971458,-0.009862991089675938,2.2999041080474854,2019-06-20 16:03:05:352
8.037212036132813,-2.3594496459960936,0.13467178344726563,0.04090316244857996,-0.02611288329649919,-0.00933035887166009,2.3047680854797363,2019-06-20 16:03:05:357
8.021649963378906,-2.3618438110351563,0.09157681274414062,0.042367901048123546,-0.025979725241995228,-0.010129307198683862,2.3098881244659424,2019-06-20 16:03:05:362
8.038409118652343,-2.366632141113281,0.09516806030273438,0.041702110775603735,-0.02544709302397938,-0.01066193941669971,2.3147521018981934,2019-06-20 16:03:05:367
8.016861633300781,-2.370223388671875,0.08678848266601562,0.04196842688461166,-0.02704498967802692,-0.010795097471203672,2.3198721408843994,2019-06-20 16:03:05:372
8.0252412109375,-2.3630408935546874,0.11432138061523438,0.04183526883010769,-0.027577621896042768,-0.01066193941669971,2.3249921798706055,2019-06-20 16:03:05:377
8.018058715820313,-2.3450846557617187,0.10953305053710938,0.040636846339572034,-0.02611288329649919,-0.011194571634715558,2.3298561573028564,2019-06-20 16:03:05:382
8.020452880859375,-2.340296325683594,0.09875930786132812,0.040770004394076,-0.025979725241995228,-0.01132772968921952,2.3349761962890625,2019-06-20 16:03:05:387
8.024044128417968,-2.392967956542969,0.08918264770507812,0.04116947855758789,-0.02691183162352296,-0.010795097471203672,2.3398401737213135,2019-06-20 16:03:05:392
8.033620788574218,-2.370223388671875,0.10115347290039062,0.04103632050308392,-0.02691183162352296,-0.011061413580211595,2.3449602127075195,2019-06-20 16:03:05:397
8.051577026367188,-2.3355079956054685,0.10354763793945312,0.03997105606705223,-0.026512357460011075,-0.008930884708148205,2.3498241901397705,2019-06-20 16:03:05:402
8.04439453125,-2.3331138305664063,0.08918264770507812,0.03943842384903638,-0.027178147732530883,-0.009064042762652167,2.3549439907073975,2019-06-20 16:03:05:407
8.019255798339843,-2.3582525634765625,0.09636514282226562,0.04037053023056411,-0.027178147732530883,-0.00933035887166009,2.3598082065582275,2019-06-20 16:03:05:412
8.042000366210937,-2.3498729858398435,0.07601473999023438,0.040636846339572034,-0.026645515514515036,-0.009064042762652167,2.3649280071258545,2019-06-20 16:03:05:417
8.052774108886718,-2.3450846557617187,0.09636514282226562,0.040770004394076,-0.027178147732530883,-0.008131936381124433,2.3697919845581055,2019-06-20 16:03:05:422
8.033620788574218,-2.354661315917969,0.10115347290039062,0.04090316244857996,-0.025979725241995228,-0.008531410544636318,2.3749120235443115,2019-06-20 16:03:05:427
8.01566455078125,-2.3307196655273437,0.07122640991210938,0.04116947855758789,-0.026645515514515036,-0.0071998299995967,2.3797760009765625,2019-06-20 16:03:05:432
8.030029541015624,-2.3438875732421875,0.08319723510742187,0.041302636612091846,-0.026778673569018998,-0.0070666719450927385,2.3848960399627686,2019-06-20 16:03:05:437
8.050379943847656,-2.3343109130859374,0.08678848266601562,0.041702110775603735,-0.02691183162352296,-0.006933513890588777,2.3897600173950195,2019-06-20 16:03:05:442
8.021649963378906,-2.3295225830078126,0.08678848266601562,0.04023737217606015,-0.02544709302397938,-0.0064008816725729285,2.3948800563812256,2019-06-20 16:03:05:447
8.033620788574218,-2.3390992431640623,0.11791262817382812,0.039704739958044306,-0.025580251078483343,-0.0057350914000531186,2.4000000953674316,2019-06-20 16:03:05:452
8.026438293457032,-2.3498729858398435,0.08080307006835938,0.039837898012548265,-0.025580251078483343,-0.005601933345549157,2.4048640727996826,2019-06-20 16:03:05:457
8.030029541015624,-2.370223388671875,0.09516806030273438,0.039837898012548265,-0.02691183162352296,-0.006001407509061044,2.4099841117858887,2019-06-20 16:03:05:462
8.006087890625,-2.379800048828125,0.08200015258789062,0.03943842384903638,-0.025846567187491266,-0.0064008816725729285,2.4148480892181396,2019-06-20 16:03:05:467
8.026438293457032,-2.3678292236328122,0.09516806030273438,0.04037053023056411,-0.027178147732530883,-0.005868249454557082,2.4199681282043457,2019-06-20 16:03:05:472
8.01566455078125,-2.3594496459960936,0.07960598754882812,0.040503688285068076,-0.027444463841538806,-0.006001407509061044,2.4248321056365967,2019-06-20 16:03:05:477
8.013270385742187,-2.398953369140625,0.09037973022460938,0.04037053023056411,-0.025180776914971458,-0.005335617236541234,2.4299521446228027,2019-06-20 16:03:05:482
8.020452880859375,-2.4013475341796875,0.08319723510742187,0.04037053023056411,-0.02544709302397938,-0.0057350914000531186,2.4348161220550537,2019-06-20 16:03:05:487
7.99651123046875,-2.413318359375,0.07002932739257813,0.04010421412155619,-0.027577621896042768,-0.0057350914000531186,2.4399361610412598,2019-06-20 16:03:05:492
7.9869345703125,-2.3678292236328122,0.08798556518554687,0.04023737217606015,-0.02704498967802692,-0.005601933345549157,2.4448001384735107,2019-06-20 16:03:05:497
8.012073303222657,-2.379800048828125,0.13586886596679687,0.040636846339572034,-0.02611288329649919,-0.0064008816725729285,2.449920177459717,2019-06-20 16:03:05:502
8.032423706054688,-2.38458837890625,0.11073013305664062,0.03957158190354034,-0.026379199405507113,-0.006933513890588777,2.4550399780273438,2019-06-20 16:03:05:507
8.01566455078125,-2.3774058837890624,0.10115347290039062,0.03930526579453242,-0.02704498967802692,-0.0064008816725729285,2.459904193878174,2019-06-20 16:03:05:512
7.998905395507812,-2.3977562866210937,0.10354763793945312,0.04037053023056411,-0.02611288329649919,-0.0064008816725729285,2.464768171310425,2019-06-20 16:03:05:517
7.997708312988281,-2.3941650390625,0.11312429809570312,0.041302636612091846,-0.02451498664245165,-0.006134565563565005,2.469888210296631,2019-06-20 16:03:05:522
8.000102478027344,-2.395362121582031,0.13108053588867188,0.04090316244857996,-0.025713409132987305,-0.006267723618068967,2.474752187728882,2019-06-20 16:03:05:527
8.0252412109375,-2.3726175537109375,0.1370659484863281,0.04143579466659581,-0.026778673569018998,-0.0074661461086046235,2.479871988296509,2019-06-20 16:03:05:532
8.049182861328125,-2.3726175537109375,0.10953305053710938,0.040770004394076,-0.025580251078483343,-0.0070666719450927385,2.484992027282715,2019-06-20 16:03:05:537
8.055168273925782,-2.38458837890625,0.09397097778320312,0.041702110775603735,-0.02624604135100315,-0.00653403972707689,2.489856004714966,2019-06-20 16:03:05:542
8.033620788574218,-2.3762088012695313,0.08319723510742187,0.041702110775603735,-0.02531393496947542,-0.006933513890588777,2.494976043701172,2019-06-20 16:03:05:547
8.043197448730469,-2.3726175537109375,0.09875930786132812,0.04143579466659581,-0.025047618860467497,-0.0064008816725729285,2.499840021133423,2019-06-20 16:03:05:552
8.032423706054688,-2.392967956542969,0.10594180297851562,0.042101584939115616,-0.02544709302397938,-0.006800355836084815,2.504960060119629,2019-06-20 16:03:05:557
8.045591613769531,-2.379800048828125,0.12629220581054687,0.04223474299361958,-0.02624604135100315,-0.006267723618068967,2.50982403755188,2019-06-20 16:03:05:562
8.031226623535156,-2.371420471191406,0.11312429809570312,0.041702110775603735,-0.026778673569018998,-0.005868249454557082,2.514944076538086,2019-06-20 16:03:05:567
8.031226623535156,-2.4013475341796875,0.10713888549804687,0.04116947855758789,-0.026379199405507113,-0.006667197781580852,2.519808053970337,2019-06-20 16:03:05:572
8.03481787109375,-2.3977562866210937,0.09037973022460938,0.04196842688461166,-0.02611288329649919,-0.0074661461086046235,2.524928092956543,2019-06-20 16:03:05:577
8.0252412109375,-2.3869825439453125,0.04010226440429687,0.042501059102627504,-0.026512357460011075,-0.007998778326620472,2.529792070388794,2019-06-20 16:03:05:582
8.00728497314453,-2.3750117187499997,0.10474472045898438,0.042367901048123546,-0.02611288329649919,-0.0077324622176125485,2.534912109375,2019-06-20 16:03:05:587
8.057562438964844,-2.354661315917969,0.09277389526367187,0.04090316244857996,-0.026778673569018998,-0.007998778326620472,2.539776086807251,2019-06-20 16:03:05:592
8.059956604003906,-2.38458837890625,0.09636514282226562,0.04037053023056411,-0.027178147732530883,-0.008265094435628395,2.544896125793457,2019-06-20 16:03:05:597
8.039606201171875,-2.3594496459960936,0.12150387573242187,0.04010421412155619,-0.025979725241995228,-0.00786562027211651,2.549760103225708,2019-06-20 16:03:05:602
8.033620788574218,-2.3678292236328122,0.09636514282226562,0.03997105606705223,-0.025979725241995228,-0.0074661461086046235,2.554880142211914,2019-06-20 16:03:05:607
8.033620788574218,-2.3869825439453125,0.10594180297851562,0.04010421412155619,-0.026379199405507113,-0.006667197781580852,2.56000018119812,2019-06-20 16:03:05:612
8.021649963378906,-2.389376708984375,0.1370659484863281,0.04090316244857996,-0.02611288329649919,-0.007332988054100662,2.564864158630371,2019-06-20 16:03:05:617
8.01566455078125,-2.4157125244140625,0.10235055541992187,0.04037053023056411,-0.024914460805963535,-0.008398252490132357,2.569984197616577,2019-06-20 16:03:05:622
8.045591613769531,-2.4025446166992186,0.08080307006835938,0.04037053023056411,-0.025979725241995228,-0.008131936381124433,2.574848175048828,2019-06-20 16:03:05:627
8.031226623535156,-2.3750117187499997,0.11432138061523438,0.04023737217606015,-0.02451498664245165,-0.009596674980668015,2.579968214035034,2019-06-20 16:03:05:632
7.994117065429688,-2.4001504516601564,0.11432138061523438,0.04116947855758789,-0.024914460805963535,-0.009463516926164052,2.584832191467285,2019-06-20 16:03:05:637
7.984540405273437,-2.3965592041015626,0.12270095825195312,0.04116947855758789,-0.02544709302397938,-0.009197200817156128,2.589951992034912,2019-06-20 16:03:05:642
8.012073303222657,-2.408530029296875,0.12629220581054687,0.040636846339572034,-0.024914460805963535,-0.009064042762652167,2.594816207885742,2019-06-20 16:03:05:647
8.03481787109375,-2.4001504516601564,0.09516806030273438,0.040636846339572034,-0.02531393496947542,-0.009064042762652167,2.599936008453369,2019-06-20 16:03:05:652
8.022847045898438,-2.3917708740234374,0.05446725463867187,0.04010421412155619,-0.025979725241995228,-0.008797726653644243,2.60479998588562,2019-06-20 16:03:05:657
8.028832458496094,-2.389376708984375,0.08200015258789062,0.04010421412155619,-0.02611288329649919,-0.010528781362195748,2.609920024871826,2019-06-20 16:03:05:662
8.019255798339843,-2.398953369140625,0.08798556518554687,0.040770004394076,-0.02624604135100315,-0.011061413580211595,2.614784002304077,2019-06-20 16:03:05:667
8.010876220703125,-2.4145154418945314,0.11910971069335938,0.04090316244857996,-0.025580251078483343,-0.009862991089675938,2.619904041290283,2019-06-20 16:03:05:672
8.012073303222657,-2.3905737915039063,0.07002932739257813,0.04010421412155619,-0.025713409132987305,-0.010928255525707633,2.624768018722534,2019-06-20 16:03:05:677
8.014467468261719,-2.3905737915039063,0.08559140014648438,0.04010421412155619,-0.025713409132987305,-0.01066193941669971,2.6298880577087402,2019-06-20 16:03:05:682
8.018058715820313,-2.3678292236328122,0.09756222534179687,0.040636846339572034,-0.025047618860467497,-0.01132772968921952,2.634752035140991,2019-06-20 16:03:05:687
8.028832458496094,-2.354661315917969,0.13586886596679687,0.04103632050308392,-0.02624604135100315,-0.01132772968921952,2.6398720741271973,2019-06-20 16:03:05:692
8.008482055664063,-2.3690263061523438,0.07362057495117187,0.04116947855758789,-0.026379199405507113,-0.010395623307691787,2.6449921131134033,2019-06-20 16:03:05:697
8.020452880859375,-2.3738146362304686,0.10235055541992187,0.04196842688461166,-0.02611288329649919,-0.01066193941669971,2.6498560905456543,2019-06-20 16:03:05:702
8.037212036132813,-2.351070068359375,0.06763516235351562,0.04223474299361958,-0.025979725241995228,-0.010395623307691787,2.6549761295318604,2019-06-20 16:03:05:707
8.009679138183593,-2.3630408935546874,0.09277389526367187,0.04143579466659581,-0.025713409132987305,-0.010395623307691787,2.6598401069641113,2019-06-20 16:03:05:712
8.021649963378906,-2.36543505859375,0.10953305053710938,0.04023737217606015,-0.02611288329649919,-0.010129307198683862,2.6649601459503174,2019-06-20 16:03:05:717
8.018058715820313,-2.3438875732421875,0.13108053588867188,0.04183526883010769,-0.026645515514515036,-0.00933035887166009,2.6698241233825684,2019-06-20 16:03:05:722
7.99651123046875,-2.341493408203125,0.13108053588867188,0.04103632050308392,-0.02624604135100315,-0.00933035887166009,2.6749441623687744,2019-06-20 16:03:05:727
8.022847045898438,-2.3618438110351563,0.08798556518554687,0.041302636612091846,-0.02624604135100315,-0.008531410544636318,2.6798081398010254,2019-06-20 16:03:05:732
8.049182861328125,-2.3774058837890624,0.07481765747070312,0.04183526883010769,-0.02691183162352296,-0.00933035887166009,2.6849281787872314,2019-06-20 16:03:05:737
8.012073303222657,-2.3857854614257814,0.11432138061523438,0.04196842688461166,-0.025846567187491266,-0.008930884708148205,2.6897921562194824,2019-06-20 16:03:05:742
8.030029541015624,-2.4025446166992186,0.12988345336914062,0.041302636612091846,-0.025713409132987305,-0.008797726653644243,2.6949121952056885,2019-06-20 16:03:05:747
8.01566455078125,-2.395362121582031,0.10354763793945312,0.040770004394076,-0.025580251078483343,-0.009596674980668015,2.6997761726379395,2019-06-20 16:03:05:752
7.99651123046875,-2.38458837890625,0.08918264770507812,0.04143579466659581,-0.02611288329649919,-0.0099961491441799,2.7048962116241455,2019-06-20 16:03:05:757
8.019255798339843,-2.357055480957031,0.07840890502929687,0.04103632050308392,-0.026379199405507113,-0.010262465253187823,2.7097601890563965,2019-06-20 16:03:05:762
8.027635375976562,-2.3618438110351563,0.060452667236328125,0.041702110775603735,-0.02531393496947542,-0.009729833035171977,2.7148799896240234,2019-06-20 16:03:05:767
8.03481787109375,-2.3558583984375,0.10354763793945312,0.04103632050308392,-0.025580251078483343,-0.009862991089675938,2.7200000286102295,2019-06-20 16:03:05:772
8.040803283691407,-2.3594496459960936,0.09277389526367187,0.040636846339572034,-0.026778673569018998,-0.009463516926164052,2.7248640060424805,2019-06-20 16:03:05:777
8.014467468261719,-2.3618438110351563,0.08559140014648438,0.04090316244857996,-0.027178147732530883,-0.009064042762652167,2.7299840450286865,2019-06-20 16:03:05:782
8.00728497314453,-2.3474788208007813,0.08678848266601562,0.041302636612091846,-0.02704498967802692,-0.008398252490132357,2.7348480224609375,2019-06-20 16:03:05:787
8.018058715820313,-2.351070068359375,0.10115347290039062,0.040636846339572034,-0.027178147732530883,-0.008930884708148205,2.7399680614471436,2019-06-20 16:03:05:792
8.016861633300781,-2.3678292236328122,0.060452667236328125,0.039704739958044306,-0.026379199405507113,-0.008531410544636318,2.7448320388793945,2019-06-20 16:03:05:797
8.01566455078125,-2.3833912963867188,0.10354763793945312,0.03930526579453242,-0.026512357460011075,-0.007599304163108585,2.7499520778656006,2019-06-20 16:03:05:802
8.021649963378906,-2.3821942138671877,0.07362057495117187,0.04023737217606015,-0.025846567187491266,-0.0071998299995967,2.7548160552978516,2019-06-20 16:03:05:807
7.995314147949219,-2.3750117187499997,0.11432138061523438,0.039837898012548265,-0.02531393496947542,-0.007599304163108585,2.7599360942840576,2019-06-20 16:03:05:812
8.031226623535156,-2.3642379760742185,0.09037973022460938,0.04010421412155619,-0.027311305787034845,-0.006800355836084815,2.7648000717163086,2019-06-20 16:03:05:817
8.046788696289063,-2.3642379760742185,0.07960598754882812,0.040636846339572034,-0.02771077995054673,-0.0071998299995967,2.7699201107025146,2019-06-20 16:03:05:822
8.0252412109375,-2.370223388671875,0.12629220581054687,0.04037053023056411,-0.02691183162352296,-0.006800355836084815,2.7747840881347656,2019-06-20 16:03:05:827
8.013270385742187,-2.3857854614257814,0.08559140014648438,0.039704739958044306,-0.027311305787034845,-0.007599304163108585,2.7799041271209717,2019-06-20 16:03:05:832
8.031226623535156,-2.3869825439453125,0.08319723510742187,0.03957158190354034,-0.02704498967802692,-0.0074661461086046235,2.7847681045532227,2019-06-20 16:03:05:837
8.042000366210937,-2.357055480957031,0.060452667236328125,0.04037053023056411,-0.02611288329649919,-0.007332988054100662,2.7898881435394287,2019-06-20 16:03:05:842
8.027635375976562,-2.3690263061523438,0.07362057495117187,0.039038949685524495,-0.02704498967802692,-0.007599304163108585,2.7947521209716797,2019-06-20 16:03:05:847
8.00728497314453,-2.3690263061523438,0.08559140014648438,0.039837898012548265,-0.02624604135100315,-0.0074661461086046235,2.7998721599578857,2019-06-20 16:03:05:852
8.04439453125,-2.4109241943359376,0.08200015258789062,0.03997105606705223,-0.026379199405507113,-0.007332988054100662,2.804992198944092,2019-06-20 16:03:05:857
8.027635375976562,-2.407332946777344,0.07002932739257813,0.03997105606705223,-0.02691183162352296,-0.006800355836084815,2.8098561763763428,2019-06-20 16:03:05:862
7.995314147949219,-2.3833912963867188,0.060452667236328125,0.039704739958044306,-0.02691183162352296,-0.006933513890588777,2.8149759769439697,2019-06-20 16:03:05:867
8.009679138183593,-2.351070068359375,0.08319723510742187,0.04010421412155619,-0.025846567187491266,-0.006667197781580852,2.8198401927948,2019-06-20 16:03:05:872
8.010876220703125,-2.371420471191406,0.09636514282226562,0.039704739958044306,-0.025979725241995228,-0.006933513890588777,2.8249599933624268,2019-06-20 16:03:05:877
8.008482055664063,-2.354661315917969,0.07601473999023438,0.04090316244857996,-0.026379199405507113,-0.006134565563565005,2.829824209213257,2019-06-20 16:03:05:882
7.995314147949219,-2.3738146362304686,0.09397097778320312,0.040770004394076,-0.025180776914971458,-0.006933513890588777,2.834944009780884,2019-06-20 16:03:05:887
7.994117065429688,-2.3606467285156247,0.10115347290039062,0.040636846339572034,-0.02544709302397938,-0.007599304163108585,2.8398079872131348,2019-06-20 16:03:05:892
8.018058715820313,-2.3774058837890624,0.11312429809570312,0.039704739958044306,-0.025979725241995228,-0.007998778326620472,2.844928026199341,2019-06-20 16:03:05:897
8.031226623535156,-2.366632141113281,0.13347470092773436,0.039704739958044306,-0.026778673569018998,-0.00786562027211651,2.849792003631592,2019-06-20 16:03:05:902
8.038409118652343,-2.3606467285156247,0.12270095825195312,0.03957158190354034,-0.026512357460011075,-0.007332988054100662,2.854912042617798,2019-06-20 16:03:05:907
8.004890808105468,-2.3618438110351563,0.11312429809570312,0.03943842384903638,-0.025846567187491266,-0.007998778326620472,2.859776020050049,2019-06-20 16:03:05:912
8.004890808105468,-2.3534642333984372,0.07960598754882812,0.039704739958044306,-0.025846567187491266,-0.008131936381124433,2.864896059036255,2019-06-20 16:03:05:917
8.004890808105468,-2.36543505859375,0.06284683227539062,0.04023737217606015,-0.025979725241995228,-0.0071998299995967,2.869760036468506,2019-06-20 16:03:05:922
8.001299560546874,-2.3738146362304686,0.08319723510742187,0.03997105606705223,-0.025047618860467497,-0.007599304163108585,2.874880075454712,2019-06-20 16:03:05:927
8.037212036132813,-2.395362121582031,0.031722686767578126,0.03943842384903638,-0.02624604135100315,-0.0070666719450927385,2.880000114440918,2019-06-20 16:03:05:932
8.046788696289063,-2.3738146362304686,0.06164974975585937,0.03997105606705223,-0.02624604135100315,-0.0077324622176125485,2.884864091873169,2019-06-20 16:03:05:937
8.037212036132813,-2.3977562866210937,0.06763516235351562,0.040770004394076,-0.02544709302397938,-0.00786562027211651,2.889984130859375,2019-06-20 16:03:05:942
8.008482055664063,-2.3857854614257814,0.15023385620117188,0.04090316244857996,-0.026512357460011075,-0.008398252490132357,2.894848108291626,2019-06-20 16:03:05:947
8.013270385742187,-2.3821942138671877,0.15023385620117188,0.040503688285068076,-0.025580251078483343,-0.0074661461086046235,2.899968147277832,2019-06-20 16:03:05:952
7.997708312988281,-2.38458837890625,0.13227761840820312,0.04023737217606015,-0.024914460805963535,-0.007998778326620472,2.904832124710083,2019-06-20 16:03:05:957
8.009679138183593,-2.3618438110351563,0.12988345336914062,0.040770004394076,-0.02611288329649919,-0.008531410544636318,2.909952163696289,2019-06-20 16:03:05:962
8.008482055664063,-2.4061358642578123,0.06164974975585937,0.04090316244857996,-0.025180776914971458,-0.008797726653644243,2.91481614112854,2019-06-20 16:03:05:967
8.022847045898438,-2.3762088012695313,0.09875930786132812,0.03997105606705223,-0.025713409132987305,-0.008398252490132357,2.919936180114746,2019-06-20 16:03:05:972
8.0252412109375,-2.3905737915039063,0.11671554565429687,0.04090316244857996,-0.025979725241995228,-0.008265094435628395,2.924800157546997,2019-06-20 16:03:05:977
8.01566455078125,-2.3450846557617187,0.09037973022460938,0.04116947855758789,-0.025580251078483343,-0.006933513890588777,2.929920196533203,2019-06-20 16:03:05:982
8.033620788574218,-2.370223388671875,0.07242349243164062,0.04037053023056411,-0.02531393496947542,-0.007332988054100662,2.934784173965454,2019-06-20 16:03:05:987
8.021649963378906,-2.3774058837890624,0.08319723510742187,0.040770004394076,-0.025979725241995228,-0.008131936381124433,2.93990421295166,2019-06-20 16:03:05:992
8.021649963378906,-2.3941650390625,0.09756222534179687,0.04116947855758789,-0.027444463841538806,-0.0071998299995967,2.944768190383911,2019-06-20 16:03:05:997
8.010876220703125,-2.3750117187499997,0.11312429809570312,0.04116947855758789,-0.025580251078483343,-0.0074661461086046235,2.949887990951538,2019-06-20 16:03:06:002
8.030029541015624,-2.371420471191406,0.08918264770507812,0.041702110775603735,-0.02531393496947542,-0.0070666719450927385,2.954752206802368,2019-06-20 16:03:06:007
8.019255798339843,-2.3881796264648436,0.04249642944335937,0.04116947855758789,-0.02611288329649919,-0.006933513890588777,2.959872007369995,2019-06-20 16:03:06:012
8.030029541015624,-2.3857854614257814,0.08918264770507812,0.041702110775603735,-0.025580251078483343,-0.007332988054100662,2.964992046356201,2019-06-20 16:03:06:017
8.033620788574218,-2.3965592041015626,0.12030679321289062,0.04156895272109977,-0.025846567187491266,-0.008131936381124433,2.969856023788452,2019-06-20 16:03:06:022
8.024044128417968,-2.408530029296875,0.055664337158203125,0.04156895272109977,-0.02611288329649919,-0.0071998299995967,2.974976062774658,2019-06-20 16:03:06:027
8.050379943847656,-2.389376708984375,0.11432138061523438,0.04103632050308392,-0.026645515514515036,-0.0074661461086046235,2.979840040206909,2019-06-20 16:03:06:032
8.04439453125,-2.3941650390625,0.08200015258789062,0.04116947855758789,-0.02624604135100315,-0.0071998299995967,2.9849600791931152,2019-06-20 16:03:06:037
8.033620788574218,-2.3881796264648436,0.07601473999023438,0.04090316244857996,-0.025713409132987305,-0.0071998299995967,2.989824056625366,2019-06-20 16:03:06:042
8.0252412109375,-2.371420471191406,0.10953305053710938,0.04156895272109977,-0.02611288329649919,-0.006933513890588777,2.9949440956115723,2019-06-20 16:03:06:047
8.033620788574218,-2.379800048828125,0.14544552612304687,0.042101584939115616,-0.02691183162352296,-0.006667197781580852,2.9998080730438232,2019-06-20 16:03:06:052
8.021649963378906,-2.3833912963867188,0.10953305053710938,0.04183526883010769,-0.02704498967802692,-0.0077324622176125485,3.0049281120300293,2019-06-20 16:03:06:057
8.024044128417968,-2.370223388671875,0.10594180297851562,0.041702110775603735,-0.026512357460011075,-0.0070666719450927385,3.0097920894622803,2019-06-20 16:03:06:062
8.021649963378906,-2.357055480957031,0.09277389526367187,0.04116947855758789,-0.02691183162352296,-0.0070666719450927385,3.0149121284484863,2019-06-20 16:03:06:067
8.009679138183593,-2.3594496459960936,0.09875930786132812,0.041302636612091846,-0.02624604135100315,-0.00653403972707689,3.0197761058807373,2019-06-20 16:03:06:072
8.018058715820313,-2.366632141113281,0.11073013305664062,0.04156895272109977,-0.026379199405507113,-0.00653403972707689,3.0248961448669434,2019-06-20 16:03:06:077
8.019255798339843,-2.3905737915039063,0.13108053588867188,0.040636846339572034,-0.02784393800505069,-0.006933513890588777,3.0297601222991943,2019-06-20 16:03:06:082
8.016861633300781,-2.3941650390625,0.10833596801757812,0.040770004394076,-0.027444463841538806,-0.008131936381124433,3.0348801612854004,2019-06-20 16:03:06:087
8.032423706054688,-2.378602966308594,0.07122640991210938,0.040503688285068076,-0.02704498967802692,-0.008398252490132357,3.0400002002716064,2019-06-20 16:03:06:092
7.990525817871093,-2.3857854614257814,0.028131439208984373,0.04103632050308392,-0.02611288329649919,-0.009064042762652167,3.0448641777038574,2019-06-20 16:03:06:097
8.031226623535156,-2.3750117187499997,0.050876007080078126,0.040770004394076,-0.025979725241995228,-0.009596674980668015,3.0499839782714844,2019-06-20 16:03:06:102
7.983343322753906,-2.3821942138671877,0.07242349243164062,0.04037053023056411,-0.02624604135100315,-0.008930884708148205,3.0548481941223145,2019-06-20 16:03:06:107
8.042000366210937,-2.418106689453125,0.06883224487304687,0.04116947855758789,-0.02611288329649919,-0.009197200817156128,3.0599679946899414,2019-06-20 16:03:06:112
8.03601495361328,-2.3857854614257814,0.08559140014648438,0.04196842688461166,-0.025846567187491266,-0.009064042762652167,3.0648322105407715,2019-06-20 16:03:06:117
8.043197448730469,-2.3821942138671877,0.07601473999023438,0.04196842688461166,-0.026379199405507113,-0.008265094435628395,3.0699520111083984,2019-06-20 16:03:06:122
8.055168273925782,-2.3905737915039063,0.10354763793945312,0.04103632050308392,-0.026645515514515036,-0.00933035887166009,3.0748159885406494,2019-06-20 16:03:06:127
8.0252412109375,-2.366632141113281,0.09277389526367187,0.04090316244857996,-0.025846567187491266,-0.009729833035171977,3.0799360275268555,2019-06-20 16:03:06:132
8.009679138183593,-2.3821942138671877,0.13946011352539062,0.04010421412155619,-0.025180776914971458,-0.008797726653644243,3.0848000049591064,2019-06-20 16:03:06:137
8.031226623535156,-2.3821942138671877,0.10474472045898438,0.04037053023056411,-0.026645515514515036,-0.008797726653644243,3.0899200439453125,2019-06-20 16:03:06:142
8.020452880859375,-2.371420471191406,0.11192721557617187,0.04103632050308392,-0.02624604135100315,-0.008398252490132357,3.0947840213775635,2019-06-20 16:03:06:147
8.01566455078125,-2.3762088012695313,0.10594180297851562,0.04143579466659581,-0.02624604135100315,-0.009729833035171977,3.0999040603637695,2019-06-20 16:03:06:152
8.03601495361328,-2.3821942138671877,0.07960598754882812,0.04090316244857996,-0.026379199405507113,-0.009463516926164052,3.1047680377960205,2019-06-20 16:03:06:157
8.022847045898438,-2.3606467285156247,0.09756222534179687,0.04116947855758789,-0.025713409132987305,-0.009064042762652167,3.1098880767822266,2019-06-20 16:03:06:162
8.026438293457032,-2.3295225830078126,0.11312429809570312,0.04090316244857996,-0.025580251078483343,-0.008531410544636318,3.1147520542144775,2019-06-20 16:03:06:167
8.030029541015624,-2.370223388671875,0.11192721557617187,0.04103632050308392,-0.027178147732530883,-0.008930884708148205,3.1198720932006836,2019-06-20 16:03:06:172
8.033620788574218,-2.366632141113281,0.10953305053710938,0.040770004394076,-0.025180776914971458,-0.00933035887166009,3.1249921321868896,2019-06-20 16:03:06:177
8.030029541015624,-2.366632141113281,0.11192721557617187,0.040503688285068076,-0.027178147732530883,-0.010262465253187823,3.1298561096191406,2019-06-20 16:03:06:182
8.031226623535156,-2.379800048828125,0.053270172119140625,0.040770004394076,-0.026512357460011075,-0.009596674980668015,3.1349761486053467,2019-06-20 16:03:06:187
8.019255798339843,-2.354661315917969,0.08200015258789062,0.04037053023056411,-0.02771077995054673,-0.00933035887166009,3.1398401260375977,2019-06-20 16:03:06:192
8.021649963378906,-2.371420471191406,0.10474472045898438,0.04023737217606015,-0.02624604135100315,-0.009596674980668015,3.1449601650238037,2019-06-20 16:03:06:197
8.00728497314453,-2.3534642333984372,0.09277389526367187,0.04090316244857996,-0.025979725241995228,-0.00933035887166009,3.1498241424560547,2019-06-20 16:03:06:202
8.002496643066406,-2.3582525634765625,0.09397097778320312,0.04023737217606015,-0.026512357460011075,-0.008797726653644243,3.1549441814422607,2019-06-20 16:03:06:207
8.01566455078125,-2.371420471191406,0.09636514282226562,0.040503688285068076,-0.02624604135100315,-0.008797726653644243,3.1598081588745117,2019-06-20 16:03:06:212
8.00728497314453,-2.3738146362304686,0.08559140014648438,0.04023737217606015,-0.02611288329649919,-0.008265094435628395,3.1649281978607178,2019-06-20 16:03:06:217
8.051577026367188,-2.3606467285156247,0.07960598754882812,0.04037053023056411,-0.025979725241995228,-0.007599304163108585,3.1697921752929688,2019-06-20 16:03:06:222
8.059956604003906,-2.3857854614257814,0.09756222534179687,0.040770004394076,-0.025846567187491266,-0.0077324622176125485,3.174912214279175,2019-06-20 16:03:06:227
7.99651123046875,-2.3690263061523438,0.11432138061523438,0.04090316244857996,-0.026512357460011075,-0.0074661461086046235,3.179776191711426,2019-06-20 16:03:06:232
8.006087890625,-2.371420471191406,0.053270172119140625,0.04116947855758789,-0.02544709302397938,-0.0077324622176125485,3.1848959922790527,2019-06-20 16:03:06:237
8.016861633300781,-2.371420471191406,0.11910971069335938,0.040636846339572034,-0.02544709302397938,-0.007998778326620472,3.189760208129883,2019-06-20 16:03:06:242
8.020452880859375,-2.4049387817382812,0.08798556518554687,0.04103632050308392,-0.025047618860467497,-0.007599304163108585,3.1948800086975098,2019-06-20 16:03:06:247
8.021649963378906,-2.3726175537109375,0.12270095825195312,0.04143579466659581,-0.02624604135100315,-0.0077324622176125485,3.200000047683716,2019-06-20 16:03:06:252
7.998905395507812,-2.379800048828125,0.06524099731445313,0.04103632050308392,-0.02544709302397938,-0.008797726653644243,3.204864025115967,2019-06-20 16:03:06:257
8.033620788574218,-2.3833912963867188,0.07721182250976562,0.040770004394076,-0.02611288329649919,-0.00786562027211651,3.209984064102173,2019-06-20 16:03:06:262
8.022847045898438,-2.3869825439453125,0.09277389526367187,0.041302636612091846,-0.02704498967802692,-0.008797726653644243,3.214848041534424,2019-06-20 16:03:06:267
8.045591613769531,-2.3630408935546874,0.09756222534179687,0.041302636612091846,-0.025846567187491266,-0.00933035887166009,3.21996808052063,2019-06-20 16:03:06:272
8.00728497314453,-2.3762088012695313,0.09995639038085938,0.04116947855758789,-0.02611288329649919,-0.008664568599140282,3.224832057952881,2019-06-20 16:03:06:277
8.001299560546874,-2.3833912963867188,0.07840890502929687,0.04196842688461166,-0.025713409132987305,-0.008797726653644243,3.229952096939087,2019-06-20 16:03:06:282
8.026438293457032,-2.4025446166992186,0.09995639038085938,0.042367901048123546,-0.025713409132987305,-0.009197200817156128,3.234816074371338,2019-06-20 16:03:06:287
8.03601495361328,-2.3738146362304686,0.10953305053710938,0.04263421715713147,-0.025580251078483343,-0.009596674980668015,3.239936113357544,2019-06-20 16:03:06:292
8.022847045898438,-2.3821942138671877,0.11073013305664062,0.042101584939115616,-0.02544709302397938,-0.009463516926164052,3.244800090789795,2019-06-20 16:03:06:297
8.01566455078125,-2.3498729858398435,0.09397097778320312,0.04156895272109977,-0.025713409132987305,-0.009463516926164052,3.249920129776001,2019-06-20 16:03:06:302
8.045591613769531,-2.371420471191406,0.09636514282226562,0.041702110775603735,-0.02624604135100315,-0.009862991089675938,3.254784107208252,2019-06-20 16:03:06:307
8.037212036132813,-2.3917708740234374,0.10115347290039062,0.041702110775603735,-0.02691183162352296,-0.009197200817156128,3.259904146194458,2019-06-20 16:03:06:312
8.031226623535156,-2.3762088012695313,0.09277389526367187,0.04183526883010769,-0.025180776914971458,-0.009463516926164052,3.264768123626709,2019-06-20 16:03:06:317
8.031226623535156,-2.3750117187499997,0.12509512329101563,0.04143579466659581,-0.025580251078483343,-0.009463516926164052,3.269888162612915,2019-06-20 16:03:06:322
8.03481787109375,-2.352267150878906,0.15143093872070312,0.04156895272109977,-0.025846567187491266,-0.009463516926164052,3.274752140045166,2019-06-20 16:03:06:327
8.037212036132813,-2.3534642333984372,0.09397097778320312,0.04143579466659581,-0.025846567187491266,-0.009596674980668015,3.279872179031372,2019-06-20 16:03:06:332
8.03481787109375,-2.3618438110351563,0.10235055541992187,0.040770004394076,-0.025979725241995228,-0.009064042762652167,3.284991979598999,2019-06-20 16:03:06:337
8.014467468261719,-2.3534642333984372,0.09636514282226562,0.039704739958044306,-0.027577621896042768,-0.009064042762652167,3.289856195449829,2019-06-20 16:03:06:342
8.039606201171875,-2.371420471191406,0.08918264770507812,0.04010421412155619,-0.02704498967802692,-0.008531410544636318,3.294975996017456,2019-06-20 16:03:06:347
8.013270385742187,-2.370223388671875,0.11791262817382812,0.040770004394076,-0.02611288329649919,-0.007599304163108585,3.299840211868286,2019-06-20 16:03:06:352
8.037212036132813,-2.351070068359375,0.07242349243164062,0.040503688285068076,-0.025979725241995228,-0.0077324622176125485,3.304960012435913,2019-06-20 16:03:06:357
8.05397119140625,-2.357055480957031,0.08678848266601562,0.040503688285068076,-0.02611288329649919,-0.0077324622176125485,3.309823989868164,2019-06-20 16:03:06:362
8.020452880859375,-2.351070068359375,0.09875930786132812,0.04010421412155619,-0.02704498967802692,-0.007332988054100662,3.31494402885437,2019-06-20 16:03:06:367
8.016861633300781,-2.3642379760742185,0.12509512329101563,0.04037053023056411,-0.02704498967802692,-0.006933513890588777,3.319808006286621,2019-06-20 16:03:06:372
8.03601495361328,-2.371420471191406,0.11671554565429687,0.040503688285068076,-0.027178147732530883,-0.006933513890588777,3.324928045272827,2019-06-20 16:03:06:377
8.016861633300781,-2.3774058837890624,0.09037973022460938,0.040503688285068076,-0.026645515514515036,-0.006667197781580852,3.329792022705078,2019-06-20 16:03:06:382
8.014467468261719,-2.3642379760742185,0.10474472045898438,0.04037053023056411,-0.02691183162352296,-0.006933513890588777,3.334912061691284,2019-06-20 16:03:06:387
8.028832458496094,-2.3690263061523438,0.09875930786132812,0.04023737217606015,-0.02704498967802692,-0.0064008816725729285,3.339776039123535,2019-06-20 16:03:06:392
8.031226623535156,-2.38458837890625,0.12270095825195312,0.03943842384903638,-0.027577621896042768,-0.00653403972707689,3.344896078109741,2019-06-20 16:03:06:397
8.019255798339843,-2.3821942138671877,0.10235055541992187,0.039704739958044306,-0.027178147732530883,-0.006800355836084815,3.349760055541992,2019-06-20 16:03:06:402
8.010876220703125,-2.366632141113281,0.11192721557617187,0.04037053023056411,-0.026778673569018998,-0.006267723618068967,3.3548800945281982,2019-06-20 16:03:06:407
8.038409118652343,-2.341493408203125,0.07481765747070312,0.03957158190354034,-0.026778673569018998,-0.006001407509061044,3.3600001335144043,2019-06-20 16:03:06:412
8.037212036132813,-2.3462817382812498,0.08918264770507812,0.04023737217606015,-0.027311305787034845,-0.005468775291045195,3.3648641109466553,2019-06-20 16:03:06:417
8.008482055664063,-2.354661315917969,0.11312429809570312,0.04037053023056411,-0.02704498967802692,-0.004536668909517462,3.3699841499328613,2019-06-20 16:03:06:422
8.018058715820313,-2.380997131347656,0.09636514282226562,0.03997105606705223,-0.025979725241995228,-0.005601933345549157,3.3748481273651123,2019-06-20 16:03:06:427
8.01566455078125,-2.395362121582031,0.11312429809570312,0.04023737217606015,-0.025580251078483343,-0.005601933345549157,3.3799681663513184,2019-06-20 16:03:06:432
8.006087890625,-2.3965592041015626,0.07601473999023438,0.03930526579453242,-0.025713409132987305,-0.005601933345549157,3.3848321437835693,2019-06-20 16:03:06:437
8.013270385742187,-2.4001504516601564,0.10833596801757812,0.04090316244857996,-0.02624604135100315,-0.006267723618068967,3.3899521827697754,2019-06-20 16:03:06:442
7.998905395507812,-2.413318359375,0.09397097778320312,0.04143579466659581,-0.026778673569018998,-0.0064008816725729285,3.3948161602020264,2019-06-20 16:03:06:447
7.994117065429688,-2.389376708984375,0.060452667236328125,0.04196842688461166,-0.026379199405507113,-0.006134565563565005,3.3999361991882324,2019-06-20 16:03:06:452
8.003693725585938,-2.40374169921875,0.12030679321289062,0.042101584939115616,-0.026379199405507113,-0.0064008816725729285,3.4048001766204834,2019-06-20 16:03:06:457
8.003693725585938,-2.3738146362304686,0.14305136108398436,0.04223474299361958,-0.02611288329649919,-0.0074661461086046235,3.4099199771881104,2019-06-20 16:03:06:462
8.004890808105468,-2.3833912963867188,0.13347470092773436,0.04143579466659581,-0.026778673569018998,-0.0077324622176125485,3.4147841930389404,2019-06-20 16:03:06:467
8.001299560546874,-2.3941650390625,0.11312429809570312,0.04103632050308392,-0.026645515514515036,-0.00653403972707689,3.4199039936065674,2019-06-20 16:03:06:472
8.013270385742187,-2.395362121582031,0.11312429809570312,0.041302636612091846,-0.02611288329649919,-0.00653403972707689,3.4247682094573975,2019-06-20 16:03:06:477
7.988131652832031,-2.3678292236328122,0.14544552612304687,0.040503688285068076,-0.026512357460011075,-0.007599304163108585,3.4298880100250244,2019-06-20 16:03:06:482
8.00728497314453,-2.36543505859375,0.12270095825195312,0.04143579466659581,-0.025979725241995228,-0.008531410544636318,3.4347519874572754,2019-06-20 16:03:06:487
8.033620788574218,-2.3750117187499997,0.08559140014648438,0.041702110775603735,-0.026778673569018998,-0.0077324622176125485,3.4398720264434814,2019-06-20 16:03:06:492
8.010876220703125,-2.3833912963867188,0.08319723510742187,0.041702110775603735,-0.02544709302397938,-0.0074661461086046235,3.4449920654296875,2019-06-20 16:03:06:497
8.016861633300781,-2.4025446166992186,0.06164974975585937,0.04103632050308392,-0.02531393496947542,-0.007332988054100662,3.4498560428619385,2019-06-20 16:03:06:502
8.020452880859375,-2.4013475341796875,0.031722686767578126,0.04023737217606015,-0.026379199405507113,-0.006800355836084815,3.4549760818481445,2019-06-20 16:03:06:507
8.009679138183593,-2.3881796264648436,0.028131439208984373,0.040503688285068076,-0.026379199405507113,-0.006800355836084815,3.4598400592803955,2019-06-20 16:03:06:512
8.009679138183593,-2.352267150878906,0.08678848266601562,0.040770004394076,-0.026379199405507113,-0.007332988054100662,3.4649600982666016,2019-06-20 16:03:06:517
7.9917229003906245,-2.389376708984375,0.11073013305664062,0.04037053023056411,-0.025846567187491266,-0.008131936381124433,3.4698240756988525,2019-06-20 16:03:06:522
8.002496643066406,-2.3821942138671877,0.10235055541992187,0.04023737217606015,-0.025846567187491266,-0.008265094435628395,3.4749441146850586,2019-06-20 16:03:06:527
8.021649963378906,-2.4001504516601564,0.11910971069335938,0.040770004394076,-0.02531393496947542,-0.00786562027211651,3.4798080921173096,2019-06-20 16:03:06:532
8.038409118652343,-2.3738146362304686,0.10953305053710938,0.04090316244857996,-0.02624604135100315,-0.007998778326620472,3.4849281311035156,2019-06-20 16:03:06:537
8.024044128417968,-2.370223388671875,0.09875930786132812,0.040636846339572034,-0.026379199405507113,-0.008265094435628395,3.4897921085357666,2019-06-20 16:03:06:542
8.009679138183593,-2.392967956542969,0.06524099731445313,0.04023737217606015,-0.026645515514515036,-0.008930884708148205,3.4949121475219727,2019-06-20 16:03:06:547
8.020452880859375,-2.392967956542969,0.11192721557617187,0.040770004394076,-0.025846567187491266,-0.009197200817156128,3.4997761249542236,2019-06-20 16:03:06:552
8.012073303222657,-2.408530029296875,0.12030679321289062,0.04037053023056411,-0.026379199405507113,-0.008398252490132357,3.5048961639404297,2019-06-20 16:03:06:557
8.021649963378906,-2.3905737915039063,0.14424844360351563,0.040636846339572034,-0.025979725241995228,-0.008265094435628395,3.5097601413726807,2019-06-20 16:03:06:562
8.026438293457032,-2.3833912963867188,0.11192721557617187,0.04103632050308392,-0.024914460805963535,-0.009463516926164052,3.5148801803588867,2019-06-20 16:03:06:567
8.013270385742187,-2.3977562866210937,0.13347470092773436,0.04090316244857996,-0.02531393496947542,-0.009064042762652167,3.5199999809265137,2019-06-20 16:03:06:572
8.000102478027344,-2.395362121582031,0.08439431762695312,0.041702110775603735,-0.025180776914971458,-0.009862991089675938,3.5248641967773438,2019-06-20 16:03:06:577
7.995314147949219,-2.3917708740234374,0.09636514282226562,0.04143579466659581,-0.025580251078483343,-0.009596674980668015,3.5299839973449707,2019-06-20 16:03:06:582
7.988131652832031,-2.40374169921875,0.06524099731445313,0.04090316244857996,-0.026379199405507113,-0.010395623307691787,3.534848213195801,2019-06-20 16:03:06:587
7.982146240234375,-2.4013475341796875,0.1274892883300781,0.040636846339572034,-0.025580251078483343,-0.010928255525707633,3.5399680137634277,2019-06-20 16:03:06:592
8.0252412109375,-2.389376708984375,0.11671554565429687,0.041702110775603735,-0.025713409132987305,-0.01132772968921952,3.5448319911956787,2019-06-20 16:03:06:597
8.030029541015624,-2.3630408935546874,0.11551846313476562,0.042101584939115616,-0.026778673569018998,-0.011460887743723482,3.5499520301818848,2019-06-20 16:03:06:602
8.040803283691407,-2.3594496459960936,0.10115347290039062,0.042367901048123546,-0.02691183162352296,-0.012259836070747251,3.5548160076141357,2019-06-20 16:03:06:607
7.9929199829101565,-2.3630408935546874,0.12629220581054687,0.04196842688461166,-0.026645515514515036,-0.012792468288763102,3.559936046600342,2019-06-20 16:03:06:612
8.000102478027344,-2.3857854614257814,0.15143093872070312,0.04103632050308392,-0.026512357460011075,-0.012259836070747251,3.5648000240325928,2019-06-20 16:03:06:617
8.050379943847656,-2.3941650390625,0.08319723510742187,0.03997105606705223,-0.026512357460011075,-0.012526152179755175,3.569920063018799,2019-06-20 16:03:06:622
8.052774108886718,-2.4001504516601564,0.05686141967773437,0.03997105606705223,-0.025180776914971458,-0.011860361907235367,3.57478404045105,2019-06-20 16:03:06:627
8.03601495361328,-2.4121212768554687,0.09157681274414062,0.040770004394076,-0.02544709302397938,-0.011460887743723482,3.579904079437256,2019-06-20 16:03:06:632
8.030029541015624,-2.4001504516601564,0.11192721557617187,0.041702110775603735,-0.025713409132987305,-0.013325100506778948,3.584768056869507,2019-06-20 16:03:06:637
8.010876220703125,-2.3941650390625,0.09756222534179687,0.04143579466659581,-0.026512357460011075,-0.013990890779298756,3.589888095855713,2019-06-20 16:03:06:642
7.997708312988281,-2.4109241943359376,0.09277389526367187,0.04116947855758789,-0.02704498967802692,-0.014523522997314606,3.594752073287964,2019-06-20 16:03:06:647
8.010876220703125,-2.395362121582031,0.08678848266601562,0.04183526883010769,-0.024914460805963535,-0.015056155215330453,3.59987211227417,2019-06-20 16:03:06:652
8.014467468261719,-2.4049387817382812,0.08918264770507812,0.04103632050308392,-0.025047618860467497,-0.016387735760370073,3.604992151260376,2019-06-20 16:03:06:657
8.018058715820313,-2.40374169921875,0.06643807983398438,0.04143579466659581,-0.025180776914971458,-0.01692036797838592,3.609856128692627,2019-06-20 16:03:06:662
8.039606201171875,-2.3941650390625,0.053270172119140625,0.042101584939115616,-0.025979725241995228,-0.016787209923881958,3.614976167678833,2019-06-20 16:03:06:667
8.018058715820313,-2.4169096069335936,0.08559140014648438,0.04223474299361958,-0.025713409132987305,-0.017985633454714916,3.619840145111084,2019-06-20 16:03:06:672
8.008482055664063,-2.4252891845703126,0.06643807983398438,0.042367901048123546,-0.025580251078483343,-0.019317213999754532,3.62496018409729,2019-06-20 16:03:06:677
8.00728497314453,-2.4121212768554687,0.06524099731445313,0.042101584939115616,-0.024781302751459573,-0.019450372054258497,3.629824161529541,2019-06-20 16:03:06:682
