ACCELEROMETER X (m/s²),ACCELEROMETER Y (m/s²),ACCELEROMETER Z (m/s²),GYROSCOPE X (rad/s),GYROSCOPE Y (rad/s),GYROSCOPE Z (rad/s),Time since start in ms ,YYYY-MO-DD HH-MI-SS_SSS
-10.89943634033203,-2.4971141357421875,0.40521243286132813,0.039837898012548265,-0.028243412168562583,-0.007998778326620472,0.0,2019-06-20 16:35:06:111
-10.880283020019531,-2.51866162109375,0.41119784545898436,0.03930526579453242,-0.02784393800505069,-0.007599304163108585,0.004992008209228516,2019-06-20 16:35:06:116
-10.937742980957031,-2.5162674560546874,0.42436575317382813,0.03850631746750865,-0.02704498967802692,-0.007998778326620472,0.009984016418457031,2019-06-20 16:35:06:121
-10.913801330566406,-2.524647033691406,0.39204452514648436,0.03943842384903638,-0.027444463841538806,-0.00786562027211651,0.014976024627685547,2019-06-20 16:35:06:126
-10.905421752929687,-2.5150703735351563,0.42556283569335934,0.038905791631020537,-0.027311305787034845,-0.007599304163108585,0.019999980926513672,2019-06-20 16:35:06:131
-10.895845092773436,-2.5007053833007813,0.41718325805664064,0.039837898012548265,-0.026512357460011075,-0.008131936381124433,0.024991989135742188,2019-06-20 16:35:06:136
-10.944925476074218,-2.5007053833007813,0.41119784545898436,0.03930526579453242,-0.02797709605955466,-0.008131936381124433,0.029983997344970703,2019-06-20 16:35:06:141
-10.954502136230468,-2.495917053222656,0.4507015686035156,0.04010421412155619,-0.02704498967802692,-0.007599304163108585,0.03497600555419922,2019-06-20 16:35:06:146
-10.885071350097656,-2.4887345581054685,0.4507015686035156,0.040503688285068076,-0.027178147732530883,-0.0077324622176125485,0.040000200271606445,2019-06-20 16:35:06:151
-10.8982392578125,-2.4875374755859374,0.3932416076660156,0.03957158190354034,-0.02771077995054673,-0.008265094435628395,0.04499197006225586,2019-06-20 16:35:06:156
-10.930560485839843,-2.5090849609375,0.42556283569335934,0.03850631746750865,-0.028509728277570506,-0.00786562027211651,0.049983978271484375,2019-06-20 16:35:06:161
-10.897042175292968,-2.5150703735351563,0.42316867065429686,0.03877263357651657,-0.02704498967802692,-0.0070666719450927385,0.05497598648071289,2019-06-20 16:35:06:166
-10.90781591796875,-2.493522888183594,0.40640951538085934,0.03930526579453242,-0.02611288329649919,-0.0074661461086046235,0.06000018119812012,2019-06-20 16:35:06:171
-10.934151733398437,-2.4971141357421875,0.4291540832519531,0.03930526579453242,-0.027577621896042768,-0.008131936381124433,0.06499218940734863,2019-06-20 16:35:06:176
-10.940137145996093,-2.4731724853515624,0.38725619506835934,0.038905791631020537,-0.028376570223066545,-0.008398252490132357,0.06998419761657715,2019-06-20 16:35:06:181
-10.924575073242186,-2.510282043457031,0.44950448608398436,0.03877263357651657,-0.027444463841538806,-0.008265094435628395,0.07497596740722656,2019-06-20 16:35:06:186
-10.937742980957031,-2.5210557861328122,0.42436575317382813,0.03863947552201261,-0.028642886332074468,-0.008131936381124433,0.08000016212463379,2019-06-20 16:35:06:191
-10.944925476074218,-2.5007053833007813,0.42436575317382813,0.03930526579453242,-0.02771077995054673,-0.008265094435628395,0.0849921703338623,2019-06-20 16:35:06:196
-10.887465515136718,-2.507887878417969,0.4279570007324219,0.039837898012548265,-0.027444463841538806,-0.00786562027211651,0.08998417854309082,2019-06-20 16:35:06:201
-10.893450927734374,-2.5030995483398435,0.43753366088867185,0.03877263357651657,-0.028642886332074468,-0.008131936381124433,0.09497618675231934,2019-06-20 16:35:06:206
-10.913801330566406,-2.476763732910156,0.4411249084472656,0.03810684330399676,-0.02771077995054673,-0.008131936381124433,0.10000014305114746,2019-06-20 16:35:06:211
-10.893450927734374,-2.505493713378906,0.4219715881347656,0.03930526579453242,-0.02611288329649919,-0.007599304163108585,0.10499215126037598,2019-06-20 16:35:06:216
-10.871903442382813,-2.519858703613281,0.4291540832519531,0.039038949685524495,-0.027178147732530883,-0.00786562027211651,0.10998415946960449,2019-06-20 16:35:06:221
-10.901830505371093,-2.493522888183594,0.4411249084472656,0.039038949685524495,-0.02890920244108239,-0.008531410544636318,0.11497616767883301,2019-06-20 16:35:06:226
-10.913801330566406,-2.494719970703125,0.3956357727050781,0.03917210774002846,-0.028243412168562583,-0.00786562027211651,0.12000012397766113,2019-06-20 16:35:06:231
-10.90781591796875,-2.5174645385742185,0.4147890930175781,0.038905791631020537,-0.02704498967802692,-0.00933035887166009,0.12499213218688965,2019-06-20 16:35:06:236
-10.897042175292968,-2.5138732910156247,0.45548989868164064,0.039038949685524495,-0.028376570223066545,-0.008531410544636318,0.12998414039611816,2019-06-20 16:35:06:241
-10.90781591796875,-2.4995083007812497,0.43035116577148436,0.038905791631020537,-0.02784393800505069,-0.007998778326620472,0.13497614860534668,2019-06-20 16:35:06:246
-10.912604248046875,-2.5150703735351563,0.4387307434082031,0.04023737217606015,-0.026645515514515036,-0.008131936381124433,0.1400001049041748,2019-06-20 16:35:06:251
-10.892253845214844,-2.505493713378906,0.44950448608398436,0.040503688285068076,-0.026512357460011075,-0.008531410544636318,0.14499211311340332,2019-06-20 16:35:06:256
-10.937742980957031,-2.5258441162109375,0.4076065979003906,0.039038949685524495,-0.02691183162352296,-0.008265094435628395,0.14998412132263184,2019-06-20 16:35:06:261
-10.911407165527343,-2.493522888183594,0.4004241027832031,0.03850631746750865,-0.02771077995054673,-0.0074661461086046235,0.15497612953186035,2019-06-20 16:35:06:266
-10.912604248046875,-2.4923258056640623,0.4147890930175781,0.039038949685524495,-0.02784393800505069,-0.0074661461086046235,0.16000008583068848,2019-06-20 16:35:06:271
-10.912604248046875,-2.505493713378906,0.4123949279785156,0.038905791631020537,-0.026645515514515036,-0.008797726653644243,0.164992094039917,2019-06-20 16:35:06:276
-10.89943634033203,-2.495917053222656,0.40521243286132813,0.03957158190354034,-0.02691183162352296,-0.008930884708148205,0.1699841022491455,2019-06-20 16:35:06:281
-10.868312194824219,-2.5114791259765625,0.42436575317382813,0.039704739958044306,-0.02797709605955466,-0.007998778326620472,0.17497611045837402,2019-06-20 16:35:06:286
-10.919786743164062,-2.4983112182617186,0.4291540832519531,0.03930526579453242,-0.027577621896042768,-0.007599304163108585,0.18000006675720215,2019-06-20 16:35:06:291
-10.918589660644532,-2.5019024658203124,0.41838034057617185,0.03930526579453242,-0.028376570223066545,-0.008265094435628395,0.18499207496643066,2019-06-20 16:35:06:296
-10.904224670410157,-2.476763732910156,0.41838034057617185,0.03997105606705223,-0.027444463841538806,-0.008797726653644243,0.18998408317565918,2019-06-20 16:35:06:301
-10.906618835449219,-2.4779608154296873,0.4279570007324219,0.03917210774002846,-0.02771077995054673,-0.008265094435628395,0.1949760913848877,2019-06-20 16:35:06:306
-10.919786743164062,-2.5174645385742185,0.3884532775878906,0.03917210774002846,-0.028642886332074468,-0.0074661461086046235,0.20000004768371582,2019-06-20 16:35:06:311
-10.895845092773436,-2.4983112182617186,0.4195774230957031,0.03943842384903638,-0.026645515514515036,-0.007599304163108585,0.20499205589294434,2019-06-20 16:35:06:316
-10.910210083007811,-2.5174645385742185,0.3836649475097656,0.03917210774002846,-0.026778673569018998,-0.0077324622176125485,0.20998406410217285,2019-06-20 16:35:06:321
-10.918589660644532,-2.531829528808594,0.41598617553710937,0.03917210774002846,-0.02797709605955466,-0.007599304163108585,0.21497607231140137,2019-06-20 16:35:06:326
-10.920983825683594,-2.5162674560546874,0.44471615600585934,0.03930526579453242,-0.028243412168562583,-0.0070666719450927385,0.2200000286102295,2019-06-20 16:35:06:331
-10.89943634033203,-2.504296630859375,0.4387307434082031,0.039704739958044306,-0.02691183162352296,-0.0071998299995967,0.224992036819458,2019-06-20 16:35:06:336
-10.89943634033203,-2.507887878417969,0.40640951538085934,0.03930526579453242,-0.02704498967802692,-0.0074661461086046235,0.22998404502868652,2019-06-20 16:35:06:341
-10.914998413085938,-2.4995083007812497,0.4135920104980469,0.03877263357651657,-0.028376570223066545,-0.0077324622176125485,0.23497605323791504,2019-06-20 16:35:06:346
-10.90781591796875,-2.495917053222656,0.4088036804199219,0.03877263357651657,-0.02811025411405862,-0.007599304163108585,0.24000000953674316,2019-06-20 16:35:06:351
-10.900633422851563,-2.4851433105468748,0.3884532775878906,0.03917210774002846,-0.02704498967802692,-0.0071998299995967,0.24499201774597168,2019-06-20 16:35:06:356
-10.912604248046875,-2.505493713378906,0.39922702026367185,0.038240001358500725,-0.027178147732530883,-0.0074661461086046235,0.2499840259552002,2019-06-20 16:35:06:361
-10.92816632080078,-2.479157897949219,0.3908474426269531,0.03863947552201261,-0.026778673569018998,-0.007599304163108585,0.2549760341644287,2019-06-20 16:35:06:366
-10.924575073242186,-2.5090849609375,0.4219715881347656,0.0379736852494928,-0.026512357460011075,-0.007998778326620472,0.25999999046325684,2019-06-20 16:35:06:371
-10.948516723632812,-2.4983112182617186,0.42316867065429686,0.038240001358500725,-0.02784393800505069,-0.00786562027211651,0.26499199867248535,2019-06-20 16:35:06:376
-10.943728393554688,-2.476763732910156,0.4123949279785156,0.037840527194988836,-0.02797709605955466,-0.00786562027211651,0.26998400688171387,2019-06-20 16:35:06:381
-10.919786743164062,-2.493522888183594,0.39802993774414064,0.03917210774002846,-0.027311305787034845,-0.00786562027211651,0.2749760150909424,2019-06-20 16:35:06:386
-10.901830505371093,-2.5126762084960936,0.42556283569335934,0.03877263357651657,-0.02797709605955466,-0.007599304163108585,0.2799999713897705,2019-06-20 16:35:06:391
-10.891056762695312,-2.4779608154296873,0.41838034057617185,0.03863947552201261,-0.029841308822610123,-0.007998778326620472,0.284991979598999,2019-06-20 16:35:06:396
-10.922180908203124,-2.507887878417969,0.4004241027832031,0.03917210774002846,-0.02877604438657843,-0.00786562027211651,0.28998398780822754,2019-06-20 16:35:06:401
-10.900633422851563,-2.5150703735351563,0.4279570007324219,0.039704739958044306,-0.02797709605955466,-0.007998778326620472,0.29500818252563477,2019-06-20 16:35:06:406
-10.906618835449219,-2.51866162109375,0.4135920104980469,0.03943842384903638,-0.028509728277570506,-0.00786562027211651,0.3000001907348633,2019-06-20 16:35:06:411
-10.8982392578125,-2.5174645385742185,0.4590811462402344,0.03877263357651657,-0.02877604438657843,-0.008131936381124433,0.3049921989440918,2019-06-20 16:35:06:416
-10.88866259765625,-2.5066907958984372,0.4698548889160156,0.03850631746750865,-0.027311305787034845,-0.007332988054100662,0.3099839687347412,2019-06-20 16:35:06:421
-10.906618835449219,-2.51866162109375,0.4219715881347656,0.0379736852494928,-0.02877604438657843,-0.0070666719450927385,0.3149759769439697,2019-06-20 16:35:06:426
-10.88866259765625,-2.5150703735351563,0.4004241027832031,0.03863947552201261,-0.029441834659098238,-0.00653403972707689,0.32000017166137695,2019-06-20 16:35:06:431
-10.911407165527343,-2.5019024658203124,0.38605911254882813,0.039837898012548265,-0.025979725241995228,-0.0064008816725729285,0.32499217987060547,2019-06-20 16:35:06:436
-10.924575073242186,-2.5114791259765625,0.4518986511230469,0.04037053023056411,-0.025846567187491266,-0.005468775291045195,0.329984188079834,2019-06-20 16:35:06:441
-10.918589660644532,-2.5090849609375,0.3764824523925781,0.03943842384903638,-0.026778673569018998,-0.006933513890588777,0.3350081443786621,2019-06-20 16:35:06:446
-10.913801330566406,-2.494719970703125,0.41838034057617185,0.03930526579453242,-0.025979725241995228,-0.006134565563565005,0.3400001525878906,2019-06-20 16:35:06:451
-10.891056762695312,-2.4887345581054685,0.3884532775878906,0.03877263357651657,-0.02691183162352296,-0.006267723618068967,0.34499216079711914,2019-06-20 16:35:06:456
-10.892253845214844,-2.495917053222656,0.4387307434082031,0.039837898012548265,-0.02784393800505069,-0.006267723618068967,0.34998416900634766,2019-06-20 16:35:06:461
-10.923377990722656,-2.5066907958984372,0.43633657836914064,0.03943842384903638,-0.027577621896042768,-0.006001407509061044,0.35497617721557617,2019-06-20 16:35:06:466
-10.917392578125,-2.4971141357421875,0.41838034057617185,0.03997105606705223,-0.02704498967802692,-0.006001407509061044,0.3600320816040039,2019-06-20 16:35:06:471
-10.92696923828125,-2.493522888183594,0.41718325805664064,0.040503688285068076,-0.027178147732530883,-0.0064008816725729285,0.3649921417236328,2019-06-20 16:35:06:476
-10.913801330566406,-2.467187072753906,0.43633657836914064,0.04023737217606015,-0.02771077995054673,-0.007332988054100662,0.36998414993286133,2019-06-20 16:35:06:481
-10.914998413085938,-2.481552062988281,0.42556283569335934,0.039837898012548265,-0.026512357460011075,-0.0077324622176125485,0.37497615814208984,2019-06-20 16:35:06:486
-10.901830505371093,-2.4839462280273437,0.41838034057617185,0.03957158190354034,-0.025979725241995228,-0.006267723618068967,0.38000011444091797,2019-06-20 16:35:06:491
-10.924575073242186,-2.510282043457031,0.41838034057617185,0.038905791631020537,-0.026512357460011075,-0.0070666719450927385,0.3849921226501465,2019-06-20 16:35:06:496
-10.912604248046875,-2.489931640625,0.4471103210449219,0.03863947552201261,-0.026645515514515036,-0.006134565563565005,0.389984130859375,2019-06-20 16:35:06:501
-10.886268432617188,-2.4863403930664063,0.4315482482910156,0.03877263357651657,-0.02691183162352296,-0.00653403972707689,0.3949761390686035,2019-06-20 16:35:06:506
-10.916195495605468,-2.5126762084960936,0.4794315490722656,0.039038949685524495,-0.02877604438657843,-0.005601933345549157,0.40000009536743164,2019-06-20 16:35:06:511
-10.911407165527343,-2.505493713378906,0.4890082092285156,0.039704739958044306,-0.028243412168562583,-0.0057350914000531186,0.40499210357666016,2019-06-20 16:35:06:516
-10.889859680175782,-2.4971141357421875,0.3932416076660156,0.03957158190354034,-0.02811025411405862,-0.005202459182037272,0.40998411178588867,2019-06-20 16:35:06:521
-10.88866259765625,-2.495917053222656,0.3716941223144531,0.03930526579453242,-0.02771077995054673,-0.006001407509061044,0.4149761199951172,2019-06-20 16:35:06:526
-10.916195495605468,-2.4851433105468748,0.3704970397949219,0.03930526579453242,-0.02797709605955466,-0.00653403972707689,0.4200000762939453,2019-06-20 16:35:06:531
-10.929363403320313,-2.4887345581054685,0.4207745056152344,0.03930526579453242,-0.02811025411405862,-0.00653403972707689,0.42499208450317383,2019-06-20 16:35:06:536
-10.922180908203124,-2.5030995483398435,0.4028182678222656,0.03930526579453242,-0.028243412168562583,-0.006267723618068967,0.42998409271240234,2019-06-20 16:35:06:541
-10.914998413085938,-2.4875374755859374,0.3824678649902344,0.039038949685524495,-0.027311305787034845,-0.006267723618068967,0.43497610092163086,2019-06-20 16:35:06:546
-10.949713806152344,-2.4707783203124998,0.4076065979003906,0.038240001358500725,-0.026379199405507113,-0.006667197781580852,0.440000057220459,2019-06-20 16:35:06:551
-10.914998413085938,-2.4743695678710935,0.4016211853027344,0.03837315941300468,-0.02704498967802692,-0.00786562027211651,0.4449920654296875,2019-06-20 16:35:06:556
-10.8982392578125,-2.4719754028320313,0.4076065979003906,0.03877263357651657,-0.027178147732530883,-0.008131936381124433,0.449984073638916,2019-06-20 16:35:06:561
-10.910210083007811,-2.4839462280273437,0.4004241027832031,0.038905791631020537,-0.02890920244108239,-0.008398252490132357,0.45497608184814453,2019-06-20 16:35:06:566
-10.895845092773436,-2.476763732910156,0.4100007629394531,0.03877263357651657,-0.029042360495586353,-0.007998778326620472,0.46000003814697266,2019-06-20 16:35:06:571
-10.931757568359375,-2.46120166015625,0.39802993774414064,0.03837315941300468,-0.028243412168562583,-0.006933513890588777,0.46499204635620117,2019-06-20 16:35:06:576
-10.917392578125,-2.4851433105468748,0.4100007629394531,0.03810684330399676,-0.029841308822610123,-0.0071998299995967,0.4699840545654297,2019-06-20 16:35:06:581
-10.8982392578125,-2.493522888183594,0.4267599182128906,0.03810684330399676,-0.029308676604594276,-0.008398252490132357,0.4749760627746582,2019-06-20 16:35:06:586
-10.889859680175782,-2.476763732910156,0.4267599182128906,0.037840527194988836,-0.029308676604594276,-0.007998778326620472,0.48000001907348633,2019-06-20 16:35:06:591
-10.943728393554688,-2.4923258056640623,0.4327453308105469,0.03837315941300468,-0.029175518550090315,-0.008131936381124433,0.48499202728271484,2019-06-20 16:35:06:596
-10.937742980957031,-2.4839462280273437,0.40640951538085934,0.0379736852494928,-0.02784393800505069,-0.007998778326620472,0.48998403549194336,2019-06-20 16:35:06:601
-10.924575073242186,-2.4779608154296873,0.4123949279785156,0.03810684330399676,-0.027178147732530883,-0.007599304163108585,0.4949760437011719,2019-06-20 16:35:06:606
-10.917392578125,-2.4707783203124998,0.42556283569335934,0.03863947552201261,-0.028642886332074468,-0.008265094435628395,0.5,2019-06-20 16:35:06:611
-10.943728393554688,-2.5114791259765625,0.41838034057617185,0.03877263357651657,-0.028376570223066545,-0.007998778326620472,0.5049920082092285,2019-06-20 16:35:06:616
-10.923377990722656,-2.48035498046875,0.42556283569335934,0.03943842384903638,-0.028376570223066545,-0.008664568599140282,0.509984016418457,2019-06-20 16:35:06:621
-10.931757568359375,-2.4863403930664063,0.43035116577148436,0.03957158190354034,-0.02784393800505069,-0.009197200817156128,0.5149760246276855,2019-06-20 16:35:06:626
-10.901830505371093,-2.4719754028320313,0.4339424133300781,0.039704739958044306,-0.028243412168562583,-0.009862991089675938,0.5199999809265137,2019-06-20 16:35:06:631
-10.900633422851563,-2.475566650390625,0.4471103210449219,0.03930526579453242,-0.028243412168562583,-0.010129307198683862,0.5249919891357422,2019-06-20 16:35:06:636
-10.892253845214844,-2.491128723144531,0.4195774230957031,0.03917210774002846,-0.02691183162352296,-0.009064042762652167,0.5299839973449707,2019-06-20 16:35:06:641
-10.923377990722656,-2.4923258056640623,0.4123949279785156,0.039038949685524495,-0.028376570223066545,-0.008930884708148205,0.5349760055541992,2019-06-20 16:35:06:646
-10.924575073242186,-2.462398742675781,0.4291540832519531,0.03957158190354034,-0.027178147732530883,-0.008930884708148205,0.5400002002716064,2019-06-20 16:35:06:651
-10.90781591796875,-2.4695812377929687,0.44232199096679686,0.039038949685524495,-0.026778673569018998,-0.009729833035171977,0.5449919700622559,2019-06-20 16:35:06:656
-10.901830505371093,-2.4983112182617186,0.40640951538085934,0.039704739958044306,-0.027577621896042768,-0.00933035887166009,0.5499839782714844,2019-06-20 16:35:06:661
-10.906618835449219,-2.504296630859375,0.4267599182128906,0.03943842384903638,-0.02771077995054673,-0.009862991089675938,0.5549759864807129,2019-06-20 16:35:06:666
-10.911407165527343,-2.495917053222656,0.41838034057617185,0.04010421412155619,-0.02704498967802692,-0.00933035887166009,0.5600001811981201,2019-06-20 16:35:06:671
-10.910210083007811,-2.5150703735351563,0.3944386901855469,0.03943842384903638,-0.02691183162352296,-0.010129307198683862,0.5649921894073486,2019-06-20 16:35:06:676
-10.911407165527343,-2.5066907958984372,0.41598617553710937,0.03877263357651657,-0.02704498967802692,-0.00933035887166009,0.5699841976165771,2019-06-20 16:35:06:681
-10.910210083007811,-2.489931640625,0.4327453308105469,0.03943842384903638,-0.028376570223066545,-0.009064042762652167,0.5749759674072266,2019-06-20 16:35:06:686
-10.876691772460937,-2.4995083007812497,0.44950448608398436,0.040503688285068076,-0.028509728277570506,-0.009197200817156128,0.5800001621246338,2019-06-20 16:35:06:691
-10.918589660644532,-2.5019024658203124,0.4076065979003906,0.040770004394076,-0.02797709605955466,-0.009197200817156128,0.5849921703338623,2019-06-20 16:35:06:696
-10.88866259765625,-2.491128723144531,0.43513949584960937,0.03997105606705223,-0.02877604438657843,-0.00933035887166009,0.5899841785430908,2019-06-20 16:35:06:701
-10.881480102539062,-2.494719970703125,0.41598617553710937,0.03943842384903638,-0.02784393800505069,-0.009862991089675938,0.5949761867523193,2019-06-20 16:35:06:706
-10.889859680175782,-2.4875374755859374,0.43633657836914064,0.03957158190354034,-0.02771077995054673,-0.009862991089675938,0.6000001430511475,2019-06-20 16:35:06:711
-10.8982392578125,-2.491128723144531,0.4028182678222656,0.039704739958044306,-0.028376570223066545,-0.009596674980668015,0.604992151260376,2019-06-20 16:35:06:716
-10.905421752929687,-2.504296630859375,0.39922702026367185,0.04010421412155619,-0.0295749927136022,-0.009064042762652167,0.6099841594696045,2019-06-20 16:35:06:721
-10.892253845214844,-2.5030995483398435,0.3824678649902344,0.040503688285068076,-0.028376570223066545,-0.009596674980668015,0.614976167678833,2019-06-20 16:35:06:726
-10.901830505371093,-2.5007053833007813,0.41598617553710937,0.04010421412155619,-0.02797709605955466,-0.009064042762652167,0.6200001239776611,2019-06-20 16:35:06:731
-10.923377990722656,-2.4779608154296873,0.42316867065429686,0.038905791631020537,-0.02784393800505069,-0.010528781362195748,0.6249921321868896,2019-06-20 16:35:06:736
-10.89943634033203,-2.4995083007812497,0.43035116577148436,0.03917210774002846,-0.02890920244108239,-0.010262465253187823,0.6299841403961182,2019-06-20 16:35:06:741
-10.901830505371093,-2.5007053833007813,0.4207745056152344,0.03943842384903638,-0.028243412168562583,-0.009197200817156128,0.6349761486053467,2019-06-20 16:35:06:746
-10.912604248046875,-2.5354207763671877,0.4507015686035156,0.03943842384903638,-0.028509728277570506,-0.009064042762652167,0.6400001049041748,2019-06-20 16:35:06:751
-10.89943634033203,-2.5210557861328122,0.41598617553710937,0.03930526579453242,-0.028509728277570506,-0.008398252490132357,0.6449921131134033,2019-06-20 16:35:06:756
-10.8982392578125,-2.5162674560546874,0.4076065979003906,0.03957158190354034,-0.027577621896042768,-0.008265094435628395,0.6499841213226318,2019-06-20 16:35:06:761
-10.913801330566406,-2.5210557861328122,0.4507015686035156,0.03930526579453242,-0.02890920244108239,-0.007998778326620472,0.6549761295318604,2019-06-20 16:35:06:766
-10.916195495605468,-2.5066907958984372,0.43753366088867185,0.03997105606705223,-0.027577621896042768,-0.007332988054100662,0.6600000858306885,2019-06-20 16:35:06:771
-10.911407165527343,-2.5066907958984372,0.43513949584960937,0.04023737217606015,-0.02611288329649919,-0.0077324622176125485,0.664992094039917,2019-06-20 16:35:06:776
-10.901830505371093,-2.5030995483398435,0.41838034057617185,0.04023737217606015,-0.027577621896042768,-0.008398252490132357,0.6699841022491455,2019-06-20 16:35:06:781
-10.906618835449219,-2.4971141357421875,0.44950448608398436,0.03943842384903638,-0.028243412168562583,-0.008131936381124433,0.674976110458374,2019-06-20 16:35:06:786
-10.895845092773436,-2.5030995483398435,0.44351907348632813,0.04010421412155619,-0.02691183162352296,-0.0077324622176125485,0.6800000667572021,2019-06-20 16:35:06:791
-10.86950927734375,-2.4887345581054685,0.41119784545898436,0.03957158190354034,-0.025713409132987305,-0.007332988054100662,0.6849920749664307,2019-06-20 16:35:06:796
-10.919786743164062,-2.5090849609375,0.4902052917480469,0.039704739958044306,-0.02784393800505069,-0.008131936381124433,0.6899840831756592,2019-06-20 16:35:06:801
-10.892253845214844,-2.5138732910156247,0.4387307434082031,0.03997105606705223,-0.02797709605955466,-0.008265094435628395,0.6950080394744873,2019-06-20 16:35:06:806
-10.911407165527343,-2.5019024658203124,0.41838034057617185,0.039704739958044306,-0.02704498967802692,-0.006933513890588777,0.7000000476837158,2019-06-20 16:35:06:811
-10.920983825683594,-2.5066907958984372,0.41598617553710937,0.03943842384903638,-0.02771077995054673,-0.006800355836084815,0.7049920558929443,2019-06-20 16:35:06:816
-10.912604248046875,-2.505493713378906,0.4267599182128906,0.03997105606705223,-0.028509728277570506,-0.007332988054100662,0.7099840641021729,2019-06-20 16:35:06:821
-10.90781591796875,-2.504296630859375,0.3896503601074219,0.03997105606705223,-0.027444463841538806,-0.00786562027211651,0.7149760723114014,2019-06-20 16:35:06:826
-10.889859680175782,-2.494719970703125,0.4076065979003906,0.039704739958044306,-0.026512357460011075,-0.006800355836084815,0.7200000286102295,2019-06-20 16:35:06:831
-10.917392578125,-2.504296630859375,0.3716941223144531,0.03917210774002846,-0.02811025411405862,-0.007332988054100662,0.724992036819458,2019-06-20 16:35:06:836
-10.906618835449219,-2.495917053222656,0.4135920104980469,0.039837898012548265,-0.027178147732530883,-0.007599304163108585,0.7299840450286865,2019-06-20 16:35:06:841
-10.881480102539062,-2.4923258056640623,0.44351907348632813,0.03997105606705223,-0.026512357460011075,-0.006800355836084815,0.734976053237915,2019-06-20 16:35:06:846
-10.920983825683594,-2.4887345581054685,0.41838034057617185,0.038905791631020537,-0.026379199405507113,-0.006267723618068967,0.7400000095367432,2019-06-20 16:35:06:851
-10.906618835449219,-2.489931640625,0.41598617553710937,0.03837315941300468,-0.027577621896042768,-0.006800355836084815,0.7449920177459717,2019-06-20 16:35:06:856
-10.903027587890625,-2.4995083007812497,0.3944386901855469,0.038905791631020537,-0.02784393800505069,-0.006001407509061044,0.7499840259552002,2019-06-20 16:35:06:861
-10.897042175292968,-2.5019024658203124,0.3836649475097656,0.03943842384903638,-0.02771077995054673,-0.006001407509061044,0.7549760341644287,2019-06-20 16:35:06:866
-10.937742980957031,-2.5222528686523438,0.41718325805664064,0.03997105606705223,-0.028243412168562583,-0.006134565563565005,0.7599999904632568,2019-06-20 16:35:06:871
-10.916195495605468,-2.5114791259765625,0.41838034057617185,0.03943842384903638,-0.026778673569018998,-0.0071998299995967,0.7649919986724854,2019-06-20 16:35:06:876
-10.903027587890625,-2.524647033691406,0.3812707824707031,0.04010421412155619,-0.02691183162352296,-0.006267723618068967,0.7699840068817139,2019-06-20 16:35:06:881
-10.892253845214844,-2.5090849609375,0.4279570007324219,0.038905791631020537,-0.02771077995054673,-0.00653403972707689,0.7749760150909424,2019-06-20 16:35:06:886
-10.903027587890625,-2.491128723144531,0.4674607238769531,0.037840527194988836,-0.02784393800505069,-0.006933513890588777,0.7799999713897705,2019-06-20 16:35:06:891
-10.865918029785156,-2.495917053222656,0.4770373840332031,0.03917210774002846,-0.02704498967802692,-0.006667197781580852,0.784991979598999,2019-06-20 16:35:06:896
-10.910210083007811,-2.5066907958984372,0.45668698120117185,0.039038949685524495,-0.02811025411405862,-0.006267723618068967,0.7899839878082275,2019-06-20 16:35:06:901
-10.8982392578125,-2.479157897949219,0.4219715881347656,0.03877263357651657,-0.02877604438657843,-0.005868249454557082,0.794975996017456,2019-06-20 16:35:06:906
-10.883874267578125,-2.4887345581054685,0.4291540832519531,0.03917210774002846,-0.02797709605955466,-0.006001407509061044,0.8000001907348633,2019-06-20 16:35:06:911
-10.8982392578125,-2.479157897949219,0.42436575317382813,0.03877263357651657,-0.02784393800505069,-0.005868249454557082,0.8049921989440918,2019-06-20 16:35:06:916
-10.893450927734374,-2.4923258056640623,0.4004241027832031,0.039038949685524495,-0.02811025411405862,-0.006134565563565005,0.8099839687347412,2019-06-20 16:35:06:921
-10.8790859375,-2.4971141357421875,0.41598617553710937,0.03930526579453242,-0.027577621896042768,-0.005601933345549157,0.8150081634521484,2019-06-20 16:35:06:926
-10.909013000488281,-2.4983112182617186,0.4219715881347656,0.03917210774002846,-0.028642886332074468,-0.006267723618068967,0.820000171661377,2019-06-20 16:35:06:931
-10.916195495605468,-2.5007053833007813,0.4207745056152344,0.03930526579453242,-0.028243412168562583,-0.006800355836084815,0.8249921798706055,2019-06-20 16:35:06:936
-10.924575073242186,-2.5019024658203124,0.4076065979003906,0.03930526579453242,-0.027577621896042768,-0.006267723618068967,0.829984188079834,2019-06-20 16:35:06:941
-10.900633422851563,-2.5019024658203124,0.40640951538085934,0.039704739958044306,-0.02704498967802692,-0.006134565563565005,0.8349761962890625,2019-06-20 16:35:06:946
-10.923377990722656,-2.5114791259765625,0.41718325805664064,0.038905791631020537,-0.027178147732530883,-0.0064008816725729285,0.8400001525878906,2019-06-20 16:35:06:951
-10.937742980957031,-2.4983112182617186,0.4219715881347656,0.03863947552201261,-0.027577621896042768,-0.006800355836084815,0.8449921607971191,2019-06-20 16:35:06:956
-10.917392578125,-2.519858703613281,0.44950448608398436,0.038905791631020537,-0.026645515514515036,-0.007332988054100662,0.8499841690063477,2019-06-20 16:35:06:961
-10.892253845214844,-2.4995083007812497,0.3956357727050781,0.03943842384903638,-0.02691183162352296,-0.007599304163108585,0.8550081253051758,2019-06-20 16:35:06:966
-10.8982392578125,-2.48035498046875,0.4100007629394531,0.038905791631020537,-0.02811025411405862,-0.007332988054100662,0.8600001335144043,2019-06-20 16:35:06:971
-10.901830505371093,-2.4887345581054685,0.4291540832519531,0.03917210774002846,-0.02811025411405862,-0.007998778326620472,0.865056037902832,2019-06-20 16:35:06:976
-10.882677185058593,-2.4731724853515624,0.4207745056152344,0.039704739958044306,-0.027444463841538806,-0.007599304163108585,0.8699841499328613,2019-06-20 16:35:06:981
-10.925772155761718,-2.4851433105468748,0.4267599182128906,0.039038949685524495,-0.027311305787034845,-0.007599304163108585,0.8749761581420898,2019-06-20 16:35:06:986
-10.942531311035156,-2.4743695678710935,0.4100007629394531,0.03877263357651657,-0.02811025411405862,-0.008131936381124433,0.880000114440918,2019-06-20 16:35:06:991
-10.914998413085938,-2.4923258056640623,0.39683285522460937,0.03877263357651657,-0.027444463841538806,-0.007599304163108585,0.8849921226501465,2019-06-20 16:35:06:996
-10.92696923828125,-2.495917053222656,0.4279570007324219,0.03943842384903638,-0.026379199405507113,-0.006800355836084815,0.889984130859375,2019-06-20 16:35:07:001
-10.932954650878907,-2.5030995483398435,0.4028182678222656,0.03997105606705223,-0.02797709605955466,-0.008131936381124433,0.8949761390686035,2019-06-20 16:35:07:006
-10.913801330566406,-2.4779608154296873,0.41598617553710937,0.039038949685524495,-0.027311305787034845,-0.009064042762652167,0.9000000953674316,2019-06-20 16:35:07:011
-10.881480102539062,-2.494719970703125,0.44232199096679686,0.03917210774002846,-0.027444463841538806,-0.008131936381124433,0.9049921035766602,2019-06-20 16:35:07:016
-10.895845092773436,-2.48035498046875,0.45548989868164064,0.03943842384903638,-0.02890920244108239,-0.00786562027211651,0.9099841117858887,2019-06-20 16:35:07:021
-10.923377990722656,-2.4983112182617186,0.42316867065429686,0.038905791631020537,-0.028243412168562583,-0.008398252490132357,0.9149761199951172,2019-06-20 16:35:07:026
-10.90781591796875,-2.494719970703125,0.43753366088867185,0.03957158190354034,-0.027178147732530883,-0.008531410544636318,0.9200000762939453,2019-06-20 16:35:07:031
-10.918589660644532,-2.4923258056640623,0.4411249084472656,0.03930526579453242,-0.026379199405507113,-0.008930884708148205,0.9249920845031738,2019-06-20 16:35:07:036
-10.922180908203124,-2.493522888183594,0.43513949584960937,0.03943842384903638,-0.028642886332074468,-0.009197200817156128,0.9299840927124023,2019-06-20 16:35:07:041
-10.914998413085938,-2.4887345581054685,0.43753366088867185,0.03877263357651657,-0.02771077995054673,-0.008531410544636318,0.9349761009216309,2019-06-20 16:35:07:046
-10.87070635986328,-2.5007053833007813,0.44351907348632813,0.038905791631020537,-0.028509728277570506,-0.008930884708148205,0.940000057220459,2019-06-20 16:35:07:051
-10.925772155761718,-2.4971141357421875,0.46386947631835934,0.03943842384903638,-0.027444463841538806,-0.008131936381124433,0.9449920654296875,2019-06-20 16:35:07:056
-10.9365458984375,-2.505493713378906,0.4076065979003906,0.03877263357651657,-0.027577621896042768,-0.008265094435628395,0.949984073638916,2019-06-20 16:35:07:061
-10.931757568359375,-2.4827491455078126,0.3824678649902344,0.038905791631020537,-0.027577621896042768,-0.008265094435628395,0.9549760818481445,2019-06-20 16:35:07:066
-10.880283020019531,-2.5162674560546874,0.4315482482910156,0.03930526579453242,-0.027311305787034845,-0.0077324622176125485,0.9600000381469727,2019-06-20 16:35:07:071
-10.922180908203124,-2.504296630859375,0.4411249084472656,0.039038949685524495,-0.027178147732530883,-0.008797726653644243,0.9649920463562012,2019-06-20 16:35:07:076
-10.916195495605468,-2.5007053833007813,0.47584030151367185,0.03863947552201261,-0.02704498967802692,-0.008797726653644243,0.9699840545654297,2019-06-20 16:35:07:081
-10.924575073242186,-2.495917053222656,0.4674607238769531,0.03930526579453242,-0.02704498967802692,-0.008797726653644243,0.9749760627746582,2019-06-20 16:35:07:086
-10.923377990722656,-2.5066907958984372,0.4590811462402344,0.03957158190354034,-0.02797709605955466,-0.008531410544636318,0.9800000190734863,2019-06-20 16:35:07:091
-10.9365458984375,-2.489931640625,0.4590811462402344,0.04010421412155619,-0.02877604438657843,-0.008531410544636318,0.9849920272827148,2019-06-20 16:35:07:096
-10.916195495605468,-2.4875374755859374,0.42316867065429686,0.03997105606705223,-0.02771077995054673,-0.007998778326620472,0.9899840354919434,2019-06-20 16:35:07:101
-10.919786743164062,-2.462398742675781,0.46386947631835934,0.03917210774002846,-0.029308676604594276,-0.008265094435628395,0.9949760437011719,2019-06-20 16:35:07:106
-10.931757568359375,-2.4983112182617186,0.44471615600585934,0.03877263357651657,-0.028509728277570506,-0.00933035887166009,1.0,2019-06-20 16:35:07:111
-10.894648010253906,-2.4695812377929687,0.4291540832519531,0.03850631746750865,-0.027311305787034845,-0.009463516926164052,1.0049920082092285,2019-06-20 16:35:07:116
-10.92696923828125,-2.493522888183594,0.42316867065429686,0.038905791631020537,-0.027444463841538806,-0.008664568599140282,1.009984016418457,2019-06-20 16:35:07:121
-10.914998413085938,-2.4887345581054685,0.42436575317382813,0.039704739958044306,-0.028642886332074468,-0.00933035887166009,1.0149760246276855,2019-06-20 16:35:07:126
-10.909013000488281,-2.507887878417969,0.43035116577148436,0.03917210774002846,-0.028376570223066545,-0.008930884708148205,1.0199999809265137,2019-06-20 16:35:07:131
-10.894648010253906,-2.5150703735351563,0.47584030151367185,0.03877263357651657,-0.02811025411405862,-0.008265094435628395,1.0249919891357422,2019-06-20 16:35:07:136
-10.89943634033203,-2.493522888183594,0.44351907348632813,0.03943842384903638,-0.02797709605955466,-0.00786562027211651,1.0299839973449707,2019-06-20 16:35:07:141
-10.923377990722656,-2.4875374755859374,0.4195774230957031,0.039704739958044306,-0.027577621896042768,-0.009064042762652167,1.0349760055541992,2019-06-20 16:35:07:146
-10.901830505371093,-2.493522888183594,0.38605911254882813,0.03930526579453242,-0.025580251078483343,-0.009064042762652167,1.0400002002716064,2019-06-20 16:35:07:151
-10.924575073242186,-2.5066907958984372,0.4195774230957031,0.03943842384903638,-0.027178147732530883,-0.008265094435628395,1.0449919700622559,2019-06-20 16:35:07:156
-10.889859680175782,-2.479157897949219,0.4507015686035156,0.03957158190354034,-0.029841308822610123,-0.009064042762652167,1.0499839782714844,2019-06-20 16:35:07:161
-10.86112969970703,-2.4839462280273437,0.4279570007324219,0.038905791631020537,-0.02691183162352296,-0.007599304163108585,1.0550081729888916,2019-06-20 16:35:07:166
-10.885071350097656,-2.4887345581054685,0.4279570007324219,0.03917210774002846,-0.02811025411405862,-0.0077324622176125485,1.0600001811981201,2019-06-20 16:35:07:171
-10.889859680175782,-2.479157897949219,0.43513949584960937,0.040503688285068076,-0.02797709605955466,-0.00786562027211651,1.0649921894073486,2019-06-20 16:35:07:176
-10.906618835449219,-2.5150703735351563,0.4530957336425781,0.03997105606705223,-0.02704498967802692,-0.008398252490132357,1.0699841976165771,2019-06-20 16:35:07:181
-10.867115112304687,-2.533026611328125,0.4459132385253906,0.03877263357651657,-0.02611288329649919,-0.008265094435628395,1.0749759674072266,2019-06-20 16:35:07:186
-10.895845092773436,-2.524647033691406,0.4327453308105469,0.03877263357651657,-0.026379199405507113,-0.00786562027211651,1.0800001621246338,2019-06-20 16:35:07:191
-10.922180908203124,-2.48035498046875,0.41119784545898436,0.039837898012548265,-0.027577621896042768,-0.007599304163108585,1.0849921703338623,2019-06-20 16:35:07:196
-10.911407165527343,-2.519858703613281,0.41838034057617185,0.039704739958044306,-0.02704498967802692,-0.0077324622176125485,1.0899841785430908,2019-06-20 16:35:07:201
-10.906618835449219,-2.504296630859375,0.3896503601074219,0.038905791631020537,-0.028509728277570506,-0.008265094435628395,1.0949761867523193,2019-06-20 16:35:07:206
-10.901830505371093,-2.4971141357421875,0.38605911254882813,0.03877263357651657,-0.028376570223066545,-0.008265094435628395,1.1000001430511475,2019-06-20 16:35:07:211
-10.917392578125,-2.475566650390625,0.40640951538085934,0.03930526579453242,-0.02797709605955466,-0.0074661461086046235,1.104992151260376,2019-06-20 16:35:07:216
-10.8982392578125,-2.4887345581054685,0.4207745056152344,0.03943842384903638,-0.02811025411405862,-0.006800355836084815,1.1099841594696045,2019-06-20 16:35:07:221
-10.905421752929687,-2.5030995483398435,0.42316867065429686,0.039038949685524495,-0.026379199405507113,-0.007332988054100662,1.114976167678833,2019-06-20 16:35:07:226
-10.917392578125,-2.5090849609375,0.41598617553710937,0.03957158190354034,-0.02611288329649919,-0.008531410544636318,1.1200001239776611,2019-06-20 16:35:07:231
-10.883874267578125,-2.491128723144531,0.40521243286132813,0.039038949685524495,-0.026778673569018998,-0.008664568599140282,1.1249921321868896,2019-06-20 16:35:07:236
-10.913801330566406,-2.4971141357421875,0.4147890930175781,0.03837315941300468,-0.02811025411405862,-0.008131936381124433,1.1299841403961182,2019-06-20 16:35:07:241
-10.895845092773436,-2.494719970703125,0.4100007629394531,0.03877263357651657,-0.028509728277570506,-0.008531410544636318,1.1349761486053467,2019-06-20 16:35:07:246
-10.881480102539062,-2.493522888183594,0.43035116577148436,0.03837315941300468,-0.027178147732530883,-0.008664568599140282,1.1400001049041748,2019-06-20 16:35:07:251
-10.887465515136718,-2.4863403930664063,0.3716941223144531,0.03837315941300468,-0.027577621896042768,-0.008531410544636318,1.1449921131134033,2019-06-20 16:35:07:256
-10.917392578125,-2.4839462280273437,0.3908474426269531,0.03917210774002846,-0.028243412168562583,-0.0071998299995967,1.1499841213226318,2019-06-20 16:35:07:261
-10.913801330566406,-2.494719970703125,0.43035116577148436,0.03850631746750865,-0.028509728277570506,-0.0070666719450927385,1.1549761295318604,2019-06-20 16:35:07:266
-10.911407165527343,-2.491128723144531,0.4279570007324219,0.03957158190354034,-0.02784393800505069,-0.0071998299995967,1.1600000858306885,2019-06-20 16:35:07:271
-10.932954650878907,-2.504296630859375,0.4530957336425781,0.03957158190354034,-0.02811025411405862,-0.0074661461086046235,1.164992094039917,2019-06-20 16:35:07:276
-10.918589660644532,-2.5270411987304686,0.43035116577148436,0.03957158190354034,-0.02877604438657843,-0.008398252490132357,1.1699841022491455,2019-06-20 16:35:07:281
-10.909013000488281,-2.4887345581054685,0.3908474426269531,0.04090316244857996,-0.028243412168562583,-0.007998778326620472,1.174976110458374,2019-06-20 16:35:07:286
-10.930560485839843,-2.5090849609375,0.4076065979003906,0.03997105606705223,-0.027444463841538806,-0.007332988054100662,1.1800000667572021,2019-06-20 16:35:07:291
-10.909013000488281,-2.4851433105468748,0.3764824523925781,0.03917210774002846,-0.026645515514515036,-0.0070666719450927385,1.1849920749664307,2019-06-20 16:35:07:296
-10.897042175292968,-2.494719970703125,0.4195774230957031,0.038905791631020537,-0.02811025411405862,-0.006933513890588777,1.1899840831756592,2019-06-20 16:35:07:301
-10.918589660644532,-2.5066907958984372,0.41119784545898436,0.039837898012548265,-0.02890920244108239,-0.0070666719450927385,1.1949760913848877,2019-06-20 16:35:07:306
-10.937742980957031,-2.4887345581054685,0.40521243286132813,0.03943842384903638,-0.02811025411405862,-0.007332988054100662,1.2000000476837158,2019-06-20 16:35:07:311
-10.924575073242186,-2.494719970703125,0.42316867065429686,0.03837315941300468,-0.027444463841538806,-0.0077324622176125485,1.2049920558929443,2019-06-20 16:35:07:316
-10.882677185058593,-2.4971141357421875,0.4471103210449219,0.03877263357651657,-0.02797709605955466,-0.0074661461086046235,1.2099840641021729,2019-06-20 16:35:07:321
-10.90781591796875,-2.48035498046875,0.44232199096679686,0.03930526579453242,-0.028376570223066545,-0.0074661461086046235,1.215008020401001,2019-06-20 16:35:07:326
-10.918589660644532,-2.4851433105468748,0.4207745056152344,0.039837898012548265,-0.027311305787034845,-0.0074661461086046235,1.2200000286102295,2019-06-20 16:35:07:331
-10.913801330566406,-2.4731724853515624,0.44950448608398436,0.039837898012548265,-0.026645515514515036,-0.0071998299995967,1.224992036819458,2019-06-20 16:35:07:336
-10.910210083007811,-2.479157897949219,0.42316867065429686,0.038905791631020537,-0.027577621896042768,-0.008131936381124433,1.2299840450286865,2019-06-20 16:35:07:341
-10.917392578125,-2.4851433105468748,0.4267599182128906,0.03877263357651657,-0.028509728277570506,-0.008930884708148205,1.234976053237915,2019-06-20 16:35:07:346
-10.881480102539062,-2.4719754028320313,0.4387307434082031,0.03863947552201261,-0.027444463841538806,-0.008797726653644243,1.2400000095367432,2019-06-20 16:35:07:351
-10.903027587890625,-2.494719970703125,0.4135920104980469,0.03943842384903638,-0.029974466877114084,-0.008930884708148205,1.2449920177459717,2019-06-20 16:35:07:356
-10.886268432617188,-2.5114791259765625,0.4076065979003906,0.03917210774002846,-0.029042360495586353,-0.008531410544636318,1.2499840259552002,2019-06-20 16:35:07:361
-10.875494689941405,-2.4839462280273437,0.38486203002929686,0.03917210774002846,-0.027577621896042768,-0.008131936381124433,1.2549760341644287,2019-06-20 16:35:07:366
-10.875494689941405,-2.4995083007812497,0.40401535034179686,0.038240001358500725,-0.02771077995054673,-0.0077324622176125485,1.2599999904632568,2019-06-20 16:35:07:371
-10.8982392578125,-2.505493713378906,0.4004241027832031,0.03810684330399676,-0.029175518550090315,-0.0071998299995967,1.2649919986724854,2019-06-20 16:35:07:376
-10.903027587890625,-2.491128723144531,0.40521243286132813,0.03877263357651657,-0.02811025411405862,-0.009197200817156128,1.2699840068817139,2019-06-20 16:35:07:381
-10.901830505371093,-2.475566650390625,0.4291540832519531,0.039038949685524495,-0.02784393800505069,-0.008531410544636318,1.2749760150909424,2019-06-20 16:35:07:386
-10.897042175292968,-2.476763732910156,0.4578840637207031,0.03770736914048488,-0.027577621896042768,-0.007998778326620472,1.2799999713897705,2019-06-20 16:35:07:391
-10.912604248046875,-2.491128723144531,0.43633657836914064,0.03837315941300468,-0.028509728277570506,-0.009463516926164052,1.284991979598999,2019-06-20 16:35:07:396
-10.877888854980469,-2.5174645385742185,0.41718325805664064,0.038905791631020537,-0.028509728277570506,-0.009596674980668015,1.2899839878082275,2019-06-20 16:35:07:401
-10.929363403320313,-2.505493713378906,0.45429281616210937,0.038905791631020537,-0.026645515514515036,-0.009596674980668015,1.294975996017456,2019-06-20 16:35:07:406
-10.905421752929687,-2.4875374755859374,0.4471103210449219,0.037840527194988836,-0.02611288329649919,-0.008664568599140282,1.3000001907348633,2019-06-20 16:35:07:411
-10.92696923828125,-2.491128723144531,0.4195774230957031,0.03863947552201261,-0.027444463841538806,-0.009064042762652167,1.3049921989440918,2019-06-20 16:35:07:416
-10.912604248046875,-2.495917053222656,0.41718325805664064,0.03943842384903638,-0.026778673569018998,-0.00933035887166009,1.3099839687347412,2019-06-20 16:35:07:421
-10.892253845214844,-2.4887345581054685,0.4315482482910156,0.038905791631020537,-0.02691183162352296,-0.008797726653644243,1.3149759769439697,2019-06-20 16:35:07:426
-10.92696923828125,-2.4983112182617186,0.4327453308105469,0.03943842384903638,-0.026379199405507113,-0.009596674980668015,1.320000171661377,2019-06-20 16:35:07:431
-10.905421752929687,-2.4887345581054685,0.47344613647460937,0.03957158190354034,-0.027178147732530883,-0.009862991089675938,1.3249921798706055,2019-06-20 16:35:07:436
-10.916195495605468,-2.495917053222656,0.45548989868164064,0.03917210774002846,-0.02691183162352296,-0.00933035887166009,1.329984188079834,2019-06-20 16:35:07:441
-10.952107971191406,-2.481552062988281,0.41718325805664064,0.03957158190354034,-0.02890920244108239,-0.009862991089675938,1.3349761962890625,2019-06-20 16:35:07:446
-10.92696923828125,-2.481552062988281,0.4471103210449219,0.039704739958044306,-0.027577621896042768,-0.009064042762652167,1.3400001525878906,2019-06-20 16:35:07:451
-10.901830505371093,-2.5007053833007813,0.42436575317382813,0.039038949685524495,-0.02611288329649919,-0.010129307198683862,1.3449921607971191,2019-06-20 16:35:07:456
-10.918589660644532,-2.5150703735351563,0.4471103210449219,0.03917210774002846,-0.028509728277570506,-0.009862991089675938,1.3499841690063477,2019-06-20 16:35:07:461
-10.94612255859375,-2.5090849609375,0.41598617553710937,0.039837898012548265,-0.02704498967802692,-0.008930884708148205,1.3549761772155762,2019-06-20 16:35:07:466
-10.923377990722656,-2.481552062988281,0.42436575317382813,0.040503688285068076,-0.026379199405507113,-0.008531410544636318,1.3600001335144043,2019-06-20 16:35:07:471
-10.918589660644532,-2.4887345581054685,0.4028182678222656,0.04010421412155619,-0.026379199405507113,-0.008797726653644243,1.3649921417236328,2019-06-20 16:35:07:476
-10.919786743164062,-2.4851433105468748,0.43633657836914064,0.04010421412155619,-0.02704498967802692,-0.009197200817156128,1.3700480461120605,2019-06-20 16:35:07:481
-10.931757568359375,-2.5019024658203124,0.43633657836914064,0.04023737217606015,-0.027178147732530883,-0.009463516926164052,1.3749761581420898,2019-06-20 16:35:07:486
-10.948516723632812,-2.5066907958984372,0.4123949279785156,0.040503688285068076,-0.027178147732530883,-0.009064042762652167,1.380000114440918,2019-06-20 16:35:07:491
-10.931757568359375,-2.5126762084960936,0.4100007629394531,0.04037053023056411,-0.02797709605955466,-0.009064042762652167,1.3849921226501465,2019-06-20 16:35:07:496
-10.905421752929687,-2.476763732910156,0.4123949279785156,0.04090316244857996,-0.02811025411405862,-0.010395623307691787,1.389984130859375,2019-06-20 16:35:07:501
-10.903027587890625,-2.4827491455078126,0.41838034057617185,0.04103632050308392,-0.027311305787034845,-0.010528781362195748,1.3949761390686035,2019-06-20 16:35:07:506
-10.930560485839843,-2.4827491455078126,0.4507015686035156,0.04196842688461166,-0.028376570223066545,-0.011061413580211595,1.4000000953674316,2019-06-20 16:35:07:511
-10.913801330566406,-2.5007053833007813,0.4662636413574219,0.042501059102627504,-0.028509728277570506,-0.011061413580211595,1.4049921035766602,2019-06-20 16:35:07:516
-10.913801330566406,-2.4875374755859374,0.45668698120117185,0.042101584939115616,-0.026645515514515036,-0.01132772968921952,1.4099841117858887,2019-06-20 16:35:07:521
-10.919786743164062,-2.489931640625,0.4339424133300781,0.04156895272109977,-0.026379199405507113,-0.011860361907235367,1.4149761199951172,2019-06-20 16:35:07:526
-10.930560485839843,-2.48035498046875,0.41598617553710937,0.040770004394076,-0.027178147732530883,-0.012792468288763102,1.4200000762939453,2019-06-20 16:35:07:531
-10.923377990722656,-2.4635958251953123,0.43753366088867185,0.04143579466659581,-0.02704498967802692,-0.013191942452274986,1.4249920845031738,2019-06-20 16:35:07:536
-10.918589660644532,-2.4827491455078126,0.4219715881347656,0.04090316244857996,-0.026379199405507113,-0.01425720688830668,1.4299840927124023,2019-06-20 16:35:07:541
-10.958093383789063,-2.4588074951171874,0.4195774230957031,0.04116947855758789,-0.026379199405507113,-0.015056155215330453,1.4349761009216309,2019-06-20 16:35:07:546
-10.929363403320313,-2.436062927246094,0.4076065979003906,0.040770004394076,-0.026379199405507113,-0.016654051869377996,1.440000057220459,2019-06-20 16:35:07:551
-10.913801330566406,-2.4408512573242187,0.40401535034179686,0.04156895272109977,-0.029042360495586353,-0.01758615929120303,1.4449920654296875,2019-06-20 16:35:07:556
-10.892253845214844,-2.450427917480469,0.40401535034179686,0.04156895272109977,-0.02890920244108239,-0.018118791509218878,1.449984073638916,2019-06-20 16:35:07:561
-10.935348815917969,-2.44204833984375,0.4088036804199219,0.040636846339572034,-0.02877604438657843,-0.01905089789074661,1.4549760818481445,2019-06-20 16:35:07:566
-10.949713806152344,-2.446836669921875,0.40401535034179686,0.041702110775603735,-0.02784393800505069,-0.01958353010876246,1.4600000381469727,2019-06-20 16:35:07:571
-10.910210083007811,-2.4971141357421875,0.4123949279785156,0.042101584939115616,-0.028376570223066545,-0.02038247843578623,1.4649920463562012,2019-06-20 16:35:07:576
-10.943728393554688,-2.467187072753906,0.3692999572753906,0.04143579466659581,-0.029441834659098238,-0.021447742871817926,1.4699840545654297,2019-06-20 16:35:07:581
-10.929363403320313,-2.4635958251953123,0.41718325805664064,0.042101584939115616,-0.029042360495586353,-0.022246691198841696,1.4749760627746582,2019-06-20 16:35:07:586
-10.930560485839843,-2.4851433105468748,0.42316867065429686,0.042101584939115616,-0.02811025411405862,-0.022912481471361504,1.4800000190734863,2019-06-20 16:35:07:591
-10.887465515136718,-2.4779608154296873,0.3956357727050781,0.04156895272109977,-0.02811025411405862,-0.024110903961897166,1.4849920272827148,2019-06-20 16:35:07:596
-10.940137145996093,-2.456413330078125,0.4076065979003906,0.042367901048123546,-0.02811025411405862,-0.02451037812540905,1.4899840354919434,2019-06-20 16:35:07:601
-10.934151733398437,-2.4540191650390626,0.39922702026367185,0.043300007429651274,-0.027444463841538806,-0.025708800615944705,1.4950079917907715,2019-06-20 16:35:07:606
-10.918589660644532,-2.5007053833007813,0.4195774230957031,0.043166849375147316,-0.027444463841538806,-0.02610827477945659,1.5,2019-06-20 16:35:07:611
-10.889859680175782,-2.4839462280273437,0.4698548889160156,0.04343316548415524,-0.027577621896042768,-0.026241432833960552,1.5049920082092285,2019-06-20 16:35:07:616
-10.90781591796875,-2.493522888183594,0.43633657836914064,0.04383263964766712,-0.027577621896042768,-0.026507748942968475,1.509984016418457,2019-06-20 16:35:07:621
-10.900633422851563,-2.5114791259765625,0.4135920104980469,0.04489790408369882,-0.02691183162352296,-0.02597511672495263,1.5149760246276855,2019-06-20 16:35:07:626
-10.912604248046875,-2.5126762084960936,0.4459132385253906,0.045164220192706744,-0.02784393800505069,-0.027173539215488283,1.5199999809265137,2019-06-20 16:35:07:631
-10.92696923828125,-2.5066907958984372,0.4530957336425781,0.045164220192706744,-0.02531393496947542,-0.027306697269992245,1.5249919891357422,2019-06-20 16:35:07:636
-10.892253845214844,-2.4839462280273437,0.4590811462402344,0.04622948462873844,-0.025846567187491266,-0.027306697269992245,1.5299839973449707,2019-06-20 16:35:07:641
-10.8982392578125,-2.5162674560546874,0.4291540832519531,0.04742790711927409,-0.025846567187491266,-0.026640906997472437,1.5349760055541992,2019-06-20 16:35:07:646
-10.940137145996093,-2.5007053833007813,0.4088036804199219,0.047827381282785984,-0.025180776914971458,-0.027573013379000175,1.5400002002716064,2019-06-20 16:35:07:651
-10.922180908203124,-2.4983112182617186,0.4016211853027344,0.048493171555305796,-0.02424867053344372,-0.0278393294880081,1.5449919700622559,2019-06-20 16:35:07:656
-10.925772155761718,-2.4851433105468748,0.41838034057617185,0.04822685544629787,-0.02265077387939618,-0.028105645597016022,1.5499839782714844,2019-06-20 16:35:07:661
-10.929363403320313,-2.479157897949219,0.44351907348632813,0.04729474906477013,-0.024115512478939758,-0.028238803651519984,1.554975986480713,2019-06-20 16:35:07:666
-10.904224670410157,-2.46120166015625,0.35373788452148436,0.04796053933728995,-0.02531393496947542,-0.02877143586953583,1.5600001811981201,2019-06-20 16:35:07:671
-10.913801330566406,-2.4552162475585937,0.3824678649902344,0.04809369739179391,-0.02358288026092391,-0.029969858360071485,1.5649921894073486,2019-06-20 16:35:07:676
-10.901830505371093,-2.4779608154296873,0.42316867065429686,0.04742790711927409,-0.024115512478939758,-0.03036933252358337,1.5699841976165771,2019-06-20 16:35:07:681
-10.9365458984375,-2.479157897949219,0.4291540832519531,0.04729474906477013,-0.02624604135100315,-0.030768806687095255,1.5750081539154053,2019-06-20 16:35:07:686
-10.897042175292968,-2.475566650390625,0.4279570007324219,0.04662895879225032,-0.026778673569018998,-0.03170091306862299,1.5800001621246338,2019-06-20 16:35:07:691
-10.897042175292968,-2.4851433105468748,0.4471103210449219,0.046362642683242396,-0.026379199405507113,-0.03303249361366261,1.5849921703338623,2019-06-20 16:35:07:696
-10.916195495605468,-2.5210557861328122,0.4279570007324219,0.04622948462873844,-0.025713409132987305,-0.033165651668166575,1.5899841785430908,2019-06-20 16:35:07:701
-10.891056762695312,-2.534223693847656,0.4147890930175781,0.04622948462873844,-0.02451498664245165,-0.03423091610419827,1.5949761867523193,2019-06-20 16:35:07:706
-10.932954650878907,-2.5366178588867188,0.39802993774414064,0.04649580073774636,-0.02438182858794769,-0.03289933555915865,1.6000001430511475,2019-06-20 16:35:07:711
-10.920983825683594,-2.5090849609375,0.3752853698730469,0.045164220192706744,-0.025180776914971458,-0.03369828388618242,1.604992151260376,2019-06-20 16:35:07:716
-10.911407165527343,-2.4863403930664063,0.4004241027832031,0.04449842992018693,-0.025713409132987305,-0.033165651668166575,1.6099841594696045,2019-06-20 16:35:07:721
-10.887465515136718,-2.4588074951171874,0.42316867065429686,0.04263421715713147,-0.02797709605955466,-0.03249986139564676,1.614976167678833,2019-06-20 16:35:07:726
-10.942531311035156,-2.4887345581054685,0.4028182678222656,0.03943842384903638,-0.029042360495586353,-0.033565125831678456,1.6200001239776611,2019-06-20 16:35:07:731
-10.950910888671874,-2.4444425048828125,0.3561320495605469,0.03664210470445318,-0.029441834659098238,-0.03489670637671808,1.6249921321868896,2019-06-20 16:35:07:736
-10.917392578125,-2.433668762207031,0.29627792358398436,0.0341121016688779,-0.03170552158566559,-0.03569565470374185,1.6299841403961182,2019-06-20 16:35:07:741
-10.852750122070312,-2.5258441162109375,0.40521243286132813,0.03118262446979074,-0.03370289240322502,-0.03636144497626166,1.6349761486053467,2019-06-20 16:35:07:746
-10.871903442382813,-2.628793212890625,0.5213294372558593,0.030117360033759047,-0.0351676330833632,-0.03609512886725374,1.6400001049041748,2019-06-20 16:35:07:751
-10.80366973876953,-2.620413635253906,0.5356944274902343,0.029052095597727354,-0.033170260185209174,-0.036228286921757696,1.6449921131134033,2019-06-20 16:35:07:756
-10.893450927734374,-2.7413189697265623,0.49259945678710937,0.03038367614276697,-0.02890920244108239,-0.03289933555915865,1.6499841213226318,2019-06-20 16:35:07:761
-10.90781591796875,-2.6563261108398435,0.34655538940429687,0.03104946641528678,-0.032903944076201244,-0.031035122796103178,1.65500807762146,2019-06-20 16:35:07:766
-10.827611389160156,-2.6790706787109375,0.2735333557128906,0.029318411706735277,-0.0323713118581854,-0.028238803651519984,1.6600000858306885,2019-06-20 16:35:07:771
-10.756983520507813,-2.695829833984375,0.4662636413574219,0.029717885870247162,-0.030107624931618046,-0.026640906997472437,1.664992094039917,2019-06-20 16:35:07:776
-10.796487243652344,-2.7329393920898437,0.5680156555175782,0.03025051808826301,-0.033569734348721056,-0.023578271743881312,1.6699841022491455,2019-06-20 16:35:07:781
-10.761771850585937,-2.8203264160156247,0.5237236022949219,0.02945156976123924,-0.029441834659098238,-0.020249320381282267,1.674976110458374,2019-06-20 16:35:07:786
-10.710297302246094,-2.99749462890625,0.3836649475097656,0.032514205014830364,-0.023183406097412027,-0.014390364942810641,1.6800000667572021,2019-06-20 16:35:07:791
-10.893450927734374,-2.826311828613281,0.2926866760253906,0.039038949685524495,-0.02784393800505069,-0.01066193941669971,1.6849920749664307,2019-06-20 16:35:07:796
-10.846764709472655,-2.714983154296875,0.4028182678222656,0.04196842688461166,-0.030906573258641816,-0.005468775291045195,1.6899840831756592,2019-06-20 16:35:07:801
-10.804866821289062,-2.7185744018554687,0.5309060974121094,0.04010421412155619,-0.024781302751459573,-0.0014740336559263382,1.6949760913848877,2019-06-20 16:35:07:806
-10.81324639892578,-2.7365306396484375,0.4985848693847656,0.03677526275895714,-0.03037394104062597,0.0025207079791925192,1.7000000476837158,2019-06-20 16:35:07:811
-10.877888854980469,-2.7461072998046876,0.24719754028320312,0.03650894664994922,-0.031039731313145778,0.004251762687744024,1.7049920558929443,2019-06-20 16:35:07:816
-10.830005554199218,-2.6132311401367185,0.3513437194824219,0.043965797702171086,-0.02531393496947542,0.007314397941335148,1.7099840641021729,2019-06-20 16:35:07:821
-10.753392272949219,-2.725756896972656,0.3633145446777344,0.04449842992018693,-0.025846567187491266,0.00891229459538269,1.7149760723114014,2019-06-20 16:35:07:826
-10.919786743164062,-2.6455523681640623,0.5967456359863281,0.04756106517377806,-0.0323713118581854,0.01170861373996589,1.7200000286102295,2019-06-20 16:35:07:831
-10.877888854980469,-2.546194519042969,0.5129498596191406,0.04303369132064335,-0.02691183162352296,0.013173352339509472,1.724992036819458,2019-06-20 16:35:07:836
-10.809655151367187,-2.7125889892578123,0.4507015686035156,0.04143579466659581,-0.021585509443364483,0.01610282953859663,1.7299840450286865,2019-06-20 16:35:07:841
-10.828808471679688,-2.5581653442382812,0.4483074035644531,0.043166849375147316,-0.030773415204137854,0.01583651342958871,1.734976053237915,2019-06-20 16:35:07:846
-10.877888854980469,-2.61442822265625,0.2938837585449219,0.039038949685524495,-0.02691183162352296,0.018765989588378572,1.7400000095367432,2019-06-20 16:35:07:851
-10.81324639892578,-2.5689390869140625,0.5680156555175782,0.04609632657423447,-0.022384457770388257,0.018499673479370645,1.7449920177459717,2019-06-20 16:35:07:856
-10.9365458984375,-2.52823828125,0.5356944274902343,0.044098955756675044,-0.030906573258641816,0.0179670412613548,1.7499840259552002,2019-06-20 16:35:07:861
-10.940137145996093,-2.5366178588867188,0.40640951538085934,0.042367901048123546,-0.026379199405507113,0.018499673479370645,1.7549760341644287,2019-06-20 16:35:07:866
-10.8790859375,-2.5473916015625,0.42556283569335934,0.03930526579453242,-0.022251299715884295,0.01956493791540234,1.7599999904632568,2019-06-20 16:35:07:871
-10.886268432617188,-2.5821069946289064,0.3262049865722656,0.04037053023056411,-0.02797709605955466,0.01956493791540234,1.7649919986724854,2019-06-20 16:35:07:876
-10.905421752929687,-2.5856982421875,0.5129498596191406,0.04583001046522655,-0.02797709605955466,0.01956493791540234,1.7699840068817139,2019-06-20 16:35:07:881
-10.8599326171875,-2.6084428100585937,0.5632273254394531,0.04689527490125824,-0.022118141661380333,0.02089651846044196,1.775008201599121,2019-06-20 16:35:07:886
-10.892253845214844,-2.53781494140625,0.4315482482910156,0.04423211381117901,-0.024914460805963535,0.019964412078914227,1.7799999713897705,2019-06-20 16:35:07:891
-10.874297607421875,-2.5449974365234374,0.37767953491210937,0.04489790408369882,-0.023982354424435796,0.020763360405938,1.784991979598999,2019-06-20 16:35:07:896
-10.868312194824219,-2.5797128295898437,0.4195774230957031,0.04583001046522655,-0.02131919333435656,0.021295992623953847,1.7899839878082275,2019-06-20 16:35:07:901
-10.89943634033203,-2.5210557861328122,0.46267239379882813,0.0452973782472107,-0.02544709302397938,0.021029676514945923,1.794975996017456,2019-06-20 16:35:07:906
-10.895845092773436,-2.560559509277344,0.46865780639648436,0.04649580073774636,-0.023183406097412027,0.021828624841969693,1.8000001907348633,2019-06-20 16:35:07:911
-10.865918029785156,-2.542603271484375,0.4195774230957031,0.05062370042736918,-0.01785708391725355,0.023825995659529125,1.8049921989440918,2019-06-20 16:35:07:916
-10.914998413085938,-2.4635958251953123,0.39683285522460937,0.051023174590881064,-0.021052877225348637,0.024758102041056856,1.8099839687347412,2019-06-20 16:35:07:921
-10.9748525390625,-2.4264862670898437,0.33458456420898436,0.04875948766431372,-0.021585509443364483,0.022893889278001386,1.8150081634521484,2019-06-20 16:35:07:926
-10.961684631347657,-2.436062927246094,0.38605911254882813,0.04836001350080183,-0.019987612789316943,0.02142915067845781,1.820000171661377,2019-06-20 16:35:07:931
-10.95689630126953,-2.4396541748046876,0.42436575317382813,0.04995791015484937,-0.023183406097412027,0.019165463751890457,1.8249921798706055,2019-06-20 16:35:07:936
-10.95569921875,-2.4193037719726562,0.44950448608398436,0.049425277936833524,-0.025580251078483343,0.017700725152346875,1.829984188079834,2019-06-20 16:35:07:941
-10.923377990722656,-2.3618438110351563,0.3764824523925781,0.049292119882329566,-0.021585509443364483,0.017034935920124367,1.8349761962890625,2019-06-20 16:35:07:946
-10.95569921875,-2.3558583984375,0.4004241027832031,0.050091068209353336,-0.02131919333435656,0.015303881211572862,1.8400001525878906,2019-06-20 16:35:07:951
-11.001188354492188,-2.342690490722656,0.43753366088867185,0.04982475210034541,-0.025047618860467497,0.012108087903477775,1.8449921607971191,2019-06-20 16:35:07:956
-10.95689630126953,-2.352267150878906,0.45548989868164064,0.046762116846754284,-0.02251761582489222,0.009045452649886652,1.8499841690063477,2019-06-20 16:35:07:961
-10.95689630126953,-2.3606467285156247,0.4866140441894531,0.04503106213820278,-0.02198498360687637,0.007181239886831186,1.8549761772155762,2019-06-20 16:35:07:966
-10.990414611816407,-2.3462817382812498,0.4004241027832031,0.045563694356218626,-0.02464814469695561,0.004917552960263833,1.8600001335144043,2019-06-20 16:35:07:971
-10.967670043945311,-2.357055480957031,0.3716941223144531,0.04649580073774636,-0.02278393193390014,0.0021212338156806334,1.8649921417236328,2019-06-20 16:35:07:976
-10.953305053710936,-2.3438875732421875,0.3896503601074219,0.04489790408369882,-0.022917089988404103,-0.0016071917104302999,1.8699841499328613,2019-06-20 16:35:07:981
-10.989217529296875,-2.3199459228515624,0.38486203002929686,0.043300007429651274,-0.025846567187491266,-0.004536668909517462,1.875040054321289,2019-06-20 16:35:07:986
-10.998794189453125,-2.3103692626953123,0.4411249084472656,0.04290053326613939,-0.025846567187491266,-0.007599304163108585,1.880000114440918,2019-06-20 16:35:07:991
-10.964078796386719,-2.3199459228515624,0.4100007629394531,0.041702110775603735,-0.023316564151915988,-0.009596674980668015,1.8849921226501465,2019-06-20 16:35:07:996
-10.9748525390625,-2.3462817382812498,0.34775247192382813,0.03997105606705223,-0.02624604135100315,-0.013724574670290833,1.889984130859375,2019-06-20 16:35:08:001
-10.972458374023438,-2.379800048828125,0.37887661743164064,0.03997105606705223,-0.026512357460011075,-0.016654051869377996,1.8949761390686035,2019-06-20 16:35:08:006
-10.9365458984375,-2.3821942138671877,0.42556283569335934,0.04037053023056411,-0.02624604135100315,-0.01918405594525057,1.9000000953674316,2019-06-20 16:35:08:011
-10.949713806152344,-2.366632141113281,0.4602782287597656,0.03957158190354034,-0.026379199405507113,-0.020249320381282267,1.9049921035766602,2019-06-20 16:35:08:016
-10.925772155761718,-2.40374169921875,0.4315482482910156,0.0379736852494928,-0.026379199405507113,-0.02184721703532981,1.9099841117858887,2019-06-20 16:35:08:021
-10.954502136230468,-2.380997131347656,0.4016211853027344,0.037840527194988836,-0.026379199405507113,-0.02451037812540905,1.9149761199951172,2019-06-20 16:35:08:026
-10.942531311035156,-2.40374169921875,0.35373788452148436,0.03677526275895714,-0.026379199405507113,-0.02610827477945659,1.9200000762939453,2019-06-20 16:35:08:031
-10.944925476074218,-2.4264862670898437,0.42316867065429686,0.03677526275895714,-0.02797709605955466,-0.027173539215488283,1.9249920845031738,2019-06-20 16:35:08:036
-10.966472961425781,-2.433668762207031,0.43513949584960937,0.0362426305409413,-0.02704498967802692,-0.0295703841965596,1.9299840927124023,2019-06-20 16:35:08:041
-10.942531311035156,-2.408530029296875,0.4195774230957031,0.038240001358500725,-0.02877604438657843,-0.031168280850607147,1.9349761009216309,2019-06-20 16:35:08:046
-10.923377990722656,-2.4312745971679686,0.4123949279785156,0.03850631746750865,-0.028642886332074468,-0.03303249361366261,1.940000057220459,2019-06-20 16:35:08:051
-10.964078796386719,-2.4145154418945314,0.41119784545898436,0.03597631443193337,-0.02811025411405862,-0.03489670637671808,1.9449920654296875,2019-06-20 16:35:08:056
-10.973655456542968,-2.4157125244140625,0.41718325805664064,0.036375788595445255,-0.027311305787034845,-0.037027235248781466,1.949984073638916,2019-06-20 16:35:08:061
-10.943728393554688,-2.424092102050781,0.4004241027832031,0.037041578867965066,-0.028243412168562583,-0.03862513190282901,1.9549760818481445,2019-06-20 16:35:08:066
-10.917392578125,-2.4145154418945314,0.3501466369628906,0.037840527194988836,-0.026778673569018998,-0.04102197688390032,1.9600000381469727,2019-06-20 16:35:08:071
-10.982035034179686,-2.395362121582031,0.3740882873535156,0.037041578867965066,-0.028509728277570506,-0.04261987353794787,1.9649920463562012,2019-06-20 16:35:08:076
-10.940137145996093,-2.3917708740234374,0.4100007629394531,0.03770736914048488,-0.02877604438657843,-0.043551979919475604,1.9699840545654297,2019-06-20 16:35:08:081
-10.941334228515625,-2.4205008544921873,0.40521243286132813,0.037041578867965066,-0.02970815076810616,-0.0452830346280271,1.9749760627746582,2019-06-20 16:35:08:086
-10.922180908203124,-2.42289501953125,0.45429281616210937,0.03610947248643733,-0.030107624931618046,-0.047679879609098426,1.9800000190734863,2019-06-20 16:35:08:091
-10.920983825683594,-2.4408512573242187,0.4399278259277344,0.03544368221391753,-0.029974466877114084,-0.04901146015413804,1.9849920272827148,2019-06-20 16:35:08:096
-10.900633422851563,-2.4552162475585937,0.4195774230957031,0.036375788595445255,-0.029042360495586353,-0.05074251486268955,1.9899840354919434,2019-06-20 16:35:08:101
-10.911407165527343,-2.4887345581054685,0.4076065979003906,0.03650894664994922,-0.0295749927136022,-0.05140830513520935,1.9949760437011719,2019-06-20 16:35:08:106
-10.911407165527343,-2.476763732910156,0.4315482482910156,0.03584315637742941,-0.0295749927136022,-0.05234041151673709,2.0,2019-06-20 16:35:08:111
-10.886268432617188,-2.504296630859375,0.4387307434082031,0.0362426305409413,-0.028509728277570506,-0.05313935984376086,2.0049920082092285,2019-06-20 16:35:08:116
-10.895845092773436,-2.5449974365234374,0.4471103210449219,0.03650894664994922,-0.030640257149633893,-0.054071466225288585,2.009984016418457,2019-06-20 16:35:08:121
-10.887465515136718,-2.5449974365234374,0.4016211853027344,0.03664210470445318,-0.030640257149633893,-0.05433778233429651,2.0149760246276855,2019-06-20 16:35:08:126
-10.897042175292968,-2.571333251953125,0.3956357727050781,0.036375788595445255,-0.02811025411405862,-0.05380515011628066,2.0199999809265137,2019-06-20 16:35:08:131
-10.882677185058593,-2.5964719848632813,0.4195774230957031,0.03770736914048488,-0.027311305787034845,-0.052873043734752934,2.024991989135742,2019-06-20 16:35:08:136
-10.883874267578125,-2.5988661499023435,0.43753366088867185,0.03863947552201261,-0.0295749927136022,-0.053272517898264815,2.0299839973449707,2019-06-20 16:35:08:141
-10.862326782226562,-2.586895324707031,0.4471103210449219,0.03917210774002846,-0.029042360495586353,-0.05273988568024897,2.034976005554199,2019-06-20 16:35:08:146
-10.88866259765625,-2.59527490234375,0.3812707824707031,0.039038949685524495,-0.02797709605955466,-0.051674621244217275,2.0400002002716064,2019-06-20 16:35:08:151
-10.897042175292968,-2.600063232421875,0.3764824523925781,0.04010421412155619,-0.02890920244108239,-0.050476198753681624,2.044991970062256,2019-06-20 16:35:08:156
-10.8982392578125,-2.6072457275390626,0.3956357727050781,0.04037053023056411,-0.02890920244108239,-0.05060935680818558,2.0499839782714844,2019-06-20 16:35:08:161
-10.885071350097656,-2.606048645019531,0.3944386901855469,0.04090316244857996,-0.029441834659098238,-0.050076724590169736,2.054975986480713,2019-06-20 16:35:08:166
-10.897042175292968,-2.629990295410156,0.41119784545898436,0.04090316244857996,-0.030107624931618046,-0.049677250426657854,2.06000018119812,2019-06-20 16:35:08:171
-10.897042175292968,-2.634778625488281,0.40640951538085934,0.04023737217606015,-0.029841308822610123,-0.04794619571810635,2.0649921894073486,2019-06-20 16:35:08:176
-10.86950927734375,-2.620413635253906,0.4650665588378906,0.04090316244857996,-0.0295749927136022,-0.046747773227570684,2.069984197616577,2019-06-20 16:35:08:181
-10.851553039550781,-2.6168223876953123,0.4267599182128906,0.04156895272109977,-0.028243412168562583,-0.04541619268253107,2.0749759674072266,2019-06-20 16:35:08:186
-10.851553039550781,-2.6539319458007813,0.40401535034179686,0.04276737521163543,-0.02890920244108239,-0.04368513797397956,2.080000162124634,2019-06-20 16:35:08:191
-10.819231811523437,-2.643158203125,0.4411249084472656,0.04343316548415524,-0.028376570223066545,-0.04248671548344391,2.0849921703338623,2019-06-20 16:35:08:196
-10.83120263671875,-2.6419611206054685,0.44950448608398436,0.043300007429651274,-0.02797709605955466,-0.0407556607748924,2.089984178543091,2019-06-20 16:35:08:201
-10.838385131835937,-2.647946533203125,0.4267599182128906,0.04303369132064335,-0.027311305787034845,-0.03942408022985278,2.0949761867523193,2019-06-20 16:35:08:206
-10.865918029785156,-2.661114440917969,0.40521243286132813,0.043300007429651274,-0.02771077995054673,-0.0390246060663409,2.1000001430511475,2019-06-20 16:35:08:211
-10.824020141601562,-2.6790706787109375,0.4147890930175781,0.044098955756675044,-0.026645515514515036,-0.03676091913977354,2.104992151260376,2019-06-20 16:35:08:216
-10.837188049316406,-2.6838590087890624,0.39802993774414064,0.0446315879746909,-0.027178147732530883,-0.03529618054022997,2.1099841594696045,2019-06-20 16:35:08:221
-10.864720947265624,-2.687450256347656,0.46386947631835934,0.045164220192706744,-0.027444463841538806,-0.03463039026771015,2.114976167678833,2019-06-20 16:35:08:226
-10.855144287109376,-2.658720275878906,0.4147890930175781,0.045164220192706744,-0.02544709302397938,-0.031301438905111105,2.120000123977661,2019-06-20 16:35:08:231
-10.843173461914063,-2.673085266113281,0.49379653930664064,0.04543053630171467,-0.025713409132987305,-0.0295703841965596,2.1249921321868896,2019-06-20 16:35:08:236
-10.846764709472655,-2.6838590087890624,0.4866140441894531,0.04503106213820278,-0.025713409132987305,-0.02863827781503187,2.129984140396118,2019-06-20 16:35:08:241
-10.858735534667968,-2.658720275878906,0.4399278259277344,0.0452973782472107,-0.026645515514515036,-0.0267740650519764,2.1349761486053467,2019-06-20 16:35:08:246
-10.875494689941405,-2.67188818359375,0.4722490539550781,0.04583001046522655,-0.024914460805963535,-0.024909852288920935,2.140000104904175,2019-06-20 16:35:08:251
-10.864720947265624,-2.685056091308594,0.44232199096679686,0.044764746029194856,-0.024115512478939758,-0.023578271743881312,2.1449921131134033,2019-06-20 16:35:08:256
-10.882677185058593,-2.6551290283203124,0.3896503601074219,0.04290053326613939,-0.02691183162352296,-0.021048268708306037,2.149984121322632,2019-06-20 16:35:08:261
-10.843173461914063,-2.6515377807617186,0.38605911254882813,0.04423211381117901,-0.02611288329649919,-0.02051563649029019,2.1549761295318604,2019-06-20 16:35:08:266
-10.827611389160156,-2.6623115234375,0.4339424133300781,0.04503106213820278,-0.026645515514515036,-0.018784581781738686,2.1600000858306885,2019-06-20 16:35:08:271
-10.862326782226562,-2.67188818359375,0.4662636413574219,0.04383263964766712,-0.02611288329649919,-0.01705352603288988,2.164992094039917,2019-06-20 16:35:08:276
-10.857538452148438,-2.661114440917969,0.46865780639648436,0.042501059102627504,-0.02531393496947542,-0.016520893814874035,2.1699841022491455,2019-06-20 16:35:08:281
-10.853947204589844,-2.6395669555664063,0.41838034057617185,0.04303369132064335,-0.02544709302397938,-0.01572194548785026,2.174976110458374,2019-06-20 16:35:08:286
-10.852750122070312,-2.6599173583984372,0.4004241027832031,0.04383263964766712,-0.027178147732530883,-0.01425720688830668,2.180000066757202,2019-06-20 16:35:08:291
-10.891056762695312,-2.6419611206054685,0.4195774230957031,0.0435663235386592,-0.026645515514515036,-0.01265931023425914,2.1849920749664307,2019-06-20 16:35:08:296
-10.881480102539062,-2.6228078002929687,0.4195774230957031,0.043300007429651274,-0.025047618860467497,-0.011061413580211595,2.189984083175659,2019-06-20 16:35:08:301
-10.891056762695312,-2.6132311401367185,0.42316867065429686,0.04423211381117901,-0.024781302751459573,-0.010262465253187823,2.1949760913848877,2019-06-20 16:35:08:306
-10.880283020019531,-2.6024573974609373,0.4076065979003906,0.042367901048123546,-0.02624604135100315,-0.0099961491441799,2.200000047683716,2019-06-20 16:35:08:311
-10.887465515136718,-2.609639892578125,0.38605911254882813,0.04223474299361958,-0.02611288329649919,-0.009064042762652167,2.2049920558929443,2019-06-20 16:35:08:316
-10.885071350097656,-2.609639892578125,0.42436575317382813,0.042367901048123546,-0.02704498967802692,-0.0077324622176125485,2.209984064102173,2019-06-20 16:35:08:321
-10.903027587890625,-2.5964719848632813,0.4267599182128906,0.042367901048123546,-0.028376570223066545,-0.00653403972707689,2.215008020401001,2019-06-20 16:35:08:326
-10.87070635986328,-2.609639892578125,0.3932416076660156,0.04223474299361958,-0.026645515514515036,-0.0077324622176125485,2.2200000286102295,2019-06-20 16:35:08:331
-10.887465515136718,-2.590486572265625,0.42436575317382813,0.04143579466659581,-0.02797709605955466,-0.006800355836084815,2.224992036819458,2019-06-20 16:35:08:336
-10.871903442382813,-2.6419611206054685,0.4219715881347656,0.04143579466659581,-0.02611288329649919,-0.005335617236541234,2.2299840450286865,2019-06-20 16:35:08:341
-10.887465515136718,-2.6275961303710935,0.4076065979003906,0.04010421412155619,-0.025713409132987305,-0.0057350914000531186,2.234976053237915,2019-06-20 16:35:08:346
-10.855144287109376,-2.6228078002929687,0.42316867065429686,0.03917210774002846,-0.02797709605955466,-0.005202459182037272,2.240000009536743,2019-06-20 16:35:08:351
-10.847961791992187,-2.6599173583984372,0.4530957336425781,0.03997105606705223,-0.025979725241995228,-0.002938772255469919,2.2449920177459717,2019-06-20 16:35:08:356
-10.871903442382813,-2.6623115234375,0.4662636413574219,0.040770004394076,-0.02544709302397938,-0.0034714044734857666,2.2499840259552,2019-06-20 16:35:08:361
-10.868312194824219,-2.63358154296875,0.3932416076660156,0.040770004394076,-0.02970815076810616,-0.004270352800509538,2.2550079822540283,2019-06-20 16:35:08:366
-10.856341369628906,-2.6072457275390626,0.42436575317382813,0.04037053023056411,-0.026778673569018998,-0.002672456146461995,2.259999990463257,2019-06-20 16:35:08:371
-10.873100524902343,-2.609639892578125,0.4279570007324219,0.03930526579453242,-0.025713409132987305,-0.0009414014379104903,2.2649919986724854,2019-06-20 16:35:08:376
-10.87070635986328,-2.606048645019531,0.4518986511230469,0.03810684330399676,-0.030107624931618046,-0.0009414014379104903,2.269984006881714,2019-06-20 16:35:08:381
-10.90781591796875,-2.6048515625,0.4507015686035156,0.03770736914048488,-0.027444463841538806,-0.0008082433834065285,2.2749760150909424,2019-06-20 16:35:08:386
-10.906618835449219,-2.6132311401367185,0.4100007629394531,0.03837315941300468,-0.02544709302397938,0.0002570210526251668,2.2799999713897705,2019-06-20 16:35:08:391
-10.8790859375,-2.606048645019531,0.4279570007324219,0.0369084208134611,-0.028376570223066545,0.001055969379648938,2.284991979598999,2019-06-20 16:35:08:396
-10.875494689941405,-2.586895324707031,0.4399278259277344,0.03650894664994922,-0.02771077995054673,0.0021212338156806334,2.2899839878082275,2019-06-20 16:35:08:401
-10.883874267578125,-2.6455523681640623,0.48062863159179686,0.037840527194988836,-0.02704498967802692,0.0019880757611766718,2.294975996017456,2019-06-20 16:35:08:406
-10.922180908203124,-2.6407640380859374,0.4650665588378906,0.037174736922469025,-0.029441834659098238,0.002787024088200443,2.3000001907348633,2019-06-20 16:35:08:411
-10.905421752929687,-2.600063232421875,0.41119784545898436,0.0362426305409413,-0.029042360495586353,0.002787024088200443,2.304992198944092,2019-06-20 16:35:08:416
-10.880283020019531,-2.601260314941406,0.3896503601074219,0.0379736852494928,-0.027178147732530883,0.0031864982517123288,2.309983968734741,2019-06-20 16:35:08:421
-10.885071350097656,-2.59527490234375,0.41838034057617185,0.03863947552201261,-0.02877604438657843,0.0026538660336964813,2.3149759769439697,2019-06-20 16:35:08:426
-10.909013000488281,-2.6108369750976563,0.4387307434082031,0.0369084208134611,-0.02970815076810616,0.0029201821427044046,2.320000171661377,2019-06-20 16:35:08:431
-10.8790859375,-2.589289489746094,0.41838034057617185,0.03531052415941356,-0.02811025411405862,0.004784394905759872,2.3249921798706055,2019-06-20 16:35:08:436
-10.847961791992187,-2.6132311401367185,0.38605911254882813,0.03730789497697299,-0.02704498967802692,0.005183869069271757,2.329984188079834,2019-06-20 16:35:08:441
-10.885071350097656,-2.6120340576171874,0.3956357727050781,0.03850631746750865,-0.02970815076810616,0.005716501287287605,2.335008144378662,2019-06-20 16:35:08:446
-10.87070635986328,-2.5928807373046876,0.4135920104980469,0.038905791631020537,-0.028243412168562583,0.005450185178279681,2.3400001525878906,2019-06-20 16:35:08:451
-10.856341369628906,-2.6263990478515624,0.43035116577148436,0.03810684330399676,-0.027577621896042768,0.006249133505303452,2.344992160797119,2019-06-20 16:35:08:456
-10.875494689941405,-2.61442822265625,0.4722490539550781,0.03810684330399676,-0.03050709909512993,0.006914923777823262,2.3499841690063477,2019-06-20 16:35:08:461
-10.838385131835937,-2.618019470214844,0.41838034057617185,0.03810684330399676,-0.029175518550090315,0.006648607668815338,2.354976177215576,2019-06-20 16:35:08:466
-10.839582214355469,-2.5988661499023435,0.3633145446777344,0.039038949685524495,-0.02784393800505069,0.007048081832327224,2.3600001335144043,2019-06-20 16:35:08:471
-10.856341369628906,-2.6048515625,0.37887661743164064,0.039704739958044306,-0.028243412168562583,0.007713872104847034,2.364992141723633,2019-06-20 16:35:08:476
-10.893450927734374,-2.606048645019531,0.44232199096679686,0.04037053023056411,-0.029175518550090315,0.007048081832327224,2.3699841499328613,2019-06-20 16:35:08:481
-10.858735534667968,-2.590486572265625,0.49379653930664064,0.03943842384903638,-0.02877604438657843,0.008113346268358919,2.37497615814209,2019-06-20 16:35:08:486
-10.867115112304687,-2.5737274169921873,0.4387307434082031,0.03877263357651657,-0.02797709605955466,0.0095780848679025,2.3800320625305176,2019-06-20 16:35:08:491
-10.883874267578125,-2.5833040771484375,0.3896503601074219,0.03943842384903638,-0.028642886332074468,0.009977559031414385,2.3849921226501465,2019-06-20 16:35:08:496
-10.887465515136718,-2.5797128295898437,0.4207745056152344,0.04183526883010769,-0.02811025411405862,0.009045452649886652,2.389984130859375,2019-06-20 16:35:08:501
-10.894648010253906,-2.590486572265625,0.4530957336425781,0.041702110775603735,-0.027311305787034845,0.009844400976910424,2.3949761390686035,2019-06-20 16:35:08:506
-10.889859680175782,-2.5797128295898437,0.4578840637207031,0.041302636612091846,-0.027178147732530883,0.010510191249430234,2.4000000953674316,2019-06-20 16:35:08:511
-10.892253845214844,-2.574924499511719,0.4135920104980469,0.041302636612091846,-0.02811025411405862,0.010510191249430234,2.40499210357666,2019-06-20 16:35:08:516
-10.86112969970703,-2.5294353637695313,0.39204452514648436,0.04223474299361958,-0.02531393496947542,0.010110717085918347,2.4099841117858887,2019-06-20 16:35:08:521
-10.8982392578125,-2.566544921875,0.4147890930175781,0.04183526883010769,-0.02624604135100315,0.009844400976910424,2.415008068084717,2019-06-20 16:35:08:526
-10.90781591796875,-2.566544921875,0.42556283569335934,0.04090316244857996,-0.02691183162352296,0.009178610704390614,2.4200000762939453,2019-06-20 16:35:08:531
-10.887465515136718,-2.533026611328125,0.41838034057617185,0.04276737521163543,-0.02877604438657843,0.00891229459538269,2.424992084503174,2019-06-20 16:35:08:536
-10.8599326171875,-2.533026611328125,0.44471615600585934,0.04303369132064335,-0.027444463841538806,0.010243875140422309,2.4299840927124023,2019-06-20 16:35:08:541
-10.89943634033203,-2.5294353637695313,0.4339424133300781,0.04156895272109977,-0.02624604135100315,0.009711242922406462,2.434976100921631,2019-06-20 16:35:08:546
-10.931757568359375,-2.5414061889648436,0.4219715881347656,0.04010421412155619,-0.026512357460011075,0.008645978486374767,2.440000057220459,2019-06-20 16:35:08:551
-10.889859680175782,-2.5402091064453125,0.4291540832519531,0.042101584939115616,-0.026645515514515036,0.007314397941335148,2.4449920654296875,2019-06-20 16:35:08:556
-10.894648010253906,-2.5557711791992186,0.42316867065429686,0.04263421715713147,-0.027178147732530883,0.007713872104847034,2.449984073638916,2019-06-20 16:35:08:561
-10.929363403320313,-2.5294353637695313,0.44232199096679686,0.040636846339572034,-0.02704498967802692,0.005982817396295529,2.4549760818481445,2019-06-20 16:35:08:566
-10.929363403320313,-2.51866162109375,0.41838034057617185,0.04023737217606015,-0.025180776914971458,0.005317027123775719,2.4600000381469727,2019-06-20 16:35:08:571
-10.910210083007811,-2.5138732910156247,0.44471615600585934,0.04090316244857996,-0.025580251078483343,0.004384920742247986,2.464992046356201,2019-06-20 16:35:08:576
-10.918589660644532,-2.5270411987304686,0.4399278259277344,0.040770004394076,-0.02691183162352296,0.0035859724152242146,2.4699840545654297,2019-06-20 16:35:08:581
-10.905421752929687,-2.504296630859375,0.43633657836914064,0.039704739958044306,-0.02784393800505069,0.003452814360720253,2.474976062774658,2019-06-20 16:35:08:586
-10.903027587890625,-2.505493713378906,0.4782344665527344,0.042101584939115616,-0.02691183162352296,0.002787024088200443,2.4800000190734863,2019-06-20 16:35:08:591
-10.916195495605468,-2.5222528686523438,0.47464321899414064,0.042101584939115616,-0.026645515514515036,0.0023875499246885576,2.484992027282715,2019-06-20 16:35:08:596
-10.923377990722656,-2.5007053833007813,0.3764824523925781,0.040503688285068076,-0.02811025411405862,0.0017217596521687478,2.4899840354919434,2019-06-20 16:35:08:601
-10.913801330566406,-2.4971141357421875,0.3549349670410156,0.04037053023056411,-0.02704498967802692,0.0009228113251449763,2.4950079917907715,2019-06-20 16:35:08:606
-10.900633422851563,-2.4863403930664063,0.4016211853027344,0.041302636612091846,-0.026379199405507113,-0.00027561116539068085,2.5,2019-06-20 16:35:08:611
-10.95569921875,-2.5126762084960936,0.4327453308105469,0.04156895272109977,-0.028243412168562583,-0.0013408756014223761,2.5049920082092285,2019-06-20 16:35:08:616
-10.943728393554688,-2.4875374755859374,0.43633657836914064,0.04010421412155619,-0.02784393800505069,-0.0024061400374540713,2.509984016418457,2019-06-20 16:35:08:621
-10.923377990722656,-2.4923258056640623,0.44232199096679686,0.03917210774002846,-0.026512357460011075,-0.002672456146461995,2.5149760246276855,2019-06-20 16:35:08:626
-10.913801330566406,-2.493522888183594,0.41598617553710937,0.04090316244857996,-0.02784393800505069,-0.0044035108550135,2.5199999809265137,2019-06-20 16:35:08:631
-10.919786743164062,-2.493522888183594,0.3956357727050781,0.039837898012548265,-0.02771077995054673,-0.006001407509061044,2.524991989135742,2019-06-20 16:35:08:636
-10.904224670410157,-2.4731724853515624,0.41598617553710937,0.03997105606705223,-0.02624604135100315,-0.0064008816725729285,2.5299839973449707,2019-06-20 16:35:08:641
-10.938940063476561,-2.4887345581054685,0.4195774230957031,0.040636846339572034,-0.02624604135100315,-0.006933513890588777,2.535008192062378,2019-06-20 16:35:08:646
-10.932954650878907,-2.491128723144531,0.40521243286132813,0.040503688285068076,-0.02797709605955466,-0.008265094435628395,2.5400002002716064,2019-06-20 16:35:08:651
-10.930560485839843,-2.494719970703125,0.3836649475097656,0.03930526579453242,-0.026778673569018998,-0.009596674980668015,2.544991970062256,2019-06-20 16:35:08:656
-10.910210083007811,-2.524647033691406,0.43633657836914064,0.03943842384903638,-0.026645515514515036,-0.009729833035171977,2.5499839782714844,2019-06-20 16:35:08:661
-10.8982392578125,-2.5306324462890624,0.44950448608398436,0.038240001358500725,-0.02877604438657843,-0.010129307198683862,2.554975986480713,2019-06-20 16:35:08:666
-10.917392578125,-2.5138732910156247,0.44471615600585934,0.039038949685524495,-0.028376570223066545,-0.011860361907235367,2.56000018119812,2019-06-20 16:35:08:671
-10.89943634033203,-2.5449974365234374,0.4219715881347656,0.038240001358500725,-0.026778673569018998,-0.01132772968921952,2.5649921894073486,2019-06-20 16:35:08:676
-10.917392578125,-2.53781494140625,0.43633657836914064,0.03757421108598091,-0.026379199405507113,-0.01132772968921952,2.569984197616577,2019-06-20 16:35:08:681
-10.92816632080078,-2.55696826171875,0.44232199096679686,0.038240001358500725,-0.02811025411405862,-0.011727203852731405,2.5749759674072266,2019-06-20 16:35:08:686
-10.89943634033203,-2.55696826171875,0.41598617553710937,0.038240001358500725,-0.02797709605955466,-0.012526152179755175,2.580000162124634,2019-06-20 16:35:08:691
-10.925772155761718,-2.55696826171875,0.4327453308105469,0.03810684330399676,-0.027311305787034845,-0.013325100506778948,2.5849921703338623,2019-06-20 16:35:08:696
-10.891056762695312,-2.5354207763671877,0.4327453308105469,0.037840527194988836,-0.02704498967802692,-0.013191942452274986,2.589984178543091,2019-06-20 16:35:08:701
-10.917392578125,-2.5402091064453125,0.4100007629394531,0.037840527194988836,-0.026512357460011075,-0.013325100506778948,2.5949761867523193,2019-06-20 16:35:08:706
-10.868312194824219,-2.5545740966796875,0.4411249084472656,0.03837315941300468,-0.02624604135100315,-0.012526152179755175,2.6000001430511475,2019-06-20 16:35:08:711
-10.916195495605468,-2.561756591796875,0.4507015686035156,0.03757421108598091,-0.02691183162352296,-0.012792468288763102,2.604992151260376,2019-06-20 16:35:08:716
-10.901830505371093,-2.5557711791992186,0.43753366088867185,0.03837315941300468,-0.027178147732530883,-0.012792468288763102,2.6099841594696045,2019-06-20 16:35:08:721
-10.875494689941405,-2.5557711791992186,0.37887661743164064,0.03877263357651657,-0.026512357460011075,-0.013591416615786871,2.614976167678833,2019-06-20 16:35:08:726
-10.88866259765625,-2.577318664550781,0.4004241027832031,0.03997105606705223,-0.02531393496947542,-0.013325100506778948,2.620000123977661,2019-06-20 16:35:08:731
-10.885071350097656,-2.5473916015625,0.43633657836914064,0.03863947552201261,-0.027178147732530883,-0.01265931023425914,2.6249921321868896,2019-06-20 16:35:08:736
-10.875494689941405,-2.566544921875,0.42556283569335934,0.03917210774002846,-0.026778673569018998,-0.012925626343267063,2.629984140396118,2019-06-20 16:35:08:741
-10.88866259765625,-2.560559509277344,0.40521243286132813,0.04023737217606015,-0.025846567187491266,-0.013058784397771025,2.6349761486053467,2019-06-20 16:35:08:746
-10.885071350097656,-2.5414061889648436,0.4076065979003906,0.03957158190354034,-0.025979725241995228,-0.013058784397771025,2.640000104904175,2019-06-20 16:35:08:751
-10.892253845214844,-2.524647033691406,0.3884532775878906,0.04037053023056411,-0.026379199405507113,-0.012792468288763102,2.6449921131134033,2019-06-20 16:35:08:756
-10.852750122070312,-2.5449974365234374,0.43753366088867185,0.040636846339572034,-0.027444463841538806,-0.013191942452274986,2.649984121322632,2019-06-20 16:35:08:761
-10.892253845214844,-2.5797128295898437,0.41718325805664064,0.04010421412155619,-0.027311305787034845,-0.012925626343267063,2.6549761295318604,2019-06-20 16:35:08:766
-10.90781591796875,-2.560559509277344,0.4315482482910156,0.03997105606705223,-0.02811025411405862,-0.012392994125251213,2.6600000858306885,2019-06-20 16:35:08:771
-10.885071350097656,-2.548588684082031,0.46147531127929686,0.04037053023056411,-0.02797709605955466,-0.012792468288763102,2.664992094039917,2019-06-20 16:35:08:776
-10.868312194824219,-2.5653478393554687,0.4123949279785156,0.04023737217606015,-0.027311305787034845,-0.013058784397771025,2.6699841022491455,2019-06-20 16:35:08:781
-10.903027587890625,-2.55696826171875,0.4602782287597656,0.04023737217606015,-0.026778673569018998,-0.013325100506778948,2.674976110458374,2019-06-20 16:35:08:786
-10.90781591796875,-2.53781494140625,0.41838034057617185,0.03943842384903638,-0.02691183162352296,-0.013857732724794795,2.680000066757202,2019-06-20 16:35:08:791
-10.885071350097656,-2.542603271484375,0.4016211853027344,0.038905791631020537,-0.027178147732530883,-0.012526152179755175,2.6849920749664307,2019-06-20 16:35:08:796
-10.917392578125,-2.5533770141601564,0.3896503601074219,0.03850631746750865,-0.028642886332074468,-0.011727203852731405,2.689984083175659,2019-06-20 16:35:08:801
-10.916195495605468,-2.5821069946289064,0.4315482482910156,0.03877263357651657,-0.02890920244108239,-0.012392994125251213,2.6949760913848877,2019-06-20 16:35:08:806
-10.889859680175782,-2.5689390869140625,0.4483074035644531,0.03837315941300468,-0.02611288329649919,-0.01265931023425914,2.700000047683716,2019-06-20 16:35:08:811
-10.882677185058593,-2.566544921875,0.42556283569335934,0.03917210774002846,-0.026379199405507113,-0.01265931023425914,2.7049920558929443,2019-06-20 16:35:08:816
-10.891056762695312,-2.5833040771484375,0.41838034057617185,0.03877263357651657,-0.02890920244108239,-0.011860361907235367,2.709984064102173,2019-06-20 16:35:08:821
-10.877888854980469,-2.589289489746094,0.4207745056152344,0.038905791631020537,-0.02970815076810616,-0.011194571634715558,2.7149760723114014,2019-06-20 16:35:08:826
-10.874297607421875,-2.606048645019531,0.3884532775878906,0.0379736852494928,-0.0295749927136022,-0.011194571634715558,2.7200000286102295,2019-06-20 16:35:08:831
-10.883874267578125,-2.590486572265625,0.38605911254882813,0.0379736852494928,-0.0295749927136022,-0.011460887743723482,2.724992036819458,2019-06-20 16:35:08:836
-10.880283020019531,-2.577318664550781,0.4028182678222656,0.03877263357651657,-0.029042360495586353,-0.010528781362195748,2.7299840450286865,2019-06-20 16:35:08:841
-10.8790859375,-2.574924499511719,0.4028182678222656,0.03917210774002846,-0.02797709605955466,-0.009862991089675938,2.7350080013275146,2019-06-20 16:35:08:846
-10.882677185058593,-2.586895324707031,0.4399278259277344,0.03850631746750865,-0.029042360495586353,-0.009064042762652167,2.740000009536743,2019-06-20 16:35:08:851
-10.90781591796875,-2.5821069946289064,0.4770373840332031,0.039038949685524495,-0.029841308822610123,-0.008265094435628395,2.7449920177459717,2019-06-20 16:35:08:856
-10.883874267578125,-2.574924499511719,0.4279570007324219,0.038240001358500725,-0.029042360495586353,-0.008131936381124433,2.7499840259552,2019-06-20 16:35:08:861
-10.88866259765625,-2.600063232421875,0.4207745056152344,0.037840527194988836,-0.029042360495586353,-0.0077324622176125485,2.7549760341644287,2019-06-20 16:35:08:866
-10.912604248046875,-2.5928807373046876,0.43513949584960937,0.03837315941300468,-0.03117288936764974,-0.007332988054100662,2.759999990463257,2019-06-20 16:35:08:871
-10.903027587890625,-2.57612158203125,0.4459132385253906,0.03850631746750865,-0.030240782986122008,-0.006933513890588777,2.7649919986724854,2019-06-20 16:35:08:876
-10.877888854980469,-2.5821069946289064,0.4698548889160156,0.037840527194988836,-0.029308676604594276,-0.005868249454557082,2.769984006881714,2019-06-20 16:35:08:881
-10.886268432617188,-2.572530334472656,0.4650665588378906,0.0369084208134611,-0.03037394104062597,-0.0070666719450927385,2.7749760150909424,2019-06-20 16:35:08:886
-10.913801330566406,-2.589289489746094,0.5045702819824218,0.037174736922469025,-0.029175518550090315,-0.006667197781580852,2.7799999713897705,2019-06-20 16:35:08:891
-10.882677185058593,-2.5641507568359376,0.4650665588378906,0.03770736914048488,-0.028243412168562583,-0.006800355836084815,2.784991979598999,2019-06-20 16:35:08:896
-10.871903442382813,-2.603654479980469,0.4411249084472656,0.03757421108598091,-0.028243412168562583,-0.006667197781580852,2.7899839878082275,2019-06-20 16:35:08:901
-10.895845092773436,-2.5797128295898437,0.47464321899414064,0.037840527194988836,-0.029841308822610123,-0.006134565563565005,2.794975996017456,2019-06-20 16:35:08:906
-10.87070635986328,-2.5988661499023435,0.4135920104980469,0.0379736852494928,-0.029042360495586353,-0.004936143073029348,2.8000001907348633,2019-06-20 16:35:08:911
-10.86950927734375,-2.577318664550781,0.4459132385253906,0.03877263357651657,-0.029042360495586353,-0.004802985018525386,2.804992198944092,2019-06-20 16:35:08:916
-10.880283020019531,-2.590486572265625,0.4207745056152344,0.03877263357651657,-0.029841308822610123,-0.005601933345549157,2.809983968734741,2019-06-20 16:35:08:921
-10.876691772460937,-2.5928807373046876,0.4028182678222656,0.03877263357651657,-0.029175518550090315,-0.005468775291045195,2.8150081634521484,2019-06-20 16:35:08:926
-10.891056762695312,-2.5988661499023435,0.4459132385253906,0.03877263357651657,-0.02784393800505069,-0.004802985018525386,2.820000171661377,2019-06-20 16:35:08:931
-10.874297607421875,-2.6108369750976563,0.41838034057617185,0.038905791631020537,-0.027311305787034845,-0.0034714044734857666,2.8249921798706055,2019-06-20 16:35:08:936
-10.894648010253906,-2.5785157470703126,0.43633657836914064,0.03917210774002846,-0.026645515514515036,-0.004270352800509538,2.829984188079834,2019-06-20 16:35:08:941
-10.857538452148438,-2.5856982421875,0.3740882873535156,0.03863947552201261,-0.02611288329649919,-0.003205088364477843,2.8349761962890625,2019-06-20 16:35:08:946
-10.86950927734375,-2.591683654785156,0.45548989868164064,0.03810684330399676,-0.02624604135100315,-0.0024061400374540713,2.8400001525878906,2019-06-20 16:35:08:951
-10.893450927734374,-2.566544921875,0.42316867065429686,0.0379736852494928,-0.02771077995054673,-0.0024061400374540713,2.844992160797119,2019-06-20 16:35:08:956
-10.876691772460937,-2.548588684082031,0.4770373840332031,0.03863947552201261,-0.02624604135100315,-0.0020066658739421855,2.8499841690063477,2019-06-20 16:35:08:961
-10.871903442382813,-2.5509828491210937,0.42316867065429686,0.03957158190354034,-0.025846567187491266,-0.0022729819829501096,2.855008125305176,2019-06-20 16:35:08:966
-10.905421752929687,-2.5497857666015626,0.4387307434082031,0.04023737217606015,-0.027444463841538806,-0.0020066658739421855,2.8600001335144043,2019-06-20 16:35:08:971
-10.903027587890625,-2.548588684082031,0.4507015686035156,0.039704739958044306,-0.028243412168562583,-0.0016071917104302999,2.864992141723633,2019-06-20 16:35:08:976
-10.8982392578125,-2.5162674560546874,0.4219715881347656,0.039837898012548265,-0.02544709302397938,-0.0016071917104302999,2.8699841499328613,2019-06-20 16:35:08:981
-10.8982392578125,-2.5581653442382812,0.4028182678222656,0.03850631746750865,-0.02704498967802692,-0.0024061400374540713,2.8750081062316895,2019-06-20 16:35:08:986
-10.92816632080078,-2.5306324462890624,0.4411249084472656,0.03877263357651657,-0.026778673569018998,-0.002672456146461995,2.880000114440918,2019-06-20 16:35:08:991
-10.885071350097656,-2.524647033691406,0.4399278259277344,0.038905791631020537,-0.02544709302397938,-0.0024061400374540713,2.8850560188293457,2019-06-20 16:35:08:996
-10.901830505371093,-2.5270411987304686,0.43513949584960937,0.03943842384903638,-0.024914460805963535,-0.0014740336559263382,2.889984130859375,2019-06-20 16:35:09:001
-10.920983825683594,-2.531829528808594,0.4291540832519531,0.03930526579453242,-0.027577621896042768,-0.0010745594924144524,2.895008087158203,2019-06-20 16:35:09:006
-10.875494689941405,-2.5162674560546874,0.44351907348632813,0.03863947552201261,-0.024914460805963535,-0.0022729819829501096,2.9000000953674316,2019-06-20 16:35:09:011
-10.87070635986328,-2.5497857666015626,0.3944386901855469,0.03837315941300468,-0.025846567187491266,-0.002672456146461995,2.90499210357666,2019-06-20 16:35:09:016
-10.914998413085938,-2.5533770141601564,0.4004241027832031,0.03877263357651657,-0.028243412168562583,-0.003205088364477843,2.9099841117858887,2019-06-20 16:35:09:021
-10.922180908203124,-2.5294353637695313,0.4016211853027344,0.03810684330399676,-0.02771077995054673,-0.004536668909517462,2.914976119995117,2019-06-20 16:35:09:026
-10.92696923828125,-2.5294353637695313,0.4530957336425781,0.03757421108598091,-0.025979725241995228,-0.0036045625279897287,2.9200000762939453,2019-06-20 16:35:09:031
-10.916195495605468,-2.534223693847656,0.39922702026367185,0.0379736852494928,-0.026512357460011075,-0.004270352800509538,2.924992084503174,2019-06-20 16:35:09:036
-10.897042175292968,-2.51866162109375,0.41598617553710937,0.03810684330399676,-0.027577621896042768,-0.004270352800509538,2.9299840927124023,2019-06-20 16:35:09:041
-10.881480102539062,-2.5366178588867188,0.4782344665527344,0.03850631746750865,-0.02691183162352296,-0.0050693011275333094,2.934976100921631,2019-06-20 16:35:09:046
-10.874297607421875,-2.5366178588867188,0.4411249084472656,0.03877263357651657,-0.025979725241995228,-0.0057350914000531186,2.940000057220459,2019-06-20 16:35:09:051
-10.910210083007811,-2.531829528808594,0.39683285522460937,0.03730789497697299,-0.02691183162352296,-0.006267723618068967,2.9449920654296875,2019-06-20 16:35:09:056
-10.923377990722656,-2.51866162109375,0.3956357727050781,0.03757421108598091,-0.026645515514515036,-0.006933513890588777,2.949984073638916,2019-06-20 16:35:09:061
-10.918589660644532,-2.533026611328125,0.4016211853027344,0.03770736914048488,-0.025846567187491266,-0.0071998299995967,2.9549760818481445,2019-06-20 16:35:09:066
-10.905421752929687,-2.5114791259765625,0.4195774230957031,0.03770736914048488,-0.026645515514515036,-0.0074661461086046235,2.9600000381469727,2019-06-20 16:35:09:071
-10.88866259765625,-2.5294353637695313,0.41598617553710937,0.03730789497697299,-0.027577621896042768,-0.00786562027211651,2.964992046356201,2019-06-20 16:35:09:076
-10.877888854980469,-2.5306324462890624,0.4135920104980469,0.03757421108598091,-0.027311305787034845,-0.00786562027211651,2.9699840545654297,2019-06-20 16:35:09:081
-10.867115112304687,-2.5545740966796875,0.4399278259277344,0.03730789497697299,-0.02771077995054673,-0.0074661461086046235,2.974976062774658,2019-06-20 16:35:09:086
-10.92696923828125,-2.5845011596679686,0.46147531127929686,0.037840527194988836,-0.029441834659098238,-0.00786562027211651,2.9800000190734863,2019-06-20 16:35:09:091
-10.897042175292968,-2.55696826171875,0.4471103210449219,0.03850631746750865,-0.028376570223066545,-0.007998778326620472,2.984992027282715,2019-06-20 16:35:09:096
-10.86950927734375,-2.5581653442382812,0.4076065979003906,0.03837315941300468,-0.02890920244108239,-0.007599304163108585,2.9899840354919434,2019-06-20 16:35:09:101
-10.88866259765625,-2.5845011596679686,0.43633657836914064,0.036375788595445255,-0.029042360495586353,-0.007599304163108585,2.994976043701172,2019-06-20 16:35:09:106
-10.89943634033203,-2.562953674316406,0.43035116577148436,0.0369084208134611,-0.02797709605955466,-0.008131936381124433,3.0,2019-06-20 16:35:09:111
-10.880283020019531,-2.5545740966796875,0.42436575317382813,0.03757421108598091,-0.027311305787034845,-0.0074661461086046235,3.0049920082092285,2019-06-20 16:35:09:116
-10.901830505371093,-2.560559509277344,0.4135920104980469,0.03810684330399676,-0.026379199405507113,-0.0070666719450927385,3.009984016418457,2019-06-20 16:35:09:121
-10.892253845214844,-2.5653478393554687,0.3824678649902344,0.03837315941300468,-0.02704498967802692,-0.006933513890588777,3.015007972717285,2019-06-20 16:35:09:126
-10.881480102539062,-2.5390120239257814,0.43035116577148436,0.038905791631020537,-0.027577621896042768,-0.006001407509061044,3.0199999809265137,2019-06-20 16:35:09:131
-10.852750122070312,-2.5545740966796875,0.4279570007324219,0.038240001358500725,-0.02811025411405862,-0.006667197781580852,3.024991989135742,2019-06-20 16:35:09:136
-10.904224670410157,-2.5497857666015626,0.46267239379882813,0.03850631746750865,-0.028243412168562583,-0.006800355836084815,3.0299839973449707,2019-06-20 16:35:09:141
-10.901830505371093,-2.53781494140625,0.4578840637207031,0.03810684330399676,-0.02691183162352296,-0.0070666719450927385,3.034976005554199,2019-06-20 16:35:09:146
-10.891056762695312,-2.5581653442382812,0.4650665588378906,0.03757421108598091,-0.027178147732530883,-0.007599304163108585,3.0400002002716064,2019-06-20 16:35:09:151
-10.918589660644532,-2.5581653442382812,0.4530957336425781,0.03837315941300468,-0.02877604438657843,-0.007332988054100662,3.044991970062256,2019-06-20 16:35:09:156
-10.913801330566406,-2.5557711791992186,0.4459132385253906,0.03863947552201261,-0.02890920244108239,-0.0070666719450927385,3.0499839782714844,2019-06-20 16:35:09:161
-10.904224670410157,-2.548588684082031,0.42436575317382813,0.03930526579453242,-0.02811025411405862,-0.007332988054100662,3.054975986480713,2019-06-20 16:35:09:166
-10.89943634033203,-2.5354207763671877,0.46865780639648436,0.03863947552201261,-0.02784393800505069,-0.0077324622176125485,3.06000018119812,2019-06-20 16:35:09:171
-10.895845092773436,-2.5581653442382812,0.4339424133300781,0.03917210774002846,-0.027577621896042768,-0.0070666719450927385,3.0649921894073486,2019-06-20 16:35:09:176
-10.897042175292968,-2.552179931640625,0.4135920104980469,0.03930526579453242,-0.027444463841538806,-0.00653403972707689,3.069984197616577,2019-06-20 16:35:09:181
-10.882677185058593,-2.5593624267578123,0.38605911254882813,0.039837898012548265,-0.027311305787034845,-0.0064008816725729285,3.0749759674072266,2019-06-20 16:35:09:186
-10.895845092773436,-2.5737274169921873,0.4004241027832031,0.03943842384903638,-0.02877604438657843,-0.007332988054100662,3.080000162124634,2019-06-20 16:35:09:191
-10.895845092773436,-2.560559509277344,0.40401535034179686,0.03877263357651657,-0.02691183162352296,-0.008398252490132357,3.0849921703338623,2019-06-20 16:35:09:196
-10.880283020019531,-2.5545740966796875,0.42556283569335934,0.038905791631020537,-0.026379199405507113,-0.0077324622176125485,3.089984178543091,2019-06-20 16:35:09:201
-10.887465515136718,-2.5677420043945314,0.3908474426269531,0.03943842384903638,-0.027444463841538806,-0.00786562027211651,3.095008134841919,2019-06-20 16:35:09:206
-10.893450927734374,-2.5581653442382812,0.39683285522460937,0.039704739958044306,-0.02771077995054673,-0.008265094435628395,3.1000001430511475,2019-06-20 16:35:09:211
-10.905421752929687,-2.5641507568359376,0.41119784545898436,0.039837898012548265,-0.026645515514515036,-0.007599304163108585,3.104992151260376,2019-06-20 16:35:09:216
-10.8790859375,-2.546194519042969,0.42436575317382813,0.040503688285068076,-0.028509728277570506,-0.006933513890588777,3.1099841594696045,2019-06-20 16:35:09:221
-10.863523864746094,-2.5545740966796875,0.4207745056152344,0.03957158190354034,-0.02890920244108239,-0.007599304163108585,3.114976167678833,2019-06-20 16:35:09:226
-10.864720947265624,-2.5270411987304686,0.4123949279785156,0.03943842384903638,-0.027577621896042768,-0.008131936381124433,3.120000123977661,2019-06-20 16:35:09:231
-10.862326782226562,-2.524647033691406,0.45429281616210937,0.03917210774002846,-0.02704498967802692,-0.007998778326620472,3.1249921321868896,2019-06-20 16:35:09:236
-10.906618835449219,-2.5545740966796875,0.4339424133300781,0.03930526579453242,-0.02811025411405862,-0.008131936381124433,3.129984140396118,2019-06-20 16:35:09:241
-10.935348815917969,-2.572530334472656,0.4327453308105469,0.03917210774002846,-0.030107624931618046,-0.008265094435628395,3.1349761486053467,2019-06-20 16:35:09:246
-10.88866259765625,-2.55696826171875,0.4267599182128906,0.03957158190354034,-0.029308676604594276,-0.00786562027211651,3.140000104904175,2019-06-20 16:35:09:251
-10.874297607421875,-2.5545740966796875,0.4518986511230469,0.038905791631020537,-0.028243412168562583,-0.007599304163108585,3.1449921131134033,2019-06-20 16:35:09:256
-10.893450927734374,-2.552179931640625,0.4507015686035156,0.03810684330399676,-0.028243412168562583,-0.006933513890588777,3.149984121322632,2019-06-20 16:35:09:261
-10.883874267578125,-2.5390120239257814,0.45548989868164064,0.03863947552201261,-0.02797709605955466,-0.007599304163108585,3.1549761295318604,2019-06-20 16:35:09:266
-10.891056762695312,-2.5402091064453125,0.43633657836914064,0.03810684330399676,-0.02771077995054673,-0.00786562027211651,3.1600000858306885,2019-06-20 16:35:09:271
-10.883874267578125,-2.5701361694335936,0.40521243286132813,0.03730789497697299,-0.027444463841538806,-0.007998778326620472,3.164992094039917,2019-06-20 16:35:09:276
-10.910210083007811,-2.548588684082031,0.4004241027832031,0.03730789497697299,-0.02811025411405862,-0.008398252490132357,3.1699841022491455,2019-06-20 16:35:09:281
-10.917392578125,-2.5581653442382812,0.43035116577148436,0.03877263357651657,-0.025979725241995228,-0.008398252490132357,3.1750080585479736,2019-06-20 16:35:09:286
-10.912604248046875,-2.5557711791992186,0.4291540832519531,0.03837315941300468,-0.02811025411405862,-0.008398252490132357,3.180000066757202,2019-06-20 16:35:09:291
-10.930560485839843,-2.560559509277344,0.4507015686035156,0.0379736852494928,-0.028642886332074468,-0.007998778326620472,3.1849920749664307,2019-06-20 16:35:09:296
-10.867115112304687,-2.577318664550781,0.4387307434082031,0.038240001358500725,-0.028376570223066545,-0.0077324622176125485,3.189984083175659,2019-06-20 16:35:09:301
-10.874297607421875,-2.5593624267578123,0.42556283569335934,0.0379736852494928,-0.028642886332074468,-0.008265094435628395,3.1949760913848877,2019-06-20 16:35:09:306
-10.882677185058593,-2.5593624267578123,0.4016211853027344,0.03730789497697299,-0.02890920244108239,-0.008664568599140282,3.200000047683716,2019-06-20 16:35:09:311
-10.883874267578125,-2.55696826171875,0.4100007629394531,0.037174736922469025,-0.029308676604594276,-0.007998778326620472,3.2049920558929443,2019-06-20 16:35:09:316
-10.880283020019531,-2.5880924072265623,0.4088036804199219,0.0379736852494928,-0.02877604438657843,-0.007998778326620472,3.209984064102173,2019-06-20 16:35:09:321
-10.906618835449219,-2.5845011596679686,0.4076065979003906,0.03877263357651657,-0.0295749927136022,-0.0074661461086046235,3.2149760723114014,2019-06-20 16:35:09:326
-10.897042175292968,-2.5797128295898437,0.4291540832519531,0.03877263357651657,-0.029042360495586353,-0.0071998299995967,3.2200000286102295,2019-06-20 16:35:09:331
-10.90781591796875,-2.55696826171875,0.45548989868164064,0.038905791631020537,-0.02811025411405862,-0.0070666719450927385,3.224992036819458,2019-06-20 16:35:09:336
-10.875494689941405,-2.5677420043945314,0.4471103210449219,0.03850631746750865,-0.02771077995054673,-0.006933513890588777,3.2299840450286865,2019-06-20 16:35:09:341
-10.89943634033203,-2.5473916015625,0.44950448608398436,0.039038949685524495,-0.02797709605955466,-0.0074661461086046235,3.234976053237915,2019-06-20 16:35:09:346
-10.873100524902343,-2.542603271484375,0.4339424133300781,0.03930526579453242,-0.02797709605955466,-0.00786562027211651,3.240000009536743,2019-06-20 16:35:09:351
-10.885071350097656,-2.55696826171875,0.45429281616210937,0.03850631746750865,-0.02704498967802692,-0.006800355836084815,3.2449920177459717,2019-06-20 16:35:09:356
-10.8982392578125,-2.5449974365234374,0.4147890930175781,0.03837315941300468,-0.027577621896042768,-0.0070666719450927385,3.2499840259552,2019-06-20 16:35:09:361
-10.893450927734374,-2.552179931640625,0.41598617553710937,0.03770736914048488,-0.02691183162352296,-0.006667197781580852,3.2550079822540283,2019-06-20 16:35:09:366
-10.8599326171875,-2.560559509277344,0.41119784545898436,0.03930526579453242,-0.025979725241995228,-0.0064008816725729285,3.259999990463257,2019-06-20 16:35:09:371
-10.873100524902343,-2.5593624267578123,0.36570870971679686,0.03930526579453242,-0.026645515514515036,-0.0074661461086046235,3.2649919986724854,2019-06-20 16:35:09:376
-10.90781591796875,-2.571333251953125,0.39204452514648436,0.038240001358500725,-0.02771077995054673,-0.00786562027211651,3.269984006881714,2019-06-20 16:35:09:381
-10.885071350097656,-2.5677420043945314,0.38007369995117185,0.03863947552201261,-0.02691183162352296,-0.007599304163108585,3.2749760150909424,2019-06-20 16:35:09:386
-10.893450927734374,-2.5497857666015626,0.4028182678222656,0.03917210774002846,-0.026512357460011075,-0.007599304163108585,3.2799999713897705,2019-06-20 16:35:09:391
-10.938940063476561,-2.5593624267578123,0.41119784545898436,0.03997105606705223,-0.02811025411405862,-0.00653403972707689,3.284991979598999,2019-06-20 16:35:09:396
-10.89943634033203,-2.562953674316406,0.4291540832519531,0.039837898012548265,-0.026379199405507113,-0.005868249454557082,3.2899839878082275,2019-06-20 16:35:09:401
-10.876691772460937,-2.566544921875,0.4339424133300781,0.040503688285068076,-0.025979725241995228,-0.006001407509061044,3.2950081825256348,2019-06-20 16:35:09:406
-10.901830505371093,-2.580909912109375,0.40640951538085934,0.04010421412155619,-0.026512357460011075,-0.006001407509061044,3.3000001907348633,2019-06-20 16:35:09:411
-10.88866259765625,-2.5557711791992186,0.46147531127929686,0.03957158190354034,-0.026379199405507113,-0.005335617236541234,3.304992198944092,2019-06-20 16:35:09:416
-10.857538452148438,-2.5689390869140625,0.45548989868164064,0.04037053023056411,-0.02771077995054673,-0.0057350914000531186,3.309983968734741,2019-06-20 16:35:09:421
-10.864720947265624,-2.5438003540039062,0.47344613647460937,0.040503688285068076,-0.027178147732530883,-0.0057350914000531186,3.3149759769439697,2019-06-20 16:35:09:426
-10.903027587890625,-2.552179931640625,0.42316867065429686,0.04010421412155619,-0.026512357460011075,-0.005202459182037272,3.320000171661377,2019-06-20 16:35:09:431
-10.909013000488281,-2.5306324462890624,0.4387307434082031,0.04037053023056411,-0.026512357460011075,-0.005202459182037272,3.3249921798706055,2019-06-20 16:35:09:436
-10.883874267578125,-2.5557711791992186,0.4890082092285156,0.03943842384903638,-0.02784393800505069,-0.004936143073029348,3.329984188079834,2019-06-20 16:35:09:441
-10.883874267578125,-2.5402091064453125,0.4147890930175781,0.03943842384903638,-0.02771077995054673,-0.0050693011275333094,3.3349761962890625,2019-06-20 16:35:09:446
-10.917392578125,-2.546194519042969,0.43035116577148436,0.03877263357651657,-0.02784393800505069,-0.005468775291045195,3.3400001525878906,2019-06-20 16:35:09:451
-10.876691772460937,-2.548588684082031,0.42436575317382813,0.039704739958044306,-0.026512357460011075,-0.005202459182037272,3.344992160797119,2019-06-20 16:35:09:456
-10.894648010253906,-2.534223693847656,0.42316867065429686,0.03863947552201261,-0.02877604438657843,-0.004536668909517462,3.3499841690063477,2019-06-20 16:35:09:461
-10.919786743164062,-2.5449974365234374,0.4147890930175781,0.037840527194988836,-0.02890920244108239,-0.005335617236541234,3.354976177215576,2019-06-20 16:35:09:466
-10.88866259765625,-2.561756591796875,0.3932416076660156,0.03837315941300468,-0.027311305787034845,-0.0050693011275333094,3.3600001335144043,2019-06-20 16:35:09:471
-10.897042175292968,-2.5641507568359376,0.39204452514648436,0.03837315941300468,-0.02784393800505069,-0.0038708786369976524,3.364992141723633,2019-06-20 16:35:09:476
-10.893450927734374,-2.5449974365234374,0.3932416076660156,0.03877263357651657,-0.028376570223066545,-0.004802985018525386,3.3699841499328613,2019-06-20 16:35:09:481
-10.893450927734374,-2.552179931640625,0.45429281616210937,0.03997105606705223,-0.028509728277570506,-0.005335617236541234,3.3750081062316895,2019-06-20 16:35:09:486
-10.901830505371093,-2.531829528808594,0.42316867065429686,0.03810684330399676,-0.02771077995054673,-0.004936143073029348,3.380000114440918,2019-06-20 16:35:09:491
-10.897042175292968,-2.5210557861328122,0.40640951538085934,0.0379736852494928,-0.02811025411405862,-0.004669826964021424,3.3849921226501465,2019-06-20 16:35:09:496
-10.893450927734374,-2.5270411987304686,0.3836649475097656,0.0369084208134611,-0.02811025411405862,-0.004802985018525386,3.390048027038574,2019-06-20 16:35:09:501
-10.8790859375,-2.524647033691406,0.46386947631835934,0.03730789497697299,-0.026379199405507113,-0.006134565563565005,3.395008087158203,2019-06-20 16:35:09:506
-10.886268432617188,-2.560559509277344,0.4339424133300781,0.038240001358500725,-0.027311305787034845,-0.007332988054100662,3.4000000953674316,2019-06-20 16:35:09:511
-10.905421752929687,-2.510282043457031,0.4866140441894531,0.03850631746750865,-0.027178147732530883,-0.006800355836084815,3.40499210357666,2019-06-20 16:35:09:516
-10.893450927734374,-2.5019024658203124,0.4219715881347656,0.0379736852494928,-0.028376570223066545,-0.004936143073029348,3.4099841117858887,2019-06-20 16:35:09:521
-10.895845092773436,-2.5390120239257814,0.4219715881347656,0.0379736852494928,-0.02784393800505069,-0.005202459182037272,3.414976119995117,2019-06-20 16:35:09:526
-10.892253845214844,-2.5294353637695313,0.3956357727050781,0.03757421108598091,-0.028509728277570506,-0.006267723618068967,3.4200000762939453,2019-06-20 16:35:09:531
-10.909013000488281,-2.5473916015625,0.41598617553710937,0.03730789497697299,-0.02890920244108239,-0.00653403972707689,3.424992084503174,2019-06-20 16:35:09:536
-10.893450927734374,-2.5090849609375,0.4387307434082031,0.03730789497697299,-0.02811025411405862,-0.00653403972707689,3.4299840927124023,2019-06-20 16:35:09:541
-10.885071350097656,-2.5306324462890624,0.43753366088867185,0.0369084208134611,-0.02890920244108239,-0.0077324622176125485,3.434976100921631,2019-06-20 16:35:09:546
-10.909013000488281,-2.5294353637695313,0.4207745056152344,0.03744105303147695,-0.028642886332074468,-0.008398252490132357,3.440000057220459,2019-06-20 16:35:09:551
-10.901830505371093,-2.53781494140625,0.3932416076660156,0.0379736852494928,-0.028642886332074468,-0.008664568599140282,3.4449920654296875,2019-06-20 16:35:09:556
-10.912604248046875,-2.5737274169921873,0.3836649475097656,0.03850631746750865,-0.028376570223066545,-0.0074661461086046235,3.449984073638916,2019-06-20 16:35:09:561
-10.901830505371093,-2.580909912109375,0.4016211853027344,0.03744105303147695,-0.029308676604594276,-0.0070666719450927385,3.4549760818481445,2019-06-20 16:35:09:566
-10.889859680175782,-2.5581653442382812,0.4315482482910156,0.03770736914048488,-0.029175518550090315,-0.0077324622176125485,3.4600000381469727,2019-06-20 16:35:09:571
-10.8599326171875,-2.560559509277344,0.40640951538085934,0.03730789497697299,-0.02797709605955466,-0.0077324622176125485,3.464992046356201,2019-06-20 16:35:09:576
-10.903027587890625,-2.5689390869140625,0.39683285522460937,0.03730789497697299,-0.02771077995054673,-0.008531410544636318,3.4699840545654297,2019-06-20 16:35:09:581
-10.905421752929687,-2.5390120239257814,0.43035116577148436,0.03770736914048488,-0.028376570223066545,-0.007599304163108585,3.474976062774658,2019-06-20 16:35:09:586
-10.885071350097656,-2.574924499511719,0.4004241027832031,0.03863947552201261,-0.028376570223066545,-0.0070666719450927385,3.4800000190734863,2019-06-20 16:35:09:591
-10.886268432617188,-2.5473916015625,0.4483074035644531,0.03837315941300468,-0.02784393800505069,-0.006134565563565005,3.484992027282715,2019-06-20 16:35:09:596
-10.89943634033203,-2.533026611328125,0.42436575317382813,0.03850631746750865,-0.028642886332074468,-0.007599304163108585,3.4899840354919434,2019-06-20 16:35:09:601
-10.8790859375,-2.5438003540039062,0.44471615600585934,0.03850631746750865,-0.028642886332074468,-0.008131936381124433,3.494976043701172,2019-06-20 16:35:09:606
-10.891056762695312,-2.5833040771484375,0.38605911254882813,0.03863947552201261,-0.028376570223066545,-0.008398252490132357,3.5,2019-06-20 16:35:09:611
-10.885071350097656,-2.542603271484375,0.44351907348632813,0.03917210774002846,-0.028509728277570506,-0.007998778326620472,3.5049920082092285,2019-06-20 16:35:09:616
-10.892253845214844,-2.5414061889648436,0.45429281616210937,0.039038949685524495,-0.02877604438657843,-0.00786562027211651,3.509984016418457,2019-06-20 16:35:09:621
-10.865918029785156,-2.5449974365234374,0.42556283569335934,0.03930526579453242,-0.02771077995054673,-0.007332988054100662,3.5149760246276855,2019-06-20 16:35:09:626
-10.906618835449219,-2.5509828491210937,0.3884532775878906,0.03850631746750865,-0.027577621896042768,-0.008531410544636318,3.5199999809265137,2019-06-20 16:35:09:631
-10.914998413085938,-2.5366178588867188,0.3944386901855469,0.03837315941300468,-0.027577621896042768,-0.008265094435628395,3.524991989135742,2019-06-20 16:35:09:636
-10.92816632080078,-2.5545740966796875,0.37887661743164064,0.03837315941300468,-0.02611288329649919,-0.00786562027211651,3.5299839973449707,2019-06-20 16:35:09:641
-10.914998413085938,-2.5581653442382812,0.39204452514648436,0.039038949685524495,-0.026778673569018998,-0.007998778326620472,3.535008192062378,2019-06-20 16:35:09:646
-10.929363403320313,-2.561756591796875,0.44351907348632813,0.03943842384903638,-0.02797709605955466,-0.008131936381124433,3.5400002002716064,2019-06-20 16:35:09:651
-10.917392578125,-2.5306324462890624,0.46267239379882813,0.03943842384903638,-0.02771077995054673,-0.00786562027211651,3.544991970062256,2019-06-20 16:35:09:656
-10.905421752929687,-2.5641507568359376,0.4602782287597656,0.03917210774002846,-0.02691183162352296,-0.0074661461086046235,3.5499839782714844,2019-06-20 16:35:09:661
-10.887465515136718,-2.5438003540039062,0.4387307434082031,0.03930526579453242,-0.02811025411405862,-0.007998778326620472,3.554975986480713,2019-06-20 16:35:09:666
-10.910210083007811,-2.5545740966796875,0.41598617553710937,0.04010421412155619,-0.028509728277570506,-0.008664568599140282,3.56000018119812,2019-06-20 16:35:09:671
-10.868312194824219,-2.572530334472656,0.44471615600585934,0.04116947855758789,-0.025713409132987305,-0.008664568599140282,3.5649921894073486,2019-06-20 16:35:09:676
-10.89943634033203,-2.5545740966796875,0.4770373840332031,0.039837898012548265,-0.02691183162352296,-0.007998778326620472,3.569984197616577,2019-06-20 16:35:09:681
-10.937742980957031,-2.53781494140625,0.45548989868164064,0.039704739958044306,-0.028642886332074468,-0.006933513890588777,3.5750081539154053,2019-06-20 16:35:09:686
-10.916195495605468,-2.5497857666015626,0.40401535034179686,0.03957158190354034,-0.02691183162352296,-0.0077324622176125485,3.580000162124634,2019-06-20 16:35:09:691
-10.885071350097656,-2.5497857666015626,0.44950448608398436,0.03943842384903638,-0.027178147732530883,-0.008131936381124433,3.5849921703338623,2019-06-20 16:35:09:696
-10.89943634033203,-2.5414061889648436,0.4279570007324219,0.039038949685524495,-0.027311305787034845,-0.008797726653644243,3.589984178543091,2019-06-20 16:35:09:701
-10.90781591796875,-2.546194519042969,0.4291540832519531,0.04023737217606015,-0.02784393800505069,-0.008930884708148205,3.5949761867523193,2019-06-20 16:35:09:706
-10.8790859375,-2.5258441162109375,0.43513949584960937,0.03997105606705223,-0.02704498967802692,-0.008664568599140282,3.6000001430511475,2019-06-20 16:35:09:711
-10.905421752929687,-2.5509828491210937,0.4327453308105469,0.03943842384903638,-0.025979725241995228,-0.008664568599140282,3.604992151260376,2019-06-20 16:35:09:716
-10.929363403320313,-2.542603271484375,0.4207745056152344,0.04037053023056411,-0.02704498967802692,-0.009197200817156128,3.6099841594696045,2019-06-20 16:35:09:721
