ACCELEROMETER X (m/s²),ACCELEROMETER Y (m/s²),ACCELEROMETER Z (m/s²),GYROSCOPE X (rad/s),GYROSCOPE Y (rad/s),GYROSCOPE Z (rad/s),Time since start in ms ,YYYY-MO-DD HH-MI-SS_SSS
7.556583404541016,2.5288368225097657,0.07661328125,0.03690651914999522,-0.023183187634978855,-0.03876824352190714,0.0,2019-06-21 13:10:30:923
7.588904632568359,2.530033905029297,0.0550657958984375,0.03783862553152295,-0.021718449035435277,-0.03890140157641111,0.0048639774322509766,2019-06-21 13:10:30:927
7.567357147216796,2.5336251525878906,0.12449658203125,0.03743915136801107,-0.020919500708411504,-0.03770297908587545,0.009984016418457031,2019-06-21 13:10:30:933
7.587707550048828,2.5144718322753907,0.11851116943359374,0.03757230942251503,-0.021718449035435277,-0.03730350492236356,0.014847993850708008,2019-06-21 13:10:30:937
7.587707550048828,2.5491872253417966,0.0574599609375,0.0383712577495388,-0.02131897487192339,-0.03663771464984375,0.019968032836914062,2019-06-21 13:10:30:943
7.5984812927246095,2.539610565185547,0.08379577636718749,0.03690651914999522,-0.019055287945356037,-0.03637139854083583,0.025088071823120117,2019-06-21 13:10:30:948
7.588904632568359,2.5084864196777343,0.100554931640625,0.0355749386049556,-0.018655813781844152,-0.03663771464984375,0.029952049255371094,2019-06-21 13:10:30:953
7.573342559814453,2.4917272644042967,0.08020452880859374,0.03490914833243579,-0.018256339618332267,-0.036770872704347715,0.03507208824157715,2019-06-21 13:10:30:958
7.566160064697265,2.512077667236328,0.14245281982421876,0.03477599027793183,-0.019454762108867922,-0.03690403075885167,0.039936065673828125,2019-06-21 13:10:30:962
7.544612579345703,2.5048951721191406,0.18794195556640625,0.03530862249594768,-0.019987394326883772,-0.03703718881335564,0.04505610466003418,2019-06-21 13:10:30:968
7.536233001708984,2.5288368225097657,0.25856982421874997,0.03530862249594768,-0.020786342653907542,-0.03570560826831602,0.049920082092285156,2019-06-21 13:10:30:972
7.529050506591797,2.5384134826660154,0.25976690673828123,0.03411020000541202,-0.02131897487192339,-0.035172976050300175,0.05504012107849121,2019-06-21 13:10:30:978
7.535035919189453,2.542004730224609,0.24779608154296875,0.03224598724235655,-0.023982135962002625,-0.034507185777780364,0.05990409851074219,2019-06-21 13:10:30:982
7.505108856201172,2.5635522155761716,0.26216107177734377,0.03144703891533278,-0.02611266483406602,-0.03370823745075659,0.06502389907836914,2019-06-21 13:10:30:988
7.507503021240234,2.5288368225097657,0.24540191650390625,0.03144703891533278,-0.02531371650704225,-0.031844024687701124,0.06988811492919922,2019-06-21 13:10:30:992
7.517079681396484,2.545595977783203,0.2106865234375,0.03224598724235655,-0.026778455106585827,-0.03024612803365358,0.07500791549682617,2019-06-21 13:10:30:998
7.491940948486328,2.5767201232910155,0.2130806884765625,0.0317133550243407,-0.027577403433609596,-0.029979811924645657,0.07987213134765625,2019-06-21 13:10:31:002
7.519473846435547,2.5898880310058594,0.215474853515625,0.03224598724235655,-0.02824319370612941,-0.028914547488613964,0.0849919319152832,2019-06-21 13:10:31:008
7.563765899658203,2.5910851135253905,0.19751861572265625,0.031979671133348625,-0.029441616196665066,-0.027316650834566417,0.08985590934753418,2019-06-21 13:10:31:012
7.5398242492675775,2.544398895263672,0.1460440673828125,0.03144703891533278,-0.029175300087657143,-0.02505296390799907,0.09497594833374023,2019-06-21 13:10:31:018
7.521868011474609,2.5144718322753907,0.12928491210937498,0.0317133550243407,-0.029574774251169028,-0.023987699471967376,0.09983992576599121,2019-06-21 13:10:31:022
7.578130889892578,2.5228514099121093,0.14843823242187498,0.03224598724235655,-0.030107406469184875,-0.023455067253951523,0.10495996475219727,2019-06-21 13:10:31:028
7.563765899658203,2.510880584716797,0.10534326171875,0.031047564751820897,-0.03130582895972053,-0.023055593090439638,0.11008000373840332,2019-06-21 13:10:31:033
7.56137173461914,2.458208953857422,0.13766448974609374,0.030914406697316935,-0.031172670905216568,-0.02438717363547926,0.1149439811706543,2019-06-21 13:10:31:037
7.557780487060547,2.4282818908691404,0.1460440673828125,0.03184651307884467,-0.031172670905216568,-0.02385454141746341,0.12006402015686035,2019-06-21 13:10:31:043
7.570948394775391,2.3947635803222656,0.10534326171875,0.031047564751820897,-0.030240564523688836,-0.023055593090439638,0.12492799758911133,2019-06-21 13:10:31:047
7.610452117919921,2.372019012451172,0.11252575683593749,0.0327786194603724,-0.030240564523688836,-0.024786647798991146,0.13004803657531738,2019-06-21 13:10:31:053
7.603269622802734,2.3552598571777343,0.061051208496093745,0.03371072584190014,-0.031172670905216568,-0.027316650834566417,0.13491201400756836,2019-06-21 13:10:31:057
7.597284210205078,2.3684277648925782,0.12449658203125,0.033843883896404095,-0.030373722578192798,-0.027982441107086233,0.14003205299377441,2019-06-21 13:10:31:063
7.623620025634765,2.3660335998535156,0.07781036376953125,0.03397704195090806,-0.03183846117773638,-0.029979811924645657,0.1448960304260254,2019-06-21 13:10:31:067
7.614043365478516,2.3516686096191406,0.08020452880859374,0.034642832223427865,-0.02970793230567299,-0.03277613106922886,0.15001606941223145,2019-06-21 13:10:31:073
7.634393768310547,2.3325152893066408,0.08259869384765625,0.03504230638693975,-0.02970793230567299,-0.03397455355976452,0.15488004684448242,2019-06-21 13:10:31:077
7.648758758544922,2.344486114501953,0.08618994140625,0.03624072887747541,-0.028642667869641297,-0.0354392921593081,0.16000008583068848,2019-06-21 13:10:31:083
7.617634613037109,2.345683197021484,0.023941650390625,0.036507044986483335,-0.02890898397864922,-0.03770297908587545,0.16486406326293945,2019-06-21 13:10:31:087
7.629605438232422,2.378004425048828,0.037109558105468746,0.036507044986483335,-0.027311087324601673,-0.040232982121450725,0.1699841022491455,2019-06-21 13:10:31:093
7.6272112731933595,2.3851869201660154,0.052671630859375,0.03717283525900315,-0.02797687759712149,-0.04156456266649034,0.17484807968139648,2019-06-21 13:10:31:097
7.597284210205078,2.382792755126953,0.061051208496093745,0.03823809969503484,-0.027311087324601673,-0.04356193348404977,0.17996811866760254,2019-06-21 13:10:31:103
7.579327972412109,2.397157745361328,0.06464245605468749,0.03930336413106653,-0.02544687456154621,-0.044094565702065616,0.1850879192352295,2019-06-21 13:10:31:108
7.575736724853515,2.3995519104003904,0.12449658203125,0.03943652218557049,-0.02344950374398678,-0.04582562041061712,0.18995189666748047,2019-06-21 13:10:31:113
7.5841163024902345,2.417508148193359,0.13287615966796876,0.03863757385854672,-0.022517397362459047,-0.04622509457412901,0.19507193565368652,2019-06-21 13:10:31:118
7.578130889892578,2.4270848083496093,0.1173140869140625,0.03823809969503484,-0.02265055541696301,-0.04755667511916863,0.1999359130859375,2019-06-21 13:10:31:122
7.572145477294922,2.431873138427734,0.138861572265625,0.03850441580404276,-0.022251081253451124,-0.048222465391688445,0.20505595207214355,2019-06-21 13:10:31:128
7.573342559814453,2.4414497985839843,0.14724114990234374,0.03943652218557049,-0.021585290980931315,-0.04955404593672806,0.20991992950439453,2019-06-21 13:10:31:132
7.572145477294922,2.467785614013672,0.1268907470703125,0.038104941640530875,-0.023316345689482817,-0.04848878150069637,0.21503996849060059,2019-06-21 13:10:31:138
7.570948394775391,2.4426468811035154,0.09935784912109374,0.03717283525900315,-0.023183187634978855,-0.048621939555200326,0.21990394592285156,2019-06-21 13:10:31:142
7.576933807373047,2.4378585510253905,0.16639447021484374,0.03783862553152295,-0.023316345689482817,-0.04955404593672806,0.22502398490905762,2019-06-21 13:10:31:148
7.562568817138672,2.4366614685058594,0.081401611328125,0.03783862553152295,-0.022251081253451124,-0.05035299426375183,0.2298879623413086,2019-06-21 13:10:31:152
7.56137173461914,2.4270848083496093,0.12090533447265625,0.03690651914999522,-0.023848977907498663,-0.05075246842726371,0.23500800132751465,2019-06-21 13:10:31:158
7.556583404541016,2.416311065673828,0.12210241699218749,0.037971783586026917,-0.023183187634978855,-0.05168457480879145,0.23987197875976562,2019-06-21 13:10:31:162
7.578130889892578,2.416311065673828,0.12090533447265625,0.037305993313507105,-0.024381610125514517,-0.05155141675428749,0.24499201774597168,2019-06-21 13:10:31:168
7.624817108154296,2.421099395751953,0.10414617919921874,0.03717283525900315,-0.023050029580474894,-0.05195089091779937,0.24985599517822266,2019-06-21 13:10:31:172
7.603269622802734,2.4282818908691404,0.15202947998046876,0.0366402030409873,-0.02278371347146697,-0.053681945626350876,0.2549760341644287,2019-06-21 13:10:31:178
7.5841163024902345,2.431873138427734,0.11851116943359374,0.03584125471396352,-0.022517397362459047,-0.05448089395337465,0.2598400115966797,2019-06-21 13:10:31:182
7.557780487060547,2.4414497985839843,0.12329949951171874,0.03624072887747541,-0.022517397362459047,-0.05421457784436672,0.26496005058288574,2019-06-21 13:10:31:188
7.585313385009766,2.4246906433105466,0.1173140869140625,0.03690651914999522,-0.02344950374398678,-0.05567931644391031,0.2700800895690918,2019-06-21 13:10:31:193
7.564962982177734,2.4366614685058594,0.12928491210937498,0.0366402030409873,-0.02358266179849074,-0.05687773893444596,0.2749440670013428,2019-06-21 13:10:31:197
7.5984812927246095,2.429478973388672,0.071824951171875,0.03597441276846748,-0.02344950374398678,-0.05687773893444596,0.28006410598754883,2019-06-21 13:10:31:203
7.603269622802734,2.4606031188964845,0.1077374267578125,0.03490914833243579,-0.023050029580474894,-0.05687773893444596,0.2849280834197998,2019-06-21 13:10:31:207
7.581722137451171,2.4785593566894533,0.10175201416015625,0.033843883896404095,-0.0219847651444432,-0.05701089698894993,0.29004812240600586,2019-06-21 13:10:31:213
7.5541892395019525,2.5048951721191406,0.090978271484375,0.03504230638693975,-0.022117923198947162,-0.05607879060742219,0.29491209983825684,2019-06-21 13:10:31:217
7.545809661865234,2.515668914794922,0.10175201416015625,0.03530862249594768,-0.02344950374398678,-0.05581247449841427,0.3000319004058838,2019-06-21 13:10:31:223
7.56137173461914,2.539610565185547,0.15202947998046876,0.03437651611441994,-0.02265055541696301,-0.05581247449841427,0.30489611625671387,2019-06-21 13:10:31:227
7.5553863220214845,2.5192601623535156,0.14364990234375,0.03224598724235655,-0.022117923198947162,-0.05647826477093408,0.3100159168243408,2019-06-21 13:10:31:233
7.527853424072266,2.501303924560547,0.17118280029296876,0.03251230335136447,-0.02358266179849074,-0.05541300033490239,0.3148801326751709,2019-06-21 13:10:31:237
7.5410213317871095,2.5204572448730467,0.1508323974609375,0.031580196969836744,-0.023848977907498663,-0.05527984228039842,0.31999993324279785,2019-06-21 13:10:31:243
7.5697513122558595,2.5048951721191406,0.17118280029296876,0.03051493253380505,-0.023848977907498663,-0.05581247449841427,0.32486391067504883,2019-06-21 13:10:31:247
7.567357147216796,2.4941214294433594,0.19033612060546876,0.030781248642812974,-0.024115294016506587,-0.05434773589887068,0.3299839496612549,2019-06-21 13:10:31:253
7.5829192199707025,2.486938934326172,0.12569366455078124,0.029449668097773354,-0.02464792623452244,-0.05461405200787862,0.33484792709350586,2019-06-21 13:10:31:257
7.567357147216796,2.4618002014160156,0.14724114990234374,0.0317133550243407,-0.025180558452538287,-0.054747210062382576,0.3399679660797119,2019-06-21 13:10:31:263
7.578130889892578,2.4270848083496093,0.08379577636718749,0.03251230335136447,-0.024914242343530364,-0.05448089395337465,0.34508800506591797,2019-06-21 13:10:31:268
7.585313385009766,2.4127198181152343,0.0981607666015625,0.03224598724235655,-0.02451476818001848,-0.0550135261713905,0.34995198249816895,2019-06-21 13:10:31:273
7.586510467529297,2.387581085205078,0.11252575683593749,0.03251230335136447,-0.024248452071010555,-0.0550135261713905,0.355072021484375,2019-06-21 13:10:31:278
7.592495880126953,2.406734405517578,0.0981607666015625,0.033444409732892214,-0.02344950374398678,-0.055945632552918234,0.359935998916626,2019-06-21 13:10:31:282
7.5829192199707025,2.4079314880371094,0.10654034423828125,0.033444409732892214,-0.02265055541696301,-0.0578098453159737,0.36505603790283203,2019-06-21 13:10:31:288
7.575736724853515,2.4091285705566405,0.16759155273437498,0.03517546444144371,-0.02145213292642735,-0.06007353224254105,0.369920015335083,2019-06-21 13:10:31:292
7.58052505493164,2.3540627746582032,0.14724114990234374,0.03570809665945956,-0.022916871525970932,-0.06153827084208462,0.37504005432128906,2019-06-21 13:10:31:298
7.573342559814453,2.3983548278808593,0.1412557373046875,0.03677336109549126,-0.021718449035435277,-0.06260353527811632,0.37990403175354004,2019-06-21 13:10:31:302
7.602072540283203,2.382792755126953,0.13766448974609374,0.036107570822971446,-0.02065318459940358,-0.06393511582315595,0.3850240707397461,2019-06-21 13:10:31:308
7.572145477294922,2.362442352294922,0.12569366455078124,0.03677336109549126,-0.023183187634978855,-0.06539985442269952,0.38988804817199707,2019-06-21 13:10:31:312
7.563765899658203,2.3696248474121093,0.110131591796875,0.03743915136801107,-0.022384239307955085,-0.06686459302224311,0.3950080871582031,2019-06-21 13:10:31:318
7.547006744384765,2.3708219299316404,0.11372283935546874,0.03863757385854672,-0.022916871525970932,-0.0689951218943065,0.3998720645904541,2019-06-21 13:10:31:322
7.5829192199707025,2.4079314880371094,0.0957666015625,0.038903889967554645,-0.02185160708993924,-0.07085933465736197,0.40499210357666016,2019-06-21 13:10:31:328
7.593692962646484,2.431873138427734,0.090978271484375,0.03970283829457842,-0.020786342653907542,-0.07165828298438573,0.40985608100891113,2019-06-21 13:10:31:332
7.594890045166015,2.446238128662109,0.09337243652343749,0.042232841330153696,-0.018922129890852075,-0.07219091520240159,0.4149761199951172,2019-06-21 13:10:31:338
7.579327972412109,2.5048951721191406,0.07062786865234374,0.04249915743916162,-0.018788971836348114,-0.07378881185644913,0.42009592056274414,2019-06-21 13:10:31:343
7.558977569580078,2.536019317626953,0.100554931640625,0.04316494771168143,-0.019055287945356037,-0.07485407629248082,0.4249598979949951,2019-06-21 13:10:31:348
7.543415496826172,2.570734710693359,0.119708251953125,0.0428986316026735,-0.020253710435891695,-0.07325617963843328,0.43007993698120117,2019-06-21 13:10:31:353
7.567357147216796,2.5898880310058594,0.1556207275390625,0.04276547354816954,-0.022117923198947162,-0.07312302158392932,0.43494391441345215,2019-06-21 13:10:31:357
7.550597991943359,2.607844268798828,0.20709527587890625,0.04196652522114577,-0.023050029580474894,-0.0724572313114095,0.4400639533996582,2019-06-21 13:10:31:363
7.563765899658203,2.599464691162109,0.1556207275390625,0.04196652522114577,-0.02145213292642735,-0.07099249271186593,0.4449279308319092,2019-06-21 13:10:31:367
7.5398242492675775,2.610238433837891,0.1412557373046875,0.04209968327564973,-0.020253710435891695,-0.06926143800331443,0.45004796981811523,2019-06-21 13:10:31:373
7.552992156982421,2.6006617736816406,0.12090533447265625,0.041567051057633884,-0.020253710435891695,-0.06673143496773914,0.4549119472503662,2019-06-21 13:10:31:377
7.572145477294922,2.603055938720703,0.14724114990234374,0.04170020911213785,-0.022916871525970932,-0.06553301247720349,0.46003198623657227,2019-06-21 13:10:31:383
7.600875457763672,2.607844268798828,0.13287615966796876,0.040768102730610115,-0.02358266179849074,-0.06366879971414802,0.46489596366882324,2019-06-21 13:10:31:387
7.5697513122558595,2.5958734436035154,0.15202947998046876,0.040634944676106156,-0.02265055541696301,-0.06153827084208462,0.4700160026550293,2019-06-21 13:10:31:393
7.58052505493164,2.574325958251953,0.1508323974609375,0.042365999384657654,-0.024115294016506587,-0.06007353224254105,0.4748799800872803,2019-06-21 13:10:31:397
7.58052505493164,2.621012176513672,0.13766448974609374,0.041433893003129926,-0.023848977907498663,-0.059141425861013314,0.48000001907348633,2019-06-21 13:10:31:403
7.586510467529297,2.626997589111328,0.12808782958984374,0.041167576894122,-0.023715819852994702,-0.05701089698894993,0.4848639965057373,2019-06-21 13:10:31:407
7.544612579345703,2.6533334045410157,0.13048199462890625,0.04103441883961804,-0.02278371347146697,-0.05541300033490239,0.48998403549194336,2019-06-21 13:10:31:413
7.573342559814453,2.652136322021484,0.11132867431640625,0.041433893003129926,-0.02344950374398678,-0.051418258699783524,0.49484801292419434,2019-06-21 13:10:31:417
7.563765899658203,2.6880487976074217,0.09696368408203125,0.04050178662160219,-0.024115294016506587,-0.048222465391688445,0.4999680519104004,2019-06-21 13:10:31:423
7.570948394775391,2.707202117919922,0.12090533447265625,0.040768102730610115,-0.02464792623452244,-0.04662456873764089,0.5050880908966064,2019-06-21 13:10:31:428
7.544612579345703,2.7107933654785157,0.13766448974609374,0.03850441580404276,-0.025713190670554133,-0.04342877542954581,0.5099520683288574,2019-06-21 13:10:31:433
7.535035919189453,2.7287496032714844,0.1412557373046875,0.03823809969503484,-0.026512138997577903,-0.03876824352190714,0.5150721073150635,2019-06-21 13:10:31:438
7.5398242492675775,2.735932098388672,0.1460440673828125,0.037971783586026917,-0.02717792927009771,-0.036770872704347715,0.5199360847473145,2019-06-21 13:10:31:442
7.521868011474609,2.7479029235839842,0.14724114990234374,0.03703967720449918,-0.025979506779562057,-0.03224349885121301,0.5250561237335205,2019-06-21 13:10:31:448
7.5398242492675775,2.709596282958984,0.1604090576171875,0.0355749386049556,-0.025979506779562057,-0.027449808889070386,0.5299201011657715,2019-06-21 13:10:31:452
7.560174652099609,2.7263554382324218,0.158014892578125,0.03357756778739617,-0.027311087324601673,-0.025452438071510954,0.5350399017333984,2019-06-21 13:10:31:458
7.55179507446289,2.694034210205078,0.1460440673828125,0.03357756778739617,-0.02890898397864922,-0.021857170599903983,0.5399041175842285,2019-06-21 13:10:31:462
7.536233001708984,2.6916400451660154,0.13048199462890625,0.03211282918785259,-0.028642667869641297,-0.019194009509824743,0.5450239181518555,2019-06-21 13:10:31:468
7.525459259033203,2.6617129821777343,0.138861572265625,0.030914406697316935,-0.02904214203315318,-0.01599821620172966,0.5498881340026855,2019-06-21 13:10:31:472
7.530247589111328,2.652136322021484,0.1699857177734375,0.03118072280632486,-0.029308458142161105,-0.01333505511165042,0.5550079345703125,2019-06-21 13:10:31:478
7.533838836669922,2.6437567443847656,0.1268907470703125,0.030781248642812974,-0.029574774251169028,-0.009473471531035524,0.5598719120025635,2019-06-21 13:10:31:482
7.536233001708984,2.6006617736816406,0.12808782958984374,0.028783877825253542,-0.029175300087657143,-0.0077424168224840195,0.5649919509887695,2019-06-21 13:10:31:488
7.567357147216796,2.5575668029785157,0.14484698486328124,0.028384403661741657,-0.03064003868720072,-0.006943468495460248,0.5698559284210205,2019-06-21 13:10:31:492
7.55179507446289,2.558763885498047,0.13766448974609374,0.02785177144372581,-0.030373722578192798,-0.0064108362774444,0.5749759674072266,2019-06-21 13:10:31:498
7.543415496826172,2.536019317626953,0.12449658203125,0.02851756171624562,-0.030107406469184875,-0.005878204059428553,0.5798399448394775,2019-06-21 13:10:31:502
7.550597991943359,2.512077667236328,0.14724114990234374,0.02918335198876543,-0.02890898397864922,-0.00428030740538101,0.5849599838256836,2019-06-21 13:10:31:508
7.570948394775391,2.5180630798339845,0.1316790771484375,0.027984929498229772,-0.02970793230567299,-0.0036145171328612,0.5900800228118896,2019-06-21 13:10:31:513
7.562568817138672,2.4893330993652345,0.119708251953125,0.028917035879757504,-0.028642667869641297,-0.002948726860341391,0.5949440002441406,2019-06-21 13:10:31:517
7.588904632568359,2.486938934326172,0.0981607666015625,0.029050193934261465,-0.027710561488113558,-0.0034813590783572385,0.6000640392303467,2019-06-21 13:10:31:523
7.576933807373047,2.467785614013672,0.12449658203125,0.029050193934261465,-0.030240564523688836,-0.003215042969349315,0.6049280166625977,2019-06-21 13:10:31:527
7.58052505493164,2.4761651916503906,0.114919921875,0.028118087552733734,-0.02970793230567299,-0.0030818849148453527,0.6100480556488037,2019-06-21 13:10:31:533
7.588904632568359,2.4426468811035154,0.11372283935546874,0.028783877825253542,-0.029441616196665066,-0.003215042969349315,0.6149120330810547,2019-06-21 13:10:31:537
7.567357147216796,2.429478973388672,0.10294909667968749,0.029449668097773354,-0.029441616196665066,-0.003215042969349315,0.6200320720672607,2019-06-21 13:10:31:543
7.590101715087891,2.4342673034667968,0.09935784912109374,0.029316510043269392,-0.029574774251169028,-0.004013991296373086,0.6248960494995117,2019-06-21 13:10:31:547
7.587707550048828,2.400748992919922,0.1651973876953125,0.029316510043269392,-0.029308458142161105,-0.004812939623396858,0.6300160884857178,2019-06-21 13:10:31:553
7.58052505493164,2.387581085205078,0.1508323974609375,0.029849142261285242,-0.029441616196665066,-0.006144520168436476,0.6348800659179688,2019-06-21 13:10:31:557
7.552992156982421,2.382792755126953,0.1460440673828125,0.030914406697316935,-0.028376351760633373,-0.007342942658972134,0.6400001049041748,2019-06-21 13:10:31:563
7.599678375244141,2.382792755126953,0.10654034423828125,0.030115458370293165,-0.027710561488113558,-0.008674523204011752,0.6448640823364258,2019-06-21 13:10:31:567
7.594890045166015,2.378004425048828,0.09935784912109374,0.029582826152277315,-0.027444245379105635,-0.010538735967067218,0.6499841213226318,2019-06-21 13:10:31:573
7.593692962646484,2.333712371826172,0.119708251953125,0.030914406697316935,-0.02704477121559375,-0.011870316512106838,0.6548480987548828,2019-06-21 13:10:31:577
7.588904632568359,2.333712371826172,0.138861572265625,0.03184651307884467,-0.027577403433609596,-0.01400084538417023,0.6599678993225098,2019-06-21 13:10:31:583
7.5841163024902345,2.3325152893066408,0.0790074462890625,0.03251230335136447,-0.028376351760633373,-0.016264532310737583,0.6650879383087158,2019-06-21 13:10:31:588
7.590101715087891,2.3229386291503906,0.08738702392578125,0.033444409732892214,-0.026778455106585827,-0.018528219237304935,0.6699519157409668,2019-06-21 13:10:31:593
7.588904632568359,2.3133619689941405,0.061051208496093745,0.03424335805991598,-0.02464792623452244,-0.020925064218376248,0.6750719547271729,2019-06-21 13:10:31:598
7.593692962646484,2.315756134033203,0.08020452880859374,0.03477599027793183,-0.025979506779562057,-0.023987699471967376,0.6799359321594238,2019-06-21 13:10:31:602
7.575736724853515,2.2750553283691404,0.081401611328125,0.03530862249594768,-0.026645297052081865,-0.026917176671054532,0.6850559711456299,2019-06-21 13:10:31:608
7.5841163024902345,2.2750553283691404,0.1268907470703125,0.03504230638693975,-0.025713190670554133,-0.02944717970662981,0.6899199485778809,2019-06-21 13:10:31:612
7.592495880126953,2.2702669982910155,0.13048199462890625,0.03570809665945956,-0.02451476818001848,-0.03197718274220509,0.6950399875640869,2019-06-21 13:10:31:618
7.616437530517578,2.266675750732422,0.1173140869140625,0.03677336109549126,-0.02358266179849074,-0.03464034383228433,0.6999039649963379,2019-06-21 13:10:31:622
7.618831695556641,2.290617401123047,0.12928491210937498,0.03677336109549126,-0.02278371347146697,-0.03810245324938733,0.705024003982544,2019-06-21 13:10:31:628
7.610452117919921,2.2750553283691404,0.14005865478515625,0.03717283525900315,-0.022517397362459047,-0.040232982121450725,0.7098879814147949,2019-06-21 13:10:31:632
7.593692962646484,2.2858290710449216,0.17597113037109374,0.0383712577495388,-0.02344950374398678,-0.043695091538553735,0.715008020401001,2019-06-21 13:10:31:638
7.579327972412109,2.277449493408203,0.14484698486328124,0.038770731913050686,-0.024115294016506587,-0.04542614624710524,0.719871997833252,2019-06-21 13:10:31:642
7.591298797607422,2.2882232360839843,0.12808782958984374,0.037305993313507105,-0.022916871525970932,-0.049021413718712215,0.724992036819458,2019-06-21 13:10:31:648
7.572145477294922,2.2882232360839843,0.14245281982421876,0.03850441580404276,-0.024381610125514517,-0.05261668119031918,0.729856014251709,2019-06-21 13:10:31:652
7.605663787841797,2.3109678039550783,0.16759155273437498,0.03717283525900315,-0.02358266179849074,-0.05661142282543804,0.734976053237915,2019-06-21 13:10:31:658
7.596087127685546,2.3133619689941405,0.10534326171875,0.037971783586026917,-0.024115294016506587,-0.05887510975200539,0.739840030670166,2019-06-21 13:10:31:662
7.602072540283203,2.3385007019042967,0.10893450927734374,0.03903704802205861,-0.024381610125514517,-0.06073932251506085,0.7449600696563721,2019-06-21 13:10:31:668
7.597284210205078,2.3325152893066408,0.0981607666015625,0.03943652218557049,-0.023982135962002625,-0.06273669333262029,0.7500801086425781,2019-06-21 13:10:31:673
7.592495880126953,2.363639434814453,0.138861572265625,0.03783862553152295,-0.024381610125514517,-0.06393511582315595,0.7549440860748291,2019-06-21 13:10:31:677
7.557780487060547,2.3935664978027344,0.12808782958984374,0.03863757385854672,-0.024115294016506587,-0.06606564469521933,0.7600641250610352,2019-06-21 13:10:31:683
7.556583404541016,2.3983548278808593,0.13287615966796876,0.03823809969503484,-0.023982135962002625,-0.06713090913125103,0.7649281024932861,2019-06-21 13:10:31:687
7.549400909423828,2.4270848083496093,0.13527032470703124,0.03863757385854672,-0.023050029580474894,-0.0679298574582748,0.7700479030609131,2019-06-21 13:10:31:693
7.567357147216796,2.4270848083496093,0.10534326171875,0.038770731913050686,-0.024248452071010555,-0.06966091216682631,0.7749121189117432,2019-06-21 13:10:31:697
7.573342559814453,2.472573944091797,0.138861572265625,0.03743915136801107,-0.024248452071010555,-0.07006038633033819,0.7800319194793701,2019-06-21 13:10:31:703
7.610452117919921,2.4797564392089844,0.17118280029296876,0.0366402030409873,-0.023848977907498663,-0.06912827994881046,0.7848958969116211,2019-06-21 13:10:31:707
7.606860870361328,2.472573944091797,0.11851116943359374,0.0366402030409873,-0.023982135962002625,-0.06886196383980253,0.7900159358978271,2019-06-21 13:10:31:713
7.581722137451171,2.5060922546386717,0.12569366455078124,0.03743915136801107,-0.02344950374398678,-0.06872880578529857,0.7948799133300781,2019-06-21 13:10:31:717
7.596087127685546,2.5096835021972654,0.08738702392578125,0.037971783586026917,-0.02344950374398678,-0.0685956477307946,0.7999999523162842,2019-06-21 13:10:31:723
7.586510467529297,2.497712677001953,0.10893450927734374,0.038104941640530875,-0.024381610125514517,-0.06726406718575499,0.8048639297485352,2019-06-21 13:10:31:727
7.579327972412109,2.525245574951172,0.1316790771484375,0.03757230942251503,-0.024381610125514517,-0.06566617053170745,0.8099839687347412,2019-06-21 13:10:31:733
7.557780487060547,2.5228514099121093,0.12210241699218749,0.038770731913050686,-0.025580032616050172,-0.06460090609567576,0.8148479461669922,2019-06-21 13:10:31:737
7.5841163024902345,2.539610565185547,0.12569366455078124,0.038104941640530875,-0.023848977907498663,-0.06380195776865198,0.8199679851531982,2019-06-21 13:10:31:743
7.5553863220214845,2.539610565185547,0.13287615966796876,0.03757230942251503,-0.023982135962002625,-0.062470377223612365,0.8250880241394043,2019-06-21 13:10:31:748
7.557780487060547,2.515668914794922,0.12808782958984374,0.0383712577495388,-0.025979506779562057,-0.06167142889658859,0.8299520015716553,2019-06-21 13:10:31:753
7.5553863220214845,2.4701797790527342,0.12210241699218749,0.03703967720449918,-0.025047400398034325,-0.06153827084208462,0.8350720405578613,2019-06-21 13:10:31:758
7.566160064697265,2.4342673034667968,0.08499285888671874,0.03624072887747541,-0.024381610125514517,-0.06233721916910841,0.8399360179901123,2019-06-21 13:10:31:762
7.544612579345703,2.382792755126953,0.08259869384765625,0.03624072887747541,-0.024115294016506587,-0.06326932555063614,0.8450560569763184,2019-06-21 13:10:31:768
7.596087127685546,2.391172332763672,0.0598541259765625,0.03677336109549126,-0.023316345689482817,-0.06473406415017971,0.8499200344085693,2019-06-21 13:10:31:772
7.56137173461914,2.3540627746582032,0.004788330078125,0.037971783586026917,-0.022517397362459047,-0.06699775107674706,0.8550400733947754,2019-06-21 13:10:31:778
7.578130889892578,2.3217415466308595,0.038306640625,0.0383712577495388,-0.021052658762915465,-0.06846248967629065,0.8599040508270264,2019-06-21 13:10:31:782
7.542218414306641,2.314559051513672,0.004788330078125,0.03717283525900315,-0.01918844599986,-0.07045986049385008,0.8650240898132324,2019-06-21 13:10:31:788
7.579327972412109,2.3540627746582032,0.037109558105468746,0.03717283525900315,-0.017590549345812456,-0.07192459909339366,0.8698880672454834,2019-06-21 13:10:31:792
7.5553863220214845,2.4103256530761716,0.071824951171875,0.03770546747701899,-0.016924759073292647,-0.07418828601996101,0.8750081062316895,2019-06-21 13:10:31:798
7.556583404541016,2.382792755126953,0.08020452880859374,0.0383712577495388,-0.014661072146725296,-0.07698460516454421,0.8798720836639404,2019-06-21 13:10:31:802
7.558977569580078,2.3935664978027344,0.16759155273437498,0.03863757385854672,-0.013329491601685676,-0.07858250181859175,0.8849921226501465,2019-06-21 13:10:31:808
7.518276763916015,2.4103256530761716,0.1604090576171875,0.03783862553152295,-0.014527914092221334,-0.07871565987309571,0.8898561000823975,2019-06-21 13:10:31:812
7.5266563415527346,2.4330702209472657,0.19512445068359374,0.037305993313507105,-0.015326862419245104,-0.07964776625462346,0.8949759006500244,2019-06-21 13:10:31:818
7.5829192199707025,2.4414497985839843,0.22385443115234374,0.036507044986483335,-0.016525284909780762,-0.08071303069065515,0.8998401165008545,2019-06-21 13:10:31:822
7.575736724853515,2.4749681091308595,0.23343109130859374,0.03597441276846748,-0.01852265572734019,-0.0819114531811908,0.9049599170684814,2019-06-21 13:10:31:828
7.581722137451171,2.5096835021972654,0.1891390380859375,0.0366402030409873,-0.018123181563828306,-0.08204461123569476,0.9100799560546875,2019-06-21 13:10:31:833
7.58052505493164,2.521654327392578,0.13287615966796876,0.03437651611441994,-0.01852265572734019,-0.08097934679966307,0.9149439334869385,2019-06-21 13:10:31:837
7.562568817138672,2.550384307861328,0.14005865478515625,0.03437651611441994,-0.019987394326883772,-0.0808461887451591,0.9200639724731445,2019-06-21 13:10:31:843
7.593692962646484,2.583902618408203,0.18195654296875,0.036507044986483335,-0.020919500708411504,-0.08031355652714325,0.9249279499053955,2019-06-21 13:10:31:847
7.602072540283203,2.6150267639160156,0.1699857177734375,0.036107570822971446,-0.022384239307955085,-0.07831618570958383,0.9300479888916016,2019-06-21 13:10:31:853
7.587707550048828,2.6449538269042967,0.1556207275390625,0.03584125471396352,-0.023715819852994702,-0.07765039543706402,0.9349119663238525,2019-06-21 13:10:31:857
7.585313385009766,2.654530487060547,0.14005865478515625,0.03743915136801107,-0.021585290980931315,-0.07485407629248082,0.9400320053100586,2019-06-21 13:10:31:863
7.573342559814453,2.7107933654785157,0.11851116943359374,0.037971783586026917,-0.021185816817419427,-0.07232407325690554,0.9448959827423096,2019-06-21 13:10:31:867
7.573342559814453,2.717975860595703,0.12569366455078124,0.03743915136801107,-0.023848977907498663,-0.06912827994881046,0.9500160217285156,2019-06-21 13:10:31:873
7.592495880126953,2.7335379333496093,0.12928491210937498,0.03823809969503484,-0.023183187634978855,-0.06460090609567576,0.9548799991607666,2019-06-21 13:10:31:877
7.575736724853515,2.7191729431152343,0.1460440673828125,0.03757230942251503,-0.024381610125514517,-0.06020669029704501,0.9600000381469727,2019-06-21 13:10:31:883
7.5685542297363275,2.7335379333496093,0.14005865478515625,0.03743915136801107,-0.024115294016506587,-0.05661142282543804,0.9648640155792236,2019-06-21 13:10:31:887
7.5697513122558595,2.7060050354003904,0.10654034423828125,0.03757230942251503,-0.025580032616050172,-0.053815103680854834,0.9699840545654297,2019-06-21 13:10:31:893
7.573342559814453,2.7347350158691404,0.10175201416015625,0.03770546747701899,-0.02717792927009771,-0.04928772982772014,0.9748480319976807,2019-06-21 13:10:31:897
7.531444671630859,2.7431145935058594,0.12090533447265625,0.03770546747701899,-0.026778455106585827,-0.04582562041061712,0.9799680709838867,2019-06-21 13:10:31:903
7.558977569580078,2.735932098388672,0.10654034423828125,0.037971783586026917,-0.02704477121559375,-0.04223035293901015,0.9850881099700928,2019-06-21 13:10:31:908
7.549400909423828,2.721567108154297,0.12808782958984374,0.03743915136801107,-0.026645297052081865,-0.03836876935839526,0.9899520874023438,2019-06-21 13:10:31:913
7.536233001708984,2.711990447998047,0.1364674072265625,0.03863757385854672,-0.026645297052081865,-0.034107711614268475,0.9950721263885498,2019-06-21 13:10:31:918
7.560174652099609,2.7167787780761716,0.138861572265625,0.03677336109549126,-0.026512138997577903,-0.029580337761133772,0.9999361038208008,2019-06-21 13:10:31:922
7.5386271667480464,2.717975860595703,0.1340732421875,0.03624072887747541,-0.02637898094307394,-0.026917176671054532,1.0050559043884277,2019-06-21 13:10:31:928
7.529050506591797,2.7000196228027344,0.15442364501953124,0.03597441276846748,-0.026778455106585827,-0.023987699471967376,1.0099201202392578,2019-06-21 13:10:31:932
7.521868011474609,2.692837127685547,0.14963531494140625,0.03397704195090806,-0.027577403433609596,-0.020925064218376248,1.0150399208068848,2019-06-21 13:10:31:938
7.530247589111328,2.668895477294922,0.20948944091796876,0.03291177751487637,-0.029441616196665066,-0.017063480637761353,1.0199038982391357,2019-06-21 13:10:31:942
7.547006744384765,2.6760779724121093,0.23103692626953123,0.031979671133348625,-0.031039512850712606,-0.013601371220658343,1.0250239372253418,2019-06-21 13:10:31:948
7.508700103759765,2.6389684143066408,0.24540191650390625,0.03144703891533278,-0.03130582895972053,-0.010538735967067218,1.0298879146575928,2019-06-21 13:10:31:952
7.50391177368164,2.635377166748047,0.2274456787109375,0.03038177447930109,-0.032637409504760156,-0.00707662654996421,1.0350079536437988,2019-06-21 13:10:31:958
7.515882598876953,2.6317859191894533,0.1556207275390625,0.028783877825253542,-0.032770567559264115,-0.004546623514388934,1.0398719310760498,2019-06-21 13:10:31:962
7.515882598876953,2.610238433837891,0.1556207275390625,0.02771861338922185,-0.031172670905216568,-0.0034813590783572385,1.0449919700622559,2019-06-21 13:10:31:968
7.530247589111328,2.583902618408203,0.119708251953125,0.027185981171206002,-0.03223793534124827,-0.00041872382476611475,1.0498559474945068,2019-06-21 13:10:31:972
7.515882598876953,2.585099700927734,0.12928491210937498,0.026653348953190156,-0.033170041722776,0.0007796986657695424,1.054975986480713,2019-06-21 13:10:31:978
7.511094268798828,2.550384307861328,0.14843823242187498,0.02691966506219808,-0.0349010964313275,0.002643911428825009,1.060096025466919,2019-06-21 13:10:31:983
7.55179507446289,2.536019317626953,0.09696368408203125,0.027452297280213925,-0.033569515886287885,0.003975491973864628,1.06496000289917,2019-06-21 13:10:31:988
7.5410213317871095,2.516865997314453,0.08978118896484374,0.028118087552733734,-0.03237109339575223,0.005307072518904247,1.070080041885376,2019-06-21 13:10:31:993
7.5829192199707025,2.5060922546386717,0.06823370361328125,0.027319139225709964,-0.03303688366827204,0.006372336954935942,1.074944019317627,2019-06-21 13:10:31:997
7.5984812927246095,2.4761651916503906,0.0790074462890625,0.027984929498229772,-0.032637409504760156,0.006372336954935942,1.080064058303833,2019-06-21 13:10:32:003
7.591298797607422,2.4618002014160156,0.062248291015625,0.028917035879757504,-0.03130582895972053,0.006771811118447829,1.084928035736084,2019-06-21 13:10:32:007
7.592495880126953,2.4474352111816406,0.0598541259765625,0.029316510043269392,-0.030906354796208645,0.007437601390967639,1.09004807472229,2019-06-21 13:10:32:013
7.575736724853515,2.416311065673828,0.0694307861328125,0.029449668097773354,-0.02904214203315318,0.0062391789004319805,1.094912052154541,2019-06-21 13:10:32:017
7.570948394775391,2.4234935607910155,0.023941650390625,0.029982300315789204,-0.02904214203315318,0.006638653063943867,1.100032091140747,2019-06-21 13:10:32:023
7.55179507446289,2.4043402404785157,0.090978271484375,0.0327786194603724,-0.028509509815137335,0.0058397047369200955,1.104896068572998,2019-06-21 13:10:32:027
7.552992156982421,2.3935664978027344,0.08618994140625,0.03317809362388429,-0.027444245379105635,0.005307072518904247,1.110016107559204,2019-06-21 13:10:32:033
7.58052505493164,2.3839898376464843,0.10654034423828125,0.03237914529686051,-0.02797687759712149,0.004241808082872552,1.114880084991455,2019-06-21 13:10:32:037
7.588904632568359,2.378004425048828,0.10175201416015625,0.03397704195090806,-0.02824319370612941,0.003176543646840857,1.1200001239776611,2019-06-21 13:10:32:043
7.579327972412109,2.378004425048828,0.1268907470703125,0.03490914833243579,-0.027311087324601673,0.001445488938289352,1.124864101409912,2019-06-21 13:10:32:047
7.56137173461914,2.357654022216797,0.11132867431640625,0.03437651611441994,-0.02824319370612941,0.0005133825567616186,1.129983901977539,2019-06-21 13:10:32:053
7.579327972412109,2.3241357116699217,0.14724114990234374,0.03490914833243579,-0.027577403433609596,-0.0017503043698057338,1.1348481178283691,2019-06-21 13:10:32:057
7.596087127685546,2.293011566162109,0.13766448974609374,0.03570809665945956,-0.02717792927009771,-0.004413465459884972,1.139967918395996,2019-06-21 13:10:32:063
7.594890045166015,2.2977998962402344,0.14724114990234374,0.03584125471396352,-0.02624582288856998,-0.006543994331948363,1.1450879573822021,2019-06-21 13:10:32:068
7.624817108154296,2.2882232360839843,0.114919921875,0.03637388693197938,-0.025180558452538287,-0.0092071554220276,1.1499519348144531,2019-06-21 13:10:32:073
7.634393768310547,2.296602813720703,0.10654034423828125,0.03624072887747541,-0.024914242343530364,-0.010405577912563257,1.1550719738006592,2019-06-21 13:10:32:078
7.593692962646484,2.315756134033203,0.07781036376953125,0.03770546747701899,-0.024781084289026402,-0.01266926483913061,1.1599359512329102,2019-06-21 13:10:32:082
7.596087127685546,2.3121648864746094,0.10294909667968749,0.03690651914999522,-0.02611266483406602,-0.016397690365241545,1.1650559902191162,2019-06-21 13:10:32:088
7.602072540283203,2.287026153564453,0.1364674072265625,0.0366402030409873,-0.026512138997577903,-0.01906085145532078,1.1699199676513672,2019-06-21 13:10:32:092
7.597284210205078,2.261887420654297,0.10654034423828125,0.0366402030409873,-0.02624582288856998,-0.022656118926927753,1.1750400066375732,2019-06-21 13:10:32:098
7.605663787841797,2.2690699157714844,0.0885841064453125,0.03677336109549126,-0.02531371650704225,-0.025319280017006993,1.1799039840698242,2019-06-21 13:10:32:102
7.615240447998047,2.253507843017578,0.12928491210937498,0.036107570822971446,-0.023316345689482817,-0.027982441107086233,1.1850240230560303,2019-06-21 13:10:32:108
7.60925503540039,2.239142852783203,0.08618994140625,0.037305993313507105,-0.023183187634978855,-0.030645602197165465,1.1898880004882812,2019-06-21 13:10:32:112
7.592495880126953,2.223580780029297,0.1173140869140625,0.0366402030409873,-0.023715819852994702,-0.032509814960220935,1.1950080394744873,2019-06-21 13:10:32:118
7.614043365478516,2.2559020080566405,0.14005865478515625,0.03703967720449918,-0.023848977907498663,-0.03650455659533979,1.1998720169067383,2019-06-21 13:10:32:122
7.5984812927246095,2.253507843017578,0.07421911621093749,0.03717283525900315,-0.023715819852994702,-0.04116508850297846,1.2049920558929443,2019-06-21 13:10:32:128
7.585313385009766,2.2511136779785157,0.09456951904296874,0.03757230942251503,-0.02358266179849074,-0.042762985157026,1.2098560333251953,2019-06-21 13:10:32:132
7.594890045166015,2.258296173095703,0.09935784912109374,0.036507044986483335,-0.024115294016506587,-0.0476898331736726,1.2149760723114014,2019-06-21 13:10:32:138
7.5829192199707025,2.2547049255371094,0.11611700439453125,0.0366402030409873,-0.02358266179849074,-0.051418258699783524,1.2198400497436523,2019-06-21 13:10:32:142
7.617634613037109,2.2858290710449216,0.11132867431640625,0.035441780550451635,-0.022384239307955085,-0.05488036811688654,1.2249600887298584,2019-06-21 13:10:32:148
7.641576263427734,2.2702669982910155,0.07781036376953125,0.03584125471396352,-0.0219847651444432,-0.05727721309795785,1.2300801277160645,2019-06-21 13:10:32:153
7.604466705322266,2.2547049255371094,0.12090533447265625,0.03677336109549126,-0.02265055541696301,-0.059807216133533125,1.2349441051483154,2019-06-21 13:10:32:157
7.610452117919921,2.3121648864746094,0.12449658203125,0.03690651914999522,-0.021185816817419427,-0.06273669333262029,1.2400639057159424,2019-06-21 13:10:32:163
7.578130889892578,2.320544464111328,0.10534326171875,0.0366402030409873,-0.021718449035435277,-0.06486722220468367,1.2449281215667725,2019-06-21 13:10:32:167
7.578130889892578,2.343289031982422,0.1077374267578125,0.03770546747701899,-0.02185160708993924,-0.06606564469521933,1.2500479221343994,2019-06-21 13:10:32:173
7.5984812927246095,2.345683197021484,0.0694307861328125,0.03717283525900315,-0.020386868490395657,-0.06766354134926687,1.2549118995666504,2019-06-21 13:10:32:177
7.581722137451171,2.3468802795410157,0.10893450927734374,0.036507044986483335,-0.021185816817419427,-0.07085933465736197,1.2600319385528564,2019-06-21 13:10:32:183
7.611649200439453,2.374413177490234,0.12210241699218749,0.0366402030409873,-0.022251081253451124,-0.07325617963843328,1.2648959159851074,2019-06-21 13:10:32:187
7.596087127685546,2.3708219299316404,0.10414617919921874,0.03424335805991598,-0.021052658762915465,-0.07498723434698477,1.2700159549713135,2019-06-21 13:10:32:193
7.593692962646484,2.3648365173339845,0.090978271484375,0.03411020000541202,-0.01918844599986,-0.07671828905553629,1.2748799324035645,2019-06-21 13:10:32:197
7.585313385009766,2.3552598571777343,0.10893450927734374,0.03450967416892391,-0.018256339618332267,-0.07711776321904817,1.2799999713897705,2019-06-21 13:10:32:203
7.570948394775391,2.3217415466308595,0.12808782958984374,0.03397704195090806,-0.017590549345812456,-0.07858250181859175,1.2848639488220215,2019-06-21 13:10:32:207
7.5697513122558595,2.3564569396972654,0.08738702392578125,0.03424335805991598,-0.018123181563828306,-0.07991408236363137,1.2899839878082275,2019-06-21 13:10:32:213
7.5841163024902345,2.3385007019042967,0.10534326171875,0.03411020000541202,-0.019587920163371884,-0.08231092734470269,1.2948479652404785,2019-06-21 13:10:32:217
7.566160064697265,2.3396977844238283,0.10893450927734374,0.03504230638693975,-0.01852265572734019,-0.08417514010775816,1.2999680042266846,2019-06-21 13:10:32:223
7.590101715087891,2.3169532165527342,0.1173140869140625,0.03450967416892391,-0.017990023509324344,-0.08603935287081363,1.3050880432128906,2019-06-21 13:10:32:228
7.586510467529297,2.3325152893066408,0.10893450927734374,0.03450967416892391,-0.01785686545482038,-0.08910198812440474,1.3099520206451416,2019-06-21 13:10:32:233
7.578130889892578,2.3229386291503906,0.09696368408203125,0.03570809665945956,-0.01785686545482038,-0.09056672672394832,1.3150720596313477,2019-06-21 13:10:32:238
7.590101715087891,2.328924041748047,0.10534326171875,0.03677336109549126,-0.016791601018788686,-0.09229778143249982,1.3199360370635986,2019-06-21 13:10:32:242
7.585313385009766,2.3361065368652345,0.11372283935546874,0.03757230942251503,-0.016525284909780762,-0.09482778446807512,1.3250560760498047,2019-06-21 13:10:32:248
7.592495880126953,2.3420919494628905,0.10414617919921874,0.03903704802205861,-0.01625896880077284,-0.09549357474059493,1.3299200534820557,2019-06-21 13:10:32:252
7.5685542297363275,2.343289031982422,0.08499285888671874,0.04023547051259427,-0.015992652691764912,-0.0980235777761702,1.3350400924682617,2019-06-21 13:10:32:258
7.549400909423828,2.378004425048828,0.12210241699218749,0.04130073494862596,-0.01585949463726095,-0.09922200026670586,1.3399040699005127,2019-06-21 13:10:32:262
7.597284210205078,2.3935664978027344,0.12210241699218749,0.04183336716664181,-0.01585949463726095,-0.1008198969207534,1.3450241088867188,2019-06-21 13:10:32:268
7.574539642333984,2.400748992919922,0.1364674072265625,0.04183336716664181,-0.01585949463726095,-0.10295042579281678,1.3501439094543457,2019-06-21 13:10:32:273
7.5553863220214845,2.445041046142578,0.14005865478515625,0.04276547354816954,-0.014794230201229257,-0.10481463855587224,1.3550081253051758,2019-06-21 13:10:32:278
7.556583404541016,2.459406036376953,0.20470111083984374,0.04316494771168143,-0.012930017438173791,-0.1060130610464079,1.3598721027374268,2019-06-21 13:10:32:282
7.579327972412109,2.4785593566894533,0.17597113037109374,0.045029160474736894,-0.013862123819701522,-0.10734464159144752,1.3649919033050537,2019-06-21 13:10:32:288
7.572145477294922,2.502501007080078,0.1556207275390625,0.04436337020221709,-0.013329491601685676,-0.10787727380946337,1.3698561191558838,2019-06-21 13:10:32:292
7.566160064697265,2.521654327392578,0.1604090576171875,0.04516231852924085,-0.013329491601685676,-0.10854306408198318,1.3749759197235107,2019-06-21 13:10:32:298
7.599678375244141,2.536019317626953,0.18554779052734374,0.04582810880176067,-0.015992652691764912,-0.10747779964595149,1.3798398971557617,2019-06-21 13:10:32:302
7.576933807373047,2.568340545654297,0.1939273681640625,0.04649389907428048,-0.016658442964284724,-0.10681200937343167,1.3849599361419678,2019-06-21 13:10:32:308
7.563765899658203,2.5862967834472657,0.12569366455078124,0.046094424910768594,-0.01705791712779661,-0.10627937715541583,1.3900799751281738,2019-06-21 13:10:32:313
7.550597991943359,2.6305888366699217,0.11252575683593749,0.045961266856264636,-0.017324233236804532,-0.10441516439236036,1.3949439525604248,2019-06-21 13:10:32:317
7.53264175415039,2.6593188171386717,0.1532265625,0.04489600242023293,-0.016658442964284724,-0.10268410968380885,1.4000639915466309,2019-06-21 13:10:32:323
7.556583404541016,2.650939239501953,0.14963531494140625,0.04489600242023293,-0.018256339618332267,-0.10015410664823358,1.4049279689788818,2019-06-21 13:10:32:327
7.574539642333984,2.6856546325683595,0.1316790771484375,0.04622758296527256,-0.018788971836348114,-0.09882252610319396,1.410048007965088,2019-06-21 13:10:32:333
7.558977569580078,2.711990447998047,0.1412557373046875,0.045961266856264636,-0.01932160405436396,-0.09602620695861078,1.4149119853973389,2019-06-21 13:10:32:337
7.562568817138672,2.7395233459472657,0.19991278076171876,0.04556179269275275,-0.020120552381387734,-0.09296357170501963,1.420032024383545,2019-06-21 13:10:32:343
7.572145477294922,2.751494171142578,0.2082923583984375,0.04383073798420124,-0.020786342653907542,-0.09003409450593247,1.424896001815796,2019-06-21 13:10:32:347
7.5829192199707025,2.7778299865722658,0.20110986328125,0.04263231549366558,-0.02344950374398678,-0.08710461730684532,1.430016040802002,2019-06-21 13:10:32:353
7.5685542297363275,2.7622679138183592,0.1843507080078125,0.04170020911213785,-0.024381610125514517,-0.08284355956271854,1.434880018234253,2019-06-21 13:10:32:357
7.537430084228515,2.7826183166503906,0.1699857177734375,0.041433893003129926,-0.024381610125514517,-0.07751723738256006,1.440000057220459,2019-06-21 13:10:32:363
7.5541892395019525,2.7850124816894533,0.2322340087890625,0.04023547051259427,-0.023982135962002625,-0.07432144407446498,1.44486403465271,2019-06-21 13:10:32:367
7.549400909423828,2.807757049560547,0.215474853515625,0.039569680240074456,-0.025580032616050172,-0.06992722827583424,1.449984073638916,2019-06-21 13:10:32:373
7.545809661865234,2.8065599670410157,0.18554779052734374,0.03930336413106653,-0.027444245379105635,-0.06486722220468367,1.454848051071167,2019-06-21 13:10:32:377
7.517079681396484,2.7862095642089844,0.18794195556640625,0.038770731913050686,-0.029441616196665066,-0.06033984835154897,1.459968090057373,2019-06-21 13:10:32:383
7.507503021240234,2.7969833068847656,0.16280322265625,0.03703967720449918,-0.02904214203315318,-0.055945632552918234,1.465088129043579,2019-06-21 13:10:32:388
7.535035919189453,2.8065599670410157,0.16639447021484374,0.03743915136801107,-0.029308458142161105,-0.051285100645279566,1.46995210647583,2019-06-21 13:10:32:393
7.556583404541016,2.7838153991699217,0.11851116943359374,0.038104941640530875,-0.028775825924145258,-0.04715720095565674,1.475071907043457,2019-06-21 13:10:32:398
7.560174652099609,2.8017716369628904,0.13527032470703124,0.03637388693197938,-0.028642667869641297,-0.04129824655748242,1.479936122894287,2019-06-21 13:10:32:402
7.5685542297363275,2.775435821533203,0.14484698486328124,0.03477599027793183,-0.03050688063269676,-0.037569821031371485,1.485055923461914,2019-06-21 13:10:32:408
7.533838836669922,2.805362884521484,0.1460440673828125,0.03371072584190014,-0.029974248414680913,-0.03424086966877244,1.489919900894165,2019-06-21 13:10:32:412
7.521868011474609,2.8149395446777343,0.11252575683593749,0.03264546140586844,-0.03210477728674431,-0.030379286088157542,1.495039939880371,2019-06-21 13:10:32:418
7.531444671630859,2.807757049560547,0.08738702392578125,0.03331125167838825,-0.0314389870142245,-0.024786647798991146,1.499903917312622,2019-06-21 13:10:32:422
7.5553863220214845,2.8137424621582032,0.07661328125,0.03317809362388429,-0.030107406469184875,-0.019726641727840593,1.5050239562988281,2019-06-21 13:10:32:428
7.53264175415039,2.804165802001953,0.13527032470703124,0.03144703891533278,-0.031172670905216568,-0.014666635656690038,1.509887933731079,2019-06-21 13:10:32:432
7.547006744384765,2.788603729248047,0.10175201416015625,0.03118072280632486,-0.031172670905216568,-0.010272419858059295,1.5150079727172852,2019-06-21 13:10:32:438
7.545809661865234,2.808954132080078,0.14364990234375,0.03131388086082882,-0.030906354796208645,-0.005745046004924591,1.5198719501495361,2019-06-21 13:10:32:442
7.517079681396484,2.804165802001953,0.17836529541015625,0.03051493253380505,-0.031039512850712606,-0.0018834624243096957,1.5249919891357422,2019-06-21 13:10:32:448
7.519473846435547,2.7838153991699217,0.15442364501953124,0.029050193934261465,-0.030240564523688836,0.003176543646840857,1.5298559665679932,2019-06-21 13:10:32:452
7.514685516357422,2.761070831298828,0.1268907470703125,0.028118087552733734,-0.029574774251169028,0.007970233608983485,1.5349760055541992,2019-06-21 13:10:32:458
7.49433511352539,2.7287496032714844,0.1316790771484375,0.027984929498229772,-0.029974248414680913,0.011831817189598382,1.5398399829864502,2019-06-21 13:10:32:462
7.491940948486328,2.7407204284667968,0.13287615966796876,0.026520190898686194,-0.0314389870142245,0.014761294388685542,1.5449600219726562,2019-06-21 13:10:32:468
7.5098971862792965,2.7263554382324218,0.1604090576171875,0.026520190898686194,-0.031039512850712606,0.019821300459836096,1.5500800609588623,2019-06-21 13:10:32:473
7.519473846435547,2.713187530517578,0.18794195556640625,0.026387032844182232,-0.03237109339575223,0.022750777658923256,1.5549440383911133,2019-06-21 13:10:32:477
7.542218414306641,2.679669219970703,0.1795623779296875,0.025321768408150532,-0.03330319977727996,0.024748148476482688,1.5600640773773193,2019-06-21 13:10:32:483
7.549400909423828,2.6305888366699217,0.18075946044921876,0.024123345917614877,-0.03303688366827204,0.028077099839081736,1.5649280548095703,2019-06-21 13:10:32:487
7.5386271667480464,2.6054501037597655,0.1891390380859375,0.024123345917614877,-0.03250425145025619,0.029674996493129276,1.5700480937957764,2019-06-21 13:10:32:493
7.5266563415527346,2.558763885498047,0.18075946044921876,0.023990187863110916,-0.031572145068728456,0.03060710287465701,1.5749120712280273,2019-06-21 13:10:32:497
7.566160064697265,2.5575668029785157,0.10893450927734374,0.023191239536087146,-0.03183846117773638,0.03220499952870455,1.5800321102142334,2019-06-21 13:10:32:503
7.552992156982421,2.513274749755859,0.1268907470703125,0.02425650397211884,-0.031172670905216568,0.03353658007374417,1.5848960876464844,2019-06-21 13:10:32:507
7.550597991943359,2.4809535217285155,0.12569366455078124,0.024123345917614877,-0.03250425145025619,0.03460184450977587,1.5900161266326904,2019-06-21 13:10:32:513
7.570948394775391,2.4773622741699217,0.09337243652343749,0.024655978135630724,-0.03237109339575223,0.034335528400767944,1.5948801040649414,2019-06-21 13:10:32:517
7.5553863220214845,2.4618002014160156,0.0885841064453125,0.023990187863110916,-0.032770567559264115,0.03406921229176002,1.5999999046325684,2019-06-21 13:10:32:523
7.573342559814453,2.4414497985839843,0.09456951904296874,0.023990187863110916,-0.03303688366827204,0.03380289618275209,1.6048641204833984,2019-06-21 13:10:32:527
7.556583404541016,2.4246906433105466,0.07661328125,0.023990187863110916,-0.03237109339575223,0.03340342201924021,1.6099839210510254,2019-06-21 13:10:32:533
7.591298797607422,2.4222964782714844,0.08379577636718749,0.023857029808606954,-0.031172670905216568,0.03300394785572832,1.6148478984832764,2019-06-21 13:10:32:537
7.579327972412109,2.3947635803222656,0.12210241699218749,0.023058081481583184,-0.03170530312323242,0.03193868341969663,1.6199679374694824,2019-06-21 13:10:32:543
7.592495880126953,2.343289031982422,0.1268907470703125,0.025454926462654494,-0.031172670905216568,0.030340786765649084,1.6250879764556885,2019-06-21 13:10:32:548
7.576933807373047,2.3169532165527342,0.12808782958984374,0.026653348953190156,-0.03130582895972053,0.029808154547633237,1.6299519538879395,2019-06-21 13:10:32:553
7.578130889892578,2.287026153564453,0.10175201416015625,0.025987558680670344,-0.03130582895972053,0.027411309566561924,1.6350719928741455,2019-06-21 13:10:32:558
7.572145477294922,2.264281585693359,0.10414617919921874,0.024922294244638647,-0.03130582895972053,0.0243486743129708,1.6399359703063965,2019-06-21 13:10:32:562
7.593692962646484,2.2427341003417967,0.0957666015625,0.025454926462654494,-0.031572145068728456,0.02022077462334798,1.6450560092926025,2019-06-21 13:10:32:568
7.591298797607422,2.218792449951172,0.0885841064453125,0.02691966506219808,-0.03223793534124827,0.017690771587772706,1.6499199867248535,2019-06-21 13:10:32:572
7.591298797607422,2.205624542236328,0.13287615966796876,0.02771861338922185,-0.031572145068728456,0.013696029952653848,1.6550400257110596,2019-06-21 13:10:32:578
7.623620025634765,2.1565441589355467,0.12449658203125,0.028917035879757504,-0.03064003868720072,0.00970128831753499,1.6599040031433105,2019-06-21 13:10:32:582
7.602072540283203,2.151755828857422,0.12569366455078124,0.029982300315789204,-0.028775825924145258,0.004641282246384438,1.6650240421295166,2019-06-21 13:10:32:588
7.617634613037109,2.133799591064453,0.08978118896484374,0.031047564751820897,-0.03064003868720072,-1.9249661254228994e-05,1.6698880195617676,2019-06-21 13:10:32:592
7.631999603271484,2.133799591064453,0.12449658203125,0.03184651307884467,-0.030107406469184875,-0.004013991296373086,1.6750080585479736,2019-06-21 13:10:32:598
7.617634613037109,2.1170404357910155,0.056262878417968745,0.03184651307884467,-0.029974248414680913,-0.00987294569454741,1.6798720359802246,2019-06-21 13:10:32:602
7.602072540283203,2.0871133728027345,0.08499285888671874,0.03331125167838825,-0.029308458142161105,-0.014134003438674192,1.6849920749664307,2019-06-21 13:10:32:608
7.608057952880859,2.109857940673828,0.08618994140625,0.0327786194603724,-0.02811003565162545,-0.019859799782344555,1.6898560523986816,2019-06-21 13:10:32:612
7.635590850830078,2.113449188232422,0.090978271484375,0.03317809362388429,-0.027311087324601673,-0.02438717363547926,1.6949760913848877,2019-06-21 13:10:32:618
7.629605438232422,2.146967498779297,0.08738702392578125,0.03357756778739617,-0.02637898094307394,-0.030379286088157542,1.6998400688171387,2019-06-21 13:10:32:622
7.621225860595703,2.1589383239746094,0.07781036376953125,0.03477599027793183,-0.02637898094307394,-0.0354392921593081,1.7049601078033447,2019-06-21 13:10:32:628
7.608057952880859,2.150558746337891,0.090978271484375,0.03530862249594768,-0.026512138997577903,-0.039833507957938837,1.7100799083709717,2019-06-21 13:10:32:633
7.586510467529297,2.1589383239746094,0.07421911621093749,0.036507044986483335,-0.025979506779562057,-0.044494039865577505,1.7149441242218018,2019-06-21 13:10:32:637
7.604466705322266,2.1721062316894533,0.090978271484375,0.03624072887747541,-0.025979506779562057,-0.0483556234461924,1.7200639247894287,2019-06-21 13:10:32:643
7.604466705322266,2.239142852783203,0.09456951904296874,0.03597441276846748,-0.02451476818001848,-0.053016155353831064,1.7249279022216797,2019-06-21 13:10:32:647
7.617634613037109,2.234354522705078,0.062248291015625,0.036507044986483335,-0.02358266179849074,-0.05541300033490239,1.7300479412078857,2019-06-21 13:10:32:653
7.593692962646484,2.2307632751464843,0.11252575683593749,0.03637388693197938,-0.023183187634978855,-0.05874195169750143,1.7349119186401367,2019-06-21 13:10:32:657
7.604466705322266,2.2307632751464843,0.09456951904296874,0.03677336109549126,-0.023183187634978855,-0.06193774500559652,1.7400319576263428,2019-06-21 13:10:32:663
7.6284083557128906,2.2654786682128907,0.114919921875,0.036507044986483335,-0.02278371347146697,-0.06686459302224311,1.7448959350585938,2019-06-21 13:10:32:667
7.593692962646484,2.277449493408203,0.114919921875,0.03637388693197938,-0.02344950374398678,-0.06939459605781839,1.7500159740447998,2019-06-21 13:10:32:673
7.610452117919921,2.3217415466308595,0.10654034423828125,0.03783862553152295,-0.022916871525970932,-0.07165828298438573,1.7548799514770508,2019-06-21 13:10:32:677
7.617634613037109,2.306179473876953,0.0957666015625,0.037971783586026917,-0.02344950374398678,-0.07445460212896893,1.7599999904632568,2019-06-21 13:10:32:683
7.640379180908203,2.3181502990722658,0.07661328125,0.0383712577495388,-0.022384239307955085,-0.07591934072851252,1.7648639678955078,2019-06-21 13:10:32:687
7.621225860595703,2.3241357116699217,0.04908038330078125,0.03823809969503484,-0.022517397362459047,-0.0773840793280561,1.7699840068817139,2019-06-21 13:10:32:693
7.604466705322266,2.3552598571777343,0.071824951171875,0.03917020607656257,-0.022251081253451124,-0.08004724041813534,1.7748479843139648,2019-06-21 13:10:32:697
7.610452117919921,2.363639434814453,0.081401611328125,0.03970283829457842,-0.02052002654489962,-0.08031355652714325,1.779968023300171,2019-06-21 13:10:32:703
7.56137173461914,2.373216094970703,0.09456951904296874,0.039569680240074456,-0.020120552381387734,-0.08204461123569476,1.785088062286377,2019-06-21 13:10:32:708
7.576933807373047,2.378004425048828,0.06583953857421875,0.04010231245809031,-0.019587920163371884,-0.08244408539920664,1.789952039718628,2019-06-21 13:10:32:713
7.605663787841797,2.3540627746582032,0.08259869384765625,0.038770731913050686,-0.01932160405436396,-0.0840419820532542,1.795072078704834,2019-06-21 13:10:32:718
7.597284210205078,2.373216094970703,0.01795623779296875,0.04050178662160219,-0.018922129890852075,-0.08524040454378985,1.799936056137085,2019-06-21 13:10:32:722
7.578130889892578,2.3660335998535156,0.0694307861328125,0.04023547051259427,-0.017990023509324344,-0.08683830119783739,1.805056095123291,2019-06-21 13:10:32:728
7.5541892395019525,2.344486114501953,0.06583953857421875,0.041567051057633884,-0.017324233236804532,-0.08883567201539681,1.809920072555542,2019-06-21 13:10:32:732
7.574539642333984,2.3420919494628905,0.08379577636718749,0.04209968327564973,-0.016791601018788686,-0.08883567201539681,1.815040111541748,2019-06-21 13:10:32:738
7.570948394775391,2.348077362060547,0.0981607666015625,0.04383073798420124,-0.016525284909780762,-0.09003409450593247,1.819904088973999,2019-06-21 13:10:32:742
7.56137173461914,2.3385007019042967,0.1412557373046875,0.044097054093209166,-0.014927388255733219,-0.09163199115998001,1.825024127960205,2019-06-21 13:10:32:748
7.5553863220214845,2.3265298767089844,0.1364674072265625,0.04516231852924085,-0.014394756037717372,-0.09416199419555529,1.829888105392456,2019-06-21 13:10:32:752
7.531444671630859,2.328924041748047,0.10534326171875,0.045029160474736894,-0.013462649656189637,-0.09575989084960285,1.835007905960083,2019-06-21 13:10:32:758
7.5541892395019525,2.3277269592285155,0.138861572265625,0.04529547658374482,-0.011864753002142094,-0.09868936804869001,1.839872121810913,2019-06-21 13:10:32:762
7.5398242492675775,2.2954057312011718,0.10654034423828125,0.04489600242023293,-0.01239738522015794,-0.10002094859372962,1.84499192237854,2019-06-21 13:10:32:768
7.56137173461914,2.320544464111328,0.13048199462890625,0.04542863463824879,-0.011332120784126248,-0.102151477465793,1.849855899810791,2019-06-21 13:10:32:772
7.573342559814453,2.3468802795410157,0.17357696533203124,0.0478254796193201,-0.011065804675118323,-0.1049477966103762,1.854975938796997,2019-06-21 13:10:32:778
7.58052505493164,2.387581085205078,0.1316790771484375,0.0478254796193201,-0.01279685938366983,-0.10787727380946337,1.859839916229248,2019-06-21 13:10:32:782
7.56137173461914,2.417508148193359,0.1723798828125,0.046893373237792364,-0.0135958077106936,-0.10894253824549507,1.864959955215454,2019-06-21 13:10:32:788
7.550597991943359,2.459406036376953,0.16759155273437498,0.04556179269275275,-0.01239738522015794,-0.11000780268152677,1.8700799942016602,2019-06-21 13:10:32:793
7.574539642333984,2.4953185119628905,0.1699857177734375,0.04476284436572897,-0.011598436893134171,-0.11040727684503866,1.8749439716339111,2019-06-21 13:10:32:797
7.5841163024902345,2.4917272644042967,0.16639447021484374,0.04436337020221709,-0.01146527883863021,-0.11093990906305451,1.8800640106201172,2019-06-21 13:10:32:803
7.602072540283203,2.531230987548828,0.16639447021484374,0.04449652825672105,-0.01279685938366983,-0.1102741187905347,1.8849279880523682,2019-06-21 13:10:32:807
7.610452117919921,2.536019317626953,0.1723798828125,0.043431263820689354,-0.015193704364741142,-0.10974148657251885,1.8900480270385742,2019-06-21 13:10:32:813
7.610452117919921,2.599464691162109,0.16280322265625,0.04249915743916162,-0.015460020473749066,-0.109208854354503,1.8949120044708252,2019-06-21 13:10:32:817
7.594890045166015,2.583902618408203,0.2226573486328125,0.0439638960387052,-0.01625896880077284,-0.10827674797297525,1.9000320434570312,2019-06-21 13:10:32:823
7.596087127685546,2.598267608642578,0.15921197509765625,0.044230212147713124,-0.016525284909780762,-0.10587990299190395,1.9048960208892822,2019-06-21 13:10:32:827
7.5829192199707025,2.6437567443847656,0.14005865478515625,0.0439638960387052,-0.01785686545482038,-0.10508095466488017,1.9100160598754883,2019-06-21 13:10:32:833
7.614043365478516,2.664107147216797,0.13766448974609374,0.044629686311225006,-0.01932160405436396,-0.10188516135678509,1.9148800373077393,2019-06-21 13:10:32:837
7.572145477294922,2.674880889892578,0.1532265625,0.044629686311225006,-0.019587920163371884,-0.09895568415769793,1.9200000762939453,2019-06-21 13:10:32:843
7.587707550048828,2.707202117919922,0.1077374267578125,0.044097054093209166,-0.019454762108867922,-0.0962925230676187,1.9248640537261963,2019-06-21 13:10:32:847
7.574539642333984,2.7251583557128907,0.1173140869140625,0.04356442187519331,-0.020253710435891695,-0.0930967297595236,1.9299840927124023,2019-06-21 13:10:32:853
7.608057952880859,2.722764190673828,0.16759155273437498,0.04316494771168143,-0.020253710435891695,-0.0913656750509721,1.9348480701446533,2019-06-21 13:10:32:857
7.563765899658203,2.7586766662597655,0.19751861572265625,0.042365999384657654,-0.02065318459940358,-0.08830303979738097,1.9399681091308594,2019-06-21 13:10:32:863
7.579327972412109,2.7826183166503906,0.18315362548828124,0.04209968327564973,-0.02265055541696301,-0.08444145621676608,1.9450879096984863,2019-06-21 13:10:32:868
7.556583404541016,2.750297088623047,0.19751861572265625,0.04183336716664181,-0.025979506779562057,-0.07911513403660761,1.9499521255493164,2019-06-21 13:10:32:873
7.581722137451171,2.7814212341308595,0.177168212890625,0.04090126078511408,-0.025846348725058095,-0.07565302461950459,1.9550719261169434,2019-06-21 13:10:32:878
7.566160064697265,2.774238739013672,0.17118280029296876,0.040634944676106156,-0.025979506779562057,-0.070726176602858,1.9599359035491943,2019-06-21 13:10:32:882
7.53264175415039,2.7969833068847656,0.17836529541015625,0.038903889967554645,-0.02611266483406602,-0.06659827691323518,1.9650559425354004,2019-06-21 13:10:32:888
7.55179507446289,2.807757049560547,0.14724114990234374,0.03743915136801107,-0.02811003565162545,-0.062070903060100484,1.9699199199676514,2019-06-21 13:10:32:892
7.536233001708984,2.822122039794922,0.1747740478515625,0.03677336109549126,-0.030107406469184875,-0.05767668726146973,1.9750399589538574,2019-06-21 13:10:32:898
7.535035919189453,2.793392059326172,0.10414617919921874,0.03530862249594768,-0.030373722578192798,-0.05248352313581522,1.9799039363861084,2019-06-21 13:10:32:902
7.519473846435547,2.837684112548828,0.10175201416015625,0.03437651611441994,-0.030240564523688836,-0.047423517064664675,1.9850239753723145,2019-06-21 13:10:32:908
7.53264175415039,2.831698699951172,0.12090533447265625,0.03371072584190014,-0.028775825924145258,-0.042896143211529965,1.9898879528045654,2019-06-21 13:10:32:912
7.521868011474609,2.8400782775878906,0.14245281982421876,0.0327786194603724,-0.029441616196665066,-0.0371703468678596,1.9950079917907715,2019-06-21 13:10:32:918
7.52306509399414,2.850852020263672,0.16280322265625,0.031979671133348625,-0.030373722578192798,-0.033308763287244705,1.9998719692230225,2019-06-21 13:10:32:922
7.51229135131836,2.8436695251464843,0.16280322265625,0.029982300315789204,-0.03064003868720072,-0.027449808889070386,2.0049920082092285,2019-06-21 13:10:32:928
7.506305938720703,2.793392059326172,0.14963531494140625,0.03051493253380505,-0.030906354796208645,-0.021990328654407944,2.0098559856414795,2019-06-21 13:10:32:932
7.507503021240234,2.7874066467285155,0.16160614013671876,0.02851756171624562,-0.031572145068728456,-0.016664006474249468,2.0149760246276855,2019-06-21 13:10:32:938
7.477575958251953,2.779027069091797,0.1699857177734375,0.027319139225709964,-0.03050688063269676,-0.012802422893634572,2.0198400020599365,2019-06-21 13:10:32:942
7.507503021240234,2.7730416564941405,0.14843823242187498,0.027319139225709964,-0.0314389870142245,-0.009340313476531562,2.0249600410461426,2019-06-21 13:10:32:948
7.499123443603516,2.7718445739746094,0.1532265625,0.02771861338922185,-0.0314389870142245,-0.004013991296373086,2.0300800800323486,2019-06-21 13:10:32:953
7.51229135131836,2.746705841064453,0.14724114990234374,0.026520190898686194,-0.031971619232240345,0.00011390839324973292,2.0349440574645996,2019-06-21 13:10:32:957
7.5398242492675775,2.7311437683105466,0.12569366455078124,0.02558808451715846,-0.033170041722776,0.004108650028368591,2.0400640964508057,2019-06-21 13:10:32:963
7.517079681396484,2.6856546325683595,0.1843507080078125,0.023857029808606954,-0.03210477728674431,0.006638653063943867,2.0449280738830566,2019-06-21 13:10:32:967
7.5266563415527346,2.652136322021484,0.13766448974609374,0.02345755564509507,-0.032637409504760156,0.010233920535550839,2.0500481128692627,2019-06-21 13:10:32:973
7.537430084228515,2.655727569580078,0.11132867431640625,0.02279176537257526,-0.03237109339575223,0.012630765516622152,2.0549120903015137,2019-06-21 13:10:32:977
7.567357147216796,2.6293917541503906,0.09935784912109374,0.022392291209063372,-0.031971619232240345,0.015427084661205353,2.0600321292877197,2019-06-21 13:10:32:983
7.58052505493164,2.603055938720703,0.11372283935546874,0.02132702677303168,-0.031172670905216568,0.016891823260748933,2.0648961067199707,2019-06-21 13:10:32:987
7.586510467529297,2.5874938659667968,0.13766448974609374,0.021992817045551488,-0.031172670905216568,0.019688142405332135,2.0700159072875977,2019-06-21 13:10:32:993
7.586510467529297,2.5515813903808593,0.09696368408203125,0.022924923427079223,-0.03183846117773638,0.021818671277395525,2.0748801231384277,2019-06-21 13:10:32:997
7.5829192199707025,2.5432018127441407,0.11132867431640625,0.02146018482753564,-0.03250425145025619,0.02301709376793118,2.0799999237060547,2019-06-21 13:10:33:003
7.585313385009766,2.513274749755859,0.0790074462890625,0.022924923427079223,-0.03130582895972053,0.023949200149458914,2.0848639011383057,2019-06-21 13:10:33:007
7.5685542297363275,2.5192601623535156,0.1077374267578125,0.023857029808606954,-0.031572145068728456,0.02448183236747476,2.0899839401245117,2019-06-21 13:10:33:013
7.593692962646484,2.482150604248047,0.12808782958984374,0.024789136190134686,-0.031039512850712606,0.02501446458549061,2.0948479175567627,2019-06-21 13:10:33:017
7.587707550048828,2.4558147888183592,0.1316790771484375,0.02425650397211884,-0.031172670905216568,0.02568025485801042,2.0999679565429688,2019-06-21 13:10:33:023
7.597284210205078,2.449829376220703,0.12210241699218749,0.025454926462654494,-0.030240564523688836,0.02647920318503419,2.105087995529175,2019-06-21 13:10:33:028
7.606860870361328,2.446238128662109,0.10414617919921874,0.025987558680670344,-0.028775825924145258,0.025280780694498534,2.109951972961426,2019-06-21 13:10:33:033
7.5841163024902345,2.4222964782714844,0.10534326171875,0.027452297280213925,-0.028642667869641297,0.023416567931443068,2.115072011947632,2019-06-21 13:10:33:038
7.56137173461914,2.4127198181152343,0.12090533447265625,0.028118087552733734,-0.02717792927009771,0.023816042094954953,2.119935989379883,2019-06-21 13:10:33:042
7.549400909423828,2.3935664978027344,0.08499285888671874,0.02971598420678128,-0.027577403433609596,0.023283409876939106,2.125056028366089,2019-06-21 13:10:33:048
7.544612579345703,2.3899752502441407,0.0885841064453125,0.029582826152277315,-0.02624582288856998,0.0215523551683876,2.12992000579834,2019-06-21 13:10:33:052
7.594890045166015,2.3528656921386717,0.0790074462890625,0.031047564751820897,-0.02717792927009771,0.020620248786859866,2.135040044784546,2019-06-21 13:10:33:058
7.596087127685546,2.3420919494628905,0.12090533447265625,0.0317133550243407,-0.02624582288856998,0.01942182629632421,2.139904022216797,2019-06-21 13:10:33:062
7.581722137451171,2.345683197021484,0.14843823242187498,0.031580196969836744,-0.02624582288856998,0.018622877969300438,2.145024061203003,2019-06-21 13:10:33:068
7.610452117919921,2.3385007019042967,0.16400030517578124,0.03224598724235655,-0.02637898094307394,0.017823929642276668,2.149888038635254,2019-06-21 13:10:33:072
7.596087127685546,2.2942086486816406,0.10534326171875,0.03224598724235655,-0.027577403433609596,0.014894452443189503,2.15500807762146,2019-06-21 13:10:33:078
7.600875457763672,2.2798436584472657,0.0957666015625,0.033044935569380325,-0.02824319370612941,0.011831817189598382,2.159872055053711,2019-06-21 13:10:33:082
7.606860870361328,2.253507843017578,0.12569366455078124,0.03357756778739617,-0.028376351760633373,0.009168656099519142,2.164992094039917,2019-06-21 13:10:33:088
7.591298797607422,2.235551605224609,0.100554931640625,0.03397704195090806,-0.027843719542617527,0.005706546682416134,2.169856071472168,2019-06-21 13:10:33:092
7.608057952880859,2.2307632751464843,0.14364990234375,0.03331125167838825,-0.027577403433609596,0.002643911428825009,2.174976110458374,2019-06-21 13:10:33:098
7.606860870361328,2.205624542236328,0.12090533447265625,0.03397704195090806,-0.026778455106585827,-0.0013508302062938482,2.179840087890625,2019-06-21 13:10:33:102
7.614043365478516,2.1984420471191406,0.16280322265625,0.03397704195090806,-0.026645297052081865,-0.0037476751873651627,2.184960126876831,2019-06-21 13:10:33:108
7.586510467529297,2.1709091491699217,0.15442364501953124,0.03477599027793183,-0.02624582288856998,-0.008807681258515714,2.190079927444458,2019-06-21 13:10:33:113
7.6427733459472655,2.1649237365722658,0.12329949951171874,0.03424335805991598,-0.026512138997577903,-0.013468213166154382,2.194943904876709,2019-06-21 13:10:33:117
7.592495880126953,2.1685149841308595,0.1340732421875,0.03530862249594768,-0.02611266483406602,-0.01746295480127324,2.200063943862915,2019-06-21 13:10:33:123
7.579327972412109,2.1733033142089844,0.13287615966796876,0.03570809665945956,-0.02624582288856998,-0.02385454141746341,2.204927921295166,2019-06-21 13:10:33:127
7.617634613037109,2.180485809326172,0.10654034423828125,0.03677336109549126,-0.026778455106585827,-0.027183492780062456,2.210047960281372,2019-06-21 13:10:33:133
7.594890045166015,2.1972449645996095,0.11372283935546874,0.0366402030409873,-0.02611266483406602,-0.031045076360677357,2.214911937713623,2019-06-21 13:10:33:137
7.590101715087891,2.218792449951172,0.0957666015625,0.03703967720449918,-0.02704477121559375,-0.0343740277232764,2.220031976699829,2019-06-21 13:10:33:143
7.630802520751953,2.2163982849121093,0.11851116943359374,0.03743915136801107,-0.025979506779562057,-0.03916771768541903,2.22489595413208,2019-06-21 13:10:33:147
7.630802520751953,2.194850799560547,0.16759155273437498,0.03677336109549126,-0.02624582288856998,-0.043695091538553735,2.230015993118286,2019-06-21 13:10:33:153
7.585313385009766,2.2175953674316404,0.12928491210937498,0.03677336109549126,-0.025846348725058095,-0.048222465391688445,2.234879970550537,2019-06-21 13:10:33:157
7.593692962646484,2.2403399353027345,0.1316790771484375,0.03570809665945956,-0.025580032616050172,-0.05155141675428749,2.240000009536743,2019-06-21 13:10:33:163
7.591298797607422,2.2319603576660154,0.12329949951171874,0.03530862249594768,-0.025979506779562057,-0.054747210062382576,2.244863986968994,2019-06-21 13:10:33:167
7.588904632568359,2.239142852783203,0.12928491210937498,0.036107570822971446,-0.025180558452538287,-0.05727721309795785,2.2499840259552,2019-06-21 13:10:33:173
7.5841163024902345,2.2319603576660154,0.08379577636718749,0.036507044986483335,-0.02531371650704225,-0.06100563862406878,2.254848003387451,2019-06-21 13:10:33:177
7.615240447998047,2.2427341003417967,0.11851116943359374,0.03690651914999522,-0.025180558452538287,-0.06420143193216386,2.2599680423736572,2019-06-21 13:10:33:183
7.593692962646484,2.278646575927734,0.0790074462890625,0.036107570822971446,-0.023715819852994702,-0.06686459302224311,2.2650880813598633,2019-06-21 13:10:33:188
7.58052505493164,2.2750553283691404,0.06823370361328125,0.03570809665945956,-0.024248452071010555,-0.06939459605781839,2.2699520587921143,2019-06-21 13:10:33:193
7.585313385009766,2.2714640808105466,0.0981607666015625,0.03504230638693975,-0.023715819852994702,-0.07285670547492139,2.2750720977783203,2019-06-21 13:10:33:198
7.600875457763672,2.319347381591797,0.08499285888671874,0.03570809665945956,-0.023715819852994702,-0.0752535504559927,2.2799360752105713,2019-06-21 13:10:33:202
7.605663787841797,2.3121648864746094,0.09456951904296874,0.0366402030409873,-0.02358266179849074,-0.07711776321904817,2.2850561141967773,2019-06-21 13:10:33:208
7.604466705322266,2.358851104736328,0.1173140869140625,0.03690651914999522,-0.023183187634978855,-0.07951460820011949,2.2899200916290283,2019-06-21 13:10:33:212
7.618831695556641,2.3792015075683595,0.1268907470703125,0.036507044986483335,-0.022384239307955085,-0.08071303069065515,2.2950401306152344,2019-06-21 13:10:33:218
7.6272112731933595,2.391172332763672,0.10893450927734374,0.03624072887747541,-0.022384239307955085,-0.0819114531811908,2.2999041080474854,2019-06-21 13:10:33:222
7.606860870361328,2.4187052307128907,0.1077374267578125,0.036507044986483335,-0.02344950374398678,-0.08310987567172645,2.3050239086151123,2019-06-21 13:10:33:228
7.579327972412109,2.4366614685058594,0.1364674072265625,0.0355749386049556,-0.022251081253451124,-0.08390882399875023,2.3098881244659424,2019-06-21 13:10:33:232
7.5697513122558595,2.4330702209472657,0.14364990234375,0.03490914833243579,-0.022117923198947162,-0.08417514010775816,2.3150079250335693,2019-06-21 13:10:33:238
7.533838836669922,2.4486322937011717,0.1843507080078125,0.035441780550451635,-0.021718449035435277,-0.08364250788974231,2.3198719024658203,2019-06-21 13:10:33:242
7.550597991943359,2.4701797790527342,0.1460440673828125,0.03424335805991598,-0.022117923198947162,-0.08430829816226212,2.3249919414520264,2019-06-21 13:10:33:248
7.52306509399414,2.4199023132324218,0.1412557373046875,0.033444409732892214,-0.022384239307955085,-0.08430829816226212,2.3298559188842773,2019-06-21 13:10:33:252
7.533838836669922,2.4187052307128907,0.12569366455078124,0.033044935569380325,-0.023848977907498663,-0.08324303372623042,2.3349759578704834,2019-06-21 13:10:33:258
7.527853424072266,2.391172332763672,0.09696368408203125,0.03477599027793183,-0.021052658762915465,-0.08444145621676608,2.3400959968566895,2019-06-21 13:10:33:263
7.556583404541016,2.3660335998535156,0.10294909667968749,0.03570809665945956,-0.019055287945356037,-0.08603935287081363,2.3449599742889404,2019-06-21 13:10:33:268
7.562568817138672,2.382792755126953,0.0790074462890625,0.03584125471396352,-0.016791601018788686,-0.08737093341585324,2.3500800132751465,2019-06-21 13:10:33:273
7.558977569580078,2.3552598571777343,0.02035040283203125,0.03504230638693975,-0.015460020473749066,-0.08803672368837305,2.3549439907073975,2019-06-21 13:10:33:277
7.579327972412109,2.349274444580078,0.05865704345703125,0.035441780550451635,-0.013862123819701522,-0.08830303979738097,2.3600640296936035,2019-06-21 13:10:33:283
7.58052505493164,2.333712371826172,0.00837957763671875,0.03517546444144371,-0.013063175492677753,-0.09083304283295625,2.3649280071258545,2019-06-21 13:10:33:287
7.570948394775391,2.3109678039550783,0.02035040283203125,0.03517546444144371,-0.01279685938366983,-0.09256409754150775,2.3700480461120605,2019-06-21 13:10:33:293
7.617634613037109,2.276252410888672,0.0550657958984375,0.03677336109549126,-0.011065804675118323,-0.09536041668609097,2.3749120235443115,2019-06-21 13:10:33:297
7.622422943115234,2.264281585693359,0.07062786865234374,0.03850441580404276,-0.009867382184582666,-0.09828989388517811,2.3800320625305176,2019-06-21 13:10:33:303
7.6284083557128906,2.2654786682128907,0.09217535400390625,0.03863757385854672,-0.008935275803054933,-0.102151477465793,2.3848960399627686,2019-06-21 13:10:33:307
7.636787933349609,2.2511136779785157,0.1077374267578125,0.03930336413106653,-0.00866895969404701,-0.10561358688289602,2.3900160789489746,2019-06-21 13:10:33:313
7.63798501586914,2.267872833251953,0.14724114990234374,0.041567051057633884,-0.00866895969404701,-0.11067359295404658,2.3948800563812256,2019-06-21 13:10:33:317
7.641576263427734,2.266675750732422,0.15921197509765625,0.04276547354816954,-0.008136327476031161,-0.11493465069817335,2.4000000953674316,2019-06-21 13:10:33:323
7.665517913818359,2.296602813720703,0.1268907470703125,0.04356442187519331,-0.009867382184582666,-0.11746465373374863,2.4048640727996826,2019-06-21 13:10:33:327
7.6427733459472655,2.3408948669433594,0.11372283935546874,0.04649389907428048,-0.011065804675118323,-0.1199946567693239,2.4099841117858887,2019-06-21 13:10:33:333
7.6128462829589845,2.3468802795410157,0.15202947998046876,0.049157060164359716,-0.009734224130078704,-0.12225834369589125,2.4148480892181396,2019-06-21 13:10:33:337
7.617634613037109,2.431873138427734,0.1364674072265625,0.05008916654588745,-0.010000540239086628,-0.12372308229543486,2.4199681282043457,2019-06-21 13:10:33:343
7.615240447998047,2.472573944091797,0.13048199462890625,0.0512875890364231,-0.010266856348094553,-0.12505466284047448,2.4250879287719727,2019-06-21 13:10:33:348
7.610452117919921,2.5288368225097657,0.1604090576171875,0.05328495985398254,-0.012530543274661906,-0.12678571754902596,2.4299519062042236,2019-06-21 13:10:33:353
7.6128462829589845,2.5767201232910155,0.18075946044921876,0.053817592071998384,-0.01372896576519756,-0.12638624338551407,2.4350719451904297,2019-06-21 13:10:33:358
7.624817108154296,2.6246034240722658,0.20709527587890625,0.05554864678054989,-0.013196333547181714,-0.12478834673146655,2.4399359226226807,2019-06-21 13:10:33:362
7.581722137451171,2.6617129821777343,0.21427777099609374,0.055282330671541965,-0.0135958077106936,-0.1227909759139071,2.4450559616088867,2019-06-21 13:10:33:368
7.570948394775391,2.727552520751953,0.2801173095703125,0.05474969845352612,-0.014794230201229257,-0.11986149871481994,2.4499199390411377,2019-06-21 13:10:33:372
7.572145477294922,2.7586766662597655,0.26216107177734377,0.05501601456253404,-0.015193704364741142,-0.11746465373374863,2.4550399780273438,2019-06-21 13:10:33:378
7.545809661865234,2.823319122314453,0.2370223388671875,0.054483382344518196,-0.016125810746268877,-0.11333675404412581,2.4599039554595947,2019-06-21 13:10:33:382
7.525459259033203,2.831698699951172,0.2322340087890625,0.05554864678054989,-0.018788971836348114,-0.10840990602747921,2.465023994445801,2019-06-21 13:10:33:388
7.529050506591797,2.847260772705078,0.22026318359375,0.05474969845352612,-0.01932160405436396,-0.10441516439236036,2.4698879718780518,2019-06-21 13:10:33:392
7.543415496826172,2.8556403503417966,0.2322340087890625,0.053684434017494426,-0.019987394326883772,-0.09895568415769793,2.475008010864258,2019-06-21 13:10:33:398
7.529050506591797,2.862822845458984,0.20470111083984374,0.05208653736344687,-0.0219847651444432,-0.09322988781402755,2.479871988296509,2019-06-21 13:10:33:402
7.520670928955078,2.875990753173828,0.2370223388671875,0.051154430981919144,-0.023715819852994702,-0.0885693559063889,2.484992027282715,2019-06-21 13:10:33:408
7.544612579345703,2.880779083251953,0.23941650390625,0.051953379308942914,-0.024115294016506587,-0.08284355956271854,2.489856004714966,2019-06-21 13:10:33:412
7.529050506591797,2.8879615783691404,0.18794195556640625,0.050754956818407256,-0.02451476818001848,-0.07605249878301647,2.494976043701172,2019-06-21 13:10:33:418
7.513488433837891,2.9023265686035153,0.18554779052734374,0.04942337627336764,-0.02637898094307394,-0.07152512492988178,2.499840021133423,2019-06-21 13:10:33:422
7.485955535888672,2.9011294860839842,0.18195654296875,0.047692321564816134,-0.02811003565162545,-0.06433458998666783,2.504960060119629,2019-06-21 13:10:33:428
7.46560513305664,2.933450714111328,0.1699857177734375,0.04329810576618539,-0.030373722578192798,-0.059008267806509355,2.510080099105835,2019-06-21 13:10:33:433
7.482364288330078,2.917888641357422,0.14245281982421876,0.04050178662160219,-0.02984109036017695,-0.05261668119031918,2.514944076538086,2019-06-21 13:10:33:437
7.489546783447265,2.9154944763183592,0.11851116943359374,0.038770731913050686,-0.0314389870142245,-0.046890884846648814,2.520064115524292,2019-06-21 13:10:33:443
7.477575958251953,2.9250711364746094,0.15202947998046876,0.03770546747701899,-0.03223793534124827,-0.04116508850297846,2.524928092956543,2019-06-21 13:10:33:447
7.48356137084961,2.919085723876953,0.1508323974609375,0.03570809665945956,-0.033436357831783926,-0.034507185777780364,2.530048131942749,2019-06-21 13:10:33:453
7.497926361083985,2.9262682189941405,0.16878863525390625,0.033044935569380325,-0.031971619232240345,-0.02678401861655057,2.534912109375,2019-06-21 13:10:33:457
7.496729278564453,2.8927499084472656,0.12329949951171874,0.031047564751820897,-0.033170041722776,-0.020925064218376248,2.540031909942627,2019-06-21 13:10:33:463
7.501517608642578,2.8676111755371094,0.12449658203125,0.029982300315789204,-0.033170041722776,-0.015332425929209848,2.544896125793457,2019-06-21 13:10:33:467
7.505108856201172,2.860428680419922,0.16400030517578124,0.028118087552733734,-0.03383583199529581,-0.010405577912563257,2.550015926361084,2019-06-21 13:10:33:473
7.488349700927734,2.8400782775878906,0.10654034423828125,0.02771861338922185,-0.031971619232240345,-0.0038808332418691243,2.554879903793335,2019-06-21 13:10:33:477
7.514685516357422,2.8352899475097657,0.13287615966796876,0.027585455334717887,-0.032637409504760156,0.0018449631018012376,2.559999942779541,2019-06-21 13:10:33:483
7.482364288330078,2.8005745544433593,0.1340732421875,0.02771861338922185,-0.033170041722776,0.0065054950094399055,2.564863920211792,2019-06-21 13:10:33:487
7.485955535888672,2.8101512145996095,0.1077374267578125,0.026120716735174306,-0.03290372561376808,0.010766552753566685,2.569983959197998,2019-06-21 13:10:33:493
7.527853424072266,2.8017716369628904,0.10893450927734374,0.02518861035364657,-0.033569515886287885,0.015826558824717236,2.574847936630249,2019-06-21 13:10:33:497
7.513488433837891,2.765859161376953,0.09696368408203125,0.024922294244638647,-0.031572145068728456,0.020753406841363828,2.579967975616455,2019-06-21 13:10:33:503
7.531444671630859,2.774238739013672,0.110131591796875,0.023723871754102992,-0.030107406469184875,0.025147622639994573,2.585088014602661,2019-06-21 13:10:33:508
7.549400909423828,2.727552520751953,0.12329949951171874,0.022525449263567334,-0.031172670905216568,0.029541838438625314,2.589951992034912,2019-06-21 13:10:33:513
7.552992156982421,2.727552520751953,0.13048199462890625,0.023058081481583184,-0.030906354796208645,0.034202370346263986,2.595072031021118,2019-06-21 13:10:33:518
7.558977569580078,2.7000196228027344,0.1508323974609375,0.022392291209063372,-0.0314389870142245,0.03753132170886302,2.599936008453369,2019-06-21 13:10:33:522
7.557780487060547,2.6868517150878906,0.12569366455078124,0.020394920391503944,-0.03223793534124827,0.03979500863543038,2.605056047439575,2019-06-21 13:10:33:528
7.557780487060547,2.6569246520996095,0.12329949951171874,0.020261762336999983,-0.03370267394079185,0.041925537507493775,2.609920024871826,2019-06-21 13:10:33:532
7.535035919189453,2.6186180114746094,0.1556207275390625,0.02012860428249602,-0.033170041722776,0.04418922443406112,2.6150400638580322,2019-06-21 13:10:33:538
7.536233001708984,2.579114288330078,0.1364674072265625,0.019196497900968286,-0.033436357831783926,0.04618659525162055,2.619904041290283,2019-06-21 13:10:33:542
7.5242621765136715,2.5575668029785157,0.16280322265625,0.019595972064480174,-0.03330319977727996,0.048450282178187906,2.6250240802764893,2019-06-21 13:10:33:548
7.545809661865234,2.5204572448730467,0.1412557373046875,0.018930181791960363,-0.033569515886287885,0.04898291439620375,2.6298880577087402,2019-06-21 13:10:33:552
7.562568817138672,2.512077667236328,0.158014892578125,0.01932965595547225,-0.03450162226781562,0.05031449494124337,2.6350080966949463,2019-06-21 13:10:33:558
7.575736724853515,2.459406036376953,0.14724114990234374,0.018930181791960363,-0.03396899004979977,0.050447652995747334,2.6398720741271973,2019-06-21 13:10:33:562
7.587707550048828,2.449829376220703,0.13527032470703124,0.018397549573944516,-0.03237109339575223,0.04991502077773149,2.6449921131134033,2019-06-21 13:10:33:568
7.604466705322266,2.4187052307128907,0.0957666015625,0.01866386568295244,-0.03290372561376808,0.04938238855971564,2.6498560905456543,2019-06-21 13:10:33:572
7.610452117919921,2.3935664978027344,0.1412557373046875,0.019595972064480174,-0.03383583199529581,0.049249230505211676,2.6549761295318604,2019-06-21 13:10:33:578
7.5984812927246095,2.3361065368652345,0.14245281982421876,0.02012860428249602,-0.03383583199529581,0.046852385524140366,2.6598401069641113,2019-06-21 13:10:33:582
7.585313385009766,2.328924041748047,0.13287615966796876,0.020528078446007906,-0.03463478032231958,0.04552080497910074,2.6649599075317383,2019-06-21 13:10:33:588
7.599678375244141,2.306179473876953,0.14245281982421876,0.02146018482753564,-0.03370267394079185,0.04365659221604527,2.6700799465179443,2019-06-21 13:10:33:593
7.5984812927246095,2.2714640808105466,0.10893450927734374,0.02279176537257526,-0.034235306158807696,0.04112658918047,2.6749439239501953,2019-06-21 13:10:33:597
7.604466705322266,2.2463253479003904,0.11132867431640625,0.022525449263567334,-0.03516741254033543,0.03912921836291057,2.6800639629364014,2019-06-21 13:10:33:603
7.60925503540039,2.235551605224609,0.14484698486328124,0.02279176537257526,-0.03383583199529581,0.03673237338183925,2.6849279403686523,2019-06-21 13:10:33:607
7.599678375244141,2.229566192626953,0.1412557373046875,0.024522820081126762,-0.03383583199529581,0.033137105910232285,2.6900479793548584,2019-06-21 13:10:33:613
7.623620025634765,2.1888653869628905,0.10414617919921874,0.025454926462654494,-0.034368464213311654,0.029808154547633237,2.6949119567871094,2019-06-21 13:10:33:617
7.614043365478516,2.166120819091797,0.08379577636718749,0.024522820081126762,-0.03250425145025619,0.02448183236747476,2.7000319957733154,2019-06-21 13:10:33:623
7.622422943115234,2.146967498779297,0.114919921875,0.026786507007694117,-0.03223793534124827,0.020487090732355905,2.7048959732055664,2019-06-21 13:10:33:627
7.624817108154296,2.1302083435058594,0.1364674072265625,0.027585455334717887,-0.033436357831783926,0.015826558824717236,2.7100160121917725,2019-06-21 13:10:33:633
7.621225860595703,2.1218287658691404,0.07541619873046874,0.028251245607237695,-0.03237109339575223,0.010899710808070647,2.7148799896240234,2019-06-21 13:10:33:637
7.605663787841797,2.105069610595703,0.06703662109375,0.029050193934261465,-0.03183846117773638,0.005972862791424057,2.7200000286102295,2019-06-21 13:10:33:643
7.631999603271484,2.085916290283203,0.037109558105468746,0.029982300315789204,-0.031172670905216568,0.0009128567202735044,2.7248640060424805,2019-06-21 13:10:33:647
7.6128462829589845,2.0978871154785157,0.062248291015625,0.031580196969836744,-0.029974248414680913,-0.005611887950420629,2.7299840450286865,2019-06-21 13:10:33:653
7.620028778076172,2.082325042724609,0.06823370361328125,0.03184651307884467,-0.029441616196665066,-0.010405577912563257,2.7348480224609375,2019-06-21 13:10:33:657
7.640379180908203,2.0883104553222656,0.038306640625,0.033843883896404095,-0.02797687759712149,-0.015332425929209848,2.7399680614471436,2019-06-21 13:10:33:663
7.639182098388671,2.0835221252441407,0.0550657958984375,0.03357756778739617,-0.02717792927009771,-0.019992957836848516,2.7450881004333496,2019-06-21 13:10:33:668
7.597284210205078,2.0919017028808593,0.04788330078125,0.03371072584190014,-0.02637898094307394,-0.02678401861655057,2.7499520778656006,2019-06-21 13:10:33:673
7.610452117919921,2.085916290283203,0.07062786865234374,0.03504230638693975,-0.02717792927009771,-0.03224349885121301,2.7550721168518066,2019-06-21 13:10:33:678
7.60925503540039,2.0978871154785157,0.07302203369140625,0.03690651914999522,-0.025580032616050172,-0.03690403075885167,2.7599360942840576,2019-06-21 13:10:33:682
7.639182098388671,2.139785003662109,0.100554931640625,0.03757230942251503,-0.024248452071010555,-0.04262982710252204,2.7650561332702637,2019-06-21 13:10:33:688
7.631999603271484,2.1326025085449216,0.09456951904296874,0.0383712577495388,-0.024115294016506587,-0.04729035901016071,2.7699201107025146,2019-06-21 13:10:33:692
7.608057952880859,2.1445733337402344,0.081401611328125,0.03823809969503484,-0.023715819852994702,-0.05261668119031918,2.7750399112701416,2019-06-21 13:10:33:698
7.592495880126953,2.181682891845703,0.14724114990234374,0.03757230942251503,-0.02344950374398678,-0.05621194866192616,2.7799041271209717,2019-06-21 13:10:33:702
7.581722137451171,2.204427459716797,0.17836529541015625,0.037305993313507105,-0.022517397362459047,-0.05940774197002124,2.7850239276885986,2019-06-21 13:10:33:708
7.573342559814453,2.2080187072753907,0.08020452880859374,0.036507044986483335,-0.023050029580474894,-0.06260353527811632,2.7898879051208496,2019-06-21 13:10:33:712
7.58052505493164,2.219989532470703,0.081401611328125,0.0355749386049556,-0.022384239307955085,-0.06726406718575499,2.7950079441070557,2019-06-21 13:10:33:718
7.578130889892578,2.2415370178222656,0.08618994140625,0.03584125471396352,-0.02265055541696301,-0.0717914410388897,2.7998719215393066,2019-06-21 13:10:33:722
7.581722137451171,2.237945770263672,0.06583953857421875,0.03597441276846748,-0.022251081253451124,-0.07605249878301647,2.8049919605255127,2019-06-21 13:10:33:728
7.605663787841797,2.229566192626953,0.10414617919921874,0.036107570822971446,-0.02265055541696301,-0.07898197598210364,2.8098559379577637,2019-06-21 13:10:33:732
7.599678375244141,2.2307632751464843,0.12569366455078124,0.03584125471396352,-0.0219847651444432,-0.08204461123569476,2.8149759769439697,2019-06-21 13:10:33:738
7.588904632568359,2.2654786682128907,0.10654034423828125,0.0355749386049556,-0.02145213292642735,-0.084707772325774,2.8198399543762207,2019-06-21 13:10:33:742
7.566160064697265,2.2403399353027345,0.14843823242187498,0.03717283525900315,-0.02065318459940358,-0.08737093341585324,2.8249599933624268,2019-06-21 13:10:33:748
7.548203826904297,2.261887420654297,0.11252575683593749,0.037971783586026917,-0.020120552381387734,-0.09123251699646813,2.830080032348633,2019-06-21 13:10:33:753
7.542218414306641,2.237945770263672,0.07661328125,0.03703967720449918,-0.019454762108867922,-0.09456146835906719,2.834944009780884,2019-06-21 13:10:33:757
7.5553863220214845,2.2403399353027345,0.062248291015625,0.03717283525900315,-0.019055287945356037,-0.09642568112212266,2.84006404876709,2019-06-21 13:10:33:763
7.521868011474609,2.2463253479003904,0.0454891357421875,0.03677336109549126,-0.017723707400316417,-0.09908884221220189,2.844928026199341,2019-06-21 13:10:33:767
7.5266563415527346,2.224777862548828,0.07661328125,0.03624072887747541,-0.017457391291308494,-0.10281726773831282,2.850048065185547,2019-06-21 13:10:33:773
7.544612579345703,2.2223836975097657,0.08978118896484374,0.03770546747701899,-0.016658442964284724,-0.1060130610464079,2.854912042617798,2019-06-21 13:10:33:777
7.6128462829589845,2.2152012023925782,0.06583953857421875,0.03703967720449918,-0.015593178528253027,-0.11040727684503866,2.860032081604004,2019-06-21 13:10:33:783
7.592495880126953,2.2319603576660154,0.11611700439453125,0.03597441276846748,-0.014128439928709446,-0.11413570237114959,2.864896059036255,2019-06-21 13:10:33:787
7.5841163024902345,2.235551605224609,0.04908038330078125,0.036107570822971446,-0.014128439928709446,-0.11733149567924467,2.870016098022461,2019-06-21 13:10:33:793
7.606860870361328,2.218792449951172,0.08379577636718749,0.036107570822971446,-0.0135958077106936,-0.1210599212053556,2.874880075454712,2019-06-21 13:10:33:797
7.618831695556641,2.2140041198730467,0.07781036376953125,0.036507044986483335,-0.012530543274661906,-0.12465518867696258,2.880000114440918,2019-06-21 13:10:33:803
7.643970428466797,2.233157440185547,0.04908038330078125,0.03690651914999522,-0.01226422716565398,-0.12904940447559332,2.884864091873169,2019-06-21 13:10:33:807
7.645167510986328,2.2259749450683595,0.08978118896484374,0.03703967720449918,-0.013063175492677753,-0.13251151389269633,2.889984130859375,2019-06-21 13:10:33:813
7.646364593505859,2.2463253479003904,0.10294909667968749,0.03770546747701899,-0.011598436893134171,-0.13703888774583103,2.894848108291626,2019-06-21 13:10:33:817
7.640379180908203,2.267872833251953,0.10175201416015625,0.039569680240074456,-0.011731594947638133,-0.14050098884055562,2.899967908859253,2019-06-21 13:10:33:823
7.651152923583984,2.3253327941894533,0.10654034423828125,0.039969154403586345,-0.01239738522015794,-0.14436257242117054,2.905087947845459,2019-06-21 13:10:33:828
7.647561676025391,2.3696248474121093,0.1316790771484375,0.040768102730610115,-0.012663701329165868,-0.14782468183827355,2.90995192527771,2019-06-21 13:10:33:833
7.622422943115234,2.4378585510253905,0.19512445068359374,0.04170020911213785,-0.013329491601685676,-0.149688894601329,2.915071964263916,2019-06-21 13:10:33:838
7.623620025634765,2.497712677001953,0.14484698486328124,0.042232841330153696,-0.013329491601685676,-0.14928942043781712,2.919935941696167,2019-06-21 13:10:33:842
7.618831695556641,2.5384134826660154,0.1651973876953125,0.044230212147713124,-0.01426159798321341,-0.14995521071033693,2.925055980682373,2019-06-21 13:10:33:848
7.652350006103515,2.5803113708496093,0.177168212890625,0.04449652825672105,-0.014927388255733219,-0.14955573654682505,2.929919958114624,2019-06-21 13:10:33:852
7.623620025634765,2.626997589111328,0.19273028564453124,0.044629686311225006,-0.016125810746268877,-0.14835731405628938,2.93503999710083,2019-06-21 13:10:33:858
7.624817108154296,2.655727569580078,0.1316790771484375,0.044629686311225006,-0.01625896880077284,-0.14609362712972204,2.939903974533081,2019-06-21 13:10:33:862
7.616437530517578,2.6916400451660154,0.19033612060546876,0.04636074101977652,-0.017590549345812456,-0.14369678214865073,2.945024013519287,2019-06-21 13:10:33:868
7.600875457763672,2.721567108154297,0.11851116943359374,0.0478254796193201,-0.018123181563828306,-0.14010151467704374,2.949887990951538,2019-06-21 13:10:33:872
7.591298797607422,2.7491000061035153,0.10414617919921874,0.04889074405535179,-0.018922129890852075,-0.13597362330979934,2.955008029937744,2019-06-21 13:10:33:878
7.600875457763672,2.756282501220703,0.1340732421875,0.04968969238237556,-0.019454762108867922,-0.13277783000170423,2.959872007369995,2019-06-21 13:10:33:882
7.593692962646484,2.804165802001953,0.15202947998046876,0.05048864070939933,-0.020786342653907542,-0.12891624642108937,2.964992046356201,2019-06-21 13:10:33:888
7.560174652099609,2.846063690185547,0.17836529541015625,0.05048864070939933,-0.021585290980931315,-0.12438887256795465,2.969856023788452,2019-06-21 13:10:33:892
7.548203826904297,2.846063690185547,0.1651973876953125,0.05088811487291122,-0.019987394326883772,-0.11879623427878824,2.974976062774658,2019-06-21 13:10:33:898
7.56137173461914,2.862822845458984,0.21188360595703123,0.0506217987639033,-0.020386868490395657,-0.11373622820763771,2.9800961017608643,2019-06-21 13:10:33:903
7.55179507446289,2.8843703308105466,0.177168212890625,0.05168706319993499,-0.023183187634978855,-0.109208854354503,2.9849600791931152,2019-06-21 13:10:33:908
7.542218414306641,2.8879615783691404,0.14724114990234374,0.05168706319993499,-0.022117923198947162,-0.10281726773831282,2.9900801181793213,2019-06-21 13:10:33:913
7.530247589111328,2.905917816162109,0.12090533447265625,0.052352853472454795,-0.02065318459940358,-0.09562673279509888,2.9949440956115723,2019-06-21 13:10:33:917
7.501517608642578,2.9238740539550783,0.100554931640625,0.051154430981919144,-0.022251081253451124,-0.0899009364514285,3.000063896179199,2019-06-21 13:10:33:923
7.482364288330078,2.9346477966308595,0.1364674072265625,0.05182022125443895,-0.022916871525970932,-0.08444145621676608,3.0049281120300293,2019-06-21 13:10:33:927
7.46560513305664,2.943027374267578,0.14005865478515625,0.05102127292741518,-0.02185160708993924,-0.07671828905553629,3.0100479125976562,2019-06-21 13:10:33:933
7.476378875732422,2.9657719421386717,0.08978118896484374,0.049956008491383486,-0.022251081253451124,-0.07085933465736197,3.0149121284484863,2019-06-21 13:10:33:937
7.4811672058105465,2.9921077575683594,0.14005865478515625,0.04982285043687952,-0.022916871525970932,-0.06313616749613217,3.0200319290161133,2019-06-21 13:10:33:943
7.49433511352539,2.9968960876464843,0.1412557373046875,0.049956008491383486,-0.02278371347146697,-0.056744580879942004,3.0248959064483643,2019-06-21 13:10:33:947
7.497926361083985,3.001684417724609,0.12569366455078124,0.047692321564816134,-0.0219847651444432,-0.048621939555200326,3.0300159454345703,2019-06-21 13:10:33:953
7.445254730224609,3.0411881408691404,0.17357696533203124,0.04636074101977652,-0.020253710435891695,-0.040632456284962606,3.0348799228668213,2019-06-21 13:10:33:957
7.418918914794921,3.0172464904785157,0.15442364501953124,0.04556179269275275,-0.020253710435891695,-0.0315777085786932,3.0399999618530273,2019-06-21 13:10:33:963
7.444057647705078,3.028020233154297,0.14724114990234374,0.04249915743916162,-0.021052658762915465,-0.024120857526471338,3.0448639392852783,2019-06-21 13:10:33:967
7.490743865966797,3.0124581604003904,0.1412557373046875,0.04050178662160219,-0.021585290980931315,-0.016264532310737583,3.0499839782714844,2019-06-21 13:10:33:973
7.463210968017578,3.0088669128417966,0.15681781005859374,0.03970283829457842,-0.022916871525970932,-0.009739787640043447,3.0548479557037354,2019-06-21 13:10:33:977
7.487152618408203,2.9968960876464843,0.20110986328125,0.0366402030409873,-0.024781084289026402,-0.002416094642325543,3.0599679946899414,2019-06-21 13:10:33:983
7.501517608642578,2.984925262451172,0.15921197509765625,0.0355749386049556,-0.024115294016506587,0.003975491973864628,3.0650880336761475,2019-06-21 13:10:33:988
7.511094268798828,2.9633777770996095,0.21188360595703123,0.03411020000541202,-0.02451476818001848,0.011831817189598382,3.0699520111083984,2019-06-21 13:10:33:993
7.496729278564453,2.9358448791503906,0.1987156982421875,0.031979671133348625,-0.02464792623452244,0.019688142405332135,3.0750720500946045,2019-06-21 13:10:33:998
7.506305938720703,2.9107061462402344,0.17118280029296876,0.03118072280632486,-0.025180558452538287,0.026079729021522304,3.0799360275268555,2019-06-21 13:10:34:002
7.50391177368164,2.885567413330078,0.1532265625,0.029316510043269392,-0.026645297052081865,0.031539209256184746,3.0850560665130615,2019-06-21 13:10:34:008
7.4955321960449215,2.860428680419922,0.15681781005859374,0.028118087552733734,-0.029308458142161105,0.036599215327335295,3.0899200439453125,2019-06-21 13:10:34:012
7.51229135131836,2.8269103698730467,0.12449658203125,0.026653348953190156,-0.028642667869641297,0.042724485834517545,3.0950400829315186,2019-06-21 13:10:34:018
7.506305938720703,2.8017716369628904,0.16160614013671876,0.027185981171206002,-0.02890898397864922,0.048050808014676025,3.0999040603637695,2019-06-21 13:10:34:022
7.497926361083985,2.759873748779297,0.17597113037109374,0.02572124257166242,-0.02984109036017695,0.05217870770429884,3.1050240993499756,2019-06-21 13:10:34:028
7.506305938720703,2.7287496032714844,0.21188360595703123,0.024789136190134686,-0.029974248414680913,0.05670608155743354,3.1098880767822266,2019-06-21 13:10:34:032
7.527853424072266,2.694034210205078,0.215474853515625,0.023191239536087146,-0.03064003868720072,0.06123345541056825,3.1150081157684326,2019-06-21 13:10:34:038
7.52306509399414,2.679669219970703,0.1891390380859375,0.02146018482753564,-0.031572145068728456,0.06416293260965542,3.1198720932006836,2019-06-21 13:10:34:042
7.519473846435547,2.670092559814453,0.21906610107421876,0.02132702677303168,-0.03183846117773638,0.06762504202675841,3.1249921321868896,2019-06-21 13:10:34:048
7.5697513122558595,2.6317859191894533,0.19991278076171876,0.02079439455501583,-0.031971619232240345,0.0708208353348535,3.1298561096191406,2019-06-21 13:10:34:052
7.5541892395019525,2.5946763610839843,0.19991278076171876,0.019595972064480174,-0.035034254485831466,0.07122030949836539,3.1349759101867676,2019-06-21 13:10:34:058
7.560174652099609,2.5491872253417966,0.22026318359375,0.019729130118984136,-0.037697415575910706,0.07321768031592482,3.1398401260375977,2019-06-21 13:10:34:062
7.576933807373047,2.510880584716797,0.2274456787109375,0.01999544622799206,-0.03756425752140674,0.07548136724249217,3.1449599266052246,2019-06-21 13:10:34:068
7.593692962646484,2.4857418518066408,0.18195654296875,0.019862288173488098,-0.0359663608673592,0.07441610280646048,3.1500799655914307,2019-06-21 13:10:34:073
7.572145477294922,2.4510264587402344,0.177168212890625,0.019595972064480174,-0.03450162226781562,0.07548136724249217,3.1549439430236816,2019-06-21 13:10:34:077
7.5685542297363275,2.397157745361328,0.1843507080078125,0.0187970237374564,-0.03583320281285524,0.07481557696997236,3.1600639820098877,2019-06-21 13:10:34:083
7.578130889892578,2.3696248474121093,0.17357696533203124,0.01799807541043263,-0.036898467248886936,0.07375031253394067,3.1649279594421387,2019-06-21 13:10:34:087
7.590101715087891,2.3612452697753907,0.1532265625,0.016799652919896973,-0.038629521957438434,0.07335083837042879,3.1700479984283447,2019-06-21 13:10:34:093
7.587707550048828,2.331318206787109,0.09456951904296874,0.01746544319241678,-0.037830573630414664,0.07135346755286935,3.1749119758605957,2019-06-21 13:10:34:097
7.5829192199707025,2.2834349060058594,0.1173140869140625,0.01733228513791282,-0.03796373168491863,0.06829083229927822,3.1800320148468018,2019-06-21 13:10:34:103
7.603269622802734,2.2271720275878906,0.090978271484375,0.016932810974400934,-0.03636583503087109,0.06669293564523068,3.1848959922790527,2019-06-21 13:10:34:107
7.621225860595703,2.1936537170410157,0.090978271484375,0.01586754653836924,-0.03649899308537505,0.062298719846599945,3.190016031265259,2019-06-21 13:10:34:113
7.617634613037109,2.180485809326172,0.09217535400390625,0.016932810974400934,-0.036099518921863166,0.05936924264751278,3.1948800086975098,2019-06-21 13:10:34:117
7.633196685791016,2.1206316833496093,0.0574599609375,0.018930181791960363,-0.037031625303390894,0.05484186879437808,3.200000047683716,2019-06-21 13:10:34:123
7.623620025634765,2.0739454650878906,0.062248291015625,0.018397549573944516,-0.0359663608673592,0.0495155466142196,3.204864025115967,2019-06-21 13:10:34:127
7.622422943115234,2.0751425476074217,0.09217535400390625,0.019196497900968286,-0.03450162226781562,0.04365659221604527,3.209984064102173,2019-06-21 13:10:34:133
7.614043365478516,2.0476096496582032,0.12569366455078124,0.019862288173488098,-0.03450162226781562,0.037664479763366995,3.214848041534424,2019-06-21 13:10:34:137
7.616437530517578,2.008105926513672,0.12569366455078124,0.02132702677303168,-0.03370267394079185,0.031006577038168896,3.21996808052063,2019-06-21 13:10:34:143
7.641576263427734,1.9829671936035156,0.1556207275390625,0.022392291209063372,-0.032637409504760156,0.024614990421978726,3.225088119506836,2019-06-21 13:10:34:148
7.6427733459472655,1.956631378173828,0.1412557373046875,0.02345755564509507,-0.034235306158807696,0.017291297424260818,3.229952096939087,2019-06-21 13:10:34:153
7.63798501586914,1.9590255432128907,0.15442364501953124,0.02425650397211884,-0.033436357831783926,0.010899710808070647,3.235071897506714,2019-06-21 13:10:34:158
7.639182098388671,1.9446605529785155,0.12210241699218749,0.02518861035364657,-0.03250425145025619,0.0037091758648567044,3.239936113357544,2019-06-21 13:10:34:162
7.63798501586914,1.9458576354980468,0.10893450927734374,0.025321768408150532,-0.031971619232240345,-0.0053455718414127055,3.245055913925171,2019-06-21 13:10:34:168
7.654744171142578,1.9362809753417969,0.09456951904296874,0.027984929498229772,-0.031971619232240345,-0.0120034745666108,3.249920129776001,2019-06-21 13:10:34:172
7.623620025634765,1.9506459655761719,0.12210241699218749,0.028251245607237695,-0.030906354796208645,-0.019726641727840593,3.255039930343628,2019-06-21 13:10:34:178
7.623620025634765,1.942266387939453,0.07062786865234374,0.03051493253380505,-0.030107406469184875,-0.027449808889070386,3.259903907775879,2019-06-21 13:10:34:182
7.654744171142578,1.955434295654297,0.051474548339843745,0.03224598724235655,-0.030107406469184875,-0.03464034383228433,3.265023946762085,2019-06-21 13:10:34:188
7.661926666259766,1.9745876159667968,0.07661328125,0.03237914529686051,-0.028509509815137335,-0.04356193348404977,3.269887924194336,2019-06-21 13:10:34:192
7.643970428466797,1.9733905334472657,0.06583953857421875,0.03397704195090806,-0.029175300087657143,-0.04888825566420825,3.275007963180542,2019-06-21 13:10:34:198
7.626014190673828,1.970996368408203,0.0359124755859375,0.03584125471396352,-0.026778455106585827,-0.05581247449841427,3.279871940612793,2019-06-21 13:10:34:202
7.629605438232422,2.023667999267578,0.02992706298828125,0.03717283525900315,-0.02637898094307394,-0.06313616749613217,3.284991979598999,2019-06-21 13:10:34:208
7.633196685791016,1.9865584411621093,0.038306640625,0.037971783586026917,-0.02531371650704225,-0.06939459605781839,3.28985595703125,2019-06-21 13:10:34:212
7.635590850830078,2.023667999267578,0.0191533203125,0.03943652218557049,-0.023316345689482817,-0.07605249878301647,3.294975996017456,2019-06-21 13:10:34:218
7.624817108154296,2.0739454650878906,0.0071824951171875,0.03903704802205861,-0.024914242343530364,-0.08244408539920664,3.299839973449707,2019-06-21 13:10:34:222
7.633196685791016,2.067960052490234,0.033518310546875,0.04050178662160219,-0.023316345689482817,-0.08830303979738097,3.304960012435913,2019-06-21 13:10:34:228
7.617634613037109,2.094295867919922,0.0023941650390625,0.041167576894122,-0.021718449035435277,-0.09283041365051567,3.310080051422119,2019-06-21 13:10:34:233
7.591298797607422,2.1278141784667968,0.046686218261718745,0.04130073494862596,-0.020786342653907542,-0.0980235777761702,3.31494402885437,2019-06-21 13:10:34:237
7.566160064697265,2.1014783630371094,0.04429205322265625,0.042365999384657654,-0.01972107821787585,-0.10308358384732075,3.320064067840576,2019-06-21 13:10:34:243
7.576933807373047,2.113449188232422,0.0790074462890625,0.04356442187519331,-0.018788971836348114,-0.10734464159144752,3.324928045272827,2019-06-21 13:10:34:247
7.578130889892578,2.129011260986328,0.0598541259765625,0.04369757992969728,-0.018256339618332267,-0.11240464766259808,3.330048084259033,2019-06-21 13:10:34:253
7.5242621765136715,2.1409820861816407,0.100554931640625,0.04436337020221709,-0.01705791712779661,-0.11599991513420504,3.334912061691284,2019-06-21 13:10:34:257
7.56137173461914,2.129011260986328,0.052671630859375,0.04516231852924085,-0.01572633658275699,-0.1217257114778754,3.3400321006774902,2019-06-21 13:10:34:263
7.615240447998047,2.2080187072753907,0.081401611328125,0.04489600242023293,-0.014794230201229257,-0.12705203365803389,3.344896078109741,2019-06-21 13:10:34:267
7.670306243896484,2.221186614990234,0.071824951171875,0.04476284436572897,-0.013329491601685676,-0.12864993031208144,3.3500161170959473,2019-06-21 13:10:34:273
7.646364593505859,2.252310760498047,0.081401611328125,0.04729284740130425,-0.014128439928709446,-0.13211203972918445,3.3548800945281982,2019-06-21 13:10:34:277
7.604466705322266,2.261887420654297,0.11611700439453125,0.04636074101977652,-0.014527914092221334,-0.13597362330979934,3.3600001335144043,2019-06-21 13:10:34:283
7.596087127685546,2.3253327941894533,0.11611700439453125,0.04556179269275275,-0.011997911056646056,-0.1375715199638469,3.3648641109466553,2019-06-21 13:10:34:287
7.602072540283203,2.3612452697753907,0.13048199462890625,0.045961266856264636,-0.010266856348094553,-0.1406341468950596,3.3699839115142822,2019-06-21 13:10:34:293
7.622422943115234,2.378004425048828,0.100554931640625,0.046893373237792364,-0.01226422716565398,-0.14196572744009922,3.3748481273651123,2019-06-21 13:10:34:297
7.615240447998047,2.373216094970703,0.02753289794921875,0.044230212147713124,-0.010266856348094553,-0.14462888853017847,3.3799679279327393,2019-06-21 13:10:34:303
7.6128462829589845,2.372019012451172,-0.0263358154296875,0.04196652522114577,-0.010400014402598514,-0.14635994323872997,3.3850879669189453,2019-06-21 13:10:34:308
7.654744171142578,2.3241357116699217,0.01077374267578125,0.04170020911213785,-0.009201591912062856,-0.14782468183827355,3.3899519443511963,2019-06-21 13:10:34:313
7.635590850830078,2.330121124267578,0.023941650390625,0.04050178662160219,-0.007870011367023238,-0.15062100098285675,3.3950719833374023,2019-06-21 13:10:34:318
7.579327972412109,2.345683197021484,0.0,0.041567051057633884,-0.004674218058928152,-0.15381679429095182,3.3999359607696533,2019-06-21 13:10:34:322
7.611649200439453,2.378004425048828,0.0167591552734375,0.043031789657177466,-0.00454106000442419,-0.15634679732652712,3.4050559997558594,2019-06-21 13:10:34:328
7.602072540283203,2.4043402404785157,0.10294909667968749,0.042365999384657654,-0.003076321404880609,-0.1578115359260707,3.4099199771881104,2019-06-21 13:10:34:332
7.5841163024902345,2.435464385986328,0.15202947998046876,0.041567051057633884,-0.0029431633503766473,-0.1584773261985905,3.4150400161743164,2019-06-21 13:10:34:338
7.581722137451171,2.468982696533203,0.13527032470703124,0.042232841330153696,-0.0012121086418251424,-0.1587436423075984,3.4199039936065674,2019-06-21 13:10:34:342
7.552992156982421,2.530033905029297,0.18554779052734374,0.04263231549366558,-0.0032094794593845715,-0.15861048425309446,3.4250240325927734,2019-06-21 13:10:34:348
7.572145477294922,2.5659463806152343,0.2370223388671875,0.04276547354816954,-0.00454106000442419,-0.15754521981706276,3.4298880100250244,2019-06-21 13:10:34:352
7.587707550048828,2.6174209289550783,0.23941650390625,0.04249915743916162,-0.006005798603967771,-0.15794469398057465,3.4350080490112305,2019-06-21 13:10:34:358
7.605663787841797,2.689245880126953,0.2178690185546875,0.0428986316026735,-0.008136327476031161,-0.15701258759904693,3.4398720264434814,2019-06-21 13:10:34:362
7.5841163024902345,2.7167787780761716,0.22146026611328123,0.04369757992969728,-0.009068433857558894,-0.15381679429095182,3.4449920654296875,2019-06-21 13:10:34:368
7.6128462829589845,2.7778299865722658,0.20589819335937498,0.044230212147713124,-0.010666330511606438,-0.14942257849232107,3.4498560428619385,2019-06-21 13:10:34:372
7.648758758544922,2.8137424621582032,0.21427777099609374,0.04436337020221709,-0.011731594947638133,-0.14596046907521806,3.4549760818481445,2019-06-21 13:10:34:378
7.599678375244141,2.8113482971191406,0.1987156982421875,0.04449652825672105,-0.012930017438173791,-0.14303099187613091,3.4598400592803955,2019-06-21 13:10:34:382
7.629605438232422,2.8161366271972654,0.2035040283203125,0.04569495074725671,-0.014794230201229257,-0.13770467801835085,3.4649600982666016,2019-06-21 13:10:34:388
7.611649200439453,2.834092864990234,0.1795623779296875,0.04715968934680029,-0.01572633658275699,-0.13277783000170423,3.4700798988342285,2019-06-21 13:10:34:393
7.5841163024902345,2.8400782775878906,0.22026318359375,0.047692321564816134,-0.016525284909780762,-0.12731834976704182,3.4749441146850586,2019-06-21 13:10:34:397
7.567357147216796,2.8580345153808593,0.16639447021484374,0.05022232460039141,-0.017723707400316417,-0.12199202758688332,3.4800639152526855,2019-06-21 13:10:34:403
7.591298797607422,2.8963411560058594,0.15921197509765625,0.051953379308942914,-0.01838949767283623,-0.11506780875267732,3.4849281311035156,2019-06-21 13:10:34:407
7.585313385009766,2.909509063720703,0.20230694580078123,0.05275232763596669,-0.019454762108867922,-0.11133938322656639,3.4900479316711426,2019-06-21 13:10:34:413
7.547006744384765,2.9310565490722658,0.2178690185546875,0.0534181179084865,-0.020386868490395657,-0.10521411271938413,3.4949119091033936,2019-06-21 13:10:34:417
7.490743865966797,2.981334014892578,0.1723798828125,0.05355127596299046,-0.020253710435891695,-0.09935515832120981,3.5000319480895996,2019-06-21 13:10:34:423
7.493138031005859,3.010063995361328,0.15202947998046876,0.05474969845352612,-0.020386868490395657,-0.09256409754150775,3.5048959255218506,2019-06-21 13:10:34:427
7.473984710693359,3.071115203857422,0.20709527587890625,0.05315180179947858,-0.022517397362459047,-0.08444145621676608,3.5100159645080566,2019-06-21 13:10:34:433
7.4668022155761715,3.134560577392578,0.177168212890625,0.05248601152695876,-0.02358266179849074,-0.07605249878301647,3.5148799419403076,2019-06-21 13:10:34:437
7.4524372253417965,3.144137237548828,0.14484698486328124,0.05088811487291122,-0.023982135962002625,-0.06766354134926687,3.5199999809265137,2019-06-21 13:10:34:443
7.456028472900391,3.1620934753417966,0.1532265625,0.04982285043687952,-0.02358266179849074,-0.05687773893444596,3.5248639583587646,2019-06-21 13:10:34:447
7.433283905029297,3.187232208251953,0.21667193603515625,0.04729284740130425,-0.02531371650704225,-0.046757726792144856,3.5299839973449707,2019-06-21 13:10:34:453
7.420115997314453,3.201597198486328,0.23582525634765625,0.044230212147713124,-0.024914242343530364,-0.035971924377323945,3.5348479747772217,2019-06-21 13:10:34:457
7.3937801818847655,3.2183563537597655,0.21427777099609374,0.04183336716664181,-0.026645297052081865,-0.025718754180518878,3.5399680137634277,2019-06-21 13:10:34:463
7.38899185180664,3.2291300964355467,0.2465989990234375,0.03690651914999522,-0.029175300087657143,-0.014533477602186077,3.545088052749634,2019-06-21 13:10:34:468
7.398568511962891,3.1992030334472656,0.28370855712890625,0.03437651611441994,-0.029574774251169028,-0.0034813590783572385,3.5499520301818848,2019-06-21 13:10:34:473
7.403356842041015,3.1716701354980468,0.2561756591796875,0.030648090588309012,-0.030906354796208645,0.005972862791424057,3.555072069168091,2019-06-21 13:10:34:478
7.416524749755859,3.095056854248047,0.2549785766601562,0.029050193934261465,-0.03290372561376808,0.015826558824717236,3.559936046600342,2019-06-21 13:10:34:482
7.4368751525878904,3.0328085632324218,0.2609639892578125,0.026786507007694117,-0.0349010964313275,0.024215516258466838,3.565056085586548,2019-06-21 13:10:34:488
7.397371429443359,2.984925262451172,0.22864276123046876,0.023723871754102992,-0.03636583503087109,0.03300394785572832,3.569920063018799,2019-06-21 13:10:34:492
7.451240142822265,2.9358448791503906,0.1843507080078125,0.021193868718527718,-0.03636583503087109,0.040860273071462075,3.575040102005005,2019-06-21 13:10:34:498
7.471590545654297,2.8795820007324218,0.1795623779296875,0.020394920391503944,-0.0387626800119424,0.04818396606917998,3.579904079437256,2019-06-21 13:10:34:502
7.476378875732422,2.8149395446777343,0.17118280029296876,0.020261762336999983,-0.04009426055698202,0.05470871073987412,3.585024118423462,2019-06-21 13:10:34:508
7.505108856201172,2.7706474914550783,0.1747740478515625,0.01866386568295244,-0.04022741861148598,0.05910292653850486,3.589888095855713,2019-06-21 13:10:34:512
7.505108856201172,2.727552520751953,0.18674487304687498,0.019196497900968286,-0.04009426055698202,0.06296451011911976,3.59500789642334,2019-06-21 13:10:34:518
7.499123443603516,2.684457550048828,0.1340732421875,0.019462814009976213,-0.03929531222995825,0.06669293564523068,3.59987211227417,2019-06-21 13:10:34:522
7.535035919189453,2.674880889892578,0.14963531494140625,0.018530707628448478,-0.037697415575910706,0.07068767728034954,3.604991912841797,2019-06-21 13:10:34:528
7.563765899658203,2.6389684143066408,0.15202947998046876,0.018264391519440554,-0.038496363902934476,0.07268504809790897,3.609856128692627,2019-06-21 13:10:34:532
7.520670928955078,2.6042530212402344,0.11372283935546874,0.01932965595547225,-0.03836320584843051,0.07481557696997236,3.614975929260254,2019-06-21 13:10:34:538
7.562568817138672,2.5635522155761716,0.12329949951171874,0.018530707628448478,-0.03836320584843051,0.07747873806005161,3.619839906692505,2019-06-21 13:10:34:542
7.572145477294922,2.5348222351074217,0.12329949951171874,0.020661236500511868,-0.0387626800119424,0.07934295082310706,3.624959945678711,2019-06-21 13:10:34:548
7.590101715087891,2.5048951721191406,0.100554931640625,0.02279176537257526,-0.03823004779392655,0.07907663471409915,3.630079984664917,2019-06-21 13:10:34:553
7.578130889892578,2.483347686767578,0.16400030517578124,0.023191239536087146,-0.03823004779392655,0.07894347665959518,3.634943962097168,2019-06-21 13:10:34:557
7.58052505493164,2.4139169006347654,0.09217535400390625,0.023058081481583184,-0.03716478335789486,0.07947610887761103,3.640064001083374,2019-06-21 13:10:34:563
7.591298797607422,2.411522735595703,0.0957666015625,0.023191239536087146,-0.03756425752140674,0.08040821525913876,3.644927978515625,2019-06-21 13:10:34:567
7.588904632568359,2.3851869201660154,0.08978118896484374,0.023990187863110916,-0.035034254485831466,0.0792097927686031,3.650048017501831,2019-06-21 13:10:34:573
7.623620025634765,2.376807342529297,0.12090533447265625,0.0243896620266228,-0.03463478032231958,0.0785440024960833,3.654911994934082,2019-06-21 13:10:34:577
7.629605438232422,2.373216094970703,0.11252575683593749,0.02518861035364657,-0.03516741254033543,0.0781445283325714,3.660032033920288,2019-06-21 13:10:34:583
7.6128462829589845,2.344486114501953,0.14484698486328124,0.02558808451715846,-0.0349010964313275,0.0757476833515001,3.664896011352539,2019-06-21 13:10:34:587
7.604466705322266,2.3109678039550783,0.114919921875,0.0243896620266228,-0.03463478032231958,0.07321768031592482,3.670016050338745,2019-06-21 13:10:34:593
7.591298797607422,2.306179473876953,0.100554931640625,0.022658607318071296,-0.03463478032231958,0.0718860997708852,3.674880027770996,2019-06-21 13:10:34:597
7.608057952880859,2.2559020080566405,0.11851116943359374,0.023324397590591107,-0.03370267394079185,0.06895662257179805,3.680000066757202,2019-06-21 13:10:34:603
