ACCELEROMETER X (m/s²),ACCELEROMETER Y (m/s²),ACCELEROMETER Z (m/s²),GYROSCOPE X (rad/s),GYROSCOPE Y (rad/s),GYROSCOPE Z (rad/s),Time since start in ms ,YYYY-MO-DD HH-MI-SS_SSS
-8.923053100585937,6.431924377441406,0.7320159606933594,0.04503106213820278,-0.035433949192371125,-0.0016071917104302999,0.0,2019-06-20 16:01:51:780
-8.938615173339844,6.427136047363281,0.7415926208496093,0.04503106213820278,-0.03490131489376067,-0.0024061400374540713,0.005120038986206055,2019-06-20 16:01:51:785
-8.930235595703126,6.412771057128906,0.7320159606933594,0.04489790408369882,-0.03223815380368144,-0.0018735078194382236,0.009984016418457031,2019-06-20 16:01:51:790
-8.920658935546875,6.428333129882812,0.7176509704589844,0.043965797702171086,-0.0323713118581854,-0.0018735078194382236,0.015104055404663086,2019-06-20 16:01:51:795
-8.927841430664062,6.412771057128906,0.7391984558105469,0.04290053326613939,-0.032770786021697286,-0.0033382464189818046,0.019968032836914062,2019-06-20 16:01:51:800
-8.930235595703126,6.42593896484375,0.7164538879394531,0.04303369132064335,-0.03117288936764974,-0.0040040366915016145,0.025088071823120117,2019-06-20 16:01:51:805
-8.933826843261718,6.4606543579101565,0.7535634460449219,0.04223474299361958,-0.030640257149633893,-0.004137194746005576,0.029952049255371094,2019-06-20 16:01:51:810
-8.91587060546875,6.413968139648437,0.7906730041503907,0.04183526883010769,-0.029974466877114084,-0.005202459182037272,0.03507208824157715,2019-06-20 16:01:51:815
-8.931432678222656,6.424741882324218,0.7380013732910156,0.04090316244857996,-0.029841308822610123,-0.005335617236541234,0.039936065673828125,2019-06-20 16:01:51:820
-8.903899780273438,6.431924377441406,0.7032859802246093,0.040636846339572034,-0.02811025411405862,-0.005202459182037272,0.04505610466003418,2019-06-20 16:01:51:825
-8.889534790039063,6.441501037597656,0.7475780334472656,0.040503688285068076,-0.027178147732530883,-0.006001407509061044,0.049920082092285156,2019-06-20 16:01:51:830
-8.93622100830078,6.4295302124023435,0.7200451354980468,0.03930526579453242,-0.026645515514515036,-0.006267723618068967,0.05504012107849121,2019-06-20 16:01:51:835
-8.93502392578125,6.4594572753906245,0.7092713928222656,0.038240001358500725,-0.02531393496947542,-0.0074661461086046235,0.05990409851074219,2019-06-20 16:01:51:840
-8.921856018066405,6.452274780273437,0.7727167663574218,0.03837315941300468,-0.025580251078483343,-0.007998778326620472,0.06502413749694824,2019-06-20 16:01:51:845
-8.908688110351562,6.441501037597656,0.7308188781738281,0.03770736914048488,-0.025846567187491266,-0.007998778326620472,0.0701441764831543,2019-06-20 16:01:51:850
-8.911082275390624,6.440303955078125,0.7080743103027344,0.03757421108598091,-0.023183406097412027,-0.008531410544636318,0.07500815391540527,2019-06-20 16:01:51:855
-8.901505615234376,6.431924377441406,0.7499721984863281,0.037840527194988836,-0.022251299715884295,-0.010129307198683862,0.08012819290161133,2019-06-20 16:01:51:860
-8.914673522949219,6.452274780273437,0.7320159606933594,0.036375788595445255,-0.02251761582489222,-0.010795097471203672,0.0849921703338623,2019-06-20 16:01:51:865
-8.899111450195312,6.431924377441406,0.7535634460449219,0.03650894664994922,-0.02171866749786845,-0.010395623307691787,0.09011197090148926,2019-06-20 16:01:51:870
-8.893126037597655,6.455866027832031,0.7703226013183594,0.03610947248643733,-0.020120770843820905,-0.011993519961739328,0.09497618675231934,2019-06-20 16:01:51:875
-8.902702697753906,6.434318542480469,0.7475780334472656,0.03597631443193337,-0.019721296680309017,-0.012925626343267063,0.10009598731994629,2019-06-20 16:01:51:880
-8.929038513183594,6.439106872558594,0.7344101257324218,0.03677526275895714,-0.019987612789316943,-0.012792468288763102,0.10495996475219727,2019-06-20 16:01:51:885
-8.925447265625,6.424741882324218,0.7427897033691406,0.03757421108598091,-0.017590767808245627,-0.013325100506778948,0.11008000373840332,2019-06-20 16:01:51:890
-8.92425018310547,6.430727294921875,0.7236363830566406,0.03584315637742941,-0.018123400026261477,-0.01425720688830668,0.1149439811706543,2019-06-20 16:01:51:895
-8.941009338378906,6.4438952026367184,0.7499721984863281,0.03544368221391753,-0.01905550640778921,-0.015056155215330453,0.12006402015686035,2019-06-20 16:01:51:900
-8.925447265625,6.421150634765625,0.7380013732910156,0.03570999832292545,-0.017990241971757512,-0.014922997160826491,0.12492799758911133,2019-06-20 16:01:51:905
-8.931432678222656,6.431924377441406,0.7044830627441406,0.035576840268421485,-0.018789190298781285,-0.01625457770586611,0.13004803657531738,2019-06-20 16:01:51:910
-8.939812255859374,6.421150634765625,0.7415926208496093,0.03504420805040564,-0.017457609753741665,-0.016654051869377996,0.13491201400756836,2019-06-20 16:01:51:915
-8.941009338378906,6.441501037597656,0.7739138488769531,0.03451157583238979,-0.017990241971757512,-0.017453000196401766,0.14003205299377441,2019-06-20 16:01:51:920
-8.927841430664062,6.447486450195313,0.6925122375488281,0.03570999832292545,-0.01918866446229317,-0.017319842141897804,0.1448960304260254,2019-06-20 16:01:51:925
-8.955374328613281,6.442698120117187,0.7212422180175782,0.03650894664994922,-0.018922348353285247,-0.017453000196401766,0.15001606941223145,2019-06-20 16:01:51:930
-8.962556823730468,6.407982727050781,0.7403955383300781,0.036375788595445255,-0.019321822516797132,-0.01825194956372284,0.1551361083984375,2019-06-20 16:01:51:935
-8.951783081054687,6.409179809570312,0.7427897033691406,0.03504420805040564,-0.018522874189773362,-0.01918405594525057,0.16000008583068848,2019-06-20 16:01:51:940
-8.93502392578125,6.4295302124023435,0.6841326599121094,0.03531052415941356,-0.01785708391725355,-0.018917739836242647,0.16512012481689453,2019-06-20 16:01:51:945
-8.9446005859375,6.412771057128906,0.6410376892089844,0.035576840268421485,-0.01825655808076544,-0.01971668816326642,0.1699841022491455,2019-06-20 16:01:51:950
-8.921856018066405,6.439106872558594,0.6793443298339844,0.03584315637742941,-0.019987612789316943,-0.020249320381282267,0.17510414123535156,2019-06-20 16:01:51:955
-8.943403503417969,6.4151652221679685,0.7164538879394531,0.036375788595445255,-0.019987612789316943,-0.02051563649029019,0.17996811866760254,2019-06-20 16:01:51:960
-8.911082275390624,6.424741882324218,0.7391984558105469,0.037174736922469025,-0.019454980571301093,-0.02118142676281,0.1850881576538086,2019-06-20 16:01:51:965
-8.948191833496093,6.4163623046875,0.7224393005371094,0.03810684330399676,-0.018789190298781285,-0.020915110653802076,0.18995213508605957,2019-06-20 16:01:51:970
-8.97452764892578,6.4151652221679685,0.6805414123535156,0.03770736914048488,-0.019721296680309017,-0.020648794544794152,0.19507217407226562,2019-06-20 16:01:51:975
-8.961359741210938,6.394814819335937,0.7128626403808593,0.03664210470445318,-0.02065340306183675,-0.02118142676281,0.1999361515045166,2019-06-20 16:01:51:980
-8.962556823730468,6.379252746582031,0.6817384948730468,0.03650894664994922,-0.0211860352798526,-0.022379849253345657,0.20505619049072266,2019-06-20 16:01:51:985
-8.976921813964843,6.403194396972656,0.6996947326660156,0.037174736922469025,-0.02185182555237241,-0.022113533144337734,0.20992016792297363,2019-06-20 16:01:51:990
-8.987695556640626,6.388829406738281,0.7571546936035156,0.03677526275895714,-0.02171866749786845,-0.022113533144337734,0.21503996849060059,2019-06-20 16:01:51:995
-8.978118896484375,6.391223571777344,0.7104684753417969,0.037174736922469025,-0.02251761582489222,-0.022113533144337734,0.21990418434143066,2019-06-20 16:01:52:000
-8.9829072265625,6.394814819335937,0.706877227783203,0.036375788595445255,-0.021052877225348637,-0.02251300730784962,0.22502398490905762,2019-06-20 16:01:52:005
-8.968542236328124,6.38763232421875,0.6961034851074218,0.03810684330399676,-0.02278393193390014,-0.021980375089833772,0.23014402389526367,2019-06-20 16:01:52:010
-8.990089721679688,6.384041076660156,0.7092713928222656,0.03810684330399676,-0.02344972220641995,-0.021048268708306037,0.23500800132751465,2019-06-20 16:01:52:015
-8.98171014404297,6.382843994140625,0.6613880920410156,0.0379736852494928,-0.02424867053344372,-0.020116162326778306,0.2401280403137207,2019-06-20 16:01:52:020
-9.014031372070312,6.374464416503906,0.6482201843261719,0.03877263357651657,-0.023716038315427873,-0.02038247843578623,0.24499201774597168,2019-06-20 16:01:52:025
-8.976921813964843,6.399603149414062,0.6925122375488281,0.04010421412155619,-0.02438182858794769,-0.01918405594525057,0.25011205673217773,2019-06-20 16:01:52:030
-9.018819702148438,6.374464416503906,0.7104684753417969,0.040636846339572034,-0.02611288329649919,-0.019450372054258497,0.2549760341644287,2019-06-20 16:01:52:035
-9.008045959472655,6.354114013671875,0.6841326599121094,0.040636846339572034,-0.02531393496947542,-0.01825194956372284,0.26009607315063477,2019-06-20 16:01:52:040
-9.006848876953125,6.388829406738281,0.6637822570800781,0.04037053023056411,-0.026512357460011075,-0.017985633454714916,0.26496005058288574,2019-06-20 16:01:52:045
-8.996075134277344,6.3864352416992185,0.6769501647949219,0.04116947855758789,-0.02877604438657843,-0.017453000196401766,0.2700800895690918,2019-06-20 16:01:52:050
-8.994878051757812,6.393617736816406,0.6805414123535156,0.04263421715713147,-0.02890920244108239,-0.01705352603288988,0.2749440670013428,2019-06-20 16:01:52:055
-8.991286804199218,6.340946105957031,0.6949064025878906,0.04196842688461166,-0.028642886332074468,-0.015322471324338376,0.28006410598754883,2019-06-20 16:01:52:060
-8.999666381835937,6.336157775878906,0.6937093200683594,0.04143579466659581,-0.029175518550090315,-0.014656681051818568,0.2849280834197998,2019-06-20 16:01:52:065
-8.994878051757812,6.317004455566406,0.7116655578613281,0.04156895272109977,-0.028509728277570506,-0.013191942452274986,0.29004812240600586,2019-06-20 16:01:52:070
-8.991286804199218,6.333763610839844,0.6805414123535156,0.04116947855758789,-0.02890920244108239,-0.012392994125251213,0.29491209983825684,2019-06-20 16:01:52:075
-9.03198760986328,6.319398620605469,0.6841326599121094,0.042101584939115616,-0.029974466877114084,-0.010395623307691787,0.3000321388244629,2019-06-20 16:01:52:080
-9.03079052734375,6.315807373046875,0.6721618347167969,0.042101584939115616,-0.031039731313145778,-0.00933035887166009,0.30515217781066895,2019-06-20 16:01:52:085
-9.046352600097656,6.320595703125,0.6625851745605469,0.04196842688461166,-0.031039731313145778,-0.008131936381124433,0.3100161552429199,2019-06-20 16:01:52:090
-9.03198760986328,6.307427795410156,0.6984976501464844,0.04276737521163543,-0.03183867964016955,-0.006134565563565005,0.315136194229126,2019-06-20 16:01:52:095
-9.009243041992187,6.294259887695312,0.6817384948730468,0.042501059102627504,-0.0323713118581854,-0.004669826964021424,0.32000017166137695,2019-06-20 16:01:52:100
-8.99248388671875,6.281091979980468,0.7296217956542969,0.04263421715713147,-0.032770786021697286,-0.003071930309973881,0.3251199722290039,2019-06-20 16:01:52:105
-9.028396362304687,6.300245300292969,0.7128626403808593,0.043166849375147316,-0.0323713118581854,-0.0012077175469184143,0.329984188079834,2019-06-20 16:01:52:110
-9.020016784667968,6.307427795410156,0.7272276306152343,0.04303369132064335,-0.03263762796719332,0.0003901791071291287,0.33510398864746094,2019-06-20 16:01:52:115
-9.014031372070312,6.314610290527344,0.6781472473144531,0.04369948159316316,-0.032903944076201244,0.0019880757611766718,0.3399679660797119,2019-06-20 16:01:52:120
-8.994878051757812,6.332566528320313,0.6829355773925782,0.04383263964766712,-0.03463499878475275,0.004118604633240062,0.34508800506591797,2019-06-20 16:01:52:125
-8.996075134277344,6.338551940917968,0.7080743103027344,0.04436527186568297,-0.035034475028859244,0.006249133505303452,0.34995198249816895,2019-06-20 16:01:52:130
-8.985301391601562,6.352916931152343,0.7487751159667969,0.045164220192706744,-0.03490131489376067,0.006781765723319301,0.355072021484375,2019-06-20 16:01:52:135
-8.976921813964843,6.352916931152343,0.745183868408203,0.04543053630171467,-0.03463499878475275,0.007580714050343071,0.359935998916626,2019-06-20 16:01:52:140
-8.984104309082031,6.376858581542969,0.7332130432128906,0.04583001046522655,-0.03530079113786717,0.00824650432286288,0.36505603790283203,2019-06-20 16:01:52:145
-8.97333056640625,6.391223571777344,0.7188480529785156,0.04649580073774636,-0.03423552462124087,0.008512820431870804,0.369920015335083,2019-06-20 16:01:52:150
-8.962556823730468,6.393617736816406,0.7332130432128906,0.04609632657423447,-0.03450184073024879,0.009844400976910424,0.37504005432128906,2019-06-20 16:01:52:155
-8.97333056640625,6.404391479492188,0.7475780334472656,0.04649580073774636,-0.035034475028859244,0.01037703319492627,0.37990403175354004,2019-06-20 16:01:52:160
-8.966148071289062,6.417559387207031,0.7583517761230468,0.04622948462873844,-0.033969208512232944,0.0095780848679025,0.3850240707397461,2019-06-20 16:01:52:165
-8.930235595703126,6.434318542480469,0.745183868408203,0.04609632657423447,-0.033969208512232944,0.008645978486374767,0.39014410972595215,2019-06-20 16:01:52:170
-8.941009338378906,6.431924377441406,0.7224393005371094,0.04583001046522655,-0.03263762796719332,0.0095780848679025,0.3950080871582031,2019-06-20 16:01:52:175
-8.93502392578125,6.422347717285156,0.6865268249511719,0.04543053630171467,-0.03223815380368144,0.009311768758894575,0.4001281261444092,2019-06-20 16:01:52:180
-8.914673522949219,6.431924377441406,0.7020888977050781,0.04583001046522655,-0.0323713118581854,0.00824650432286288,0.40499210357666016,2019-06-20 16:01:52:185
-8.933826843261718,6.4450922851562495,0.6889209899902343,0.04649580073774636,-0.031971837694673516,0.007713872104847034,0.4101121425628662,2019-06-20 16:01:52:190
-8.933826843261718,6.437909790039062,0.7248334655761719,0.046362642683242396,-0.03170552158566559,0.006115975450799491,0.4149761199951172,2019-06-20 16:01:52:195
-8.968542236328124,6.427136047363281,0.7212422180175782,0.04503106213820278,-0.03170552158566559,0.0058496593417915665,0.42009615898132324,2019-06-20 16:01:52:200
-8.97452764892578,6.423544799804687,0.7164538879394531,0.04436527186568297,-0.03050709909512993,0.007048081832327224,0.4249601364135742,2019-06-20 16:01:52:205
-8.937418090820312,6.412771057128906,0.7356072082519531,0.0446315879746909,-0.0295749927136022,0.005450185178279681,0.4300801753997803,2019-06-20 16:01:52:210
-8.89671728515625,6.436712707519531,0.7344101257324218,0.04449842992018693,-0.02890920244108239,0.005183869069271757,0.43494415283203125,2019-06-20 16:01:52:215
-8.890731872558593,6.441501037597656,0.7679284362792969,0.0435663235386592,-0.02877604438657843,0.0037191304697281762,0.4400641918182373,2019-06-20 16:01:52:220
-8.909885192871094,6.427136047363281,0.745183868408203,0.043965797702171086,-0.0295749927136022,0.0038522885242321388,0.4449281692504883,2019-06-20 16:01:52:225
-8.921856018066405,6.428333129882812,0.7787021789550781,0.044098955756675044,-0.02771077995054673,0.0035859724152242146,0.45004796981811523,2019-06-20 16:01:52:230
-8.926644348144531,6.469033935546875,0.7523663635253907,0.044098955756675044,-0.026512357460011075,0.0021212338156806334,0.4549121856689453,2019-06-20 16:01:52:235
-8.902702697753906,6.441501037597656,0.7368042907714843,0.043965797702171086,-0.02544709302397938,0.0007896532706410145,0.46003198623657227,2019-06-20 16:01:52:240
-8.912279357910156,6.4594572753906245,0.7080743103027344,0.04383263964766712,-0.025180776914971458,0.0003901791071291287,0.46489596366882324,2019-06-20 16:01:52:245
-8.891928955078125,6.467836853027344,0.6901180725097656,0.04383263964766712,-0.02424867053344372,0.0003901791071291287,0.4700160026550293,2019-06-20 16:01:52:250
-8.91706768798828,6.4750193481445315,0.6937093200683594,0.04290053326613939,-0.02251761582489222,-0.0014740336559263382,0.47513604164123535,2019-06-20 16:01:52:255
-8.938615173339844,6.470231018066406,0.6733589172363281,0.042501059102627504,-0.02438182858794769,-0.0024061400374540713,0.48000001907348633,2019-06-20 16:01:52:260
-8.899111450195312,6.470231018066406,0.7008918151855469,0.042101584939115616,-0.02544709302397938,-0.0033382464189818046,0.4851200580596924,2019-06-20 16:01:52:265
-8.93502392578125,6.477413513183594,0.6865268249511719,0.04196842688461166,-0.02451498664245165,-0.004536668909517462,0.48998403549194336,2019-06-20 16:01:52:270
-8.92425018310547,6.496566833496094,0.7212422180175782,0.04183526883010769,-0.023849196369931835,-0.005868249454557082,0.4951040744781494,2019-06-20 16:01:52:275
-8.927841430664062,6.490581420898438,0.6769501647949219,0.041702110775603735,-0.024781302751459573,-0.005868249454557082,0.4999680519104004,2019-06-20 16:01:52:280
-8.919461853027343,6.476216430664063,0.6984976501464844,0.04023737217606015,-0.025180776914971458,-0.008131936381124433,0.5050880908966064,2019-06-20 16:01:52:285
-8.931432678222656,6.467836853027344,0.7044830627441406,0.03957158190354034,-0.023316564151915988,-0.008797726653644243,0.5099520683288574,2019-06-20 16:01:52:290
-8.901505615234376,6.452274780273437,0.6877239074707031,0.03877263357651657,-0.022917089988404103,-0.010129307198683862,0.5150721073150635,2019-06-20 16:01:52:295
-8.925447265625,6.48339892578125,0.7008918151855469,0.039704739958044306,-0.022917089988404103,-0.011194571634715558,0.5199360847473145,2019-06-20 16:01:52:300
-8.932629760742188,6.4881872558593745,0.7092713928222656,0.039038949685524495,-0.023716038315427873,-0.011860361907235367,0.5250561237335205,2019-06-20 16:01:52:305
-8.908688110351562,6.4546689453125,0.7248334655761719,0.03877263357651657,-0.022384457770388257,-0.012792468288763102,0.5299201011657715,2019-06-20 16:01:52:310
-8.92425018310547,6.453471862792969,0.7092713928222656,0.037840527194988836,-0.02251761582489222,-0.015322471324338376,0.5350401401519775,2019-06-20 16:01:52:315
-8.927841430664062,6.4594572753906245,0.7044830627441406,0.03810684330399676,-0.02344972220641995,-0.015056155215330453,0.5399041175842285,2019-06-20 16:01:52:320
-8.939812255859374,6.434318542480469,0.7140597229003907,0.037041578867965066,-0.02251761582489222,-0.015455629378842338,0.5450241565704346,2019-06-20 16:01:52:325
-8.932629760742188,6.441501037597656,0.7128626403808593,0.03610947248643733,-0.022118141661380333,-0.016787209923881958,0.5501441955566406,2019-06-20 16:01:52:330
-8.937418090820312,6.405588562011719,0.7128626403808593,0.0362426305409413,-0.02265077387939618,-0.017719317345706993,0.5550081729888916,2019-06-20 16:01:52:335
-8.932629760742188,6.405588562011719,0.7391984558105469,0.036375788595445255,-0.02198498360687637,-0.01758615929120303,0.5601279735565186,2019-06-20 16:01:52:340
-8.949388916015625,6.418756469726563,0.7332130432128906,0.0362426305409413,-0.022917089988404103,-0.018518265672730762,0.5649921894073486,2019-06-20 16:01:52:345
-8.97452764892578,6.427136047363281,0.7188480529785156,0.03531052415941356,-0.022251299715884295,-0.018651423727234724,0.5701119899749756,2019-06-20 16:01:52:350
-8.98171014404297,6.40678564453125,0.7116655578613281,0.03570999832292545,-0.02278393193390014,-0.018917739836242647,0.5749759674072266,2019-06-20 16:01:52:355
-8.96495098876953,6.405588562011719,0.6829355773925782,0.03610947248643733,-0.023716038315427873,-0.018784581781738686,0.5800960063934326,2019-06-20 16:01:52:360
-8.972133483886719,6.427136047363281,0.7044830627441406,0.03597631443193337,-0.023849196369931835,-0.01825194956372284,0.5849599838256836,2019-06-20 16:01:52:365
-8.961359741210938,6.409179809570312,0.7152568054199219,0.03597631443193337,-0.022917089988404103,-0.018784581781738686,0.5900800228118896,2019-06-20 16:01:52:370
-8.951783081054687,6.396011901855468,0.7164538879394531,0.03584315637742941,-0.02131919333435656,-0.0183851076182268,0.5949440002441406,2019-06-20 16:01:52:375
-8.950585998535155,6.392420654296875,0.6996947326660156,0.0362426305409413,-0.022384457770388257,-0.018651423727234724,0.6000640392303467,2019-06-20 16:01:52:380
-8.955374328613281,6.384041076660156,0.7296217956542969,0.036375788595445255,-0.022384457770388257,-0.018118791509218878,0.6049280166625977,2019-06-20 16:01:52:385
-8.939812255859374,6.370873168945312,0.6841326599121094,0.03610947248643733,-0.023849196369931835,-0.017319842141897804,0.6100480556488037,2019-06-20 16:01:52:390
-8.950585998535155,6.376858581542969,0.6733589172363281,0.03610947248643733,-0.02358288026092391,-0.017186684087393843,0.6149120330810547,2019-06-20 16:01:52:395
-8.99368096923828,6.370873168945312,0.6649793395996093,0.03584315637742941,-0.023316564151915988,-0.016654051869377996,0.6200320720672607,2019-06-20 16:01:52:400
-8.990089721679688,6.3720702514648435,0.7164538879394531,0.035576840268421485,-0.023982354424435796,-0.015855103542354223,0.6248960494995117,2019-06-20 16:01:52:405
-8.980513061523437,6.388829406738281,0.7236363830566406,0.0362426305409413,-0.024914460805963535,-0.01572194548785026,0.6300160884857178,2019-06-20 16:01:52:410
-8.990089721679688,6.366084838867187,0.6961034851074218,0.03584315637742941,-0.02544709302397938,-0.014922997160826491,0.6351361274719238,2019-06-20 16:01:52:415
-9.006848876953125,6.36847900390625,0.6973005676269531,0.03597631443193337,-0.025047618860467497,-0.01425720688830668,0.6400001049041748,2019-06-20 16:01:52:420
-9.005651794433593,6.342143188476562,0.6817384948730468,0.036375788595445255,-0.025979725241995228,-0.012925626343267063,0.6451201438903809,2019-06-20 16:01:52:425
-9.0212138671875,6.367281921386718,0.6709647521972656,0.037041578867965066,-0.026778673569018998,-0.011727203852731405,0.6499841213226318,2019-06-20 16:01:52:430
-8.969739318847656,6.379252746582031,0.7296217956542969,0.036375788595445255,-0.02784393800505069,-0.011460887743723482,0.6551041603088379,2019-06-20 16:01:52:435
-8.978118896484375,6.388829406738281,0.7547605285644531,0.0362426305409413,-0.026379199405507113,-0.01132772968921952,0.6599681377410889,2019-06-20 16:01:52:440
-8.975724731445313,6.388829406738281,0.7212422180175782,0.03650894664994922,-0.026645515514515036,-0.010262465253187823,0.6650881767272949,2019-06-20 16:01:52:445
-8.987695556640626,6.3720702514648435,0.7344101257324218,0.03650894664994922,-0.02797709605955466,-0.010129307198683862,0.6699521541595459,2019-06-20 16:01:52:450
-8.972133483886719,6.351719848632812,0.7463809509277344,0.0362426305409413,-0.028376570223066545,-0.008531410544636318,0.675072193145752,2019-06-20 16:01:52:455
-8.962556823730468,6.374464416503906,0.7212422180175782,0.03610947248643733,-0.027577621896042768,-0.007998778326620472,0.6799361705780029,2019-06-20 16:01:52:460
-8.957768493652344,6.362493591308594,0.7547605285644531,0.03757421108598091,-0.02784393800505069,-0.008265094435628395,0.6850559711456299,2019-06-20 16:01:52:465
-8.972133483886719,6.354114013671875,0.7128626403808593,0.037840527194988836,-0.028243412168562583,-0.007599304163108585,0.68992018699646,2019-06-20 16:01:52:470
-8.998469299316406,6.381646911621093,0.7260305480957031,0.037840527194988836,-0.028376570223066545,-0.0070666719450927385,0.6950399875640869,2019-06-20 16:01:52:475
-8.980513061523437,6.36847900390625,0.7308188781738281,0.03810684330399676,-0.02797709605955466,-0.005335617236541234,0.6999039649963379,2019-06-20 16:01:52:480
-8.950585998535155,6.352916931152343,0.745183868408203,0.03930526579453242,-0.02877604438657843,-0.0050693011275333094,0.705024003982544,2019-06-20 16:01:52:485
-8.975724731445313,6.35890234375,0.7008918151855469,0.03917210774002846,-0.02811025411405862,-0.0034714044734857666,0.71014404296875,2019-06-20 16:01:52:490
-8.972133483886719,6.374464416503906,0.7308188781738281,0.04090316244857996,-0.02890920244108239,-0.0037377205824936904,0.715008020401001,2019-06-20 16:01:52:495
-8.968542236328124,6.360099426269531,0.7571546936035156,0.042367901048123546,-0.02811025411405862,-0.002805614200965957,0.720128059387207,2019-06-20 16:01:52:500
-8.985301391601562,6.352916931152343,0.7116655578613281,0.04090316244857996,-0.028642886332074468,-0.0013408756014223761,0.724992036819458,2019-06-20 16:01:52:505
-8.998469299316406,6.364887756347656,0.7020888977050781,0.04156895272109977,-0.029441834659098238,-0.0013408756014223761,0.7301120758056641,2019-06-20 16:01:52:510
-9.008045959472655,6.363690673828125,0.7715196838378906,0.04383263964766712,-0.029841308822610123,0.0006564952161370526,0.734976053237915,2019-06-20 16:01:52:515
-8.991286804199218,6.340946105957031,0.7439867858886718,0.04369948159316316,-0.030107624931618046,0.0021212338156806334,0.7400960922241211,2019-06-20 16:01:52:520
-8.978118896484375,6.3397490234375,0.7296217956542969,0.04449842992018693,-0.029042360495586353,0.0021212338156806334,0.7449600696563721,2019-06-20 16:01:52:525
-8.979315979003905,6.370873168945312,0.7403955383300781,0.046362642683242396,-0.029308676604594276,0.0033196563062162904,0.7500801086425781,2019-06-20 16:01:52:530
-8.9829072265625,6.374464416503906,0.6984976501464844,0.04649580073774636,-0.029841308822610123,0.0037191304697281762,0.7549440860748291,2019-06-20 16:01:52:535
-8.962556823730468,6.374464416503906,0.7200451354980468,0.04649580073774636,-0.029441834659098238,0.004384920742247986,0.7600641250610352,2019-06-20 16:01:52:540
-8.98171014404297,6.3720702514648435,0.7427897033691406,0.046362642683242396,-0.02877604438657843,0.005450185178279681,0.7649281024932861,2019-06-20 16:01:52:545
-8.961359741210938,6.373267333984375,0.7104684753417969,0.04756106517377806,-0.0295749927136022,0.0065154496143113765,0.7700481414794922,2019-06-20 16:01:52:550
-8.958965576171876,6.3780556640625,0.7571546936035156,0.04756106517377806,-0.029841308822610123,0.006914923777823262,0.7749121189117432,2019-06-20 16:01:52:555
-8.960162658691406,6.388829406738281,0.7368042907714843,0.04809369739179391,-0.029042360495586353,0.00824650432286288,0.7800321578979492,2019-06-20 16:01:52:560
-8.929038513183594,6.390026489257813,0.7403955383300781,0.04822685544629787,-0.02797709605955466,0.008379662377366842,0.7851521968841553,2019-06-20 16:01:52:565
-8.933826843261718,6.398406066894531,0.7368042907714843,0.04796053933728995,-0.027444463841538806,0.007713872104847034,0.7900161743164062,2019-06-20 16:01:52:570
-8.939812255859374,6.453471862792969,0.7188480529785156,0.048626329609809754,-0.026512357460011075,0.007314397941335148,0.7951359748840332,2019-06-20 16:01:52:575
-8.933826843261718,6.437909790039062,0.7320159606933594,0.04889264571881768,-0.02691183162352296,0.007580714050343071,0.8000001907348633,2019-06-20 16:01:52:580
-8.921856018066405,6.421150634765625,0.7822934265136718,0.04889264571881768,-0.027311305787034845,0.007314397941335148,0.8051199913024902,2019-06-20 16:01:52:585
-8.939812255859374,6.449880615234375,0.7751109313964843,0.04756106517377806,-0.027178147732530883,0.007580714050343071,0.8099839687347412,2019-06-20 16:01:52:590
-8.919461853027343,6.4738222656249995,0.7439867858886718,0.047694223228282026,-0.024914460805963535,0.006781765723319301,0.8151040077209473,2019-06-20 16:01:52:595
-8.951783081054687,6.4738222656249995,0.7463809509277344,0.04689527490125824,-0.025979725241995228,0.005982817396295529,0.8199679851531982,2019-06-20 16:01:52:600
-8.89552020263672,6.481004760742187,0.7020888977050781,0.045963168519730514,-0.02544709302397938,0.0035859724152242146,0.8250880241394043,2019-06-20 16:01:52:605
-8.865593139648437,6.486990173339843,0.6542055969238281,0.04569685241072259,-0.023982354424435796,0.0023875499246885576,0.8299520015716553,2019-06-20 16:01:52:610
-8.888337707519531,6.496566833496094,0.7056801452636718,0.044764746029194856,-0.02344972220641995,0.0014554435431608239,0.8350720405578613,2019-06-20 16:01:52:615
-8.903899780273438,6.4893843383789065,0.7140597229003907,0.042501059102627504,-0.023849196369931835,0.00012386299812120486,0.8399360179901123,2019-06-20 16:01:52:620
-8.899111450195312,6.496566833496094,0.6984976501464844,0.042501059102627504,-0.023050248042908065,-0.0014740336559263382,0.8450560569763184,2019-06-20 16:01:52:625
-8.897914367675781,6.510931823730469,0.7391984558105469,0.04156895272109977,-0.022118141661380333,-0.002672456146461995,0.8499200344085693,2019-06-20 16:01:52:630
-8.9062939453125,6.497763916015625,0.6937093200683594,0.04103632050308392,-0.022917089988404103,-0.0037377205824936904,0.8550400733947754,2019-06-20 16:01:52:635
-8.903899780273438,6.501355163574218,0.6613880920410156,0.03997105606705223,-0.022384457770388257,-0.004936143073029348,0.8599040508270264,2019-06-20 16:01:52:640
-8.911082275390624,6.515720153808593,0.6925122375488281,0.039704739958044306,-0.021585509443364483,-0.006267723618068967,0.8650240898132324,2019-06-20 16:01:52:645
-8.921856018066405,6.5025522460937495,0.6829355773925782,0.03810684330399676,-0.022917089988404103,-0.008131936381124433,0.8701441287994385,2019-06-20 16:01:52:650
-8.89671728515625,6.485793090820312,0.6745559997558593,0.03837315941300468,-0.023050248042908065,-0.01066193941669971,0.8750081062316895,2019-06-20 16:01:52:655
-8.871578552246094,6.469033935546875,0.6769501647949219,0.038240001358500725,-0.02052024500733279,-0.012792468288763102,0.8801281452178955,2019-06-20 16:01:52:660
-8.889534790039063,6.4738222656249995,0.7044830627441406,0.037041578867965066,-0.02131919333435656,-0.013191942452274986,0.8849921226501465,2019-06-20 16:01:52:665
-8.89552020263672,6.478610595703125,0.7176509704589844,0.0369084208134611,-0.0211860352798526,-0.01478983910632253,0.8901121616363525,2019-06-20 16:01:52:670
-8.914673522949219,6.4750193481445315,0.7236363830566406,0.03650894664994922,-0.0211860352798526,-0.016520893814874035,0.8949761390686035,2019-06-20 16:01:52:675
-8.908688110351562,6.478610595703125,0.6518114318847656,0.03570999832292545,-0.021052877225348637,-0.017319842141897804,0.9000961780548096,2019-06-20 16:01:52:680
-8.918264770507813,6.4881872558593745,0.6733589172363281,0.03610947248643733,-0.02185182555237241,-0.017852475400210954,0.9049601554870605,2019-06-20 16:01:52:685
-8.925447265625,6.455866027832031,0.7116655578613281,0.03584315637742941,-0.02052024500733279,-0.018518265672730762,0.9100801944732666,2019-06-20 16:01:52:690
-8.912279357910156,6.46424560546875,0.6961034851074218,0.03544368221391753,-0.019321822516797132,-0.01918405594525057,0.9149441719055176,2019-06-20 16:01:52:695
-8.927841430664062,6.449880615234375,0.6865268249511719,0.03610947248643733,-0.018922348353285247,-0.020915110653802076,0.9200639724731445,2019-06-20 16:01:52:700
-8.920658935546875,6.439106872558594,0.6853297424316406,0.03504420805040564,-0.02038708695282883,-0.021314584817313964,0.9249281883239746,2019-06-20 16:01:52:705
-8.933826843261718,6.437909790039062,0.7128626403808593,0.0351773661049096,-0.020919719170844675,-0.02171405898082585,0.9300479888916016,2019-06-20 16:01:52:710
-8.93502392578125,6.467836853027344,0.6709647521972656,0.0351773661049096,-0.02131919333435656,-0.02331195563487339,0.9349119663238525,2019-06-20 16:01:52:715
-8.948191833496093,6.439106872558594,0.7344101257324218,0.03504420805040564,-0.020786561116340713,-0.023578271743881312,0.9400320053100586,2019-06-20 16:01:52:720
-8.96495098876953,6.4295302124023435,0.6805414123535156,0.035576840268421485,-0.02052024500733279,-0.023977745907393204,0.9451520442962646,2019-06-20 16:01:52:725
-8.968542236328124,6.4450922851562495,0.6913151550292969,0.03504420805040564,-0.02171866749786845,-0.02530932645243282,0.9500160217285156,2019-06-20 16:01:52:730
-8.957768493652344,6.428333129882812,0.6673735046386718,0.03544368221391753,-0.02185182555237241,-0.026507748942968475,0.9551360607147217,2019-06-20 16:01:52:735
-8.93502392578125,6.433121459960938,0.6829355773925782,0.03531052415941356,-0.023316564151915988,-0.026374590888464514,0.9600000381469727,2019-06-20 16:01:52:740
-8.955374328613281,6.40678564453125,0.7116655578613281,0.036375788595445255,-0.022917089988404103,-0.02610827477945659,0.9651200771331787,2019-06-20 16:01:52:745
-8.958965576171876,6.407982727050781,0.7032859802246093,0.036375788595445255,-0.023316564151915988,-0.02597511672495263,0.9699840545654297,2019-06-20 16:01:52:750
-8.97452764892578,6.390026489257813,0.7080743103027344,0.0362426305409413,-0.022251299715884295,-0.026374590888464514,0.9751040935516357,2019-06-20 16:01:52:755
-8.997272216796874,6.3780556640625,0.6877239074707031,0.036375788595445255,-0.024115512478939758,-0.026507748942968475,0.9799680709838867,2019-06-20 16:01:52:760
-9.017622619628906,6.379252746582031,0.6925122375488281,0.03770736914048488,-0.02344972220641995,-0.025575642561440744,0.9850881099700928,2019-06-20 16:01:52:765
-8.990089721679688,6.344537353515625,0.7248334655761719,0.037174736922469025,-0.02424867053344372,-0.02597511672495263,0.9899520874023438,2019-06-20 16:01:52:770
-8.97333056640625,6.319398620605469,0.7212422180175782,0.03730789497697299,-0.025180776914971458,-0.024643536179913012,0.9950721263885498,2019-06-20 16:01:52:775
-8.99248388671875,6.326581115722656,0.7032859802246093,0.03770736914048488,-0.02691183162352296,-0.022246691198841696,0.9999361038208008,2019-06-20 16:01:52:780
-9.008045959472655,6.324186950683593,0.6996947326660156,0.03850631746750865,-0.027178147732530883,-0.02051563649029019,1.0050561428070068,2019-06-20 16:01:52:785
-9.027199279785156,6.328975280761719,0.6565997619628906,0.03810684330399676,-0.026645515514515036,-0.01958353010876246,1.0099201202392578,2019-06-20 16:01:52:790
-9.03079052734375,6.336157775878906,0.6314610290527344,0.03863947552201261,-0.026379199405507113,-0.0183851076182268,1.0150401592254639,2019-06-20 16:01:52:795
-9.029593444824219,6.3720702514648435,0.6745559997558593,0.04010421412155619,-0.02704498967802692,-0.017719317345706993,1.0199041366577148,2019-06-20 16:01:52:800
-9.042761352539062,6.345734436035156,0.7559576110839844,0.040636846339572034,-0.028376570223066545,-0.0155887874333463,1.025024175643921,2019-06-20 16:01:52:805
-8.997272216796874,6.3277781982421875,0.7212422180175782,0.04143579466659581,-0.029175518550090315,-0.013857732724794795,1.0301439762115479,2019-06-20 16:01:52:810
-9.070294250488281,6.324186950683593,0.7212422180175782,0.04290053326613939,-0.030906573258641816,-0.011727203852731405,1.035008192062378,2019-06-20 16:01:52:815
-9.033184692382813,6.317004455566406,0.7918700866699219,0.044764746029194856,-0.03223815380368144,-0.010528781362195748,1.0401279926300049,2019-06-20 16:01:52:820
-9.002060546875,6.337354858398437,0.7332130432128906,0.04609632657423447,-0.030773415204137854,-0.009064042762652167,1.0449919700622559,2019-06-20 16:01:52:825
-8.991286804199218,6.342143188476562,0.7320159606933594,0.04609632657423447,-0.030240782986122008,-0.006933513890588777,1.050112009048462,2019-06-20 16:01:52:830
-9.009243041992187,6.3277781982421875,0.7403955383300781,0.04822685544629787,-0.03050709909512993,-0.005468775291045195,1.054975986480713,2019-06-20 16:01:52:835
-8.99368096923828,6.344537353515625,0.6984976501464844,0.04982475210034541,-0.03037394104062597,-0.0040040366915016145,1.060096025466919,2019-06-20 16:01:52:840
-9.014031372070312,6.348128601074219,0.7224393005371094,0.05049054237286522,-0.03050709909512993,-0.002672456146461995,1.06496000289917,2019-06-20 16:01:52:845
-9.029593444824219,6.337354858398437,0.7296217956542969,0.05115633264538503,-0.03157236353116163,-0.0016071917104302999,1.070080041885376,2019-06-20 16:01:52:850
-9.02241094970703,6.33017236328125,0.7320159606933594,0.0519552809724088,-0.033170260185209174,-0.0005419272743986046,1.074944019317627,2019-06-20 16:01:52:855
-8.998469299316406,6.328975280761719,0.7128626403808593,0.05235475513592069,-0.032104995749177474,0.0006564952161370526,1.080064058303833,2019-06-20 16:01:52:860
-8.970936401367187,6.350522766113281,0.6984976501464844,0.05155580680889692,-0.031971837694673516,0.0018549177066727097,1.084928035736084,2019-06-20 16:01:52:865
-8.962556823730468,6.354114013671875,0.6973005676269531,0.050890016536377106,-0.03143920547665766,0.0035859724152242146,1.09004807472229,2019-06-20 16:01:52:870
-8.984104309082031,6.3864352416992185,0.6961034851074218,0.050890016536377106,-0.030906573258641816,0.003452814360720253,1.094912052154541,2019-06-20 16:01:52:875
-8.957768493652344,6.393617736816406,0.6745559997558593,0.05075685848187314,-0.0323713118581854,0.0038522885242321388,1.100032091140747,2019-06-20 16:01:52:880
-8.933826843261718,6.413968139648437,0.6769501647949219,0.05035738431836126,-0.03223815380368144,0.004384920742247986,1.104896068572998,2019-06-20 16:01:52:885
-8.930235595703126,6.447486450195313,0.6745559997558593,0.04889264571881768,-0.03183867964016955,0.004917552960263833,1.110016107559204,2019-06-20 16:01:52:890
-8.938615173339844,6.453471862792969,0.6530085144042969,0.04702843295576221,-0.03143920547665766,0.0039854465787361,1.1151361465454102,2019-06-20 16:01:52:895
-8.960162658691406,6.455866027832031,0.6805414123535156,0.04569685241072259,-0.031039731313145778,0.003452814360720253,1.1200001239776611,2019-06-20 16:01:52:900
-8.939812255859374,6.440303955078125,0.6709647521972656,0.04423211381117901,-0.031039731313145778,0.0033196563062162904,1.1251201629638672,2019-06-20 16:01:52:905
-8.925447265625,6.476216430664063,0.6925122375488281,0.04290053326613939,-0.030107624931618046,0.003053340197208367,1.1299841403961182,2019-06-20 16:01:52:910
-8.913476440429687,6.486990173339843,0.6757530822753907,0.04143579466659581,-0.028642886332074468,0.0015886015976647857,1.1351041793823242,2019-06-20 16:01:52:915
-8.899111450195312,6.510931823730469,0.7128626403808593,0.03877263357651657,-0.027178147732530883,-0.0010745594924144524,1.1399681568145752,2019-06-20 16:01:52:920
-8.9062939453125,6.5025522460937495,0.6877239074707031,0.03744105303147695,-0.02784393800505069,-0.0020066658739421855,1.1450881958007812,2019-06-20 16:01:52:925
-8.899111450195312,6.539661804199219,0.6937093200683594,0.036375788595445255,-0.02624604135100315,-0.0024061400374540713,1.1499521732330322,2019-06-20 16:01:52:930
-8.86679022216797,6.504946411132813,0.7439867858886718,0.035576840268421485,-0.02544709302397938,-0.0040040366915016145,1.1550719738006592,2019-06-20 16:01:52:935
-8.86679022216797,6.497763916015625,0.7080743103027344,0.03464473388689375,-0.02198498360687637,-0.005468775291045195,1.1599361896514893,2019-06-20 16:01:52:940
-8.909885192871094,6.4881872558593745,0.7248334655761719,0.033712627505366015,-0.022384457770388257,-0.007332988054100662,1.1650559902191162,2019-06-20 16:01:52:945
-8.875169799804688,6.491778503417969,0.6913151550292969,0.032913679178342245,-0.02185182555237241,-0.00933035887166009,1.1699199676513672,2019-06-20 16:01:52:950
-8.899111450195312,6.463048522949219,0.6889209899902343,0.031715256687806594,-0.02265077387939618,-0.011061413580211595,1.1750400066375732,2019-06-20 16:01:52:955
-8.91706768798828,6.479807678222656,0.6506143493652343,0.029318411706735277,-0.022251299715884295,-0.011993519961739328,1.1799039840698242,2019-06-20 16:01:52:960
-8.91706768798828,6.4738222656249995,0.6565997619628906,0.029717885870247162,-0.02198498360687637,-0.01345825856128291,1.1850240230560303,2019-06-20 16:01:52:965
-8.903899780273438,6.442698120117187,0.6506143493652343,0.02678840867116,-0.022384457770388257,-0.014922997160826491,1.1901440620422363,2019-06-20 16:01:52:970
-8.933826843261718,6.428333129882812,0.6721618347167969,0.026255776453144152,-0.02278393193390014,-0.015056155215330453,1.1950080394744873,2019-06-20 16:01:52:975
-8.943403503417969,6.4008002319335935,0.6470231018066406,0.025723144235128306,-0.02438182858794769,-0.016387735760370073,1.2001280784606934,2019-06-20 16:01:52:980
-8.930235595703126,6.375661499023438,0.6793443298339844,0.025856302289632267,-0.022917089988404103,-0.017319842141897804,1.2049920558929443,2019-06-20 16:01:52:985
-8.950585998535155,6.369676086425781,0.7116655578613281,0.025456828126120382,-0.02358288026092391,-0.01705352603288988,1.2101120948791504,2019-06-20 16:01:52:990
-8.949388916015625,6.337354858398437,0.7715196838378906,0.02532367007161642,-0.02451498664245165,-0.01692036797838592,1.2149760723114014,2019-06-20 16:01:52:995
-8.95298016357422,6.314610290527344,0.7427897033691406,0.02519051201711246,-0.02358288026092391,-0.016387735760370073,1.2200961112976074,2019-06-20 16:01:53:000
-8.968542236328124,6.3134132080078125,0.8134175720214843,0.02678840867116,-0.024115512478939758,-0.0155887874333463,1.2249600887298584,2019-06-20 16:01:53:005
-8.984104309082031,6.302639465332031,0.8158117370605469,0.028119989216199622,-0.02424867053344372,-0.013857732724794795,1.2300801277160645,2019-06-20 16:01:53:010
-9.017622619628906,6.289471557617188,0.783490509033203,0.03038367614276697,-0.022917089988404103,-0.012526152179755175,1.2349441051483154,2019-06-20 16:01:53:015
-9.023608032226562,6.3014423828125,0.7787021789550781,0.033712627505366015,-0.02464814469695561,-0.010795097471203672,1.2400641441345215,2019-06-20 16:01:53:020
-9.028396362304687,6.31101904296875,0.7499721984863281,0.03451157583238979,-0.02531393496947542,-0.008664568599140282,1.2449281215667725,2019-06-20 16:01:53:025
-9.081067993164062,6.325384033203125,0.7368042907714843,0.03570999832292545,-0.02451498664245165,-0.006667197781580852,1.2500481605529785,2019-06-20 16:01:53:030
-9.101418395996093,6.308624877929687,0.7523663635253907,0.03650894664994922,-0.02438182858794769,-0.0050693011275333094,1.2549121379852295,2019-06-20 16:01:53:035
-9.095432983398437,6.314610290527344,0.7415926208496093,0.03957158190354034,-0.023982354424435796,-0.003071930309973881,1.2600321769714355,2019-06-20 16:01:53:040
-9.065505920410157,6.321792785644531,0.7571546936035156,0.04263421715713147,-0.02704498967802692,-0.0013408756014223761,1.2648961544036865,2019-06-20 16:01:53:045
-9.067900085449219,6.328975280761719,0.7978554992675781,0.04503106213820278,-0.02811025411405862,0.001322285488656862,1.2700161933898926,2019-06-20 16:01:53:050
-9.0403671875,6.3397490234375,0.7547605285644531,0.04742790711927409,-0.030107624931618046,0.0033196563062162904,1.2751359939575195,2019-06-20 16:01:53:055
-9.023608032226562,6.391223571777344,0.7966584167480468,0.04995791015484937,-0.0295749927136022,0.004518078796751947,1.2799999713897705,2019-06-20 16:01:53:060
-9.004454711914063,6.366084838867187,0.7727167663574218,0.051023174590881064,-0.03037394104062597,0.005583343232783643,1.2851200103759766,2019-06-20 16:01:53:065
-8.956571411132812,6.3720702514648435,0.7368042907714843,0.05435212595348011,-0.030240782986122008,0.006249133505303452,1.2899839878082275,2019-06-20 16:01:53:070
-8.94579766845703,6.376858581542969,0.7882788391113281,0.056216338716535585,-0.030906573258641816,0.005982817396295529,1.2951040267944336,2019-06-20 16:01:53:075
-8.931432678222656,6.3864352416992185,0.8086292419433594,0.0575479192615752,-0.030240782986122008,0.006382291559807415,1.2999680042266846,2019-06-20 16:01:53:080
-8.920658935546875,6.4163623046875,0.7798992614746093,0.05954529007913463,-0.030107624931618046,0.006249133505303452,1.3050880432128906,2019-06-20 16:01:53:085
-8.9062939453125,6.448683532714844,0.7822934265136718,0.0603442384061584,-0.028642886332074468,0.005317027123775719,1.3099520206451416,2019-06-20 16:01:53:090
-8.87756396484375,6.463048522949219,0.7619430236816406,0.06140950284219009,-0.028376570223066545,0.0039854465787361,1.3150720596313477,2019-06-20 16:01:53:095
-8.860804809570313,6.484596008300781,0.7320159606933594,0.06114318673318217,-0.02771077995054673,0.0023875499246885576,1.3199360370635986,2019-06-20 16:01:53:100
-8.885943542480469,6.522902648925781,0.7092713928222656,0.061675818951198016,-0.0295749927136022,0.0009228113251449763,1.3250560760498047,2019-06-20 16:01:53:105
-8.830877746582031,6.539661804199219,0.6949064025878906,0.061675818951198016,-0.028243412168562583,-0.0013408756014223761,1.3299200534820557,2019-06-20 16:01:53:110
-8.82010400390625,6.5312822265624995,0.6984976501464844,0.06127634478768613,-0.027577621896042768,-0.003205088364477843,1.3350400924682617,2019-06-20 16:01:53:115
-8.869184387207032,6.536070556640625,0.6781472473144531,0.05887949980661482,-0.027444463841538806,-0.00653403972707689,1.3399040699005127,2019-06-20 16:01:53:120
-8.870381469726562,6.555223876953125,0.6338551940917969,0.05821370953409501,-0.02784393800505069,-0.009862991089675938,1.3450241088867188,2019-06-20 16:01:53:125
-8.854819396972657,6.5312822265624995,0.6805414123535156,0.055550548444015774,-0.02531393496947542,-0.01212667801624329,1.3501441478729248,2019-06-20 16:01:53:130
-8.888337707519531,6.5695888671875,0.7080743103027344,0.05235475513592069,-0.02544709302397938,-0.013591416615786871,1.3550081253051758,2019-06-20 16:01:53:135
-8.882352294921875,6.527690979003906,0.6410376892089844,0.0491589618278256,-0.02464814469695561,-0.015455629378842338,1.3601281642913818,2019-06-20 16:01:53:140
-8.900308532714844,6.491778503417969,0.6697676696777344,0.04995791015484937,-0.02278393193390014,-0.017852475400210954,1.3649921417236328,2019-06-20 16:01:53:145
-8.921856018066405,6.478610595703125,0.6218843688964844,0.04955843599133749,-0.025713409132987305,-0.01918405594525057,1.3701121807098389,2019-06-20 16:01:53:150
-8.90749102783203,6.522902648925781,0.6206872863769531,0.05128949069988899,-0.02704498967802692,-0.02118142676281,1.3749761581420898,2019-06-20 16:01:53:155
-8.875169799804688,6.509734741210937,0.6673735046386718,0.05062370042736918,-0.02691183162352296,-0.023045639525865465,1.380096197128296,2019-06-20 16:01:53:160
-8.881155212402344,6.560012207031249,0.6925122375488281,0.04809369739179391,-0.025846567187491266,-0.024643536179913012,1.3849601745605469,2019-06-20 16:01:53:165
-8.876366882324218,6.555223876953125,0.6973005676269531,0.044098955756675044,-0.02278393193390014,-0.027706171433504137,1.3900799751281738,2019-06-20 16:01:53:170
-8.9062939453125,6.5324793090820314,0.6506143493652343,0.039704739958044306,-0.02052024500733279,-0.029703542251063562,1.394944190979004,2019-06-20 16:01:53:175
-8.91587060546875,6.524099731445312,0.5847748107910156,0.03810684330399676,-0.021052877225348637,-0.03143459695961507,1.4000639915466309,2019-06-20 16:01:53:180
-8.943403503417969,6.539661804199219,0.5692127380371094,0.03837315941300468,-0.02185182555237241,-0.034364074158702226,1.4049279689788818,2019-06-20 16:01:53:185
-8.93502392578125,6.515720153808593,0.5955485534667969,0.037041578867965066,-0.02185182555237241,-0.03569565470374185,1.410048007965088,2019-06-20 16:01:53:190
-8.902702697753906,6.54085888671875,0.6003368835449219,0.03397894361437394,-0.02251761582489222,-0.03729355135778939,1.4149119853973389,2019-06-20 16:01:53:195
-8.879958129882812,6.5181143188476565,0.6087164611816406,0.03158209863330263,-0.02065340306183675,-0.03849197384832505,1.420032024383545,2019-06-20 16:01:53:200
-8.905096862792968,6.5037493286132815,0.6326581115722656,0.029318411706735277,-0.019588138625805055,-0.040888818829396364,1.424896001815796,2019-06-20 16:01:53:205
-8.948191833496093,6.457063110351562,0.6398406066894531,0.026655250616656037,-0.02185182555237241,-0.043152505755963716,1.430016040802002,2019-06-20 16:01:53:210
-8.97333056640625,6.4295302124023435,0.6111106262207031,0.024125247581080762,-0.02065340306183675,-0.04381829602848353,1.435136079788208,2019-06-20 16:01:53:215
-8.938615173339844,6.4594572753906245,0.6350522766113281,0.021462086491001526,-0.020253928898324867,-0.04488356046451522,1.440000057220459,2019-06-20 16:01:53:220
-8.923053100585937,6.403194396972656,0.6470231018066406,0.016668396528858896,-0.01918866446229317,-0.04488356046451522,1.445120096206665,2019-06-20 16:01:53:225
-8.97452764892578,6.345734436035156,0.6757530822753907,0.013472603220763808,-0.018789190298781285,-0.04621514100955484,1.449984073638916,2019-06-20 16:01:53:230
-9.017622619628906,6.324186950683593,0.6111106262207031,0.009211545476637028,-0.02185182555237241,-0.045549350737035026,1.455104112625122,2019-06-20 16:01:53:235
-9.016425537109376,6.38763232421875,0.5428769226074218,0.00588259411403798,-0.023050248042908065,-0.044750402410011256,1.459968090057373,2019-06-20 16:01:53:240
-8.956571411132812,6.356508178710937,0.6470231018066406,0.007613648822589485,-0.022384457770388257,-0.04328566381046768,1.465088129043579,2019-06-20 16:01:53:245
-8.972133483886719,6.287077392578125,0.7906730041503907,0.005483119950526095,-0.020919719170844675,-0.04288618964695579,1.46995210647583,2019-06-20 16:01:53:250
-8.990089721679688,6.240391174316406,0.7691255187988281,0.0018878524789191233,-0.01918866446229317,-0.03995671244786863,1.4750721454620361,2019-06-20 16:01:53:255
-9.03198760986328,6.2104641113281245,0.7104684753417969,-0.0013079408291759625,-0.017457609753741665,-0.03716039330328543,1.479936122894287,2019-06-20 16:01:53:260
-9.072688415527344,6.1542012329101565,0.6314610290527344,-0.0010416247201680388,-0.01825655808076544,-0.035828812758245815,1.4850561618804932,2019-06-20 16:01:53:265
-9.127754211425781,6.1087120971679685,0.7272276306152343,0.003352591078462704,-0.01905550640778921,-0.03156775501411903,1.4899201393127441,2019-06-20 16:01:53:270
-9.144513366699218,6.093150024414062,0.8026438293457031,0.007214174659077599,-0.02131919333435656,-0.0278393294880081,1.4950401782989502,2019-06-20 16:01:53:275
-9.158878356933593,6.084770446777344,0.8122204895019531,0.009211545476637028,-0.025180776914971458,-0.022246691198841696,1.4999041557312012,2019-06-20 16:01:53:280
-9.154090026855469,6.026113403320313,0.8170088195800781,0.013206287111755885,-0.023183406097412027,-0.01705352603288988,1.5050241947174072,2019-06-20 16:01:53:285
-9.191199584960938,5.998580505371094,0.7427897033691406,0.017334186801378704,-0.025979725241995228,-0.010262465253187823,1.5101439952850342,2019-06-20 16:01:53:290
-9.235491638183593,6.056040466308594,0.7008918151855469,0.022127876763521334,-0.028376570223066545,-0.0044035108550135,1.5150079727172852,2019-06-20 16:01:53:295
-9.23309747314453,6.101529602050781,0.7571546936035156,0.02878577948871943,-0.031039731313145778,0.0019880757611766718,1.5201280117034912,2019-06-20 16:01:53:300
-9.264221618652343,6.101529602050781,0.7882788391113281,0.03264736306933432,-0.03463499878475275,0.00744755599583911,1.5249919891357422,2019-06-20 16:01:53:305
-9.223520812988282,6.155398315429688,0.7978554992675781,0.0351773661049096,-0.034768156839256714,0.013972300666533242,1.5301120281219482,2019-06-20 16:01:53:310
-9.198382080078124,6.124274169921875,0.8206000671386718,0.040770004394076,-0.03556710724687509,0.01956493791540234,1.5349760055541992,2019-06-20 16:01:53:315
-9.173243347167968,6.130259582519531,0.8577096252441406,0.044764746029194856,-0.03556710724687509,0.02582336647708855,1.5400960445404053,2019-06-20 16:01:53:320
-9.17563751220703,6.160186645507812,0.9008045959472656,0.04796053933728995,-0.03756447806443451,0.029818108112207406,1.5449600219726562,2019-06-20 16:01:53:325
-9.138527954101562,6.194902038574218,0.9642499694824218,0.05528423233500785,-0.0390292166639781,0.03407916585633419,1.5500800609588623,2019-06-20 16:01:53:330
-9.078673828125,6.21525244140625,0.9187608337402343,0.06380634782326142,-0.04102658748153752,0.038207065545957014,1.5549440383911133,2019-06-20 16:01:53:335
-9.036775939941405,6.235602844238281,0.8960162658691406,0.07019793027826238,-0.04209185191756922,0.04087022663603625,1.5600640773773193,2019-06-20 16:01:53:340
-8.9829072265625,6.278697814941406,0.9043958435058593,0.07512477829490896,-0.04275764219008903,0.04273443939909172,1.5649280548095703,2019-06-20 16:01:53:345
-8.948191833496093,6.319398620605469,0.8529212951660156,0.08071741658407537,-0.04435553884413657,0.044066019944131334,1.5700480937957764,2019-06-20 16:01:53:350
-8.937418090820312,6.3433402709960935,0.9127754211425781,0.08710900320026554,-0.04595343549818411,0.0431339135626036,1.5749120712280273,2019-06-20 16:01:53:355
-8.909885192871094,6.405588562011719,0.8589067077636718,0.09270164148943194,-0.04661922577070392,0.04393286188962737,1.5800321102142334,2019-06-20 16:01:53:360
-8.859607727050781,6.455866027832031,0.8409504699707031,0.09456585425248741,-0.04502132911665638,0.0414028588540521,1.5851521492004395,2019-06-20 16:01:53:365
-8.822498168945312,6.5037493286132815,0.7990525817871094,0.09709585728806268,-0.042358168026577145,0.03993812025450851,1.5900161266326904,2019-06-20 16:01:53:370
-8.787782775878906,6.597121765136719,0.7655342712402343,0.09616375090653495,-0.0390292166639781,0.03727495916442927,1.5951361656188965,2019-06-20 16:01:53:375
-8.749476135253905,6.5911363525390625,0.7320159606933594,0.09203585121691214,-0.032770786021697286,0.035144430292365886,1.6000001430511475,2019-06-20 16:01:53:380
-8.715957824707031,6.556420959472656,0.8277825622558593,0.09030479650836064,-0.029042360495586353,0.031682320875262876,1.6051201820373535,2019-06-20 16:01:53:385
-8.788979858398438,6.659370056152343,0.7882788391113281,0.08204899712911498,-0.02970815076810616,0.027953895349151943,1.6099841594696045,2019-06-20 16:01:53:390
-8.772220703124999,6.800625793457031,0.5584389953613281,0.06806740556738819,-0.017324451699237704,0.02023072818792215,1.6151041984558105,2019-06-20 16:01:53:395
-8.703986999511718,6.6497933959960935,0.5380885925292969,0.06953214416693178,-0.03223815380368144,0.012773878175997587,1.6199681758880615,2019-06-20 16:01:53:400
-8.920658935546875,6.524099731445312,0.5081615295410156,0.07459214607689311,-0.038496584445962254,0.008113346268358919,1.6250879764556885,2019-06-20 16:01:53:405
-8.887140625,6.6785233764648435,0.46865780639648436,0.07579056856742877,-0.030906573258641816,0.0039854465787361,1.6299521923065186,2019-06-20 16:01:53:410
-8.773417785644531,6.708450439453125,0.5321031799316406,0.06966530222143574,-0.03729816195542659,-0.00014245311088671893,1.6350719928741455,2019-06-20 16:01:53:415
-8.682439514160157,6.811399536132813,0.7320159606933594,0.05395265178996823,-0.03037394104062597,-0.005202459182037272,1.6399359703063965,2019-06-20 16:01:53:420
-8.769826538085937,6.78985205078125,0.6649793395996093,0.04436527186568297,-0.013063393955110924,-0.009862991089675938,1.6450560092926025,2019-06-20 16:01:53:425
-8.773417785644531,6.726406677246094,0.6661764221191406,0.039837898012548265,-0.017324451699237704,-0.013990890779298756,1.6499199867248535,2019-06-20 16:01:53:430
-8.827286499023437,6.661764221191406,0.5811835632324218,0.04090316244857996,-0.022118141661380333,-0.019317213999754532,1.6550400257110596,2019-06-20 16:01:53:435
-8.921856018066405,6.593530517578125,0.5129498596191406,0.04543053630171467,-0.016126029208702045,-0.022113533144337734,1.6599040031433105,2019-06-20 16:01:53:440
-8.832074829101563,6.701267944335937,0.5740010681152343,0.04037053023056411,-0.018922348353285247,-0.0267740650519764,1.6650240421295166,2019-06-20 16:01:53:445
-8.796162353515625,6.747954162597656,0.5177381896972656,0.03331315334185413,-0.019321822516797132,-0.03170091306862299,1.6701440811157227,2019-06-20 16:01:53:450
-8.797359436035157,6.773092895507812,0.5692127380371094,0.02332629925405699,-0.0061391751209049035,-0.03596197081274977,1.6750080585479736,2019-06-20 16:01:53:455
-8.797359436035157,6.679720458984375,0.5608331604003907,0.015469974038323238,-0.00454127846685736,-0.0407556607748924,1.6801280975341797,2019-06-20 16:01:53:460
-8.836863159179687,6.629442993164062,0.4530957336425781,0.014271551547787581,-0.010533390919535647,-0.04381829602848353,1.6849920749664307,2019-06-20 16:01:53:465
-8.958965576171876,6.552829711914062,0.4076065979003906,0.014271551547787581,-0.008003387883960371,-0.047147247391082565,1.6901121139526367,2019-06-20 16:01:53:470
-8.94579766845703,6.514523071289062,0.5141469421386718,0.010409967967172685,-0.010267074810527722,-0.049277776263145966,1.6949760913848877,2019-06-20 16:01:53:475
-8.872775634765624,6.5624063720703125,0.6087164611816406,0.007613648822589485,-0.014128658391142617,-0.051674621244217275,1.7000961303710938,2019-06-20 16:01:53:480
-8.926644348144531,6.5181143188476565,0.6350522766113281,0.00654838438655779,-0.013329710064118847,-0.05353883400727274,1.7049601078033447,2019-06-20 16:01:53:485
-8.961359741210938,6.396011901855468,0.6733589172363281,0.0029531169149508182,-0.011332339246559419,-0.05234041151673709,1.7100801467895508,2019-06-20 16:01:53:490
-8.890731872558593,6.457063110351562,0.7116655578613281,-0.004237418028263125,-0.008402862047472256,-0.05380515011628066,1.7149441242218018,2019-06-20 16:01:53:495
-8.91706768798828,6.457063110351562,0.6230814514160156,-0.006367946900326516,-0.009468126483503952,-0.05487041455231237,1.7200641632080078,2019-06-20 16:01:53:500
-8.966148071289062,6.338551940917968,0.7463809509277344,-0.013824797952548382,-0.013862342282134694,-0.05340567595276878,1.7249281406402588,2019-06-20 16:01:53:505
-9.017622619628906,6.356508178710937,0.6147018737792969,-0.018085855696675163,-0.011332339246559419,-0.05220725346223312,1.7300481796264648,2019-06-20 16:01:53:510
-8.990089721679688,6.326581115722656,0.4387307434082031,-0.00889794993590179,-0.00853602010197622,-0.04994356653566578,1.7349121570587158,2019-06-20 16:01:53:515
-8.927841430664062,6.206872863769531,0.7679284362792969,-0.011294794916973107,-0.012663919791599039,-0.04661461517306672,1.7400321960449219,2019-06-20 16:01:53:520
-9.042761352539062,6.1099091796875,0.8445417175292969,-0.013558481843540459,-0.010932865083047532,-0.04368513797397956,1.7448961734771729,2019-06-20 16:01:53:525
-9.127754211425781,6.1960991210937495,0.7595488586425782,-0.012626375462012724,-0.006938123447928675,-0.038225657739317125,1.7500159740447998,2019-06-20 16:01:53:530
-9.206761657714843,6.085967529296875,0.7727167663574218,-0.009430582153917639,-0.01359602617312677,-0.0334319677771745,1.7551360130310059,2019-06-20 16:01:53:535
-9.257039123535156,5.938726379394531,0.7320159606933594,0.0008225880428874278,-0.017457609753741665,-0.02597511672495263,1.7599999904632568,2019-06-20 16:01:53:540
-9.278586608886718,5.959076782226562,0.7332130432128906,0.008945229367629103,-0.019454980571301093,-0.018118791509218878,1.765120029449463,2019-06-20 16:01:53:545
-9.310907836914062,5.981821350097656,0.706877227783203,0.013339445166259846,-0.02531393496947542,-0.009729833035171977,1.7699840068817139,2019-06-20 16:01:53:550
-9.292951599121093,5.980624267578125,0.7727167663574218,0.015203657929315313,-0.028243412168562583,-0.0016071917104302999,1.77510404586792,2019-06-20 16:01:53:555
-9.278586608886718,5.9566826171875,0.8505271301269531,0.020663138163977753,-0.027444463841538806,0.006648607668815338,1.779968023300171,2019-06-20 16:01:53:560
-9.308513671875,6.009354248046875,0.7727167663574218,0.02865262143421547,-0.030906573258641816,0.01383914261202928,1.785088062286377,2019-06-20 16:01:53:565
-9.316893249511718,6.002171752929687,0.7798992614746093,0.03504420805040564,-0.035034475028859244,0.0224944151144895,1.789952039718628,2019-06-20 16:01:53:570
-9.321681579589843,5.957879699707031,0.9175637512207031,0.041302636612091846,-0.03836342639145829,0.028353369512663828,1.795072078704834,2019-06-20 16:01:53:575
-9.255842041015624,6.011748413085938,0.936717071533203,0.05275422929943257,-0.04115974553604149,0.03447864001984608,1.799936056137085,2019-06-20 16:01:53:580
-9.198382080078124,6.0356900634765625,0.9558703918457031,0.06500477031379706,-0.043822906626120726,0.040603910527028324,1.805056095123291,2019-06-20 16:01:53:585
-9.162469604492188,6.034492980957031,0.9810091247558593,0.06993161416925445,-0.044755013007648455,0.046063390761690755,1.809920072555542,2019-06-20 16:01:53:590
-9.109797973632812,6.096741271972656,0.9798120422363281,0.07698899105796443,-0.04448869689864053,0.05072392266932943,1.815040111541748,2019-06-20 16:01:53:595
-9.046352600097656,6.172157470703125,0.9139725036621094,0.08790795152728931,-0.048083964370247506,0.05272129348688885,1.819904088973999,2019-06-20 16:01:53:600
-9.029593444824219,6.1817341308593745,0.9343229064941406,0.09722901534256664,-0.04941554491528713,0.05551761263147206,1.825024127960205,2019-06-20 16:01:53:605
-9.0212138671875,6.214055358886719,0.9151695861816406,0.10548481472181229,-0.049948177133302976,0.05924603815758299,1.8301441669464111,2019-06-20 16:01:53:610
-8.956571411132812,6.257150329589844,0.9008045959472656,0.11107745301097868,-0.05207870600536636,0.05871340593956714,1.835008144378662,2019-06-20 16:01:53:615
-8.920658935546875,6.336157775878906,0.8936221008300781,0.11280850771953019,-0.050747125460326746,0.05937919621208695,1.8401281833648682,2019-06-20 16:01:53:620
-8.873972717285156,6.396011901855468,0.8589067077636718,0.11107745301097868,-0.04488817106215242,0.059112880103079024,1.8449921607971191,2019-06-20 16:01:53:625
-8.798556518554687,6.494172668457031,0.7930671691894531,0.10668323721234794,-0.03636605557389886,0.057514983449031484,1.8501121997833252,2019-06-20 16:01:53:630
-8.794965270996094,6.441501037597656,0.7475780334472656,0.10282165363173304,-0.03530079113786717,0.056582877067503756,1.8549761772155762,2019-06-20 16:01:53:635
-8.89552020263672,6.526493896484375,0.8828483581542969,0.08817426763629724,-0.04195869386306526,0.05525129652246414,1.8600959777832031,2019-06-20 16:01:53:640
-8.929038513183594,6.71323876953125,0.38725619506835934,0.08670952903675366,-0.03157236353116163,0.05272129348688885,1.8649601936340332,2019-06-20 16:01:53:645
-8.760249877929688,6.740771667480469,0.45668698120117185,0.08644321292774573,-0.037431320009930553,0.04632970687069868,1.8700799942016602,2019-06-20 16:01:53:650
-8.899111450195312,6.513325988769531,0.48781112670898436,0.088973215963321,-0.057005554022012954,0.04073706858153228,1.8749439716339111,2019-06-20 16:01:53:655
-8.830877746582031,6.716830017089843,0.42316867065429686,0.09057111261736855,-0.046352909661695994,0.03660916889190947,1.8800640106201172,2019-06-20 16:01:53:660
-8.796162353515625,6.8090053710937495,0.4866140441894531,0.08378005183766649,-0.04781764826123958,0.031282846711750995,1.8849279880523682,2019-06-20 16:01:53:665
-8.615402893066406,6.846114929199219,0.5787893981933594,0.06939898611242781,-0.04874975464276732,0.024891260095560818,1.8900480270385742,2019-06-20 16:01:53:670
-8.670468688964844,6.929910705566406,0.5285119323730468,0.05848002564310294,-0.03143920547665766,0.019831254024410265,1.8949120044708252,2019-06-20 16:01:53:675
-8.757855712890624,6.7946403808593745,0.5069644470214844,0.05302054540844049,-0.02877604438657843,0.012507562066989662,1.9000320434570312,2019-06-20 16:01:53:680
-8.695607421875,6.853297424316406,0.5476652526855469,0.04622948462873844,-0.03756447806443451,0.004784394905759872,1.9051520824432373,2019-06-20 16:01:53:685
-8.822498168945312,6.805414123535156,0.43753366088867185,0.04796053933728995,-0.031971837694673516,-0.0010745594924144524,1.9100160598754883,2019-06-20 16:01:53:690
-8.737505310058594,6.901180725097656,0.5967456359863281,0.04196842688461166,-0.02797709605955466,-0.00786562027211651,1.9151360988616943,2019-06-20 16:01:53:695
-8.593855407714843,6.9143486328125,0.6039281311035156,0.033712627505366015,-0.029841308822610123,-0.016654051869377996,1.9200000762939453,2019-06-20 16:01:53:700
-8.622585388183593,6.957443603515625,0.5955485534667969,0.024125247581080762,-0.01785708391725355,-0.023711429798385274,1.9251201152801514,2019-06-20 16:01:53:705
-8.652512451171875,6.882027404785156,0.6565997619628906,0.014404709602291543,-0.010533390919535647,-0.03156775501411903,1.9299840927124023,2019-06-20 16:01:53:710
-8.680045349121093,6.81858203125,0.5608331604003907,0.01147523240320438,-0.015060764772670352,-0.03875828995733298,1.9351041316986084,2019-06-20 16:01:53:715
-8.73511114501953,6.807808288574218,0.4914023742675781,0.011608390457708341,-0.012930235900606962,-0.045149876573523144,1.9399681091308594,2019-06-20 16:01:53:720
-8.803344848632813,6.743165832519531,0.5740010681152343,0.007879964931597408,-0.00866917815648018,-0.0502098826446737,1.9450881481170654,2019-06-20 16:01:53:725
-8.741096557617187,6.695282531738281,0.7200451354980468,0.0013552202609032756,-0.011998129519079227,-0.057000943424375755,1.9499521255493164,2019-06-20 16:01:53:730
-8.719549072265625,6.688100036621093,0.6889209899902343,-0.00010951833864030542,-0.009068652319992066,-0.061661475332014416,1.9550721645355225,2019-06-20 16:01:53:735
-8.777009033203125,6.611486755371094,0.6889209899902343,-0.0017074149926878484,-0.006938123447928675,-0.06632200723965309,1.9599361419677734,2019-06-20 16:01:53:740
-8.842848571777344,6.476216430664063,0.6027310485839844,-0.0010416247201680388,-0.01492760671816639,-0.06818622000270855,1.9650561809539795,2019-06-20 16:01:53:745
-8.846439819335938,6.4881872558593745,0.5979427185058593,-0.006234788845822554,-0.013995500336638655,-0.0687188522207244,1.9699201583862305,2019-06-20 16:01:53:750
-8.79257110595703,6.63662548828125,0.7775050964355469,-0.028738500056992116,-0.005739700957393018,-0.07098253914729176,1.9750401973724365,2019-06-20 16:01:53:755
-8.823695251464844,6.6078955078125,0.5464681701660156,-0.03220060947409512,0.0043803111849080876,-0.07244727774683533,1.9799041748046875,2019-06-20 16:01:53:760
-8.840454406738282,6.373267333984375,0.7751109313964843,-0.03220060947409512,0.008641368929034868,-0.07231411969233137,1.9850239753723145,2019-06-20 16:01:53:765
-8.986498474121094,6.187719543457031,0.9594616394042969,-0.03726061554524567,0.0011845178768130013,-0.07031674887477195,1.9901440143585205,2019-06-20 16:01:53:770
-9.03198760986328,6.307427795410156,0.5512565002441406,-0.02687428729393665,0.0037145209123882776,-0.06818622000270855,1.9950079917907715,2019-06-20 16:01:53:775
-9.065505920410157,6.258347412109375,0.6147018737792969,-0.01848532986018705,-0.0005465368317385035,-0.06445779447659762,2.0001280307769775,2019-06-20 16:01:53:780
-9.110995056152344,5.990200927734375,0.9558703918457031,-0.015555852661099887,-0.007204439556936599,-0.061794633386518374,2.0049920082092285,2019-06-20 16:01:53:785
-9.137330871582032,6.11948583984375,0.8529212951660156,-0.005968472736814629,-0.0025439076492979325,-0.057799891751399525,2.0101120471954346,2019-06-20 16:01:53:790
-9.130148376464843,6.103923767089843,0.7954613342285156,0.001088904151895352,-0.0061391751209049035,-0.05447094038880047,2.0149760246276855,2019-06-20 16:01:53:795
-9.0978271484375,6.030901733398437,0.9163666687011719,0.0004231138793755422,-0.013462868118622809,-0.04874514404513012,2.0200960636138916,2019-06-20 16:01:53:800
-9.173243347167968,6.04287255859375,0.7427897033691406,0.008279439095109295,-0.01079970702854357,-0.04182092521092409,2.0249600410461426,2019-06-20 16:01:53:805
-9.187608337402343,6.05244921875,0.6865268249511719,0.017866819019394554,-0.013196552009614886,-0.03716039330328543,2.0300800800323486,2019-06-20 16:01:53:810
-9.168455017089844,5.998580505371094,0.8182059020996093,0.022394192872529257,-0.02344972220641995,-0.03223354528663884,2.0349440574645996,2019-06-20 16:01:53:815
-9.237885803222657,5.979427185058594,0.8565125427246093,0.027187882834671884,-0.02171866749786845,-0.023977745907393204,2.0400640964508057,2019-06-20 16:01:53:820
-9.207958740234375,6.046463806152343,0.8229942321777344,0.03570999832292545,-0.022917089988404103,-0.017852475400210954,2.0449280738830566,2019-06-20 16:01:53:825
-9.207958740234375,6.009354248046875,0.8038409118652343,0.043300007429651274,-0.03117288936764974,-0.01212667801624329,2.0500481128692627,2019-06-20 16:01:53:830
-9.23309747314453,5.98541259765625,0.8696804504394531,0.04649580073774636,-0.031971837694673516,-0.0044035108550135,2.0549120903015137,2019-06-20 16:01:53:835
-9.223520812988282,6.039281311035156,0.8541183776855469,0.050890016536377106,-0.031971837694673516,0.003053340197208367,2.0600321292877197,2019-06-20 16:01:53:840
-9.181622924804687,6.069208374023438,0.8182059020996093,0.05834686758859897,-0.04009448110000979,0.008645978486374767,2.0648961067199707,2019-06-20 16:01:53:845
-9.192396667480468,6.066814208984375,0.8313738098144531,0.06580371864082084,-0.041292903590545445,0.013173352339509472,2.0700161457061768,2019-06-20 16:01:53:850
-9.154090026855469,6.089558776855468,0.8134175720214843,0.07059740444177426,-0.04169237775405733,0.01863283153387461,2.075136184692383,2019-06-20 16:01:53:855
-9.100221313476561,6.145821655273437,0.7703226013183594,0.07552425245842086,-0.04701869993421581,0.02169546678746573,2.080000162124634,2019-06-20 16:01:53:860
-9.106206726074218,6.175748718261719,0.8074321594238281,0.08151636491109913,-0.047684490206735625,0.026089682586096473,2.0851199626922607,2019-06-20 16:01:53:865
-9.083462158203124,6.200887451171875,0.8445417175292969,0.08564426460072197,-0.04701869993421581,0.028886001730679674,2.089984178543091,2019-06-20 16:01:53:870
-9.012834289550781,6.29186572265625,0.7523663635253907,0.09030479650836064,-0.04954870296979109,0.03035074033022326,2.0951039791107178,2019-06-20 16:01:53:875
-9.005651794433593,6.3397490234375,0.7703226013183594,0.09310111565294384,-0.051679231841854474,0.03141600476625495,2.099968194961548,2019-06-20 16:01:53:880
-8.9829072265625,6.363690673828125,0.8397533874511719,0.09190269316240818,-0.047285016043223736,0.03274758531129457,2.105087995529175,2019-06-20 16:01:53:885
-8.905096862792968,6.409179809570312,0.7846875915527344,0.09270164148943194,-0.04648606771619996,0.0319486369842708,2.109951972961426,2019-06-20 16:01:53:890
-8.879958129882812,6.467836853027344,0.7715196838378906,0.09017163845385667,-0.045420803280168266,0.030750214493735144,2.115072011947632,2019-06-20 16:01:53:895
-8.858410644531249,6.542055969238281,0.7595488586425782,0.08644321292774573,-0.03836342639145829,0.02941863394869552,2.119935989379883,2019-06-20 16:01:53:900
-8.822498168945312,6.557618041992187,0.6721618347167969,0.08710900320026554,-0.032770786021697286,0.02702178896762421,2.125056028366089,2019-06-20 16:01:53:905
-8.78179736328125,6.520508483886719,0.8265854797363281,0.08311426156514669,-0.03609973946489094,0.024624943986552895,2.12992000579834,2019-06-20 16:01:53:910
-8.814118591308594,6.571983032226562,0.8122204895019531,0.07499162024040501,-0.037031845846418665,0.021162834569449885,2.135040044784546,2019-06-20 16:01:53:915
-8.897914367675781,6.704859191894531,0.4961907043457031,0.07512477829490896,-0.030107624931618046,0.016901777865620405,2.139904022216797,2019-06-20 16:01:53:920
-8.768629455566407,6.704859191894531,0.6410376892089844,0.07113003665979012,-0.029441834659098238,0.013173352339509472,2.145024061203003,2019-06-20 16:01:53:925
-8.759052795410156,6.734786254882812,0.706877227783203,0.06047739646066236,-0.02890920244108239,0.007980188213854957,2.150144100189209,2019-06-20 16:01:53:930
-8.78179736328125,6.7371804199218746,0.47464321899414064,0.06260792533272576,-0.02531393496947542,0.0019880757611766718,2.15500807762146,2019-06-20 16:01:53:935
-8.83806024169922,6.662961303710937,0.5895631408691406,0.058613183697606895,-0.028376570223066545,-0.0036045625279897287,2.160128116607666,2019-06-20 16:01:53:940
-8.799753601074219,6.622260498046875,0.6410376892089844,0.05794739342508708,-0.033569734348721056,-0.009064042762652167,2.164992094039917,2019-06-20 16:01:53:945
-8.778206115722655,6.726406677246094,0.48781112670898436,0.0631405575507416,-0.02970815076810616,-0.014124048833802718,2.170112133026123,2019-06-20 16:01:53:950
-8.709972412109375,6.738377502441406,0.6853297424316406,0.05741476120707124,-0.02704498967802692,-0.01971668816326642,2.174976110458374,2019-06-20 16:01:53:955
-8.715957824707031,6.743165832519531,0.7643371887207031,0.04489790408369882,-0.023316564151915988,-0.024110903961897166,2.18009614944458,2019-06-20 16:01:53:960
-8.757855712890624,6.7671074829101565,0.6901180725097656,0.04116947855758789,-0.016126029208702045,-0.028505119760527907,2.184960126876831,2019-06-20 16:01:53:965
-8.805739013671875,6.637822570800781,0.6613880920410156,0.04303369132064335,-0.0183897161352694,-0.03383144194068638,2.190080165863037,2019-06-20 16:01:53:970
-8.857213562011719,6.555223876953125,0.6841326599121094,0.042101584939115616,-0.020786561116340713,-0.037027235248781466,2.194944143295288,2019-06-20 16:01:53:975
-8.900308532714844,6.542055969238281,0.5859718933105469,0.040770004394076,-0.01825655808076544,-0.039290922175348825,2.200064182281494,2019-06-20 16:01:53:980
-8.872775634765624,6.551632629394531,0.6410376892089844,0.03930526579453242,-0.01905550640778921,-0.04248671548344391,2.204928159713745,2019-06-20 16:01:53:985
-8.863198974609375,6.522902648925781,0.7044830627441406,0.0351773661049096,-0.018922348353285247,-0.04408461213749145,2.210048198699951,2019-06-20 16:01:53:990
-8.914673522949219,6.510931823730469,0.6913151550292969,0.03331315334185413,-0.014394974500150544,-0.04488356046451522,2.214912176132202,2019-06-20 16:01:53:995
-8.899111450195312,6.469033935546875,0.6015339660644531,0.032913679178342245,-0.01572655504519016,-0.047147247391082565,2.220031976699829,2019-06-20 16:01:54:000
-8.949388916015625,6.413968139648437,0.6254756164550781,0.030916308360782817,-0.020120770843820905,-0.04821251182711427,2.225152015686035,2019-06-20 16:01:54:005
-9.008045959472655,6.417559387207031,0.6147018737792969,0.031715256687806594,-0.01918866446229317,-0.04834566988161823,2.230015993118286,2019-06-20 16:01:54:010
-8.969739318847656,6.417559387207031,0.6649793395996093,0.03304683723284621,-0.02065340306183675,-0.04834566988161823,2.235136032104492,2019-06-20 16:01:54:015
-8.932629760742188,6.409179809570312,0.6601910095214844,0.03317999528735017,-0.023183406097412027,-0.04914461820864201,2.240000009536743,2019-06-20 16:01:54:020
-8.937418090820312,6.435515625,0.6865268249511719,0.030516834197270932,-0.02065340306183675,-0.04914461820864201,2.245120048522949,2019-06-20 16:01:54:025
-8.96495098876953,6.457063110351562,0.6470231018066406,0.030516834197270932,-0.019321822516797132,-0.049277776263145966,2.2499840259552,2019-06-20 16:01:54:030
-8.958965576171876,6.457063110351562,0.6625851745605469,0.031315782524294705,-0.02131919333435656,-0.05100883097169747,2.2551040649414062,2019-06-20 16:01:54:035
-8.951783081054687,6.436712707519531,0.7104684753417969,0.03278052112383829,-0.021585509443364483,-0.051674621244217275,2.2599680423736572,2019-06-20 16:01:54:040
-8.958965576171876,6.428333129882812,0.6925122375488281,0.03397894361437394,-0.020919719170844675,-0.05260672762574501,2.2650880813598633,2019-06-20 16:01:54:045
-8.91706768798828,6.434318542480469,0.7188480529785156,0.0351773661049096,-0.024115512478939758,-0.05420462427979255,2.2699520587921143,2019-06-20 16:01:54:050
-8.958965576171876,6.410376892089843,0.7044830627441406,0.03531052415941356,-0.024115512478939758,-0.05526988871582425,2.2750720977783203,2019-06-20 16:01:54:055
-8.967345153808594,6.391223571777344,0.7236363830566406,0.0369084208134611,-0.023849196369931835,-0.05526988871582425,2.2799360752105713,2019-06-20 16:01:54:060
-8.99248388671875,6.382843994140625,0.7356072082519531,0.03650894664994922,-0.02424867053344372,-0.055536204824832174,2.2850561141967773,2019-06-20 16:01:54:065
-9.017622619628906,6.391223571777344,0.7320159606933594,0.0369084208134611,-0.02424867053344372,-0.05393830817078463,2.2899200916290283,2019-06-20 16:01:54:070
-9.04994384765625,6.331369445800781,0.7535634460449219,0.04023737217606015,-0.024914460805963535,-0.05220725346223312,2.2950401306152344,2019-06-20 16:01:54:075
-9.03079052734375,6.319398620605469,0.7559576110839844,0.040770004394076,-0.02624604135100315,-0.051674621244217275,2.2999041080474854,2019-06-20 16:01:54:080
-8.994878051757812,6.297851135253906,0.7032859802246093,0.04449842992018693,-0.027444463841538806,-0.05060935680818558,2.3050241470336914,2019-06-20 16:01:54:085
-9.026002197265624,6.2822890625,0.7487751159667969,0.04543053630171467,-0.028376570223066545,-0.04981040848116181,2.3101441860198975,2019-06-20 16:01:54:090
-9.014031372070312,6.31101904296875,0.7463809509277344,0.045164220192706744,-0.027444463841538806,-0.04887830209963408,2.3150081634521484,2019-06-20 16:01:54:095
-9.0212138671875,6.3433402709960935,0.7176509704589844,0.04689527490125824,-0.028642886332074468,-0.04794619571810635,2.3201279640197754,2019-06-20 16:01:54:100
-9.024805114746094,6.3134132080078125,0.7822934265136718,0.04756106517377806,-0.029042360495586353,-0.04754672155459446,2.3249921798706055,2019-06-20 16:01:54:105
-8.997272216796874,6.345734436035156,0.7368042907714843,0.046762116846754284,-0.027178147732530883,-0.04701408933657861,2.3301119804382324,2019-06-20 16:01:54:110
-8.955374328613281,6.399603149414062,0.7332130432128906,0.04955843599133749,-0.026778673569018998,-0.04834566988161823,2.3349761962890625,2019-06-20 16:01:54:115
-8.884746459960937,6.4738222656249995,0.7858846740722656,0.051023174590881064,-0.029308676604594276,-0.05140830513520935,2.3400959968566895,2019-06-20 16:01:54:120
-8.862001892089843,6.485793090820312,0.7320159606933594,0.04982475210034541,-0.026645515514515036,-0.05420462427979255,2.3449599742889404,2019-06-20 16:01:54:125
-8.908688110351562,6.469033935546875,0.6554026794433594,0.04649580073774636,-0.025713409132987305,-0.056201995097351985,2.3500800132751465,2019-06-20 16:01:54:130
-8.955374328613281,6.5624063720703125,0.6099135437011719,0.045563694356218626,-0.025047618860467497,-0.05846568202391934,2.3549439907073975,2019-06-20 16:01:54:135
-8.931432678222656,6.527690979003906,0.6218843688964844,0.04689527490125824,-0.025047618860467497,-0.06139515922300649,2.3600640296936035,2019-06-20 16:01:54:140
-8.902702697753906,6.5169172363281245,0.6398406066894531,0.04702843295576221,-0.024914460805963535,-0.0652567428036214,2.3649280071258545,2019-06-20 16:01:54:145
-8.937418090820312,6.431924377441406,0.6039281311035156,0.04503106213820278,-0.02544709302397938,-0.06738727167568478,2.3700480461120605,2019-06-20 16:01:54:150
-9.02241094970703,6.259544494628906,0.6386435241699219,0.04383263964766712,-0.028376570223066545,-0.06605569113064516,2.3749120235443115,2019-06-20 16:01:54:155
-9.138527954101562,6.208069946289062,0.6577968444824218,0.04223474299361958,-0.029841308822610123,-0.06246042365903819,2.3800320625305176,2019-06-20 16:01:54:160
-9.181622924804687,6.164974975585937,0.6434318542480468,0.0435663235386592,-0.03170552158566559,-0.05713410147887972,2.3848960399627686,2019-06-20 16:01:54:165
-9.231900390625,6.121880004882812,0.6913151550292969,0.042101584939115616,-0.03423552462124087,-0.05114198902620143,2.3900160789489746,2019-06-20 16:01:54:170
-9.20436749267578,6.089558776855468,0.6781472473144531,0.03664210470445318,-0.031306047422153704,-0.044750402410011256,2.3951361179351807,2019-06-20 16:01:54:175
-9.185214172363281,6.054843383789063,0.6613880920410156,0.03544368221391753,-0.031306047422153704,-0.03676091913977354,2.4000000953674316,2019-06-20 16:01:54:180
-9.140922119140624,6.0716025390625,0.7272276306152343,0.0369084208134611,-0.03157236353116163,-0.030901964741599217,2.4051201343536377,2019-06-20 16:01:54:185
-9.158878356933593,6.056040466308594,0.7140597229003907,0.03464473388689375,-0.02811025411405862,-0.025043010343424897,2.4099841117858887,2019-06-20 16:01:54:190
-9.11817755126953,6.072799621582031,0.6949064025878906,0.03304683723284621,-0.030107624931618046,-0.020116162326778306,2.4151041507720947,2019-06-20 16:01:54:195
-9.066703002929687,6.172157470703125,0.6781472473144531,0.037174736922469025,-0.0334365762942171,-0.017186684087393843,2.4199681282043457,2019-06-20 16:01:54:200
-9.120571716308593,6.208069946289062,0.7056801452636718,0.04103632050308392,-0.033969208512232944,-0.014124048833802718,2.4250881671905518,2019-06-20 16:01:54:205
-9.154090026855469,6.190113708496094,0.7056801452636718,0.045563694356218626,-0.03609973946489094,-0.011061413580211595,2.4299521446228027,2019-06-20 16:01:54:210
-9.093038818359375,6.2116611938476565,0.7403955383300781,0.048493171555305796,-0.038896058609474135,-0.0099961491441799,2.435072183609009,2019-06-20 16:01:54:215
-9.096630065917969,6.193704956054687,0.7320159606933594,0.05275422929943257,-0.039295532772986023,-0.0071998299995967,2.4399361610412598,2019-06-20 16:01:54:220
-9.058323425292969,6.2116611938476565,0.7523663635253907,0.057814235370583125,-0.04089342942703356,-0.006667197781580852,2.445056200027466,2019-06-20 16:01:54:225
-9.093038818359375,6.206872863769531,0.7092713928222656,0.06367318976875745,-0.043956064680624685,-0.004536668909517462,2.449920177459717,2019-06-20 16:01:54:230
-9.120571716308593,6.235602844238281,0.8206000671386718,0.06327371560524557,-0.04249132608108111,-0.0022729819829501096,2.4550399780273438,2019-06-20 16:01:54:235
-9.063111755371093,6.289471557617188,0.821797149658203,0.06047739646066236,-0.038097110282450365,0.0005233371616330906,2.459904193878174,2019-06-20 16:01:54:240
-9.018819702148438,6.321792785644531,0.8158117370605469,0.05994476424264651,-0.037431320009930553,0.0022543918701845955,2.465023994445801,2019-06-20 16:01:54:245
-9.020016784667968,6.321792785644531,0.7535634460449219,0.057814235370583125,-0.03636605557389886,0.004251762687744024,2.470144033432007,2019-06-20 16:01:54:250
-9.0595205078125,6.240391174316406,0.6817384948730468,0.056216338716535585,-0.034368682675744826,0.005583343232783643,2.475008010864258,2019-06-20 16:01:54:255
-9.075082580566406,6.276303649902344,0.6877239074707031,0.055417390389511816,-0.032903944076201244,0.007048081832327224,2.480128049850464,2019-06-20 16:01:54:260
-9.043958435058594,6.251164916992187,0.6961034851074218,0.054085809844472185,-0.030773415204137854,0.010643349303934195,2.484992027282715,2019-06-20 16:01:54:265
-9.0403671875,6.237997009277343,0.7296217956542969,0.05062370042736918,-0.02784393800505069,0.014238616775541167,2.490112066268921,2019-06-20 16:01:54:270
-9.02241094970703,6.242785339355469,0.6805414123535156,0.04423211381117901,-0.025846567187491266,0.016901777865620405,2.494976043701172,2019-06-20 16:01:54:275
-9.081067993164062,6.216449523925781,0.6446289367675782,0.041702110775603735,-0.024115512478939758,0.020497044296930077,2.500096082687378,2019-06-20 16:01:54:280
-9.114586303710936,6.1972962036132815,0.6362493591308593,0.038905791631020537,-0.02198498360687637,0.023959153714033087,2.504960060119629,2019-06-20 16:01:54:285
-9.14571044921875,6.1865224609375,0.6063222961425782,0.03650894664994922,-0.023050248042908065,0.02861968562167175,2.510080099105835,2019-06-20 16:01:54:290
-9.11817755126953,6.20567578125,0.5919573059082031,0.03384578555986998,-0.02358288026092391,0.0319486369842708,2.514944076538086,2019-06-20 16:01:54:295
-9.102615478515625,6.229617431640625,0.5775923156738281,0.029984201979255085,-0.023316564151915988,0.03541074640137381,2.520064115524292,2019-06-20 16:01:54:300
-9.120571716308593,6.209267028808593,0.5680156555175782,0.027054724780167922,-0.02251761582489222,0.03927232998198871,2.524928092956543,2019-06-20 16:01:54:305
-9.109797973632812,6.223632019042968,0.5943514709472656,0.023193141199553027,-0.022917089988404103,0.04300075550809964,2.530048131942749,2019-06-20 16:01:54:310
-9.12655712890625,6.20567578125,0.5943514709472656,0.02186156065451341,-0.02265077387939618,0.0469954971432185,2.534912109375,2019-06-20 16:01:54:315
-9.155287109375,6.222434936523437,0.6302639465332031,0.020929454272985676,-0.025047618860467497,0.05072392266932943,2.540032148361206,2019-06-20 16:01:54:320
-9.170849182128906,6.184128295898438,0.6194902038574218,0.02345945730856095,-0.0295749927136022,0.053919715977424516,2.544896125793457,2019-06-20 16:01:54:325
-9.152892944335937,6.188916625976562,0.6518114318847656,0.02692156672566396,-0.03250446991268936,0.05858024788506318,2.550016164779663,2019-06-20 16:01:54:330
-9.170849182128906,6.1673691406249995,0.6697676696777344,0.028519463379711507,-0.03490131489376067,0.061642883138654306,2.55513596534729,2019-06-20 16:01:54:335
-9.120571716308593,6.203281616210937,0.6745559997558593,0.03184841474231055,-0.0390292166639781,0.0655044667192692,2.56000018119812,2019-06-20 16:01:54:340
-9.120571716308593,6.233208679199219,0.7415926208496093,0.03464473388689375,-0.04009448110000979,0.06963236640889202,2.565119981765747,2019-06-20 16:01:54:345
-9.120571716308593,6.258347412109375,0.6913151550292969,0.03491104999590168,-0.029175518550090315,0.07562447886157031,2.569984197616577,2019-06-20 16:01:54:350
-8.92425018310547,6.336157775878906,0.9869945373535156,0.017733660964890593,-0.011731813410071304,0.07828763995164954,2.575103998184204,2019-06-20 16:01:54:355
-8.804541931152343,6.46424560546875,1.0001624450683593,-0.002106889156199734,-0.009601284538007914,0.07988553660569708,2.579967975616455,2019-06-20 16:01:54:360
-8.919461853027343,6.356508178710937,0.5093586120605469,0.002553642751438933,-0.005739700957393018,0.08041816882371293,2.585088014602661,2019-06-20 16:01:54:365
-9.179228759765625,6.6078955078125,0.6637822570800781,-0.0058353146823106675,-0.005606542902889056,0.07961922049668917,2.589951992034912,2019-06-20 16:01:54:370
-8.871578552246094,6.319398620605469,0.5859718933105469,0.006814700495565714,-0.017990241971757512,0.07708921746111388,2.595072031021118,2019-06-20 16:01:54:375
-8.890731872558593,6.494172668457031,0.6877239074707031,0.029052095597727354,-0.017990241971757512,0.07189605333545937,2.599936008453369,2019-06-20 16:01:54:380
-8.678848266601562,6.593530517578125,1.0743815612792968,0.023193141199553027,-0.011998129519079227,0.0655044667192692,2.605056047439575,2019-06-20 16:01:54:385
-8.742293640136719,6.561209289550781,0.8613008728027344,0.010276809912668723,-0.009601284538007914,0.06324077979270185,2.609920024871826,2019-06-20 16:01:54:390
-8.729125732421874,6.813793701171875,0.9223520812988281,-0.002106889156199734,0.0061113658934595924,0.05924603815758299,2.6150400638580322,2019-06-20 16:01:54:395
-8.931432678222656,6.5324793090820314,0.7368042907714843,-0.0014410988836799246,0.01290242667316165,0.05724866734002356,2.619904041290283,2019-06-20 16:01:54:400
-9.046352600097656,6.337354858398437,0.4722490539550781,-0.0010416247201680388,0.010505581692090335,0.054984980413456216,2.6250240802764893,2019-06-20 16:01:54:405
-9.0403671875,6.20567578125,0.5333002624511719,-0.0017074149926878484,0.005046101457427897,0.05405287403192848,2.6301441192626953,2019-06-20 16:01:54:410
-9.035578857421875,6.370873168945312,0.6841326599121094,0.0034857491329666657,0.0002524114952852679,0.056582877067503756,2.6350080966949463,2019-06-20 16:01:54:415
-9.028396362304687,6.314610290527344,0.7236363830566406,0.010143651858164762,0.0002524114952852679,0.05778129955803941,2.6401281356811523,2019-06-20 16:01:54:420
-9.03079052734375,6.164974975585937,0.7475780334472656,0.008812071313125142,0.0005187276042931917,0.06177604119315827,2.6449921131134033,2019-06-20 16:01:54:425
-9.264221618652343,5.930346801757812,0.5548477478027344,-0.008365317717885944,0.00318188869437243,0.06776815364583655,2.6501121520996094,2019-06-20 16:01:54:430
-9.411462768554687,5.912390563964844,0.4267599182128906,-0.012093743243996877,0.0019834662038367727,0.07762184967912973,2.6549761295318604,2019-06-20 16:01:54:435
-9.474908142089843,5.926755554199219,0.45548989868164064,0.0004231138793755422,-0.01013391675602376,0.08734238765791895,2.6600961685180664,2019-06-20 16:01:54:440
-9.374353210449218,5.929149719238281,0.6158989562988281,0.01906524150993021,-0.022384457770388257,0.09546502898266063,2.6649601459503174,2019-06-20 16:01:54:445
-9.133739624023438,6.058434631347656,0.8529212951660156,0.02758735699818377,-0.030240782986122008,0.10412030252541817,2.6700801849365234,2019-06-20 16:01:54:450
-9.014031372070312,6.288274475097656,0.8589067077636718,0.027321040889175845,-0.03383605045772898,0.11051188914160832,2.6749441623687744,2019-06-20 16:01:54:455
-8.884746459960937,6.411573974609375,0.8433446350097656,0.030916308360782817,-0.031971837694673516,0.11450663077672717,2.6800639629364014,2019-06-20 16:01:54:460
-8.863198974609375,6.3720702514648435,0.7344101257324218,0.03437841777788583,-0.03117288936764974,0.11597136937627077,2.6849281787872314,2019-06-20 16:01:54:465
-8.882352294921875,6.469033935546875,0.6841326599121094,0.03491104999590168,-0.033569734348721056,0.11490610494023906,2.6900479793548584,2019-06-20 16:01:54:470
-8.883549377441406,6.5181143188476565,0.7260305480957031,0.0379736852494928,-0.03570026530137905,0.11304189217718359,2.6949121952056885,2019-06-20 16:01:54:475
-8.808133178710937,6.575574279785156,0.8397533874511719,0.05049054237286522,-0.03916237471848206,0.11011241497809644,2.7000319957733154,2019-06-20 16:01:54:480
-8.808133178710937,6.575574279785156,0.8397533874511719,0.05049054237286522,-0.03916237471848206,0.11011241497809644,2.702848196029663,2019-06-20 16:01:54:483
-8.739899475097657,6.625851745605469,0.8122204895019531,0.05661581288004747,-0.039695006936497905,0.10305503808938646,2.7100160121917725,2019-06-20 16:01:54:490
-8.739899475097657,6.625851745605469,0.8122204895019531,0.05661581288004747,-0.039695006936497905,0.10305503808938646,2.712831974029541,2019-06-20 16:01:54:493
-8.761446960449218,6.6078955078125,0.7966584167480468,0.05049054237286522,-0.03556710724687509,0.09479923871014082,2.7200000286102295,2019-06-20 16:01:54:500
-8.761446960449218,6.6078955078125,0.7966584167480468,0.05049054237286522,-0.03556710724687509,0.09479923871014082,2.722815990447998,2019-06-20 16:01:54:503
-8.815315673828124,6.417559387207031,0.5680156555175782,0.06007792229715048,-0.0390292166639781,0.08814133598494273,2.7299840450286865,2019-06-20 16:01:54:510
-8.815315673828124,6.417559387207031,0.5680156555175782,0.06007792229715048,-0.0390292166639781,0.08814133598494273,2.732800006866455,2019-06-20 16:01:54:513
-8.772220703124999,6.696479614257813,0.8876366882324218,0.057148445098063314,-0.04275764219008903,0.08534501684035953,2.7399680614471436,2019-06-20 16:01:54:520
-8.640541625976562,6.645005065917968,1.0217099304199218,0.06340687365974952,-0.03823026833695432,0.08081764298722481,2.7450881004333496,2019-06-20 16:01:54:525
-8.660892028808593,6.5911363525390625,0.9295345764160156,0.06726845724036441,-0.03263762796719332,0.07722237551561785,2.7499520778656006,2019-06-20 16:01:54:530
-8.719549072265625,6.6641583862304685,0.48302279663085934,0.05834686758859897,-0.0323713118581854,0.07296131777149106,2.7550721168518066,2019-06-20 16:01:54:535
-8.817709838867188,6.757530822753906,0.49499362182617185,0.05741476120707124,-0.03636605557389886,0.06963236640889202,2.7599360942840576,2019-06-20 16:01:54:540
-8.79257110595703,6.709647521972656,0.7368042907714843,0.061010028678678205,-0.03956184888199395,0.06510499255575732,2.7650561332702637,2019-06-20 16:01:54:545
-8.67765118408203,6.739574584960938,0.8086292419433594,0.06726845724036441,-0.04062711331802564,0.059778670375598836,2.7699201107025146,2019-06-20 16:01:54:550
-8.644132873535156,6.710844604492188,0.7104684753417969,0.06607003474982877,-0.03942869082748998,0.05525129652246414,2.7750401496887207,2019-06-20 16:01:54:555
-8.698001586914062,6.700070861816406,0.6973005676269531,0.05981160618814255,-0.04036079720901772,0.05072392266932943,2.7799041271209717,2019-06-20 16:01:54:560
-8.754264465332032,6.7072533569335935,0.6601910095214844,0.05808055147959105,-0.03916237471848206,0.046596022979706615,2.7850241661071777,2019-06-20 16:01:54:565
-8.800950683593749,6.641413818359375,0.7056801452636718,0.06660266696784461,-0.03836342639145829,0.0414028588540521,2.7901439666748047,2019-06-20 16:01:54:570
-8.761446960449218,6.583953857421875,0.7775050964355469,0.07299424942284558,-0.044755013007648455,0.03807390749145305,2.7950081825256348,2019-06-20 16:01:54:575
-8.761446960449218,6.622260498046875,0.8038409118652343,0.068733195839908,-0.04648606771619996,0.03421232391083816,2.8001279830932617,2019-06-20 16:01:54:580
-8.700395751953124,6.69408544921875,0.7894759216308593,0.06500477031379706,-0.04195869386306526,0.031682320875262876,2.804992198944092,2019-06-20 16:01:54:585
-8.737505310058594,6.683311706542969,0.7164538879394531,0.06793424751288422,-0.04036079720901772,0.028087053403655905,2.8101119995117188,2019-06-20 16:01:54:590
-8.78060028076172,6.639019653320313,0.7463809509277344,0.06913267000341988,-0.04062711331802564,0.02582336647708855,2.8149759769439697,2019-06-20 16:01:54:595
-8.744687805175781,6.672537963867187,0.7212422180175782,0.06460529615028518,-0.042358168026577145,0.023160205387009317,2.820096015930176,2019-06-20 16:01:54:600
-8.719549072265625,6.719224182128906,0.7308188781738281,0.06513792836830103,-0.04302395829909696,0.019165463751890457,2.8249599933624268,2019-06-20 16:01:54:605
-8.694410339355468,6.777881225585937,0.7200451354980468,0.0704642463872703,-0.04488817106215242,0.014238616775541167,2.830080032348633,2019-06-20 16:01:54:610
-8.654906616210937,6.822173278808593,0.6482201843261719,0.0704642463872703,-0.0418255358085613,0.009844400976910424,2.834944009780884,2019-06-20 16:01:54:615
-8.573505004882811,6.842523681640625,0.6769501647949219,0.06393950587776537,-0.041292903590545445,0.005183869069271757,2.84006404876709,2019-06-20 16:01:54:620
-8.605826232910156,6.852100341796874,0.7236363830566406,0.060211080351654435,-0.0435565905171128,-0.0006750853289025666,2.844928026199341,2019-06-20 16:01:54:625
-8.581884582519532,6.852100341796874,0.7535634460449219,0.06207529311470991,-0.04022763915451375,-0.0077324622176125485,2.850048065185547,2019-06-20 16:01:54:630
-8.592658325195313,6.871253662109375,0.6278697814941406,0.06340687365974952,-0.0379639522279464,-0.01572194548785026,2.854912042617798,2019-06-20 16:01:54:635
-8.549563354492188,6.9263194580078125,0.6218843688964844,0.06140950284219009,-0.04009448110000979,-0.022779323416857542,2.860032081604004,2019-06-20 16:01:54:640
-8.539986694335937,6.934699035644531,0.7032859802246093,0.05515107428050389,-0.038896058609474135,-0.029836700305567523,2.864896059036255,2019-06-20 16:01:54:645
-8.554351684570312,6.928713623046875,0.7846875915527344,0.052887387353936534,-0.03530079113786717,-0.03809249968481316,2.870016098022461,2019-06-20 16:01:54:650
-8.548366271972656,6.913151550292969,0.7607459411621094,0.054085809844472185,-0.03383605045772898,-0.047147247391082565,2.875136137008667,2019-06-20 16:01:54:655
-8.563928344726563,6.858085754394531,0.6661764221191406,0.05128949069988899,-0.030906573258641816,-0.05487041455231237,2.880000114440918,2019-06-20 16:01:54:660
-8.57111083984375,6.874844909667969,0.6015339660644531,0.04796053933728995,-0.03370289240322502,-0.061794633386518374,2.885120153427124,2019-06-20 16:01:54:665
-8.589067077636718,6.848509094238281,0.6709647521972656,0.048493171555305796,-0.03490131489376067,-0.0708493810927878,2.889984130859375,2019-06-20 16:01:54:670
-8.598643737792969,6.862874084472656,0.7427897033691406,0.048626329609809754,-0.03263762796719332,-0.0799041287990572,2.895104169845581,2019-06-20 16:01:54:675
-8.59146124267578,6.831749938964844,0.7523663635253907,0.045164220192706744,-0.03143920547665766,-0.0865620315242553,2.899968147277832,2019-06-20 16:01:54:680
-8.621388305664063,6.832947021484375,0.7547605285644531,0.03943842384903638,-0.02877604438657843,-0.09361940841296527,2.905088186264038,2019-06-20 16:01:54:685
-8.646527038574218,6.798231628417969,0.7116655578613281,0.03664210470445318,-0.02451498664245165,-0.10027731113816336,2.909952163696289,2019-06-20 16:01:54:690
-8.682439514160157,6.724012512207031,0.6637822570800781,0.037041578867965066,-0.02278393193390014,-0.1061362655363377,2.915071964263916,2019-06-20 16:01:54:695
-8.720746154785155,6.709647521972656,0.6984976501464844,0.0362426305409413,-0.02265077387939618,-0.11053048133496844,2.919936180114746,2019-06-20 16:01:54:700
-8.727928649902344,6.703662109375,0.7296217956542969,0.03437841777788583,-0.02145235138886052,-0.11532417129711106,2.925055980682373,2019-06-20 16:01:54:705
-8.736308227539062,6.660567138671875,0.783490509033203,0.03424525972338187,-0.02145235138886052,-0.12025101931375766,2.929920196533203,2019-06-20 16:01:54:710
-8.765038208007812,6.622260498046875,0.7380013732910156,0.03464473388689375,-0.020786561116340713,-0.12384628678536463,2.93503999710083,2019-06-20 16:01:54:715
-8.787782775878906,6.586348022460937,0.7188480529785156,0.0341121016688779,-0.019987612789316943,-0.12690892203895576,2.939903974533081,2019-06-20 16:01:54:720
-8.794965270996094,6.588742187499999,0.7176509704589844,0.03224788890582244,-0.01918866446229317,-0.1298383992380429,2.945024013519287,2019-06-20 16:01:54:725
-8.814118591308594,6.570785949707031,0.7415926208496093,0.03118262446979074,-0.019721296680309017,-0.13183577005560235,2.950144052505493,2019-06-20 16:01:54:730
-8.829680664062499,6.564800537109375,0.7523663635253907,0.03264736306933432,-0.019721296680309017,-0.13396629892766573,2.955008029937744,2019-06-20 16:01:54:735
-8.82010400390625,6.550435546875,0.6865268249511719,0.032114730851318475,-0.01825655808076544,-0.13583051169072122,2.96012806892395,2019-06-20 16:01:54:740
-8.829680664062499,6.558815124511718,0.6781472473144531,0.032114730851318475,-0.01692497753572582,-0.1379610405627846,2.964992046356201,2019-06-20 16:01:54:745
-8.872775634765624,6.543253051757812,0.7296217956542969,0.032514205014830364,-0.016658661426717895,-0.13982524500346166,2.9701120853424072,2019-06-20 16:01:54:750
-8.875169799804688,6.528888061523437,0.7703226013183594,0.03304683723284621,-0.01692497753572582,-0.14062419333048543,2.974976062774658,2019-06-20 16:01:54:755
-8.859607727050781,6.51212890625,0.745183868408203,0.03357946945086206,-0.015193922827174314,-0.14195577387552505,2.9800961017608643,2019-06-20 16:01:54:760
-8.882352294921875,6.498960998535156,0.7978554992675781,0.03104946641528678,-0.013729184227630732,-0.1431541963660607,2.9849600791931152,2019-06-20 16:01:54:765
-8.903899780273438,6.5037493286132815,0.7356072082519531,0.030649992251774894,-0.01226444562808715,-0.14302103831155674,2.9900801181793213,2019-06-20 16:01:54:770
-8.911082275390624,6.469033935546875,0.7463809509277344,0.030916308360782817,-0.012131287573583189,-0.14515156718362013,2.9949440956115723,2019-06-20 16:01:54:775
-8.94579766845703,6.451077697753906,0.7798992614746093,0.03198157279681452,-0.012663919791599039,-0.1459505155106439,3.0000641345977783,2019-06-20 16:01:54:780
-8.942206420898437,6.486990173339843,0.7571546936035156,0.032114730851318475,-0.013729184227630732,-0.14608367356514787,3.0049281120300293,2019-06-20 16:01:54:785
-8.97452764892578,6.461851440429688,0.7272276306152343,0.031315782524294705,-0.013196552009614886,-0.14621683161965182,3.0100481510162354,2019-06-20 16:01:54:790
-8.946994750976563,6.4462893676757815,0.7056801452636718,0.030783150306278855,-0.012530761737095074,-0.14688262189217163,3.0149121284484863,2019-06-20 16:01:54:795
-8.976921813964843,6.411573974609375,0.6494172668457031,0.029318411706735277,-0.011199181192055457,-0.145551041347132,3.0200321674346924,2019-06-20 16:01:54:800
-8.9829072265625,6.380449829101562,0.7475780334472656,0.029185253652231315,-0.010400232865031686,-0.145551041347132,3.0251519680023193,2019-06-20 16:01:54:805
-9.00325762939453,6.344537353515625,0.7415926208496093,0.029851043924751124,-0.01226444562808715,-0.14581735745613994,3.0300161838531494,2019-06-20 16:01:54:810
-9.0403671875,6.354114013671875,0.7296217956542969,0.030117360033759047,-0.010533390919535647,-0.1448852510746122,3.0351359844207764,2019-06-20 16:01:54:815
-9.020016784667968,6.362493591308594,0.7116655578613281,0.03038367614276697,-0.009468126483503952,-0.14328735442056467,3.0400002002716064,2019-06-20 16:01:54:820
-9.04994384765625,6.296654052734375,0.7296217956542969,0.02878577948871943,-0.009068652319992066,-0.14168945776651712,3.0451200008392334,2019-06-20 16:01:54:825
-9.084659240722656,6.271515319824219,0.7296217956542969,0.029185253652231315,-0.008269703992968294,-0.13955893721683213,3.0499839782714844,2019-06-20 16:01:54:830
-9.084659240722656,6.2415882568359375,0.7104684753417969,0.02865262143421547,-0.0074707556659445225,-0.1371620922357608,3.0551040172576904,2019-06-20 16:01:54:835
-9.131345458984375,6.187719543457031,0.7224393005371094,0.03118262446979074,-0.009201810374496027,-0.13423261503667366,3.0599679946899414,2019-06-20 16:01:54:840
-9.137330871582032,6.2248291015624995,0.7320159606933594,0.032114730851318475,-0.009867600647015837,-0.13037103145605874,3.0650880336761475,2019-06-20 16:01:54:845
-9.131345458984375,6.202084533691406,0.6877239074707031,0.03038367614276697,-0.00866917815648018,-0.12610997371193197,3.0699520111083984,2019-06-20 16:01:54:850
-9.127754211425781,6.202084533691406,0.7260305480957031,0.03304683723284621,-0.010000758701519799,-0.12318049651284482,3.0750720500946045,2019-06-20 16:01:54:855
-9.130148376464843,6.160186645507812,0.6949064025878906,0.03384578555986998,-0.010666548974039609,-0.11971838709574181,3.0799360275268555,2019-06-20 16:01:54:860
-9.156484191894531,6.178142883300781,0.6637822570800781,0.03424525972338187,-0.01013391675602376,-0.11465838102459125,3.0850560665130615,2019-06-20 16:01:54:865
-9.148104614257813,6.1087120971679685,0.6518114318847656,0.03491104999590168,-0.01226444562808715,-0.11092995549848032,3.0899200439453125,2019-06-20 16:01:54:870
-9.156484191894531,6.101529602050781,0.7164538879394531,0.03677526275895714,-0.012930235900606962,-0.10547047526381789,3.0950400829315186,2019-06-20 16:01:54:875
-9.179228759765625,6.107515014648437,0.7092713928222656,0.03597631443193337,-0.013196552009614886,-0.10094310141068318,3.0999040603637695,2019-06-20 16:01:54:880
-9.198382080078124,6.0799821166992185,0.6613880920410156,0.037041578867965066,-0.013063393955110924,-0.09694835977556432,3.1050240993499756,2019-06-20 16:01:54:885
-9.191199584960938,6.06202587890625,0.7284247131347656,0.03810684330399676,-0.015460238936182237,-0.09202151175891773,3.1101441383361816,2019-06-20 16:01:54:890
-9.209155822753907,6.1087120971679685,0.6805414123535156,0.03850631746750865,-0.014794448663662429,-0.08602939930623946,3.1150081157684326,2019-06-20 16:01:54:895
-9.209155822753907,6.095544189453125,0.6075193786621094,0.038905791631020537,-0.015060764772670352,-0.08083623518058493,3.1201281547546387,2019-06-20 16:01:54:900
-9.213944152832031,6.114697509765625,0.6374464416503907,0.039038949685524495,-0.01825655808076544,-0.07630886132745024,3.1249921321868896,2019-06-20 16:01:54:905
-9.213944152832031,6.083573364257813,0.7332130432128906,0.03930526579453242,-0.018656032244277324,-0.07058306498377988,3.1301121711730957,2019-06-20 16:01:54:910
-9.2127470703125,6.103923767089843,0.6841326599121094,0.040770004394076,-0.019588138625805055,-0.06459095253110159,3.1349761486053467,2019-06-20 16:01:54:915
-9.224717895507812,6.093150024414062,0.6817384948730468,0.041702110775603735,-0.0211860352798526,-0.06059621089598272,3.1400961875915527,2019-06-20 16:01:54:920
-9.224717895507812,6.076390869140625,0.6733589172363281,0.042101584939115616,-0.023183406097412027,-0.05593567898834406,3.1449601650238037,2019-06-20 16:01:54:925
-9.20436749267578,6.076390869140625,0.6829355773925782,0.041702110775603735,-0.02198498360687637,-0.04994356653566578,3.1500799655914307,2019-06-20 16:01:54:930
-9.197184997558594,6.08117919921875,0.6601910095214844,0.042101584939115616,-0.02265077387939618,-0.04448408630100333,3.1549441814422607,2019-06-20 16:01:54:935
-9.207958740234375,6.077587951660156,0.7128626403808593,0.04383263964766712,-0.023050248042908065,-0.03995671244786863,3.1600639820098877,2019-06-20 16:01:54:940
-9.216338317871093,6.111106262207031,0.7044830627441406,0.044098955756675044,-0.023316564151915988,-0.03529618054022997,3.1649281978607178,2019-06-20 16:01:54:945
-9.198382080078124,6.099135437011719,0.7080743103027344,0.044098955756675044,-0.023982354424435796,-0.030768806687095255,3.1700479984283447,2019-06-20 16:01:54:950
-9.163666687011718,6.115894592285156,0.7224393005371094,0.04583001046522655,-0.02531393496947542,-0.026374590888464514,3.1749119758605957,2019-06-20 16:01:54:955
-9.156484191894531,6.136244995117187,0.7356072082519531,0.04702843295576221,-0.025713409132987305,-0.023045639525865465,3.1800320148468018,2019-06-20 16:01:54:960
-9.151695861816407,6.147018737792969,0.7176509704589844,0.04702843295576221,-0.02464814469695561,-0.018784581781738686,3.185152053833008,2019-06-20 16:01:54:965
-9.16486376953125,6.125471252441406,0.7140597229003907,0.04622948462873844,-0.026778673569018998,-0.01425720688830668,3.190016031265259,2019-06-20 16:01:54:970
-9.151695861816407,6.115894592285156,0.6661764221191406,0.047161591010266166,-0.027577621896042768,-0.0099961491441799,3.195136070251465,2019-06-20 16:01:54:975
-9.158878356933593,6.127865417480469,0.6889209899902343,0.04702843295576221,-0.025846567187491266,-0.0071998299995967,3.200000047683716,2019-06-20 16:01:54:980
-9.178031677246093,6.172157470703125,0.6865268249511719,0.04809369739179391,-0.026379199405507113,-0.0033382464189818046,3.205120086669922,2019-06-20 16:01:54:985
-9.170849182128906,6.158989562988281,0.6733589172363281,0.048626329609809754,-0.02544709302397938,0.0002570210526251668,3.209984064102173,2019-06-20 16:01:54:990
-9.142119201660156,6.170960388183594,0.6709647521972656,0.04889264571881768,-0.02691183162352296,0.003452814360720253,3.215104103088379,2019-06-20 16:01:54:995
-9.16486376953125,6.174551635742187,0.6362493591308593,0.04902580377332164,-0.02877604438657843,0.005716501287287605,3.21996808052063,2019-06-20 16:01:55:000
-9.152892944335937,6.1972962036132815,0.6518114318847656,0.0491589618278256,-0.028376570223066545,0.0095780848679025,3.225088119506836,2019-06-20 16:01:55:005
-9.1361337890625,6.200887451171875,0.6829355773925782,0.048626329609809754,-0.028509728277570506,0.012907036230501549,3.229952096939087,2019-06-20 16:01:55:010
-9.139725036621094,6.184128295898438,0.6589939270019531,0.04796053933728995,-0.030107624931618046,0.015703355375084747,3.235072135925293,2019-06-20 16:01:55:015
-9.169652099609374,6.203281616210937,0.6697676696777344,0.046762116846754284,-0.03117288936764974,0.017567567097842914,3.239936113357544,2019-06-20 16:01:55:020
-9.144513366699218,6.200887451171875,0.6458260192871094,0.04742790711927409,-0.032104995749177474,0.02009757013341819,3.24505615234375,2019-06-20 16:01:55:025
-9.138527954101562,6.203281616210937,0.6661764221191406,0.04809369739179391,-0.032903944076201244,0.0224944151144895,3.249920129776001,2019-06-20 16:01:55:030
-9.114586303710936,6.240391174316406,0.6434318542480468,0.04702843295576221,-0.03370289240322502,0.02582336647708855,3.255040168762207,2019-06-20 16:01:55:035
-9.102615478515625,6.233208679199219,0.706877227783203,0.04662895879225032,-0.03330341823971313,0.028220211458159866,3.259904146194458,2019-06-20 16:01:55:040
-9.106206726074218,6.227223266601563,0.706877227783203,0.046362642683242396,-0.03117288936764974,0.029551792003199483,3.265024185180664,2019-06-20 16:01:55:045
-9.0978271484375,6.228420349121094,0.7200451354980468,0.04702843295576221,-0.03157236353116163,0.032481269202286646,3.270143985748291,2019-06-20 16:01:55:050
-9.08825048828125,6.246376586914062,0.6589939270019531,0.04796053933728995,-0.032770786021697286,0.03314705947480646,3.275007963180542,2019-06-20 16:01:55:055
-9.066703002929687,6.267924072265624,0.7128626403808593,0.0491589618278256,-0.03330341823971313,0.03461179807435004,3.280128002166748,2019-06-20 16:01:55:060
-9.083462158203124,6.273909484863281,0.6949064025878906,0.04822685544629787,-0.0341023665667369,0.036742326946413426,3.284991979598999,2019-06-20 16:01:55:065
-9.083462158203124,6.2822890625,0.6721618347167969,0.047694223228282026,-0.03370289240322502,0.03887285581847682,3.290112018585205,2019-06-20 16:01:55:070
-9.076279663085938,6.287077392578125,0.7092713928222656,0.046762116846754284,-0.0334365762942171,0.039804962200004554,3.294975996017456,2019-06-20 16:01:55:075
-9.085856323242187,6.297851135253906,0.6757530822753907,0.04649580073774636,-0.03383605045772898,0.04087022663603625,3.300096035003662,2019-06-20 16:01:55:080
-9.04994384765625,6.277500732421875,0.6973005676269531,0.045563694356218626,-0.033170260185209174,0.041669174963060024,3.304960012435913,2019-06-20 16:01:55:085
-9.048746765136718,6.275106567382812,0.7020888977050781,0.04489790408369882,-0.03250446991268936,0.04379970383512341,3.310080051422119,2019-06-20 16:01:55:090
-9.072688415527344,6.275106567382812,0.6877239074707031,0.0446315879746909,-0.0341023665667369,0.04499812632565906,3.31494402885437,2019-06-20 16:01:55:095
-9.076279663085938,6.281091979980468,0.6853297424316406,0.04622948462873844,-0.033969208512232944,0.04686233908871454,3.320064067840576,2019-06-20 16:01:55:100
-9.06909716796875,6.297851135253906,0.6769501647949219,0.04583001046522655,-0.034368682675744826,0.04846023574276208,3.324928045272827,2019-06-20 16:01:55:105
-9.063111755371093,6.31101904296875,0.6949064025878906,0.04622948462873844,-0.035034475028859244,0.04939234212428981,3.330048084259033,2019-06-20 16:01:55:110
-9.057126342773437,6.317004455566406,0.6973005676269531,0.04609632657423447,-0.034368682675744826,0.04939234212428981,3.334912061691284,2019-06-20 16:01:55:115
-9.027199279785156,6.306230712890625,0.6913151550292969,0.04569685241072259,-0.03423552462124087,0.05019129045131358,3.3400321006774902,2019-06-20 16:01:55:120
-9.028396362304687,6.303836547851563,0.6949064025878906,0.046762116846754284,-0.03370289240322502,0.05178918710536112,3.344896078109741,2019-06-20 16:01:55:125
-9.037973022460937,6.321792785644531,0.7176509704589844,0.0452973782472107,-0.0334365762942171,0.05272129348688885,3.3500161170959473,2019-06-20 16:01:55:130
-9.045155517578126,6.3433402709960935,0.6673735046386718,0.04383263964766712,-0.034368682675744826,0.052055503214369046,3.3551361560821533,2019-06-20 16:01:55:135
-9.012834289550781,6.355311096191406,0.7212422180175782,0.044098955756675044,-0.03383605045772898,0.053653399868416586,3.3600001335144043,2019-06-20 16:01:55:140
-9.004454711914063,6.3397490234375,0.6996947326660156,0.0435663235386592,-0.0351676330833632,0.054718664304448286,3.3651201725006104,2019-06-20 16:01:55:145
-9.000863464355469,6.345734436035156,0.7152568054199219,0.044098955756675044,-0.03490131489376067,0.05458550624994433,3.3699841499328613,2019-06-20 16:01:55:150
-9.009243041992187,6.350522766113281,0.7080743103027344,0.04436527186568297,-0.03463499878475275,0.05485182235895225,3.3751041889190674,2019-06-20 16:01:55:155
-9.012834289550781,6.370873168945312,0.6937093200683594,0.043300007429651274,-0.034768156839256714,0.0571155092855196,3.3799681663513184,2019-06-20 16:01:55:160
-8.996075134277344,6.362493591308594,0.6661764221191406,0.04183526883010769,-0.035034475028859244,0.05618340290399187,3.3850879669189453,2019-06-20 16:01:55:165
-8.998469299316406,6.392420654296875,0.6685705871582031,0.04276737521163543,-0.03263762796719332,0.055783928740479986,3.3899521827697754,2019-06-20 16:01:55:170
-8.972133483886719,6.393617736816406,0.7116655578613281,0.04116947855758789,-0.03330341823971313,0.05631656095849583,3.3950719833374023,2019-06-20 16:01:55:175
-8.970936401367187,6.398406066894531,0.6661764221191406,0.03877263357651657,-0.03383605045772898,0.05551761263147206,3.3999361991882324,2019-06-20 16:01:55:180
-8.970936401367187,6.399603149414062,0.6482201843261719,0.039704739958044306,-0.03370289240322502,0.055783928740479986,3.4050559997558594,2019-06-20 16:01:55:185
-9.000863464355469,6.4008002319335935,0.7116655578613281,0.03957158190354034,-0.03330341823971313,0.05551761263147206,3.4099199771881104,2019-06-20 16:01:55:190
-8.96495098876953,6.388829406738281,0.6841326599121094,0.03943842384903638,-0.03383605045772898,0.05618340290399187,3.4150400161743164,2019-06-20 16:01:55:195
-8.966148071289062,6.431924377441406,0.6554026794433594,0.03917210774002846,-0.03370289240322502,0.056716035122007714,3.4199039936065674,2019-06-20 16:01:55:200
-8.955374328613281,6.430727294921875,0.6314610290527344,0.03837315941300468,-0.031971837694673516,0.056716035122007714,3.4250240325927734,2019-06-20 16:01:55:205
-8.985301391601562,6.38763232421875,0.6829355773925782,0.037041578867965066,-0.030773415204137854,0.055917086794983945,3.4301440715789795,2019-06-20 16:01:55:210
-8.967345153808594,6.413968139648437,0.6542055969238281,0.03664210470445318,-0.030906573258641816,0.054984980413456216,3.4350080490112305,2019-06-20 16:01:55:215
-8.962556823730468,6.404391479492188,0.6601910095214844,0.03610947248643733,-0.029974466877114084,0.05445234819544036,3.4401280879974365,2019-06-20 16:01:55:220
-8.927841430664062,6.428333129882812,0.6613880920410156,0.03610947248643733,-0.030773415204137854,0.05445234819544036,3.4449920654296875,2019-06-20 16:01:55:225
-8.930235595703126,6.423544799804687,0.6877239074707031,0.03664210470445318,-0.030640257149633893,0.05445234819544036,3.4501121044158936,2019-06-20 16:01:55:230
-8.911082275390624,6.4295302124023435,0.7020888977050781,0.034777891941397715,-0.03050709909512993,0.05352024181391262,3.4549760818481445,2019-06-20 16:01:55:235
-8.955374328613281,6.441501037597656,0.6506143493652343,0.033712627505366015,-0.030240782986122008,0.052188661268873004,3.4600961208343506,2019-06-20 16:01:55:240
-8.941009338378906,6.447486450195313,0.6637822570800781,0.03224788890582244,-0.029841308822610123,0.05232181932337697,3.4649600982666016,2019-06-20 16:01:55:245
-8.931432678222656,6.431924377441406,0.6565997619628906,0.032514205014830364,-0.029042360495586353,0.05165602905085716,3.4700801372528076,2019-06-20 16:01:55:250
-8.926644348144531,6.441501037597656,0.706877227783203,0.03144894057879867,-0.02877604438657843,0.051256554887345276,3.4749441146850586,2019-06-20 16:01:55:255
-8.932629760742188,6.482201843261719,0.706877227783203,0.03038367614276697,-0.029042360495586353,0.04992497434230566,3.4800641536712646,2019-06-20 16:01:55:260
-8.89671728515625,6.48339892578125,0.7188480529785156,0.029185253652231315,-0.02784393800505069,0.04912602601528189,3.4849281311035156,2019-06-20 16:01:55:265
-8.9062939453125,6.4881872558593745,0.7260305480957031,0.02798683116169566,-0.02771077995054673,0.04779444547024227,3.4900481700897217,2019-06-20 16:01:55:270
-8.894323120117187,6.4738222656249995,0.7044830627441406,0.02758735699818377,-0.02691183162352296,0.0469954971432185,3.4949121475219727,2019-06-20 16:01:55:275
-8.879958129882812,6.477413513183594,0.6901180725097656,0.027321040889175845,-0.027178147732530883,0.04566391659817887,3.5000321865081787,2019-06-20 16:01:55:280
-8.923053100585937,6.490581420898438,0.745183868408203,0.027187882834671884,-0.025979725241995228,0.04419917799863529,3.5051519870758057,2019-06-20 16:01:55:285
-8.893126037597655,6.4738222656249995,0.7415926208496093,0.02692156672566396,-0.026512357460011075,0.04393286188962737,3.5100159645080566,2019-06-20 16:01:55:290
-8.8679873046875,6.496566833496094,0.7391984558105469,0.026255776453144152,-0.026645515514515036,0.04180233301756398,3.5151360034942627,2019-06-20 16:01:55:295
-8.870381469726562,6.478610595703125,0.7763080139160156,0.02598946034413623,-0.02611288329649919,0.040204436363516435,3.5199999809265137,2019-06-20 16:01:55:300
-8.889534790039063,6.490581420898438,0.7511692810058593,0.025589986180624344,-0.02544709302397938,0.03887285581847682,3.5251200199127197,2019-06-20 16:01:55:305
-8.889534790039063,6.519311401367188,0.7140597229003907,0.02612261839864019,-0.02464814469695561,0.03740811721893324,3.5299839973449707,2019-06-20 16:01:55:310
-8.87876104736328,6.486990173339843,0.7200451354980468,0.02519051201711246,-0.022384457770388257,0.03660916889190947,3.5351040363311768,2019-06-20 16:01:55:315
-8.897914367675781,6.485793090820312,0.745183868408203,0.025856302289632267,-0.022917089988404103,0.03527758834686985,3.5399680137634277,2019-06-20 16:01:55:320
-8.897914367675781,6.4738222656249995,0.7188480529785156,0.026388934507648114,-0.02278393193390014,0.033280217529310416,3.545088052749634,2019-06-20 16:01:55:325
-8.89671728515625,6.472625183105468,0.7607459411621094,0.027054724780167922,-0.022118141661380333,0.03301390142030249,3.5499520301818848,2019-06-20 16:01:55:330
-8.87756396484375,6.486990173339843,0.7715196838378906,0.027720515052687737,-0.02131919333435656,0.031016530602743068,3.555072069168091,2019-06-20 16:01:55:335
-8.873972717285156,6.484596008300781,0.7583517761230468,0.028386305325207545,-0.02185182555237241,0.029684950057703444,3.559936046600342,2019-06-20 16:01:55:340
-8.87756396484375,6.525296813964844,0.7475780334472656,0.028119989216199622,-0.02171866749786845,0.02782073729464798,3.565056085586548,2019-06-20 16:01:55:345
-8.871578552246094,6.496566833496094,0.7583517761230468,0.02865262143421547,-0.02185182555237241,0.027421263131136096,3.569920063018799,2019-06-20 16:01:55:350
-8.864396057128905,6.500158081054687,0.6949064025878906,0.02878577948871943,-0.02185182555237241,0.026355998695104396,3.575040102005005,2019-06-20 16:01:55:355
-8.865593139648437,6.498960998535156,0.7368042907714843,0.030649992251774894,-0.021585509443364483,0.025290734259072703,3.579904079437256,2019-06-20 16:01:55:360
-8.860804809570313,6.491778503417969,0.7320159606933594,0.03144894057879867,-0.0211860352798526,0.023160205387009317,3.585024118423462,2019-06-20 16:01:55:365
-8.870381469726562,6.506143493652344,0.6937093200683594,0.030649992251774894,-0.020120770843820905,0.022228099005481578,3.590144157409668,2019-06-20 16:01:55:370
-8.873972717285156,6.51212890625,0.7320159606933594,0.03104946641528678,-0.02038708695282883,0.020497044296930077,3.595008134841919,2019-06-20 16:01:55:375
-8.897914367675781,6.504946411132813,0.7990525817871094,0.03198157279681452,-0.02065340306183675,0.01929862180639442,3.600128173828125,2019-06-20 16:01:55:380
-8.873972717285156,6.504946411132813,0.7499721984863281,0.03304683723284621,-0.02038708695282883,0.01810019931585876,3.604992151260376,2019-06-20 16:01:55:385
-8.897914367675781,6.510931823730469,0.7248334655761719,0.03304683723284621,-0.02131919333435656,0.016768619811116443,3.610112190246582,2019-06-20 16:01:55:390
-8.884746459960937,6.506143493652344,0.7188480529785156,0.03424525972338187,-0.02185182555237241,0.01596967148409267,3.614976167678833,2019-06-20 16:01:55:395
-8.894323120117187,6.5336763916015625,0.6996947326660156,0.03531052415941356,-0.02171866749786845,0.014371774830045128,3.62009596824646,2019-06-20 16:01:55:400
-8.884746459960937,6.509734741210937,0.706877227783203,0.03570999832292545,-0.02185182555237241,0.01383914261202928,3.62496018409729,2019-06-20 16:01:55:405
-8.857213562011719,6.490581420898438,0.7439867858886718,0.037041578867965066,-0.02198498360687637,0.011309139576454005,3.630079984664917,2019-06-20 16:01:55:410
-8.863198974609375,6.500158081054687,0.6781472473144531,0.03810684330399676,-0.02198498360687637,0.01104282346744608,3.634944200515747,2019-06-20 16:01:55:415
-8.865593139648437,6.498960998535156,0.7188480529785156,0.03943842384903638,-0.02198498360687637,0.010510191249430234,3.640064001083374,2019-06-20 16:01:55:420
-8.885943542480469,6.496566833496094,0.6984976501464844,0.039837898012548265,-0.02265077387939618,0.007980188213854957,3.644927978515625,2019-06-20 16:01:55:425
-8.888337707519531,6.507340576171875,0.7427897033691406,0.04023737217606015,-0.023849196369931835,0.007048081832327224,3.650048017501831,2019-06-20 16:01:55:430
-8.857213562011719,6.507340576171875,0.7427897033691406,0.040770004394076,-0.023050248042908065,0.005317027123775719,3.654911994934082,2019-06-20 16:01:55:435
-8.889534790039063,6.5312822265624995,0.7427897033691406,0.040770004394076,-0.02344972220641995,0.0031864982517123288,3.660032033920288,2019-06-20 16:01:55:440
-8.860804809570313,6.520508483886719,0.6961034851074218,0.04183526883010769,-0.025047618860467497,0.0017217596521687478,3.664896011352539,2019-06-20 16:01:55:445
-8.871578552246094,6.498960998535156,0.6925122375488281,0.04223474299361958,-0.025580251078483343,0.0011891274341529002,3.670016050338745,2019-06-20 16:01:55:450
-8.883549377441406,6.501355163574218,0.7152568054199219,0.043166849375147316,-0.025713409132987305,-0.0006750853289025666,3.675136089324951,2019-06-20 16:01:55:455
-8.871578552246094,6.524099731445312,0.745183868408203,0.04303369132064335,-0.025713409132987305,-0.0018735078194382236,3.680000066757202,2019-06-20 16:01:55:460
