ACCELEROMETER X (m/s²),ACCELEROMETER Y (m/s²),ACCELEROMETER Z (m/s²),GYROSCOPE X (rad/s),GYROSCOPE Y (rad/s),GYROSCOPE Z (rad/s),Time since start in ms ,YYYY-MO-DD HH-MI-SS_SSS
-2.4971141357421875,9.813682495117188,1.0767757263183593,0.040636846339572034,-0.02691183162352296,-0.02184721703532981,0.0,2019-06-20 14:47:18:378
-2.4695812377929687,9.811288330078124,1.109096954345703,0.040636846339572034,-0.028509728277570506,-0.021447742871817926,0.005119800567626953,2019-06-20 14:47:18:383
-2.4887345581054685,9.804105834960938,1.1114911193847656,0.04010421412155619,-0.02811025411405862,-0.02118142676281,0.009984016418457031,2019-06-20 14:47:18:388
-2.476763732910156,9.794529174804687,1.1174765319824218,0.040503688285068076,-0.026645515514515036,-0.021048268708306037,0.015103816986083984,2019-06-20 14:47:18:393
-2.481552062988281,9.794529174804687,1.0731844787597655,0.039837898012548265,-0.027577621896042768,-0.02184721703532981,0.01996779441833496,2019-06-20 14:47:18:398
-2.4887345581054685,9.804105834960938,1.113885284423828,0.039837898012548265,-0.028376570223066545,-0.020915110653802076,0.025087833404541016,2019-06-20 14:47:18:403
-2.4827491455078126,9.810091247558594,1.064804901123047,0.03997105606705223,-0.02797709605955466,-0.022113533144337734,0.029951810836791992,2019-06-20 14:47:18:408
-2.5007053833007813,9.813682495117188,1.0827611389160157,0.04023737217606015,-0.027444463841538806,-0.020915110653802076,0.03507184982299805,2019-06-20 14:47:18:413
-2.479157897949219,9.79692333984375,1.0971261291503906,0.04023737217606015,-0.02771077995054673,-0.021980375089833772,0.03993582725524902,2019-06-20 14:47:18:417
-2.4887345581054685,9.800514587402343,1.0827611389160157,0.03997105606705223,-0.028509728277570506,-0.02264616536235358,0.04505586624145508,2019-06-20 14:47:18:423
-2.465989990234375,9.800514587402343,1.0540311584472657,0.04037053023056411,-0.028243412168562583,-0.022379849253345657,0.05017590522766113,2019-06-20 14:47:18:428
-2.4719754028320313,9.81607666015625,1.0815640563964843,0.04010421412155619,-0.02890920244108239,-0.02264616536235358,0.05503988265991211,2019-06-20 14:47:18:433
-2.4743695678710935,9.78854376220703,1.0779728088378906,0.03917210774002846,-0.029441834659098238,-0.02344511368937735,0.060159921646118164,2019-06-20 14:47:18:438
-2.476763732910156,9.804105834960938,1.1174765319824218,0.03997105606705223,-0.02797709605955466,-0.023178797580369427,0.06502389907836914,2019-06-20 14:47:18:443
-2.519858703613281,9.794529174804687,1.0923377990722656,0.03957158190354034,-0.027178147732530883,-0.024244062016401127,0.0701439380645752,2019-06-20 14:47:18:448
-2.4995083007812497,9.795726257324219,1.070790313720703,0.04023737217606015,-0.025979725241995228,-0.023844587852889235,0.07500791549682617,2019-06-20 14:47:18:453
-2.524647033691406,9.794529174804687,1.0683961486816407,0.03997105606705223,-0.02611288329649919,-0.023711429798385274,0.08012795448303223,2019-06-20 14:47:18:458
-2.5019024658203124,9.77777001953125,1.1019144592285155,0.04023737217606015,-0.026778673569018998,-0.023045639525865465,0.0849919319152832,2019-06-20 14:47:18:463
-2.494719970703125,9.789740844726563,1.0971261291503906,0.04010421412155619,-0.02704498967802692,-0.02331195563487339,0.09011197090148926,2019-06-20 14:47:18:468
-2.5066907958984372,9.794529174804687,1.0432574157714845,0.039837898012548265,-0.027577621896042768,-0.02331195563487339,0.09497594833374023,2019-06-20 14:47:18:473
-2.533026611328125,9.802908752441406,1.0899436340332032,0.039704739958044306,-0.026645515514515036,-0.023045639525865465,0.10009598731994629,2019-06-20 14:47:18:478
-2.5150703735351563,9.808894165039062,1.0815640563964843,0.03930526579453242,-0.026512357460011075,-0.022379849253345657,0.10495996475219727,2019-06-20 14:47:18:483
-2.5210557861328122,9.804105834960938,1.080366973876953,0.03943842384903638,-0.02624604135100315,-0.022379849253345657,0.11008000373840332,2019-06-20 14:47:18:488
-2.5138732910156247,9.790937927246093,1.0887465515136718,0.04010421412155619,-0.027178147732530883,-0.02251300730784962,0.1149439811706543,2019-06-20 14:47:18:492
-2.5174645385742185,9.782558349609374,1.0624107360839843,0.040770004394076,-0.028243412168562583,-0.022379849253345657,0.12006378173828125,2019-06-20 14:47:18:498
-2.53781494140625,9.783755432128906,1.1067027893066406,0.040503688285068076,-0.02890920244108239,-0.021447742871817926,0.1251838207244873,2019-06-20 14:47:18:503
-2.51866162109375,9.805302917480468,1.128250274658203,0.040503688285068076,-0.029308676604594276,-0.022779323416857542,0.13004779815673828,2019-06-20 14:47:18:508
-2.510282043457031,9.78854376220703,1.1210677795410156,0.040503688285068076,-0.029841308822610123,-0.021580900926321887,0.13516783714294434,2019-06-20 14:47:18:513
-2.5258441162109375,9.794529174804687,1.127053192138672,0.04090316244857996,-0.028243412168562583,-0.02118142676281,0.1400318145751953,2019-06-20 14:47:18:518
-2.5007053833007813,9.78854376220703,1.093534881591797,0.04143579466659581,-0.02890920244108239,-0.021580900926321887,0.14515185356140137,2019-06-20 14:47:18:523
-2.5114791259765625,9.822062072753907,1.0911407165527343,0.04156895272109977,-0.02877604438657843,-0.020915110653802076,0.15001583099365234,2019-06-20 14:47:18:528
-2.5210557861328122,9.79692333984375,1.1007173767089844,0.042101584939115616,-0.028376570223066545,-0.02184721703532981,0.1551358699798584,2019-06-20 14:47:18:533
-2.505493713378906,9.794529174804687,1.0983232116699218,0.041302636612091846,-0.02797709605955466,-0.02184721703532981,0.15999984741210938,2019-06-20 14:47:18:538
-2.504296630859375,9.79692333984375,1.070790313720703,0.04037053023056411,-0.029042360495586353,-0.02051563649029019,0.16511988639831543,2019-06-20 14:47:18:543
-2.5019024658203124,9.792135009765625,1.1007173767089844,0.04156895272109977,-0.029175518550090315,-0.01905089789074661,0.1699838638305664,2019-06-20 14:47:18:548
-2.519858703613281,9.799317504882811,1.0863523864746094,0.041702110775603735,-0.0295749927136022,-0.01971668816326642,0.17510390281677246,2019-06-20 14:47:18:553
-2.5162674560546874,9.8065,1.0492428283691406,0.04103632050308392,-0.028642886332074468,-0.020648794544794152,0.17996788024902344,2019-06-20 14:47:18:558
-2.5066907958984372,9.79692333984375,1.079169891357422,0.040503688285068076,-0.02877604438657843,-0.020648794544794152,0.1850879192352295,2019-06-20 14:47:18:563
-2.5270411987304686,9.783755432128906,1.0540311584472657,0.041302636612091846,-0.028376570223066545,-0.01958353010876246,0.18995189666748047,2019-06-20 14:47:18:568
-2.519858703613281,9.8065,1.0671990661621094,0.04023737217606015,-0.028642886332074468,-0.018651423727234724,0.19507193565368652,2019-06-20 14:47:18:573
-2.5114791259765625,9.814879577636718,1.1186736145019531,0.04010421412155619,-0.02877604438657843,-0.0183851076182268,0.20019197463989258,2019-06-20 14:47:18:578
-2.507887878417969,9.805302917480468,1.0875494689941405,0.041302636612091846,-0.028376570223066545,-0.019317213999754532,0.20505595207214355,2019-06-20 14:47:18:583
-2.519858703613281,9.78854376220703,1.0671990661621094,0.04116947855758789,-0.029175518550090315,-0.01958353010876246,0.2101759910583496,2019-06-20 14:47:18:588
-2.4851433105468748,9.805302917480468,1.070790313720703,0.040770004394076,-0.02877604438657843,-0.01918405594525057,0.21503996849060059,2019-06-20 14:47:18:593
-2.546194519042969,9.774178771972656,1.094731964111328,0.04023737217606015,-0.02784393800505069,-0.018784581781738686,0.22016000747680664,2019-06-20 14:47:18:598
-2.5294353637695313,9.810091247558594,1.099520294189453,0.041302636612091846,-0.029441834659098238,-0.018784581781738686,0.22502398490905762,2019-06-20 14:47:18:603
-2.5557711791992186,9.808894165039062,1.0899436340332032,0.040770004394076,-0.030906573258641816,-0.0183851076182268,0.23014378547668457,2019-06-20 14:47:18:608
-2.5270411987304686,9.804105834960938,1.1019144592285155,0.04090316244857996,-0.02970815076810616,-0.018518265672730762,0.23500800132751465,2019-06-20 14:47:18:613
-2.533026611328125,9.824456237792969,1.0911407165527343,0.040770004394076,-0.029974466877114084,-0.01758615929120303,0.2401278018951416,2019-06-20 14:47:18:618
-2.5438003540039062,9.818470825195313,1.0863523864746094,0.04116947855758789,-0.0295749927136022,-0.016787209923881958,0.24499177932739258,2019-06-20 14:47:18:623
-2.5473916015625,9.786149597167968,1.1031115417480468,0.04143579466659581,-0.029175518550090315,-0.01692036797838592,0.25011181831359863,2019-06-20 14:47:18:628
-2.504296630859375,9.78854376220703,1.099520294189453,0.041302636612091846,-0.029441834659098238,-0.01625457770586611,0.2549757957458496,2019-06-20 14:47:18:633
-2.5258441162109375,9.775375854492188,1.0480457458496093,0.04103632050308392,-0.028509728277570506,-0.016787209923881958,0.26009583473205566,2019-06-20 14:47:18:638
-2.5294353637695313,9.782558349609374,1.051636993408203,0.04156895272109977,-0.028509728277570506,-0.01625457770586611,0.26495981216430664,2019-06-20 14:47:18:643
-2.5258441162109375,9.768193359375,1.0671990661621094,0.04116947855758789,-0.028243412168562583,-0.015988261596858185,0.2700798511505127,2019-06-20 14:47:18:648
-2.5366178588867188,9.782558349609374,1.0779728088378906,0.04103632050308392,-0.029841308822610123,-0.016121419651362146,0.27494382858276367,2019-06-20 14:47:18:652
-2.5258441162109375,9.78854376220703,1.093534881591797,0.04010421412155619,-0.029841308822610123,-0.01692036797838592,0.2800638675689697,2019-06-20 14:47:18:658
-2.523449951171875,9.810091247558594,1.0624107360839843,0.039837898012548265,-0.030240782986122008,-0.015189313269834415,0.2851839065551758,2019-06-20 14:47:18:663
-2.534223693847656,9.81727374267578,1.0779728088378906,0.03997105606705223,-0.029841308822610123,-0.01425720688830668,0.29004788398742676,2019-06-20 14:47:18:668
-2.5438003540039062,9.800514587402343,1.066001983642578,0.04103632050308392,-0.030640257149633893,-0.013857732724794795,0.2951679229736328,2019-06-20 14:47:18:673
-2.5294353637695313,9.799317504882811,1.0552282409667968,0.04156895272109977,-0.030240782986122008,-0.014656681051818568,0.3000319004058838,2019-06-20 14:47:18:678
-2.533026611328125,9.786149597167968,1.113885284423828,0.04023737217606015,-0.030107624931618046,-0.014523522997314606,0.30515193939208984,2019-06-20 14:47:18:683
-2.533026611328125,9.786149597167968,1.113885284423828,0.04023737217606015,-0.030107624931618046,-0.014523522997314606,0.3079679012298584,2019-06-20 14:47:18:686
-2.5366178588867188,9.771784606933593,1.050439910888672,0.039704739958044306,-0.02877604438657843,-0.013857732724794795,0.3151359558105469,2019-06-20 14:47:18:693
-2.5366178588867188,9.771784606933593,1.050439910888672,0.039704739958044306,-0.02877604438657843,-0.013857732724794795,0.31795191764831543,2019-06-20 14:47:18:696
-2.546194519042969,9.795726257324219,1.0887465515136718,0.04143579466659581,-0.028243412168562583,-0.013191942452274986,0.3251199722290039,2019-06-20 14:47:18:703
-2.546194519042969,9.795726257324219,1.0887465515136718,0.04143579466659581,-0.028243412168562583,-0.013191942452274986,0.32793593406677246,2019-06-20 14:47:18:705
-2.560559509277344,9.786149597167968,1.0492428283691406,0.040503688285068076,-0.028509728277570506,-0.013191942452274986,0.33510398864746094,2019-06-20 14:47:18:713
-2.560559509277344,9.786149597167968,1.0492428283691406,0.040503688285068076,-0.028509728277570506,-0.013191942452274986,0.3379199504852295,2019-06-20 14:47:18:715
-2.5641507568359376,9.784952514648436,1.0600165710449219,0.040770004394076,-0.030240782986122008,-0.01265931023425914,0.34508800506591797,2019-06-20 14:47:18:723
-2.5641507568359376,9.784952514648436,1.0600165710449219,0.040770004394076,-0.030240782986122008,-0.01265931023425914,0.3479039669036865,2019-06-20 14:47:18:725
-2.5270411987304686,9.782558349609374,1.080366973876953,0.04023737217606015,-0.029308676604594276,-0.013191942452274986,0.3550717830657959,2019-06-20 14:47:18:733
-2.533026611328125,9.7873466796875,1.0911407165527343,0.04037053023056411,-0.028376570223066545,-0.012526152179755175,0.36019182205200195,2019-06-20 14:47:18:738
-2.531829528808594,9.794529174804687,1.093534881591797,0.03997105606705223,-0.02784393800505069,-0.01265931023425914,0.36505579948425293,2019-06-20 14:47:18:743
-2.5126762084960936,9.81727374267578,1.0755786437988282,0.040503688285068076,-0.028243412168562583,-0.012526152179755175,0.370175838470459,2019-06-20 14:47:18:748
-2.5210557861328122,9.783755432128906,1.1055057067871092,0.039837898012548265,-0.028243412168562583,-0.012925626343267063,0.37503981590270996,2019-06-20 14:47:18:753
-2.5306324462890624,9.813682495117188,1.0743815612792968,0.04023737217606015,-0.02877604438657843,-0.01265931023425914,0.380159854888916,2019-06-20 14:47:18:758
-2.5545740966796875,9.79692333984375,1.0444544982910156,0.04037053023056411,-0.02811025411405862,-0.012392994125251213,0.385023832321167,2019-06-20 14:47:18:763
-2.55696826171875,9.79692333984375,1.0671990661621094,0.040503688285068076,-0.029308676604594276,-0.011194571634715558,0.39014387130737305,2019-06-20 14:47:18:768
-2.5174645385742185,9.800514587402343,1.1055057067871092,0.03997105606705223,-0.029441834659098238,-0.010795097471203672,0.395007848739624,2019-06-20 14:47:18:773
-2.5126762084960936,9.804105834960938,1.0887465515136718,0.04090316244857996,-0.028243412168562583,-0.011993519961739328,0.4001278877258301,2019-06-20 14:47:18:778
-2.523449951171875,9.79692333984375,1.1019144592285155,0.04023737217606015,-0.029042360495586353,-0.011061413580211595,0.40499186515808105,2019-06-20 14:47:18:783
-2.494719970703125,9.783755432128906,1.079169891357422,0.04023737217606015,-0.028243412168562583,-0.011860361907235367,0.4101119041442871,2019-06-20 14:47:18:788
-2.51866162109375,9.786149597167968,1.0456515808105469,0.04103632050308392,-0.0295749927136022,-0.011993519961739328,0.4149758815765381,2019-06-20 14:47:18:793
-2.5306324462890624,9.790937927246093,1.1055057067871092,0.040503688285068076,-0.02877604438657843,-0.011460887743723482,0.42009592056274414,2019-06-20 14:47:18:798
-2.523449951171875,9.780164184570312,1.1342356872558594,0.040770004394076,-0.028509728277570506,-0.011194571634715558,0.4249598979949951,2019-06-20 14:47:18:803
-2.5138732910156247,9.78854376220703,1.0552282409667968,0.04103632050308392,-0.027178147732530883,-0.011594045798227443,0.43007993698120117,2019-06-20 14:47:18:808
-2.5222528686523438,9.776572937011718,1.070790313720703,0.04090316244857996,-0.02811025411405862,-0.01132772968921952,0.43494391441345215,2019-06-20 14:47:18:812
-2.5066907958984372,9.801711669921875,1.032483673095703,0.040503688285068076,-0.02771077995054673,-0.011594045798227443,0.4400639533996582,2019-06-20 14:47:18:818
-2.5414061889648436,9.823259155273437,1.0624107360839843,0.04037053023056411,-0.02890920244108239,-0.011061413580211595,0.44518399238586426,2019-06-20 14:47:18:823
-2.5222528686523438,9.78854376220703,1.0899436340332032,0.03997105606705223,-0.029308676604594276,-0.010528781362195748,0.45004796981811523,2019-06-20 14:47:18:828
-2.5066907958984372,9.802908752441406,1.0671990661621094,0.039038949685524495,-0.02771077995054673,-0.011594045798227443,0.4551680088043213,2019-06-20 14:47:18:833
-2.542603271484375,9.792135009765625,1.0420603332519531,0.039837898012548265,-0.028509728277570506,-0.011860361907235367,0.46003198623657227,2019-06-20 14:47:18:838
-2.524647033691406,9.79692333984375,1.0863523864746094,0.040503688285068076,-0.028509728277570506,-0.011460887743723482,0.4651517868041992,2019-06-20 14:47:18:843
-2.5402091064453125,9.78854376220703,1.1318415222167968,0.040636846339572034,-0.02784393800505069,-0.01066193941669971,0.4700160026550293,2019-06-20 14:47:18:848
-2.5210557861328122,9.771784606933593,1.1186736145019531,0.041302636612091846,-0.02811025411405862,-0.010262465253187823,0.47513580322265625,2019-06-20 14:47:18:853
-2.4971141357421875,9.772981689453125,1.107899871826172,0.04103632050308392,-0.02797709605955466,-0.011061413580211595,0.4799997806549072,2019-06-20 14:47:18:858
-2.5174645385742185,9.789740844726563,1.0755786437988282,0.04037053023056411,-0.028509728277570506,-0.009729833035171977,0.4851198196411133,2019-06-20 14:47:18:863
-2.5497857666015626,9.810091247558594,1.0743815612792968,0.04023737217606015,-0.027311305787034845,-0.010262465253187823,0.48998379707336426,2019-06-20 14:47:18:868
-2.5497857666015626,9.802908752441406,1.0959290466308593,0.04037053023056411,-0.028642886332074468,-0.010528781362195748,0.4951038360595703,2019-06-20 14:47:18:873
-2.524647033691406,9.794529174804687,1.050439910888672,0.03997105606705223,-0.02811025411405862,-0.011194571634715558,0.4999678134918213,2019-06-20 14:47:18:878
-2.534223693847656,9.8065,1.0695932312011718,0.03997105606705223,-0.028376570223066545,-0.01066193941669971,0.5050878524780273,2019-06-20 14:47:18:883
-2.542603271484375,9.798120422363281,1.0863523864746094,0.03997105606705223,-0.02771077995054673,-0.010262465253187823,0.5099518299102783,2019-06-20 14:47:18:888
-2.548588684082031,9.798120422363281,1.0755786437988282,0.040503688285068076,-0.02797709605955466,-0.009596674980668015,0.5150718688964844,2019-06-20 14:47:18:893
-2.531829528808594,9.77777001953125,1.1067027893066406,0.04023737217606015,-0.028376570223066545,-0.009463516926164052,0.5201919078826904,2019-06-20 14:47:18:898
-2.5270411987304686,9.766996276855469,1.1114911193847656,0.04037053023056411,-0.02784393800505069,-0.009596674980668015,0.5250558853149414,2019-06-20 14:47:18:903
-2.548588684082031,9.775375854492188,1.085155303955078,0.04037053023056411,-0.02890920244108239,-0.009197200817156128,0.5301759243011475,2019-06-20 14:47:18:908
-2.5390120239257814,9.78854376220703,1.0875494689941405,0.04037053023056411,-0.028376570223066545,-0.009596674980668015,0.5350399017333984,2019-06-20 14:47:18:913
-2.5509828491210937,9.7873466796875,1.0755786437988282,0.04103632050308392,-0.028376570223066545,-0.009463516926164052,0.5401599407196045,2019-06-20 14:47:18:918
-2.5533770141601564,9.77777001953125,1.0671990661621094,0.04103632050308392,-0.02784393800505069,-0.009064042762652167,0.5450239181518555,2019-06-20 14:47:18:923
-2.5509828491210937,9.765799194335937,1.1198706970214845,0.04116947855758789,-0.02877604438657843,-0.008531410544636318,0.5501439571380615,2019-06-20 14:47:18:928
-2.5473916015625,9.805302917480468,1.099520294189453,0.04116947855758789,-0.029841308822610123,-0.00786562027211651,0.5550079345703125,2019-06-20 14:47:18:933
-2.5449974365234374,9.805302917480468,1.0863523864746094,0.041302636612091846,-0.029841308822610123,-0.0077324622176125485,0.5601279735565186,2019-06-20 14:47:18:938
-2.5545740966796875,9.79692333984375,1.0624107360839843,0.040636846339572034,-0.027444463841538806,-0.006267723618068967,0.5649919509887695,2019-06-20 14:47:18:943
-2.5366178588867188,9.790937927246093,1.099520294189453,0.04090316244857996,-0.029042360495586353,-0.006267723618068967,0.5701119899749756,2019-06-20 14:47:18:948
-2.5473916015625,9.776572937011718,1.0719873962402344,0.04183526883010769,-0.028642886332074468,-0.006267723618068967,0.5749759674072266,2019-06-20 14:47:18:953
-2.542603271484375,9.802908752441406,1.1198706970214845,0.04156895272109977,-0.02811025411405862,-0.005868249454557082,0.5800960063934326,2019-06-20 14:47:18:958
-2.5653478393554687,9.808894165039062,1.0695932312011718,0.040636846339572034,-0.02797709605955466,-0.00653403972707689,0.5849599838256836,2019-06-20 14:47:18:963
-2.5449974365234374,9.786149597167968,1.0755786437988282,0.04090316244857996,-0.029175518550090315,-0.00653403972707689,0.5900797843933105,2019-06-20 14:47:18:968
-2.5497857666015626,9.7873466796875,1.0779728088378906,0.041302636612091846,-0.02970815076810616,-0.005601933345549157,0.5949440002441406,2019-06-20 14:47:18:972
-2.5402091064453125,9.799317504882811,1.0839582214355468,0.041302636612091846,-0.029974466877114084,-0.005468775291045195,0.6000638008117676,2019-06-20 14:47:18:978
-2.542603271484375,9.792135009765625,1.0564253234863281,0.04116947855758789,-0.02877604438657843,-0.0050693011275333094,0.6051838397979736,2019-06-20 14:47:18:983
-2.562953674316406,9.810091247558594,1.0923377990722656,0.04116947855758789,-0.029441834659098238,-0.005202459182037272,0.6100478172302246,2019-06-20 14:47:18:988
-2.561756591796875,9.804105834960938,1.0612136535644532,0.04103632050308392,-0.0295749927136022,-0.0044035108550135,0.6151678562164307,2019-06-20 14:47:18:993
-2.5545740966796875,9.795726257324219,1.094731964111328,0.040770004394076,-0.029175518550090315,-0.005202459182037272,0.6200318336486816,2019-06-20 14:47:18:998
-2.572530334472656,9.783755432128906,1.0827611389160157,0.040503688285068076,-0.029042360495586353,-0.006267723618068967,0.6251518726348877,2019-06-20 14:47:19:003
-2.52823828125,9.798120422363281,1.0468486633300782,0.04090316244857996,-0.030107624931618046,-0.004536668909517462,0.6300158500671387,2019-06-20 14:47:19:008
-2.519858703613281,9.772981689453125,1.0636078186035156,0.04090316244857996,-0.029974466877114084,-0.004802985018525386,0.6351358890533447,2019-06-20 14:47:19:013
-2.5449974365234374,9.775375854492188,1.070790313720703,0.040770004394076,-0.030107624931618046,-0.005335617236541234,0.6399998664855957,2019-06-20 14:47:19:018
-2.5402091064453125,9.786149597167968,1.0875494689941405,0.04090316244857996,-0.029974466877114084,-0.006134565563565005,0.6451199054718018,2019-06-20 14:47:19:023
-2.510282043457031,9.8065,1.099520294189453,0.04183526883010769,-0.0295749927136022,-0.005468775291045195,0.6499838829040527,2019-06-20 14:47:19:028
-2.52823828125,9.802908752441406,1.0719873962402344,0.041302636612091846,-0.029841308822610123,-0.0057350914000531186,0.6551039218902588,2019-06-20 14:47:19:033
-2.548588684082031,9.81607666015625,1.0456515808105469,0.04156895272109977,-0.030906573258641816,-0.005468775291045195,0.6599678993225098,2019-06-20 14:47:19:038
-2.5222528686523438,9.813682495117188,1.0253011779785155,0.040503688285068076,-0.029841308822610123,-0.005335617236541234,0.6650879383087158,2019-06-20 14:47:19:043
-2.524647033691406,9.795726257324219,1.031286590576172,0.040503688285068076,-0.029175518550090315,-0.005601933345549157,0.6699519157409668,2019-06-20 14:47:19:048
-2.531829528808594,9.793332092285157,1.0636078186035156,0.040503688285068076,-0.0295749927136022,-0.005601933345549157,0.6750719547271729,2019-06-20 14:47:19:053
-2.5162674560546874,9.77777001953125,1.0899436340332032,0.040770004394076,-0.029441834659098238,-0.00653403972707689,0.6799359321594238,2019-06-20 14:47:19:057
-2.52823828125,9.778967102050782,1.0492428283691406,0.03997105606705223,-0.0295749927136022,-0.0071998299995967,0.6850559711456299,2019-06-20 14:47:19:063
-2.4971141357421875,9.813682495117188,1.0205128479003907,0.040503688285068076,-0.029441834659098238,-0.006667197781580852,0.6901760101318359,2019-06-20 14:47:19:068
-2.5126762084960936,9.802908752441406,1.051636993408203,0.04116947855758789,-0.03050709909512993,-0.00653403972707689,0.6950399875640869,2019-06-20 14:47:19:073
-2.524647033691406,9.810091247558594,1.0588194885253905,0.04183526883010769,-0.030773415204137854,-0.006134565563565005,0.7001597881317139,2019-06-20 14:47:19:078
-2.5222528686523438,9.810091247558594,1.085155303955078,0.04116947855758789,-0.03037394104062597,-0.006134565563565005,0.705024003982544,2019-06-20 14:47:19:083
-2.5438003540039062,9.813682495117188,1.0911407165527343,0.040770004394076,-0.029974466877114084,-0.006800355836084815,0.7101438045501709,2019-06-20 14:47:19:088
-2.5497857666015626,9.79692333984375,1.0695932312011718,0.04103632050308392,-0.03037394104062597,-0.006667197781580852,0.7150077819824219,2019-06-20 14:47:19:093
-2.5306324462890624,9.794529174804687,1.0671990661621094,0.03997105606705223,-0.029308676604594276,-0.006933513890588777,0.7201278209686279,2019-06-20 14:47:19:098
-2.5210557861328122,9.781361267089844,1.0971261291503906,0.03943842384903638,-0.02797709605955466,-0.006933513890588777,0.7249917984008789,2019-06-20 14:47:19:103
-2.4971141357421875,9.790937927246093,1.112688201904297,0.04037053023056411,-0.02784393800505069,-0.0071998299995967,0.730111837387085,2019-06-20 14:47:19:108
-2.5150703735351563,9.783755432128906,1.0899436340332032,0.040503688285068076,-0.02811025411405862,-0.006933513890588777,0.7349758148193359,2019-06-20 14:47:19:113
-2.5114791259765625,9.794529174804687,1.0731844787597655,0.03997105606705223,-0.028509728277570506,-0.0070666719450927385,0.740095853805542,2019-06-20 14:47:19:118
-2.523449951171875,9.823259155273437,1.113885284423828,0.03997105606705223,-0.02877604438657843,-0.008265094435628395,0.744959831237793,2019-06-20 14:47:19:123
-2.5366178588867188,9.8256533203125,1.0695932312011718,0.04010421412155619,-0.029308676604594276,-0.008131936381124433,0.750079870223999,2019-06-20 14:47:19:128
-2.5402091064453125,9.838821228027344,1.093534881591797,0.03877263357651657,-0.029175518550090315,-0.007998778326620472,0.75494384765625,2019-06-20 14:47:19:132
-2.5294353637695313,9.8256533203125,1.094731964111328,0.03917210774002846,-0.02877604438657843,-0.00786562027211651,0.760063886642456,2019-06-20 14:47:19:138
-2.4995083007812497,9.794529174804687,1.1031115417480468,0.04023737217606015,-0.02890920244108239,-0.00786562027211651,0.7651839256286621,2019-06-20 14:47:19:143
-2.5090849609375,9.818470825195313,1.0671990661621094,0.039837898012548265,-0.028376570223066545,-0.008664568599140282,0.7700479030609131,2019-06-20 14:47:19:148
-2.510282043457031,9.802908752441406,1.051636993408203,0.040636846339572034,-0.028376570223066545,-0.008131936381124433,0.7751679420471191,2019-06-20 14:47:19:153
-2.5449974365234374,9.814879577636718,1.0683961486816407,0.04037053023056411,-0.02771077995054673,-0.008265094435628395,0.7800319194793701,2019-06-20 14:47:19:158
-2.5509828491210937,9.789740844726563,1.0576224060058594,0.03957158190354034,-0.027577621896042768,-0.008930884708148205,0.7851519584655762,2019-06-20 14:47:19:163
-2.5030995483398435,9.799317504882811,1.0600165710449219,0.04037053023056411,-0.028509728277570506,-0.008531410544636318,0.7900159358978271,2019-06-20 14:47:19:168
-2.531829528808594,9.761010864257813,1.0815640563964843,0.04037053023056411,-0.029308676604594276,-0.008398252490132357,0.7951359748840332,2019-06-20 14:47:19:173
-2.5150703735351563,9.78854376220703,1.0983232116699218,0.040503688285068076,-0.02811025411405862,-0.008531410544636318,0.7999999523162842,2019-06-20 14:47:19:178
-2.505493713378906,9.826850402832031,1.1402210998535156,0.03957158190354034,-0.02890920244108239,-0.008398252490132357,0.8051199913024902,2019-06-20 14:47:19:183
-2.5222528686523438,9.802908752441406,1.093534881591797,0.039704739958044306,-0.028642886332074468,-0.008531410544636318,0.8099839687347412,2019-06-20 14:47:19:188
-2.5270411987304686,9.778967102050782,1.0899436340332032,0.039704739958044306,-0.028509728277570506,-0.009596674980668015,0.8151040077209473,2019-06-20 14:47:19:193
-2.5366178588867188,9.811288330078124,1.0755786437988282,0.03957158190354034,-0.028509728277570506,-0.010262465253187823,0.8199679851531982,2019-06-20 14:47:19:198
-2.5438003540039062,9.822062072753907,1.107899871826172,0.03917210774002846,-0.029441834659098238,-0.009862991089675938,0.8250877857208252,2019-06-20 14:47:19:203
-2.5066907958984372,9.808894165039062,1.079169891357422,0.03930526579453242,-0.029441834659098238,-0.011194571634715558,0.8299520015716553,2019-06-20 14:47:19:208
-2.5126762084960936,9.804105834960938,1.0827611389160157,0.03917210774002846,-0.028642886332074468,-0.0099961491441799,0.8350718021392822,2019-06-20 14:47:19:213
-2.5270411987304686,9.805302917480468,1.113885284423828,0.03957158190354034,-0.02877604438657843,-0.009862991089675938,0.8401918411254883,2019-06-20 14:47:19:218
-2.51866162109375,9.789740844726563,1.0839582214355468,0.039837898012548265,-0.028376570223066545,-0.010795097471203672,0.8450558185577393,2019-06-20 14:47:19:223
-2.5354207763671877,9.794529174804687,1.0755786437988282,0.039704739958044306,-0.02797709605955466,-0.010395623307691787,0.8501758575439453,2019-06-20 14:47:19:228
-2.5090849609375,9.801711669921875,1.0875494689941405,0.039837898012548265,-0.02771077995054673,-0.011194571634715558,0.8550398349761963,2019-06-20 14:47:19:233
-2.507887878417969,9.808894165039062,1.0755786437988282,0.04023737217606015,-0.029042360495586353,-0.011727203852731405,0.8601598739624023,2019-06-20 14:47:19:238
-2.5270411987304686,9.811288330078124,1.112688201904297,0.04010421412155619,-0.027577621896042768,-0.011727203852731405,0.8650238513946533,2019-06-20 14:47:19:243
-2.5150703735351563,9.81727374267578,1.1019144592285155,0.04010421412155619,-0.027444463841538806,-0.011194571634715558,0.8701438903808594,2019-06-20 14:47:19:248
-2.5533770141601564,9.804105834960938,1.0839582214355468,0.039837898012548265,-0.028509728277570506,-0.010795097471203672,0.8750078678131104,2019-06-20 14:47:19:253
-2.5533770141601564,9.782558349609374,1.1102940368652343,0.039837898012548265,-0.028376570223066545,-0.011061413580211595,0.8801279067993164,2019-06-20 14:47:19:258
-2.5222528686523438,9.7873466796875,1.0719873962402344,0.03957158190354034,-0.02890920244108239,-0.010928255525707633,0.8849918842315674,2019-06-20 14:47:19:263
-2.510282043457031,9.798120422363281,1.080366973876953,0.039837898012548265,-0.028243412168562583,-0.011194571634715558,0.8901119232177734,2019-06-20 14:47:19:268
-2.55696826171875,9.790937927246093,1.1174765319824218,0.039704739958044306,-0.02771077995054673,-0.011860361907235367,0.8949759006500244,2019-06-20 14:47:19:273
-2.5497857666015626,9.801711669921875,1.099520294189453,0.03930526579453242,-0.029042360495586353,-0.011993519961739328,0.9000959396362305,2019-06-20 14:47:19:278
-2.5306324462890624,9.774178771972656,1.0755786437988282,0.03930526579453242,-0.02797709605955466,-0.01212667801624329,0.9049599170684814,2019-06-20 14:47:19:283
-2.5306324462890624,9.784952514648436,1.064804901123047,0.03917210774002846,-0.02797709605955466,-0.011460887743723482,0.9100799560546875,2019-06-20 14:47:19:288
-2.562953674316406,9.778967102050782,1.085155303955078,0.039837898012548265,-0.028509728277570506,-0.011061413580211595,0.9149439334869385,2019-06-20 14:47:19:292
-2.546194519042969,9.783755432128906,1.1055057067871092,0.04010421412155619,-0.029042360495586353,-0.011460887743723482,0.9200639724731445,2019-06-20 14:47:19:298
-2.5449974365234374,9.775375854492188,1.0815640563964843,0.03957158190354034,-0.027444463841538806,-0.011727203852731405,0.9251840114593506,2019-06-20 14:47:19:303
-2.546194519042969,9.770587524414061,1.099520294189453,0.03930526579453242,-0.029441834659098238,-0.011460887743723482,0.9300479888916016,2019-06-20 14:47:19:308
-2.5270411987304686,9.794529174804687,1.0875494689941405,0.04010421412155619,-0.029841308822610123,-0.011727203852731405,0.9351677894592285,2019-06-20 14:47:19:313
-2.552179931640625,9.771784606933593,1.0588194885253905,0.04037053023056411,-0.029441834659098238,-0.010795097471203672,0.9400320053100586,2019-06-20 14:47:19:318
-2.504296630859375,9.798120422363281,1.1258561096191406,0.04037053023056411,-0.030107624931618046,-0.01066193941669971,0.9451518058776855,2019-06-20 14:47:19:323
-2.5174645385742185,9.794529174804687,1.1067027893066406,0.04023737217606015,-0.0295749927136022,-0.010129307198683862,0.9500157833099365,2019-06-20 14:47:19:328
-2.5533770141601564,9.768193359375,1.0875494689941405,0.04116947855758789,-0.029175518550090315,-0.010395623307691787,0.9551358222961426,2019-06-20 14:47:19:333
-2.533026611328125,9.776572937011718,1.1114911193847656,0.041302636612091846,-0.02797709605955466,-0.010262465253187823,0.9599997997283936,2019-06-20 14:47:19:338
-2.5174645385742185,9.776572937011718,1.0923377990722656,0.040636846339572034,-0.029441834659098238,-0.010795097471203672,0.9651198387145996,2019-06-20 14:47:19:343
-2.5402091064453125,9.771784606933593,1.0983232116699218,0.04090316244857996,-0.028642886332074468,-0.0099961491441799,0.9699838161468506,2019-06-20 14:47:19:348
-2.561756591796875,9.783755432128906,1.1043086242675781,0.04116947855758789,-0.028243412168562583,-0.0099961491441799,0.9751038551330566,2019-06-20 14:47:19:353
-2.5438003540039062,9.793332092285157,1.1007173767089844,0.04090316244857996,-0.028642886332074468,-0.01132772968921952,0.9799678325653076,2019-06-20 14:47:19:358
-2.5366178588867188,9.792135009765625,1.1007173767089844,0.041702110775603735,-0.02970815076810616,-0.011460887743723482,0.9850878715515137,2019-06-20 14:47:19:363
-2.5402091064453125,9.784952514648436,1.1019144592285155,0.040770004394076,-0.02970815076810616,-0.01066193941669971,0.9899518489837646,2019-06-20 14:47:19:368
-2.548588684082031,9.792135009765625,1.1114911193847656,0.04156895272109977,-0.029175518550090315,-0.0099961491441799,0.9950718879699707,2019-06-20 14:47:19:373
-2.52823828125,9.795726257324219,1.0887465515136718,0.042367901048123546,-0.0295749927136022,-0.010262465253187823,0.9999358654022217,2019-06-20 14:47:19:377
-2.507887878417969,9.831638732910156,1.1294473571777344,0.042101584939115616,-0.0295749927136022,-0.010395623307691787,1.0050559043884277,2019-06-20 14:47:19:383
-2.542603271484375,9.83522998046875,1.0480457458496093,0.04196842688461166,-0.029841308822610123,-0.00933035887166009,1.0101759433746338,2019-06-20 14:47:19:388
-2.5222528686523438,9.804105834960938,1.0624107360839843,0.041702110775603735,-0.030240782986122008,-0.010129307198683862,1.0150399208068848,2019-06-20 14:47:19:393
-2.5509828491210937,9.782558349609374,1.0384690856933594,0.04303369132064335,-0.029175518550090315,-0.010129307198683862,1.0201599597930908,2019-06-20 14:47:19:398
-2.5402091064453125,9.801711669921875,1.0719873962402344,0.04263421715713147,-0.029175518550090315,-0.0099961491441799,1.0250239372253418,2019-06-20 14:47:19:403
-2.5210557861328122,9.789740844726563,1.080366973876953,0.04183526883010769,-0.029175518550090315,-0.009463516926164052,1.0301439762115479,2019-06-20 14:47:19:408
-2.5414061889648436,9.78854376220703,1.0887465515136718,0.042101584939115616,-0.029042360495586353,-0.009729833035171977,1.0350079536437988,2019-06-20 14:47:19:413
-2.5545740966796875,9.801711669921875,1.1462065124511718,0.04116947855758789,-0.029308676604594276,-0.0099961491441799,1.0401279926300049,2019-06-20 14:47:19:418
-2.5533770141601564,9.78854376220703,1.1246590270996093,0.041702110775603735,-0.029441834659098238,-0.009463516926164052,1.0449919700622559,2019-06-20 14:47:19:423
-2.5258441162109375,9.792135009765625,1.1067027893066406,0.04143579466659581,-0.02970815076810616,-0.009729833035171977,1.050112009048462,2019-06-20 14:47:19:428
-2.5354207763671877,9.795726257324219,1.0683961486816407,0.04196842688461166,-0.02877604438657843,-0.0099961491441799,1.054975986480713,2019-06-20 14:47:19:433
-2.5174645385742185,9.8065,1.050439910888672,0.04143579466659581,-0.02877604438657843,-0.008398252490132357,1.0600957870483398,2019-06-20 14:47:19:438
-2.546194519042969,9.790937927246093,1.0456515808105469,0.04143579466659581,-0.02890920244108239,-0.008531410544636318,1.06496000289917,2019-06-20 14:47:19:443
-2.548588684082031,9.795726257324219,1.0564253234863281,0.04116947855758789,-0.029175518550090315,-0.008664568599140282,1.0700798034667969,2019-06-20 14:47:19:448
-2.5258441162109375,9.808894165039062,1.051636993408203,0.040636846339572034,-0.02877604438657843,-0.008797726653644243,1.0749437808990479,2019-06-20 14:47:19:452
-2.523449951171875,9.795726257324219,1.0348778381347656,0.04037053023056411,-0.028243412168562583,-0.008664568599140282,1.080063819885254,2019-06-20 14:47:19:458
-2.5402091064453125,9.801711669921875,1.0863523864746094,0.04090316244857996,-0.02890920244108239,-0.007599304163108585,1.08518385887146,2019-06-20 14:47:19:463
-2.5138732910156247,9.798120422363281,1.066001983642578,0.040770004394076,-0.029042360495586353,-0.008797726653644243,1.090047836303711,2019-06-20 14:47:19:468
-2.5438003540039062,9.804105834960938,1.079169891357422,0.040770004394076,-0.029441834659098238,-0.008930884708148205,1.095167875289917,2019-06-20 14:47:19:473
-2.5258441162109375,9.808894165039062,1.0612136535644532,0.04103632050308392,-0.02797709605955466,-0.009197200817156128,1.100031852722168,2019-06-20 14:47:19:478
-2.5210557861328122,9.783755432128906,1.0923377990722656,0.04103632050308392,-0.027178147732530883,-0.009064042762652167,1.105151891708374,2019-06-20 14:47:19:483
-2.548588684082031,9.798120422363281,1.0923377990722656,0.04090316244857996,-0.02797709605955466,-0.008930884708148205,1.110015869140625,2019-06-20 14:47:19:488
-2.5438003540039062,9.77777001953125,1.094731964111328,0.040636846339572034,-0.02811025411405862,-0.008797726653644243,1.115135908126831,2019-06-20 14:47:19:493
-2.5366178588867188,9.781361267089844,1.109096954345703,0.04116947855758789,-0.028376570223066545,-0.008664568599140282,1.119999885559082,2019-06-20 14:47:19:498
-2.5557711791992186,9.814879577636718,1.1031115417480468,0.040636846339572034,-0.028376570223066545,-0.009463516926164052,1.125119924545288,2019-06-20 14:47:19:503
-2.562953674316406,9.799317504882811,1.0528340759277344,0.04023737217606015,-0.029042360495586353,-0.009197200817156128,1.129983901977539,2019-06-20 14:47:19:508
-2.571333251953125,9.793332092285157,1.1019144592285155,0.040503688285068076,-0.028642886332074468,-0.008131936381124433,1.1351039409637451,2019-06-20 14:47:19:513
-2.5593624267578123,9.77777001953125,1.1031115417480468,0.04037053023056411,-0.02797709605955466,-0.008398252490132357,1.139967918395996,2019-06-20 14:47:19:518
-2.5354207763671877,9.793332092285157,1.0755786437988282,0.03957158190354034,-0.028243412168562583,-0.009463516926164052,1.1450879573822021,2019-06-20 14:47:19:523
-2.5390120239257814,9.807697082519532,1.0875494689941405,0.03997105606705223,-0.02771077995054673,-0.009463516926164052,1.1499519348144531,2019-06-20 14:47:19:528
-2.5390120239257814,9.794529174804687,1.0612136535644532,0.04037053023056411,-0.028509728277570506,-0.008797726653644243,1.1550719738006592,2019-06-20 14:47:19:533
-2.546194519042969,9.8065,1.0863523864746094,0.040636846339572034,-0.029175518550090315,-0.008531410544636318,1.1599359512329102,2019-06-20 14:47:19:537
-2.5366178588867188,9.807697082519532,1.109096954345703,0.04090316244857996,-0.029175518550090315,-0.008664568599140282,1.1650559902191162,2019-06-20 14:47:19:543
-2.5354207763671877,9.812485412597656,1.1102940368652343,0.04103632050308392,-0.029441834659098238,-0.008930884708148205,1.1701757907867432,2019-06-20 14:47:19:548
-2.5270411987304686,9.78854376220703,1.0719873962402344,0.04143579466659581,-0.030906573258641816,-0.007998778326620472,1.1750400066375732,2019-06-20 14:47:19:553
-2.5354207763671877,9.8065,1.0731844787597655,0.04090316244857996,-0.030906573258641816,-0.008797726653644243,1.1801598072052002,2019-06-20 14:47:19:558
-2.5390120239257814,9.789740844726563,1.0767757263183593,0.04090316244857996,-0.029042360495586353,-0.008664568599140282,1.1850237846374512,2019-06-20 14:47:19:563
-2.53781494140625,9.79692333984375,1.0444544982910156,0.04103632050308392,-0.029175518550090315,-0.0074661461086046235,1.1901438236236572,2019-06-20 14:47:19:568
-2.548588684082031,9.798120422363281,1.0671990661621094,0.040636846339572034,-0.0295749927136022,-0.007332988054100662,1.1950078010559082,2019-06-20 14:47:19:573
-2.52823828125,9.794529174804687,1.0911407165527343,0.040503688285068076,-0.02877604438657843,-0.00786562027211651,1.2001278400421143,2019-06-20 14:47:19:578
-2.5270411987304686,9.798120422363281,1.0959290466308593,0.04090316244857996,-0.029441834659098238,-0.008131936381124433,1.2049918174743652,2019-06-20 14:47:19:583
-2.524647033691406,9.800514587402343,1.1234619445800782,0.04156895272109977,-0.029441834659098238,-0.009197200817156128,1.2101118564605713,2019-06-20 14:47:19:588
-2.5414061889648436,9.8065,1.093534881591797,0.041302636612091846,-0.029841308822610123,-0.008131936381124433,1.2149758338928223,2019-06-20 14:47:19:593
-2.5174645385742185,9.8065,1.1186736145019531,0.04116947855758789,-0.03170552158566559,-0.008531410544636318,1.2200958728790283,2019-06-20 14:47:19:598
-2.5150703735351563,9.782558349609374,1.031286590576172,0.041302636612091846,-0.032104995749177474,-0.008265094435628395,1.2249598503112793,2019-06-20 14:47:19:603
-2.5162674560546874,9.778967102050782,1.0528340759277344,0.04103632050308392,-0.03117288936764974,-0.008664568599140282,1.2300798892974854,2019-06-20 14:47:19:608
-2.5390120239257814,9.765799194335937,1.0779728088378906,0.04143579466659581,-0.030906573258641816,-0.008797726653644243,1.2349438667297363,2019-06-20 14:47:19:612
-2.5366178588867188,9.789740844726563,1.0887465515136718,0.04143579466659581,-0.03050709909512993,-0.008797726653644243,1.2400639057159424,2019-06-20 14:47:19:618
-2.5581653442382812,9.789740844726563,1.0552282409667968,0.04116947855758789,-0.030107624931618046,-0.010262465253187823,1.2451839447021484,2019-06-20 14:47:19:623
-2.5641507568359376,9.79692333984375,1.0588194885253905,0.040503688285068076,-0.02890920244108239,-0.009729833035171977,1.2500479221343994,2019-06-20 14:47:19:628
-2.5438003540039062,9.804105834960938,1.085155303955078,0.04103632050308392,-0.029974466877114084,-0.010262465253187823,1.2551679611206055,2019-06-20 14:47:19:633
-2.5162674560546874,9.79692333984375,1.0731844787597655,0.04090316244857996,-0.030107624931618046,-0.010395623307691787,1.2600319385528564,2019-06-20 14:47:19:638
-2.505493713378906,9.781361267089844,1.0959290466308593,0.04090316244857996,-0.030240782986122008,-0.010795097471203672,1.2651519775390625,2019-06-20 14:47:19:643
-2.504296630859375,9.79692333984375,1.085155303955078,0.04090316244857996,-0.02877604438657843,-0.010795097471203672,1.2700159549713135,2019-06-20 14:47:19:648
-2.531829528808594,9.774178771972656,1.0683961486816407,0.040636846339572034,-0.028243412168562583,-0.010395623307691787,1.2751359939575195,2019-06-20 14:47:19:653
-2.5354207763671877,9.786149597167968,1.0815640563964843,0.040503688285068076,-0.028243412168562583,-0.011194571634715558,1.2799999713897705,2019-06-20 14:47:19:658
-2.5354207763671877,9.776572937011718,1.1162794494628907,0.040770004394076,-0.026645515514515036,-0.011860361907235367,1.2851200103759766,2019-06-20 14:47:19:663
-2.5414061889648436,9.801711669921875,1.0863523864746094,0.040503688285068076,-0.02784393800505069,-0.011727203852731405,1.2899839878082275,2019-06-20 14:47:19:668
-2.542603271484375,9.807697082519532,1.1055057067871092,0.04023737217606015,-0.02797709605955466,-0.010528781362195748,1.2951037883758545,2019-06-20 14:47:19:673
-2.5497857666015626,9.79692333984375,1.0636078186035156,0.04090316244857996,-0.02797709605955466,-0.011727203852731405,1.2999680042266846,2019-06-20 14:47:19:678
-2.534223693847656,9.811288330078124,1.0456515808105469,0.040636846339572034,-0.02771077995054673,-0.011727203852731405,1.3050878047943115,2019-06-20 14:47:19:683
-2.523449951171875,9.798120422363281,1.0276953430175781,0.040770004394076,-0.027311305787034845,-0.011594045798227443,1.3099517822265625,2019-06-20 14:47:19:688
-2.524647033691406,9.802908752441406,1.079169891357422,0.041302636612091846,-0.02784393800505069,-0.011594045798227443,1.3150718212127686,2019-06-20 14:47:19:693
-2.5366178588867188,9.804105834960938,1.0839582214355468,0.040770004394076,-0.028243412168562583,-0.011993519961739328,1.3199357986450195,2019-06-20 14:47:19:697
-2.52823828125,9.802908752441406,1.113885284423828,0.04090316244857996,-0.02797709605955466,-0.01132772968921952,1.3250558376312256,2019-06-20 14:47:19:703
-2.53781494140625,9.802908752441406,1.079169891357422,0.039837898012548265,-0.02890920244108239,-0.011727203852731405,1.3301758766174316,2019-06-20 14:47:19:708
-2.546194519042969,9.7873466796875,1.0408632507324218,0.040636846339572034,-0.028642886332074468,-0.01212667801624329,1.3350398540496826,2019-06-20 14:47:19:713
-2.5354207763671877,9.783755432128906,1.0899436340332032,0.04103632050308392,-0.028509728277570506,-0.012392994125251213,1.3401598930358887,2019-06-20 14:47:19:718
-2.524647033691406,9.77777001953125,1.0743815612792968,0.04037053023056411,-0.02784393800505069,-0.013058784397771025,1.3450238704681396,2019-06-20 14:47:19:723
-2.5545740966796875,9.804105834960938,1.0612136535644532,0.03997105606705223,-0.027577621896042768,-0.012392994125251213,1.3501439094543457,2019-06-20 14:47:19:728
-2.5497857666015626,9.800514587402343,1.0564253234863281,0.040503688285068076,-0.027444463841538806,-0.011594045798227443,1.3550078868865967,2019-06-20 14:47:19:733
-2.5557711791992186,9.786149597167968,1.0432574157714845,0.040636846339572034,-0.02771077995054673,-0.011727203852731405,1.3601279258728027,2019-06-20 14:47:19:738
-2.542603271484375,9.781361267089844,1.0420603332519531,0.040503688285068076,-0.02691183162352296,-0.011993519961739328,1.3649919033050537,2019-06-20 14:47:19:743
-2.5845011596679686,9.8065,1.0827611389160157,0.04116947855758789,-0.027577621896042768,-0.011594045798227443,1.3701119422912598,2019-06-20 14:47:19:748
-2.5449974365234374,9.802908752441406,1.066001983642578,0.04183526883010769,-0.027444463841538806,-0.011727203852731405,1.3749759197235107,2019-06-20 14:47:19:753
-2.523449951171875,9.783755432128906,1.0743815612792968,0.040636846339572034,-0.027577621896042768,-0.011993519961739328,1.3800959587097168,2019-06-20 14:47:19:758
-2.519858703613281,9.811288330078124,1.0755786437988282,0.039704739958044306,-0.02877604438657843,-0.011594045798227443,1.3849599361419678,2019-06-20 14:47:19:763
-2.561756591796875,9.786149597167968,1.070790313720703,0.040636846339572034,-0.029042360495586353,-0.010795097471203672,1.3900799751281738,2019-06-20 14:47:19:768
-2.5509828491210937,9.775375854492188,1.1186736145019531,0.04037053023056411,-0.02811025411405862,-0.01066193941669971,1.3949439525604248,2019-06-20 14:47:19:772
-2.5641507568359376,9.77777001953125,1.0636078186035156,0.040770004394076,-0.02797709605955466,-0.010262465253187823,1.4000639915466309,2019-06-20 14:47:19:778
-2.5581653442382812,9.795726257324219,1.079169891357422,0.039837898012548265,-0.028509728277570506,-0.010928255525707633,1.4051837921142578,2019-06-20 14:47:19:783
-2.571333251953125,9.813682495117188,1.1007173767089844,0.040770004394076,-0.02890920244108239,-0.010928255525707633,1.410048007965088,2019-06-20 14:47:19:788
-2.6168223876953123,9.811288330078124,1.099520294189453,0.039704739958044306,-0.02890920244108239,-0.010795097471203672,1.4151678085327148,2019-06-20 14:47:19:793
-2.5653478393554687,9.790937927246093,1.112688201904297,0.040636846339572034,-0.02890920244108239,-0.010262465253187823,1.4200317859649658,2019-06-20 14:47:19:798
-2.566544921875,9.794529174804687,1.1031115417480468,0.04023737217606015,-0.029042360495586353,-0.01066193941669971,1.4251518249511719,2019-06-20 14:47:19:803
-2.5581653442382812,9.807697082519532,1.112688201904297,0.04103632050308392,-0.029042360495586353,-0.010795097471203672,1.4300158023834229,2019-06-20 14:47:19:808
-2.5414061889648436,9.826850402832031,1.1019144592285155,0.04103632050308392,-0.03037394104062597,-0.010928255525707633,1.435135841369629,2019-06-20 14:47:19:813
-2.5449974365234374,9.804105834960938,1.0923377990722656,0.041302636612091846,-0.03037394104062597,-0.011460887743723482,1.4399998188018799,2019-06-20 14:47:19:818
-2.5258441162109375,9.7873466796875,1.0767757263183593,0.04103632050308392,-0.029441834659098238,-0.010795097471203672,1.445119857788086,2019-06-20 14:47:19:823
-2.5258441162109375,9.783755432128906,1.0887465515136718,0.04143579466659581,-0.0295749927136022,-0.011194571634715558,1.449983835220337,2019-06-20 14:47:19:828
-2.5497857666015626,9.805302917480468,1.1186736145019531,0.04116947855758789,-0.030107624931618046,-0.011194571634715558,1.455103874206543,2019-06-20 14:47:19:833
-2.5270411987304686,9.812485412597656,1.0444544982910156,0.04010421412155619,-0.029042360495586353,-0.010928255525707633,1.459967851638794,2019-06-20 14:47:19:838
-2.548588684082031,9.781361267089844,1.0576224060058594,0.04090316244857996,-0.03037394104062597,-0.010395623307691787,1.465087890625,2019-06-20 14:47:19:843
-2.533026611328125,9.792135009765625,1.0743815612792968,0.042101584939115616,-0.02970815076810616,-0.01066193941669971,1.469951868057251,2019-06-20 14:47:19:848
-2.552179931640625,9.782558349609374,1.093534881591797,0.040770004394076,-0.030640257149633893,-0.011061413580211595,1.475071907043457,2019-06-20 14:47:19:853
-2.546194519042969,9.778967102050782,1.1067027893066406,0.04010421412155619,-0.030906573258641816,-0.012259836070747251,1.479935884475708,2019-06-20 14:47:19:857
-2.5449974365234374,9.794529174804687,1.0971261291503906,0.040636846339572034,-0.029841308822610123,-0.011194571634715558,1.485055923461914,2019-06-20 14:47:19:863
-2.574924499511719,9.808894165039062,1.1007173767089844,0.042501059102627504,-0.030107624931618046,-0.011194571634715558,1.4901759624481201,2019-06-20 14:47:19:868
-2.5174645385742185,9.820864990234375,1.0875494689941405,0.042101584939115616,-0.030240782986122008,-0.011727203852731405,1.495039939880371,2019-06-20 14:47:19:873
-2.5449974365234374,9.8065,1.0432574157714845,0.04143579466659581,-0.029441834659098238,-0.011860361907235367,1.5001599788665771,2019-06-20 14:47:19:878
-2.5449974365234374,9.800514587402343,1.0600165710449219,0.04103632050308392,-0.028509728277570506,-0.01132772968921952,1.5050239562988281,2019-06-20 14:47:19:883
-2.5509828491210937,9.781361267089844,1.0755786437988282,0.040770004394076,-0.02877604438657843,-0.010795097471203672,1.5101439952850342,2019-06-20 14:47:19:888
-2.5641507568359376,9.789740844726563,1.0899436340332032,0.04143579466659581,-0.02890920244108239,-0.010528781362195748,1.5150079727172852,2019-06-20 14:47:19:893
-2.5533770141601564,9.805302917480468,1.1055057067871092,0.040770004394076,-0.028376570223066545,-0.0099961491441799,1.5201280117034912,2019-06-20 14:47:19:898
-2.534223693847656,9.790937927246093,1.070790313720703,0.040770004394076,-0.02797709605955466,-0.011594045798227443,1.5249919891357422,2019-06-20 14:47:19:903
-2.5390120239257814,9.794529174804687,1.0683961486816407,0.04090316244857996,-0.029042360495586353,-0.011860361907235367,1.5301117897033691,2019-06-20 14:47:19:908
-2.546194519042969,9.783755432128906,1.107899871826172,0.04010421412155619,-0.029308676604594276,-0.011727203852731405,1.5349760055541992,2019-06-20 14:47:19:913
-2.5258441162109375,9.792135009765625,1.0971261291503906,0.04023737217606015,-0.029042360495586353,-0.011594045798227443,1.5400958061218262,2019-06-20 14:47:19:918
-2.5294353637695313,9.778967102050782,1.0971261291503906,0.04090316244857996,-0.029175518550090315,-0.011993519961739328,1.5449597835540771,2019-06-20 14:47:19:923
-2.5449974365234374,9.814879577636718,1.0624107360839843,0.04090316244857996,-0.02890920244108239,-0.011460887743723482,1.5500798225402832,2019-06-20 14:47:19:928
-2.5677420043945314,9.8065,1.0432574157714845,0.040503688285068076,-0.029974466877114084,-0.012259836070747251,1.5549437999725342,2019-06-20 14:47:19:932
-2.5258441162109375,9.762207946777343,1.0552282409667968,0.040770004394076,-0.027577621896042768,-0.011594045798227443,1.5600638389587402,2019-06-20 14:47:19:938
-2.560559509277344,9.79692333984375,1.0695932312011718,0.040636846339572034,-0.028376570223066545,-0.01212667801624329,1.5651838779449463,2019-06-20 14:47:19:943
-2.548588684082031,9.807697082519532,1.0480457458496093,0.03997105606705223,-0.030107624931618046,-0.012259836070747251,1.5700478553771973,2019-06-20 14:47:19:948
-2.55696826171875,9.794529174804687,1.0683961486816407,0.04090316244857996,-0.030640257149633893,-0.01212667801624329,1.5751678943634033,2019-06-20 14:47:19:953
-2.552179931640625,9.774178771972656,1.1031115417480468,0.04156895272109977,-0.029974466877114084,-0.012526152179755175,1.5800318717956543,2019-06-20 14:47:19:958
-2.55696826171875,9.810091247558594,1.1162794494628907,0.04116947855758789,-0.028376570223066545,-0.013058784397771025,1.5851519107818604,2019-06-20 14:47:19:963
-2.5533770141601564,9.83522998046875,1.0719873962402344,0.04103632050308392,-0.027178147732530883,-0.01345825856128291,1.5900158882141113,2019-06-20 14:47:19:968
-2.5509828491210937,9.808894165039062,1.0564253234863281,0.04023737217606015,-0.02811025411405862,-0.012925626343267063,1.5951359272003174,2019-06-20 14:47:19:973
-2.560559509277344,9.812485412597656,1.0779728088378906,0.039837898012548265,-0.028376570223066545,-0.012925626343267063,1.5999999046325684,2019-06-20 14:47:19:978
-2.5557711791992186,9.778967102050782,1.099520294189453,0.04037053023056411,-0.02890920244108239,-0.013325100506778948,1.6051199436187744,2019-06-20 14:47:19:983
-2.5354207763671877,9.792135009765625,1.107899871826172,0.040770004394076,-0.0295749927136022,-0.012392994125251213,1.6099839210510254,2019-06-20 14:47:19:988
-2.5497857666015626,9.781361267089844,1.094731964111328,0.041302636612091846,-0.029308676604594276,-0.012526152179755175,1.6151039600372314,2019-06-20 14:47:19:993
-2.5414061889648436,9.786149597167968,1.0875494689941405,0.040770004394076,-0.029175518550090315,-0.01265931023425914,1.6199679374694824,2019-06-20 14:47:19:998
-2.5545740966796875,9.799317504882811,1.0636078186035156,0.04023737217606015,-0.029175518550090315,-0.013325100506778948,1.6250879764556885,2019-06-20 14:47:20:003
-2.546194519042969,9.793332092285157,1.0468486633300782,0.04010421412155619,-0.02877604438657843,-0.013857732724794795,1.6299519538879395,2019-06-20 14:47:20:008
-2.5701361694335936,9.818470825195313,1.080366973876953,0.03997105606705223,-0.02797709605955466,-0.01345825856128291,1.6350719928741455,2019-06-20 14:47:20:013
-2.5533770141601564,9.813682495117188,1.064804901123047,0.04023737217606015,-0.02624604135100315,-0.013058784397771025,1.6399359703063965,2019-06-20 14:47:20:017
-2.572530334472656,9.807697082519532,1.094731964111328,0.040636846339572034,-0.02691183162352296,-0.01265931023425914,1.6450560092926025,2019-06-20 14:47:20:023
-2.571333251953125,9.813682495117188,1.0923377990722656,0.04037053023056411,-0.02771077995054673,-0.01265931023425914,1.6501758098602295,2019-06-20 14:47:20:028
-2.5641507568359376,9.799317504882811,1.109096954345703,0.04037053023056411,-0.02811025411405862,-0.013058784397771025,1.6550397872924805,2019-06-20 14:47:20:033
-2.5641507568359376,9.824456237792969,1.107899871826172,0.040636846339572034,-0.02797709605955466,-0.013591416615786871,1.6601598262786865,2019-06-20 14:47:20:038
-2.5593624267578123,9.840018310546874,1.0971261291503906,0.04037053023056411,-0.027444463841538806,-0.013591416615786871,1.6650238037109375,2019-06-20 14:47:20:043
-2.5438003540039062,9.820864990234375,1.0923377990722656,0.04010421412155619,-0.02890920244108239,-0.012925626343267063,1.6701438426971436,2019-06-20 14:47:20:048
-2.5557711791992186,9.811288330078124,1.127053192138672,0.03997105606705223,-0.030107624931618046,-0.012392994125251213,1.6750078201293945,2019-06-20 14:47:20:053
-2.561756591796875,9.805302917480468,1.1055057067871092,0.040503688285068076,-0.029308676604594276,-0.013058784397771025,1.6801278591156006,2019-06-20 14:47:20:058
-2.523449951171875,9.819667907714843,1.093534881591797,0.04116947855758789,-0.02877604438657843,-0.014390364942810641,1.6849918365478516,2019-06-20 14:47:20:063
-2.5509828491210937,9.811288330078124,1.093534881591797,0.04090316244857996,-0.028376570223066545,-0.014523522997314606,1.6901118755340576,2019-06-20 14:47:20:068
-2.53781494140625,9.800514587402343,1.094731964111328,0.04090316244857996,-0.027178147732530883,-0.013857732724794795,1.6949758529663086,2019-06-20 14:47:20:073
-2.5581653442382812,9.824456237792969,1.1318415222167968,0.040503688285068076,-0.02811025411405862,-0.01425720688830668,1.7000958919525146,2019-06-20 14:47:20:078
-2.560559509277344,9.794529174804687,1.1366298522949219,0.04116947855758789,-0.027444463841538806,-0.013325100506778948,1.7049598693847656,2019-06-20 14:47:20:083
-2.5557711791992186,9.8065,1.1007173767089844,0.041302636612091846,-0.028509728277570506,-0.012792468288763102,1.7100799083709717,2019-06-20 14:47:20:088
-2.5821069946289064,9.813682495117188,1.109096954345703,0.040636846339572034,-0.02877604438657843,-0.013591416615786871,1.7149438858032227,2019-06-20 14:47:20:092
-2.5880924072265623,9.813682495117188,1.0899436340332032,0.03957158190354034,-0.02797709605955466,-0.013591416615786871,1.7200639247894287,2019-06-20 14:47:20:098
-2.562953674316406,9.794529174804687,1.127053192138672,0.039704739958044306,-0.02784393800505069,-0.01345825856128291,1.7251839637756348,2019-06-20 14:47:20:103
-2.574924499511719,9.776572937011718,1.0875494689941405,0.039837898012548265,-0.027444463841538806,-0.01425720688830668,1.7300479412078857,2019-06-20 14:47:20:108
-2.5581653442382812,9.774178771972656,1.0767757263183593,0.03917210774002846,-0.027577621896042768,-0.013058784397771025,1.7351679801940918,2019-06-20 14:47:20:113
-2.5114791259765625,9.775375854492188,1.0959290466308593,0.04023737217606015,-0.027577621896042768,-0.013058784397771025,1.7400319576263428,2019-06-20 14:47:20:118
-2.5581653442382812,9.786149597167968,1.0624107360839843,0.040636846339572034,-0.02784393800505069,-0.013591416615786871,1.7451519966125488,2019-06-20 14:47:20:123
-2.580909912109375,9.792135009765625,1.0719873962402344,0.040503688285068076,-0.02890920244108239,-0.013990890779298756,1.7500159740447998,2019-06-20 14:47:20:128
-2.561756591796875,9.778967102050782,1.0612136535644532,0.04010421412155619,-0.028376570223066545,-0.013591416615786871,1.7551360130310059,2019-06-20 14:47:20:133
-2.548588684082031,9.7873466796875,1.051636993408203,0.04103632050308392,-0.028509728277570506,-0.013191942452274986,1.7599999904632568,2019-06-20 14:47:20:138
-2.5438003540039062,9.794529174804687,1.0779728088378906,0.04023737217606015,-0.02890920244108239,-0.013325100506778948,1.7651197910308838,2019-06-20 14:47:20:143
-2.561756591796875,9.782558349609374,1.0624107360839843,0.03957158190354034,-0.028642886332074468,-0.013857732724794795,1.7699840068817139,2019-06-20 14:47:20:148
-2.574924499511719,9.786149597167968,1.0863523864746094,0.039837898012548265,-0.029974466877114084,-0.013857732724794795,1.7751038074493408,2019-06-20 14:47:20:153
-2.57612158203125,9.7873466796875,1.0564253234863281,0.04010421412155619,-0.02784393800505069,-0.013724574670290833,1.7799677848815918,2019-06-20 14:47:20:158
-2.548588684082031,9.811288330078124,1.0767757263183593,0.040636846339572034,-0.02771077995054673,-0.013191942452274986,1.7850878238677979,2019-06-20 14:47:20:163
-2.5785157470703126,9.801711669921875,1.085155303955078,0.04090316244857996,-0.02811025411405862,-0.012526152179755175,1.7899518013000488,2019-06-20 14:47:20:168
-2.552179931640625,9.807697082519532,1.1043086242675781,0.04023737217606015,-0.027178147732530883,-0.01345825856128291,1.7950718402862549,2019-06-20 14:47:20:173
-2.5701361694335936,9.81727374267578,1.0887465515136718,0.04037053023056411,-0.028243412168562583,-0.013058784397771025,1.7999358177185059,2019-06-20 14:47:20:177
-2.5593624267578123,9.804105834960938,1.0468486633300782,0.040770004394076,-0.02877604438657843,-0.012925626343267063,1.805055856704712,2019-06-20 14:47:20:183
-2.5533770141601564,9.79692333984375,1.050439910888672,0.04090316244857996,-0.028509728277570506,-0.013325100506778948,1.810175895690918,2019-06-20 14:47:20:188
-2.548588684082031,9.784952514648436,1.0983232116699218,0.040503688285068076,-0.02811025411405862,-0.013724574670290833,1.815039873123169,2019-06-20 14:47:20:193
-2.5402091064453125,9.789740844726563,1.0767757263183593,0.040770004394076,-0.028376570223066545,-0.014124048833802718,1.820159912109375,2019-06-20 14:47:20:198
-2.531829528808594,9.799317504882811,1.0456515808105469,0.04010421412155619,-0.028243412168562583,-0.01425720688830668,1.825023889541626,2019-06-20 14:47:20:203
-2.5845011596679686,9.798120422363281,1.094731964111328,0.04037053023056411,-0.02771077995054673,-0.011993519961739328,1.830143928527832,2019-06-20 14:47:20:208
-2.5581653442382812,9.772981689453125,1.1174765319824218,0.04143579466659581,-0.02811025411405862,-0.013325100506778948,1.835007905960083,2019-06-20 14:47:20:213
-2.572530334472656,9.800514587402343,1.1150823669433594,0.04223474299361958,-0.028642886332074468,-0.013058784397771025,1.840127944946289,2019-06-20 14:47:20:218
-2.577318664550781,9.79692333984375,1.0887465515136718,0.042501059102627504,-0.02970815076810616,-0.013325100506778948,1.84499192237854,2019-06-20 14:47:20:223
-2.5856982421875,9.772981689453125,1.0600165710449219,0.04183526883010769,-0.029175518550090315,-0.014922997160826491,1.850111961364746,2019-06-20 14:47:20:228
-2.5928807373046876,9.765799194335937,1.0564253234863281,0.04183526883010769,-0.0295749927136022,-0.013325100506778948,1.854975938796997,2019-06-20 14:47:20:233
-2.5845011596679686,9.810091247558594,1.0719873962402344,0.04156895272109977,-0.029974466877114084,-0.012792468288763102,1.8600959777832031,2019-06-20 14:47:20:238
-2.5701361694335936,9.774178771972656,1.0576224060058594,0.04116947855758789,-0.02970815076810616,-0.01212667801624329,1.864959955215454,2019-06-20 14:47:20:243
-2.566544921875,9.794529174804687,1.0899436340332032,0.041302636612091846,-0.029042360495586353,-0.01212667801624329,1.8700799942016602,2019-06-20 14:47:20:248
-2.571333251953125,9.784952514648436,1.0911407165527343,0.041702110775603735,-0.029441834659098238,-0.012259836070747251,1.8749439716339111,2019-06-20 14:47:20:252
-2.560559509277344,9.747842956542968,1.0743815612792968,0.042101584939115616,-0.030240782986122008,-0.01265931023425914,1.8800640106201172,2019-06-20 14:47:20:258
-2.590486572265625,9.75861669921875,1.070790313720703,0.04143579466659581,-0.031039731313145778,-0.011460887743723482,1.8851838111877441,2019-06-20 14:47:20:263
-2.5880924072265623,9.805302917480468,1.064804901123047,0.041702110775603735,-0.02970815076810616,-0.010262465253187823,1.8900477886199951,2019-06-20 14:47:20:268
-2.5940778198242187,9.786149597167968,1.0600165710449219,0.042101584939115616,-0.029175518550090315,-0.009596674980668015,1.8951678276062012,2019-06-20 14:47:20:273
-2.59527490234375,9.798120422363281,1.0815640563964843,0.04223474299361958,-0.029441834659098238,-0.008930884708148205,1.9000318050384521,2019-06-20 14:47:20:278
-2.5545740966796875,9.77777001953125,1.1007173767089844,0.040636846339572034,-0.029308676604594276,-0.008797726653644243,1.9051518440246582,2019-06-20 14:47:20:283
-2.589289489746094,9.782558349609374,1.0887465515136718,0.040503688285068076,-0.02970815076810616,-0.007998778326620472,1.9100158214569092,2019-06-20 14:47:20:288
-2.5988661499023435,9.77777001953125,1.0839582214355468,0.04143579466659581,-0.030906573258641816,-0.009064042762652167,1.9151358604431152,2019-06-20 14:47:20:293
-2.609639892578125,9.768193359375,1.0695932312011718,0.04143579466659581,-0.03117288936764974,-0.008531410544636318,1.9199998378753662,2019-06-20 14:47:20:298
-2.571333251953125,9.812485412597656,1.0576224060058594,0.04143579466659581,-0.03050709909512993,-0.008398252490132357,1.9251198768615723,2019-06-20 14:47:20:303
-2.574924499511719,9.802908752441406,1.0863523864746094,0.041702110775603735,-0.029841308822610123,-0.008797726653644243,1.9299838542938232,2019-06-20 14:47:20:308
-2.5856982421875,9.781361267089844,1.0636078186035156,0.04116947855758789,-0.029974466877114084,-0.008131936381124433,1.9351038932800293,2019-06-20 14:47:20:313
-2.574924499511719,9.798120422363281,1.0683961486816407,0.040636846339572034,-0.029441834659098238,-0.0070666719450927385,1.9399678707122803,2019-06-20 14:47:20:318
-2.5653478393554687,9.807697082519532,1.051636993408203,0.04010421412155619,-0.029441834659098238,-0.008398252490132357,1.9450879096984863,2019-06-20 14:47:20:323
-2.5677420043945314,9.804105834960938,1.0492428283691406,0.040503688285068076,-0.028509728277570506,-0.008265094435628395,1.9499518871307373,2019-06-20 14:47:20:328
-2.5533770141601564,9.793332092285157,1.0719873962402344,0.04023737217606015,-0.029042360495586353,-0.0077324622176125485,1.9550719261169434,2019-06-20 14:47:20:333
-2.5701361694335936,9.798120422363281,1.0971261291503906,0.04010421412155619,-0.02877604438657843,-0.00653403972707689,1.9599359035491943,2019-06-20 14:47:20:337
-2.5402091064453125,9.813682495117188,1.0779728088378906,0.03957158190354034,-0.027444463841538806,-0.006933513890588777,1.9650559425354004,2019-06-20 14:47:20:343
-2.542603271484375,9.801711669921875,1.0444544982910156,0.040503688285068076,-0.02784393800505069,-0.0074661461086046235,1.9701759815216064,2019-06-20 14:47:20:348
-2.574924499511719,9.793332092285157,1.051636993408203,0.04037053023056411,-0.02784393800505069,-0.0070666719450927385,1.9750399589538574,2019-06-20 14:47:20:353
-2.577318664550781,9.810091247558594,1.0899436340332032,0.04010421412155619,-0.027311305787034845,-0.0071998299995967,1.9801599979400635,2019-06-20 14:47:20:358
-2.5821069946289064,9.795726257324219,1.079169891357422,0.03943842384903638,-0.027311305787034845,-0.0074661461086046235,1.9850239753723145,2019-06-20 14:47:20:363
-2.572530334472656,9.811288330078124,1.0492428283691406,0.038240001358500725,-0.02691183162352296,-0.006800355836084815,1.9901440143585205,2019-06-20 14:47:20:368
-2.5880924072265623,9.792135009765625,1.0899436340332032,0.038905791631020537,-0.02811025411405862,-0.006001407509061044,1.9950079917907715,2019-06-20 14:47:20:373
-2.5845011596679686,9.789740844726563,1.1007173767089844,0.03997105606705223,-0.028509728277570506,-0.0064008816725729285,2.0001277923583984,2019-06-20 14:47:20:378
-2.5988661499023435,9.792135009765625,1.0624107360839843,0.04010421412155619,-0.029308676604594276,-0.0050693011275333094,2.0049920082092285,2019-06-20 14:47:20:383
-2.5856982421875,9.784952514648436,1.0420603332519531,0.040636846339572034,-0.029042360495586353,-0.005468775291045195,2.0101118087768555,2019-06-20 14:47:20:388
-2.571333251953125,9.780164184570312,1.0839582214355468,0.04103632050308392,-0.02771077995054673,-0.00653403972707689,2.0149757862091064,2019-06-20 14:47:20:393
-2.5856982421875,9.772981689453125,1.093534881591797,0.040503688285068076,-0.02877604438657843,-0.006267723618068967,2.0200958251953125,2019-06-20 14:47:20:398
-2.5557711791992186,9.795726257324219,1.0719873962402344,0.040636846339572034,-0.028243412168562583,-0.005868249454557082,2.0249598026275635,2019-06-20 14:47:20:403
-2.5593624267578123,9.795726257324219,1.0731844787597655,0.040636846339572034,-0.02771077995054673,-0.005202459182037272,2.0300798416137695,2019-06-20 14:47:20:408
-2.534223693847656,9.799317504882811,1.0923377990722656,0.040770004394076,-0.02797709605955466,-0.0057350914000531186,2.0349438190460205,2019-06-20 14:47:20:412
-2.5533770141601564,9.780164184570312,1.099520294189453,0.03930526579453242,-0.029175518550090315,-0.004936143073029348,2.0400638580322266,2019-06-20 14:47:20:418
-2.55696826171875,9.792135009765625,1.0875494689941405,0.04010421412155619,-0.02811025411405862,-0.005335617236541234,2.0451838970184326,2019-06-20 14:47:20:423
-2.572530334472656,9.783755432128906,1.0743815612792968,0.04090316244857996,-0.029308676604594276,-0.005468775291045195,2.0500478744506836,2019-06-20 14:47:20:428
-2.5689390869140625,9.776572937011718,1.0839582214355468,0.040503688285068076,-0.0295749927136022,-0.005468775291045195,2.0551679134368896,2019-06-20 14:47:20:433
-2.571333251953125,9.790937927246093,1.0600165710449219,0.040503688285068076,-0.029841308822610123,-0.005202459182037272,2.0600318908691406,2019-06-20 14:47:20:438
-2.57612158203125,9.792135009765625,1.0815640563964843,0.04023737217606015,-0.028376570223066545,-0.005202459182037272,2.0651519298553467,2019-06-20 14:47:20:443
-2.580909912109375,9.786149597167968,1.0839582214355468,0.040636846339572034,-0.02797709605955466,-0.004802985018525386,2.0700159072875977,2019-06-20 14:47:20:448
-2.57612158203125,9.766996276855469,1.0528340759277344,0.04010421412155619,-0.03037394104062597,-0.0057350914000531186,2.0751359462738037,2019-06-20 14:47:20:453
-2.5845011596679686,9.778967102050782,1.0815640563964843,0.03957158190354034,-0.029441834659098238,-0.0050693011275333094,2.0799999237060547,2019-06-20 14:47:20:458
-2.562953674316406,9.79692333984375,1.0899436340332032,0.03997105606705223,-0.029441834659098238,-0.004936143073029348,2.0851199626922607,2019-06-20 14:47:20:463
-2.5677420043945314,9.811288330078124,1.0468486633300782,0.04023737217606015,-0.029175518550090315,-0.005868249454557082,2.0899839401245117,2019-06-20 14:47:20:468
-2.55696826171875,9.804105834960938,1.0827611389160157,0.04037053023056411,-0.027444463841538806,-0.006001407509061044,2.0951039791107178,2019-06-20 14:47:20:473
-2.546194519042969,9.772981689453125,1.109096954345703,0.03957158190354034,-0.02877604438657843,-0.00653403972707689,2.0999679565429688,2019-06-20 14:47:20:478
-2.5689390869140625,9.782558349609374,1.127053192138672,0.040770004394076,-0.029841308822610123,-0.006667197781580852,2.105087995529175,2019-06-20 14:47:20:483
-2.5701361694335936,9.778967102050782,1.093534881591797,0.04023737217606015,-0.03037394104062597,-0.006267723618068967,2.109951972961426,2019-06-20 14:47:20:488
-2.5737274169921873,9.77777001953125,1.107899871826172,0.040503688285068076,-0.030906573258641816,-0.0070666719450927385,2.115072011947632,2019-06-20 14:47:20:493
-2.5545740966796875,9.78854376220703,1.0564253234863281,0.040503688285068076,-0.030240782986122008,-0.006800355836084815,2.119935989379883,2019-06-20 14:47:20:497
-2.5509828491210937,9.778967102050782,1.0779728088378906,0.04023737217606015,-0.029308676604594276,-0.006800355836084815,2.1250557899475098,2019-06-20 14:47:20:503
-2.572530334472656,9.782558349609374,1.0911407165527343,0.04037053023056411,-0.03037394104062597,-0.008531410544636318,2.130175828933716,2019-06-20 14:47:20:508
-2.55696826171875,9.774178771972656,1.0492428283691406,0.04023737217606015,-0.030906573258641816,-0.007998778326620472,2.135039806365967,2019-06-20 14:47:20:513
-2.5581653442382812,9.81607666015625,1.0863523864746094,0.041302636612091846,-0.030107624931618046,-0.007599304163108585,2.140159845352173,2019-06-20 14:47:20:518
-2.5797128295898437,9.789740844726563,1.0671990661621094,0.040636846339572034,-0.0295749927136022,-0.007332988054100662,2.145023822784424,2019-06-20 14:47:20:523
-2.5821069946289064,9.772981689453125,1.1198706970214845,0.041302636612091846,-0.02877604438657843,-0.00653403972707689,2.15014386177063,2019-06-20 14:47:20:528
-2.572530334472656,9.8065,1.070790313720703,0.04116947855758789,-0.028509728277570506,-0.006933513890588777,2.155007839202881,2019-06-20 14:47:20:533
-2.571333251953125,9.805302917480468,1.0827611389160157,0.040770004394076,-0.029841308822610123,-0.0071998299995967,2.160127878189087,2019-06-20 14:47:20:538
-2.566544921875,9.808894165039062,1.0408632507324218,0.03997105606705223,-0.029974466877114084,-0.006667197781580852,2.164991855621338,2019-06-20 14:47:20:543
-2.5581653442382812,9.790937927246093,1.0420603332519531,0.040503688285068076,-0.030640257149633893,-0.006800355836084815,2.170111894607544,2019-06-20 14:47:20:548
-2.552179931640625,9.824456237792969,1.080366973876953,0.040503688285068076,-0.02970815076810616,-0.0064008816725729285,2.174975872039795,2019-06-20 14:47:20:553
-2.5581653442382812,9.805302917480468,1.0863523864746094,0.040503688285068076,-0.029175518550090315,-0.006134565563565005,2.180095911026001,2019-06-20 14:47:20:558
-2.5449974365234374,9.79692333984375,1.085155303955078,0.040770004394076,-0.028642886332074468,-0.005601933345549157,2.184959888458252,2019-06-20 14:47:20:563
-2.5449974365234374,9.794529174804687,1.0959290466308593,0.040770004394076,-0.026645515514515036,-0.0064008816725729285,2.190079927444458,2019-06-20 14:47:20:568
-2.5533770141601564,9.814879577636718,1.0480457458496093,0.04010421412155619,-0.026778673569018998,-0.0074661461086046235,2.194943904876709,2019-06-20 14:47:20:572
-2.5581653442382812,9.783755432128906,1.037272003173828,0.039837898012548265,-0.027577621896042768,-0.007332988054100662,2.200063943862915,2019-06-20 14:47:20:578
-2.5509828491210937,9.790937927246093,1.051636993408203,0.039704739958044306,-0.02771077995054673,-0.007332988054100662,2.205183982849121,2019-06-20 14:47:20:583
-2.560559509277344,9.780164184570312,1.0432574157714845,0.04037053023056411,-0.028642886332074468,-0.006933513890588777,2.210047960281372,2019-06-20 14:47:20:588
-2.5581653442382812,9.786149597167968,1.0396661682128907,0.04143579466659581,-0.028642886332074468,-0.0074661461086046235,2.215167999267578,2019-06-20 14:47:20:593
-2.6072457275390626,9.78854376220703,1.036074920654297,0.04103632050308392,-0.027178147732530883,-0.008797726653644243,2.220031976699829,2019-06-20 14:47:20:598
-2.5737274169921873,9.802908752441406,1.0444544982910156,0.04116947855758789,-0.027577621896042768,-0.009197200817156128,2.225152015686035,2019-06-20 14:47:20:603
-2.561756591796875,9.786149597167968,1.0683961486816407,0.04116947855758789,-0.028642886332074468,-0.008531410544636318,2.230015993118286,2019-06-20 14:47:20:608
-2.5653478393554687,9.800514587402343,1.0695932312011718,0.04183526883010769,-0.02784393800505069,-0.0074661461086046235,2.235135793685913,2019-06-20 14:47:20:613
-2.589289489746094,9.75981378173828,1.066001983642578,0.04156895272109977,-0.02877604438657843,-0.007332988054100662,2.240000009536743,2019-06-20 14:47:20:618
-2.57612158203125,9.784952514648436,1.0671990661621094,0.04156895272109977,-0.029974466877114084,-0.0074661461086046235,2.24511981010437,2019-06-20 14:47:20:623
-2.5928807373046876,9.784952514648436,1.0468486633300782,0.04156895272109977,-0.029308676604594276,-0.0071998299995967,2.249983787536621,2019-06-20 14:47:20:628
-2.5856982421875,9.810091247558594,1.0983232116699218,0.04183526883010769,-0.0295749927136022,-0.0071998299995967,2.255103826522827,2019-06-20 14:47:20:633
-2.5940778198242187,9.794529174804687,1.0336807556152343,0.04103632050308392,-0.029042360495586353,-0.007599304163108585,2.259967803955078,2019-06-20 14:47:20:638
-2.5653478393554687,9.784952514648436,1.0683961486816407,0.04090316244857996,-0.029308676604594276,-0.006933513890588777,2.265087842941284,2019-06-20 14:47:20:643
-2.577318664550781,9.802908752441406,1.0779728088378906,0.04116947855758789,-0.029841308822610123,-0.0070666719450927385,2.269951820373535,2019-06-20 14:47:20:648
-2.601260314941406,9.79692333984375,1.085155303955078,0.041302636612091846,-0.02890920244108239,-0.006933513890588777,2.275071859359741,2019-06-20 14:47:20:653
-2.580909912109375,9.798120422363281,1.0815640563964843,0.040503688285068076,-0.029441834659098238,-0.0071998299995967,2.279935836791992,2019-06-20 14:47:20:657
-2.577318664550781,9.79692333984375,1.0612136535644532,0.040503688285068076,-0.030773415204137854,-0.005868249454557082,2.2850558757781982,2019-06-20 14:47:20:663
-2.55696826171875,9.768193359375,1.099520294189453,0.04116947855758789,-0.029974466877114084,-0.006267723618068967,2.2901759147644043,2019-06-20 14:47:20:668
-2.5701361694335936,9.77777001953125,1.0815640563964843,0.040503688285068076,-0.029974466877114084,-0.006667197781580852,2.2950398921966553,2019-06-20 14:47:20:673
-2.566544921875,9.7873466796875,1.0671990661621094,0.040503688285068076,-0.029175518550090315,-0.006800355836084815,2.3001599311828613,2019-06-20 14:47:20:678
-2.591683654785156,9.795726257324219,1.1102940368652343,0.04103632050308392,-0.029175518550090315,-0.005202459182037272,2.3050239086151123,2019-06-20 14:47:20:683
-2.580909912109375,9.794529174804687,1.0971261291503906,0.04183526883010769,-0.030240782986122008,-0.005468775291045195,2.3101439476013184,2019-06-20 14:47:20:688
-2.5833040771484375,9.795726257324219,1.0959290466308593,0.04103632050308392,-0.029841308822610123,-0.005335617236541234,2.3150079250335693,2019-06-20 14:47:20:693
-2.5402091064453125,9.799317504882811,1.093534881591797,0.04196842688461166,-0.029042360495586353,-0.0057350914000531186,2.3201279640197754,2019-06-20 14:47:20:698
-2.5880924072265623,9.794529174804687,1.0899436340332032,0.042101584939115616,-0.028376570223066545,-0.006001407509061044,2.3249919414520264,2019-06-20 14:47:20:703
-2.580909912109375,9.794529174804687,1.1378269348144532,0.04143579466659581,-0.0295749927136022,-0.006267723618068967,2.3301119804382324,2019-06-20 14:47:20:708
-2.5737274169921873,9.801711669921875,1.0552282409667968,0.042101584939115616,-0.030240782986122008,-0.006001407509061044,2.3349759578704834,2019-06-20 14:47:20:713
-2.5593624267578123,9.804105834960938,1.0588194885253905,0.041302636612091846,-0.03117288936764974,-0.005468775291045195,2.3400959968566895,2019-06-20 14:47:20:718
-2.5497857666015626,9.776572937011718,1.1019144592285155,0.041702110775603735,-0.029175518550090315,-0.004936143073029348,2.3449599742889404,2019-06-20 14:47:20:723
-2.533026611328125,9.790937927246093,1.0815640563964843,0.04116947855758789,-0.02877604438657843,-0.004936143073029348,2.3500800132751465,2019-06-20 14:47:20:728
-2.5473916015625,9.798120422363281,1.0528340759277344,0.04183526883010769,-0.030107624931618046,-0.005601933345549157,2.3551998138427734,2019-06-20 14:47:20:733
-2.519858703613281,9.783755432128906,1.064804901123047,0.040770004394076,-0.029841308822610123,-0.0057350914000531186,2.3600637912750244,2019-06-20 14:47:20:738
-2.52823828125,9.795726257324219,1.066001983642578,0.040636846339572034,-0.030640257149633893,-0.005601933345549157,2.3651838302612305,2019-06-20 14:47:20:743
-2.53781494140625,9.776572937011718,1.0492428283691406,0.04090316244857996,-0.02890920244108239,-0.006001407509061044,2.3700478076934814,2019-06-20 14:47:20:748
-2.5473916015625,9.810091247558594,1.0576224060058594,0.040770004394076,-0.030240782986122008,-0.0057350914000531186,2.3751678466796875,2019-06-20 14:47:20:753
-2.5545740966796875,9.798120422363281,1.0396661682128907,0.04023737217606015,-0.029974466877114084,-0.005601933345549157,2.3800318241119385,2019-06-20 14:47:20:758
-2.55696826171875,9.789740844726563,1.0456515808105469,0.03997105606705223,-0.029042360495586353,-0.006667197781580852,2.3851518630981445,2019-06-20 14:47:20:763
-2.5497857666015626,9.795726257324219,1.0480457458496093,0.04010421412155619,-0.02811025411405862,-0.006800355836084815,2.3900158405303955,2019-06-20 14:47:20:768
-2.5557711791992186,9.795726257324219,1.1007173767089844,0.04116947855758789,-0.029042360495586353,-0.0071998299995967,2.3951358795166016,2019-06-20 14:47:20:773
-2.577318664550781,9.799317504882811,1.0923377990722656,0.04090316244857996,-0.02877604438657843,-0.007599304163108585,2.3999998569488525,2019-06-20 14:47:20:778
-2.5677420043945314,9.772981689453125,1.080366973876953,0.04010421412155619,-0.028243412168562583,-0.00786562027211651,2.4051198959350586,2019-06-20 14:47:20:783
-2.5856982421875,9.784952514648436,1.112688201904297,0.03917210774002846,-0.028509728277570506,-0.0074661461086046235,2.4099838733673096,2019-06-20 14:47:20:788
-2.5845011596679686,9.800514587402343,1.0887465515136718,0.03877263357651657,-0.02890920244108239,-0.006933513890588777,2.4151039123535156,2019-06-20 14:47:20:793
-2.5701361694335936,9.784952514648436,1.085155303955078,0.040636846339572034,-0.02811025411405862,-0.00653403972707689,2.4199678897857666,2019-06-20 14:47:20:798
-2.5689390869140625,9.768193359375,1.1043086242675781,0.03997105606705223,-0.02784393800505069,-0.007332988054100662,2.4250879287719727,2019-06-20 14:47:20:803
-2.5497857666015626,9.771784606933593,1.0827611389160157,0.03930526579453242,-0.028642886332074468,-0.007332988054100662,2.4299519062042236,2019-06-20 14:47:20:808
-2.5976690673828124,9.801711669921875,1.0588194885253905,0.03957158190354034,-0.0295749927136022,-0.007599304163108585,2.4350719451904297,2019-06-20 14:47:20:813
-2.572530334472656,9.804105834960938,1.064804901123047,0.03997105606705223,-0.028243412168562583,-0.006933513890588777,2.4399359226226807,2019-06-20 14:47:20:817
-2.5880924072265623,9.794529174804687,1.0971261291503906,0.04037053023056411,-0.029042360495586353,-0.0074661461086046235,2.4450559616088867,2019-06-20 14:47:20:823
-2.5557711791992186,9.783755432128906,1.0767757263183593,0.040503688285068076,-0.02797709605955466,-0.0070666719450927385,2.4501760005950928,2019-06-20 14:47:20:828
-2.5689390869140625,9.814879577636718,1.064804901123047,0.03997105606705223,-0.028642886332074468,-0.006267723618068967,2.4550399780273438,2019-06-20 14:47:20:833
-2.5701361694335936,9.813682495117188,1.0899436340332032,0.03943842384903638,-0.02877604438657843,-0.006134565563565005,2.4601597785949707,2019-06-20 14:47:20:838
-2.5833040771484375,9.804105834960938,1.0348778381347656,0.040503688285068076,-0.02890920244108239,-0.006267723618068967,2.465023994445801,2019-06-20 14:47:20:843
-2.5557711791992186,9.808894165039062,1.0432574157714845,0.04010421412155619,-0.029175518550090315,-0.005468775291045195,2.4701437950134277,2019-06-20 14:47:20:848
-2.5402091064453125,9.793332092285157,1.070790313720703,0.039704739958044306,-0.028509728277570506,-0.006001407509061044,2.475008010864258,2019-06-20 14:47:20:853
-2.57612158203125,9.813682495117188,1.107899871826172,0.040503688285068076,-0.027577621896042768,-0.0044035108550135,2.4801278114318848,2019-06-20 14:47:20:858
-2.5737274169921873,9.822062072753907,1.1067027893066406,0.040503688285068076,-0.02890920244108239,-0.006134565563565005,2.4849917888641357,2019-06-20 14:47:20:863
-2.586895324707031,9.794529174804687,1.0432574157714845,0.041702110775603735,-0.028642886332074468,-0.005468775291045195,2.490111827850342,2019-06-20 14:47:20:868
-2.5593624267578123,9.781361267089844,1.0576224060058594,0.041302636612091846,-0.028376570223066545,-0.0064008816725729285,2.4949758052825928,2019-06-20 14:47:20:873
-2.5689390869140625,9.802908752441406,1.079169891357422,0.04010421412155619,-0.028243412168562583,-0.006267723618068967,2.500095844268799,2019-06-20 14:47:20:878
-2.600063232421875,9.792135009765625,1.070790313720703,0.040503688285068076,-0.02784393800505069,-0.006001407509061044,2.50495982170105,2019-06-20 14:47:20:883
-2.5845011596679686,9.792135009765625,1.1031115417480468,0.03997105606705223,-0.02890920244108239,-0.005468775291045195,2.510079860687256,2019-06-20 14:47:20:888
-2.57612158203125,9.800514587402343,1.0743815612792968,0.03930526579453242,-0.02811025411405862,-0.005601933345549157,2.514943838119507,2019-06-20 14:47:20:892
-2.5557711791992186,9.813682495117188,1.0899436340332032,0.040636846339572034,-0.028376570223066545,-0.005868249454557082,2.520063877105713,2019-06-20 14:47:20:898
-2.5533770141601564,9.807697082519532,1.079169891357422,0.040503688285068076,-0.028243412168562583,-0.00653403972707689,2.525183916091919,2019-06-20 14:47:20:903
-2.571333251953125,9.79692333984375,1.0815640563964843,0.04037053023056411,-0.02890920244108239,-0.005335617236541234,2.53004789352417,2019-06-20 14:47:20:908
-2.5833040771484375,9.812485412597656,1.1330386047363281,0.039704739958044306,-0.0295749927136022,-0.005468775291045195,2.535167932510376,2019-06-20 14:47:20:913
-2.5641507568359376,9.795726257324219,1.0767757263183593,0.04037053023056411,-0.030107624931618046,-0.0057350914000531186,2.540031909942627,2019-06-20 14:47:20:918
-2.5653478393554687,9.805302917480468,1.0743815612792968,0.040636846339572034,-0.029841308822610123,-0.005335617236541234,2.545151948928833,2019-06-20 14:47:20:923
-2.55696826171875,9.801711669921875,1.0743815612792968,0.04010421412155619,-0.03037394104062597,-0.005468775291045195,2.550015926361084,2019-06-20 14:47:20:928
-2.5833040771484375,9.813682495117188,1.0552282409667968,0.039837898012548265,-0.030107624931618046,-0.004669826964021424,2.55513596534729,2019-06-20 14:47:20:933
-2.589289489746094,9.79692333984375,1.0875494689941405,0.03997105606705223,-0.028509728277570506,-0.004802985018525386,2.559999942779541,2019-06-20 14:47:20:938
-2.5845011596679686,9.805302917480468,1.079169891357422,0.04023737217606015,-0.028509728277570506,-0.004936143073029348,2.565119981765747,2019-06-20 14:47:20:943
-2.577318664550781,9.822062072753907,1.1150823669433594,0.03997105606705223,-0.029841308822610123,-0.004270352800509538,2.569983959197998,2019-06-20 14:47:20:948
-2.5689390869140625,9.79692333984375,1.0839582214355468,0.04023737217606015,-0.030240782986122008,-0.004270352800509538,2.575103998184204,2019-06-20 14:47:20:953
-2.566544921875,9.782558349609374,1.1318415222167968,0.04090316244857996,-0.029308676604594276,-0.004137194746005576,2.579967975616455,2019-06-20 14:47:20:958
-2.552179931640625,9.81727374267578,1.1258561096191406,0.040770004394076,-0.029308676604594276,-0.004669826964021424,2.585088014602661,2019-06-20 14:47:20:963
-2.5414061889648436,9.802908752441406,1.094731964111328,0.04037053023056411,-0.028642886332074468,-0.0044035108550135,2.589951992034912,2019-06-20 14:47:20:968
-2.531829528808594,9.802908752441406,1.1007173767089844,0.040503688285068076,-0.029175518550090315,-0.005202459182037272,2.595071792602539,2019-06-20 14:47:20:973
-2.5533770141601564,9.781361267089844,1.0719873962402344,0.04037053023056411,-0.02771077995054673,-0.004536668909517462,2.599936008453369,2019-06-20 14:47:20:977
-2.5366178588867188,9.802908752441406,1.085155303955078,0.04023737217606015,-0.02784393800505069,-0.004137194746005576,2.605055809020996,2019-06-20 14:47:20:983
-2.55696826171875,9.805302917480468,1.0923377990722656,0.04116947855758789,-0.029042360495586353,-0.004270352800509538,2.610175848007202,2019-06-20 14:47:20:988
-2.5581653442382812,9.8256533203125,1.1162794494628907,0.04156895272109977,-0.02890920244108239,-0.005468775291045195,2.615039825439453,2019-06-20 14:47:20:993
-2.5497857666015626,9.790937927246093,1.1246590270996093,0.041302636612091846,-0.029974466877114084,-0.005868249454557082,2.620159864425659,2019-06-20 14:47:20:998
-2.524647033691406,9.786149597167968,1.1019144592285155,0.04156895272109977,-0.029974466877114084,-0.005202459182037272,2.62502384185791,2019-06-20 14:47:21:003
-2.542603271484375,9.801711669921875,1.1043086242675781,0.041302636612091846,-0.0295749927136022,-0.005601933345549157,2.630143880844116,2019-06-20 14:47:21:008
-2.53781494140625,9.804105834960938,1.0552282409667968,0.040636846339572034,-0.02970815076810616,-0.006001407509061044,2.635007858276367,2019-06-20 14:47:21:013
-2.5641507568359376,9.795726257324219,1.085155303955078,0.04103632050308392,-0.029441834659098238,-0.005868249454557082,2.6401278972625732,2019-06-20 14:47:21:018
-2.577318664550781,9.770587524414061,1.0767757263183593,0.04103632050308392,-0.029042360495586353,-0.006267723618068967,2.644991874694824,2019-06-20 14:47:21:023
-2.5797128295898437,9.7873466796875,1.037272003173828,0.040770004394076,-0.029042360495586353,-0.006267723618068967,2.6501119136810303,2019-06-20 14:47:21:028
-2.52823828125,9.800514587402343,1.0384690856933594,0.039837898012548265,-0.02890920244108239,-0.0074661461086046235,2.6549758911132812,2019-06-20 14:47:21:033
-2.5390120239257814,9.763405029296875,1.0743815612792968,0.03957158190354034,-0.028376570223066545,-0.006933513890588777,2.6600959300994873,2019-06-20 14:47:21:038
-2.552179931640625,9.77777001953125,1.066001983642578,0.03943842384903638,-0.028509728277570506,-0.006134565563565005,2.6649599075317383,2019-06-20 14:47:21:043
-2.572530334472656,9.786149597167968,1.0492428283691406,0.040770004394076,-0.02890920244108239,-0.006800355836084815,2.6700799465179443,2019-06-20 14:47:21:048
-2.561756591796875,9.780164184570312,1.0624107360839843,0.040770004394076,-0.028243412168562583,-0.0070666719450927385,2.6749439239501953,2019-06-20 14:47:21:052
-2.5653478393554687,9.784952514648436,1.036074920654297,0.040503688285068076,-0.028243412168562583,-0.0064008816725729285,2.6800639629364014,2019-06-20 14:47:21:058
-2.580909912109375,9.799317504882811,1.0336807556152343,0.040770004394076,-0.029441834659098238,-0.00653403972707689,2.6851840019226074,2019-06-20 14:47:21:063
-2.5689390869140625,9.802908752441406,1.0420603332519531,0.04090316244857996,-0.02890920244108239,-0.0064008816725729285,2.6900479793548584,2019-06-20 14:47:21:068
-2.566544921875,9.798120422363281,1.0815640563964843,0.04156895272109977,-0.028642886332074468,-0.0070666719450927385,2.6951677799224854,2019-06-20 14:47:21:073
-2.5677420043945314,9.8065,1.1019144592285155,0.04037053023056411,-0.02877604438657843,-0.0074661461086046235,2.7000319957733154,2019-06-20 14:47:21:078
-2.5737274169921873,9.790937927246093,1.0875494689941405,0.04103632050308392,-0.029042360495586353,-0.006667197781580852,2.7051517963409424,2019-06-20 14:47:21:083
-2.5545740966796875,9.782558349609374,1.0695932312011718,0.041702110775603735,-0.030773415204137854,-0.0064008816725729285,2.7100160121917725,2019-06-20 14:47:21:088
-2.5306324462890624,9.775375854492188,1.0600165710449219,0.04183526883010769,-0.030773415204137854,-0.006267723618068967,2.7151358127593994,2019-06-20 14:47:21:093
-2.5545740966796875,9.766996276855469,1.0719873962402344,0.04196842688461166,-0.029974466877114084,-0.0064008816725729285,2.7199997901916504,2019-06-20 14:47:21:098
-2.5581653442382812,9.771784606933593,1.022907012939453,0.04090316244857996,-0.030640257149633893,-0.0071998299995967,2.7251198291778564,2019-06-20 14:47:21:103
-2.5593624267578123,9.786149597167968,1.0779728088378906,0.04103632050308392,-0.02970815076810616,-0.00653403972707689,2.7299838066101074,2019-06-20 14:47:21:108
-2.560559509277344,9.807697082519532,1.0480457458496093,0.040770004394076,-0.030107624931618046,-0.006933513890588777,2.7351038455963135,2019-06-20 14:47:21:113
-2.574924499511719,9.794529174804687,1.064804901123047,0.04143579466659581,-0.03050709909512993,-0.006800355836084815,2.7399678230285645,2019-06-20 14:47:21:118
-2.5689390869140625,9.775375854492188,1.0564253234863281,0.04143579466659581,-0.029441834659098238,-0.0071998299995967,2.7450878620147705,2019-06-20 14:47:21:123
-2.57612158203125,9.794529174804687,1.066001983642578,0.04103632050308392,-0.0295749927136022,-0.007332988054100662,2.7499518394470215,2019-06-20 14:47:21:128
-2.561756591796875,9.798120422363281,1.037272003173828,0.04143579466659581,-0.029841308822610123,-0.007332988054100662,2.7550718784332275,2019-06-20 14:47:21:133
-2.5557711791992186,9.804105834960938,1.0253011779785155,0.041702110775603735,-0.02877604438657843,-0.0070666719450927385,2.7599358558654785,2019-06-20 14:47:21:137
-2.5258441162109375,9.795726257324219,1.066001983642578,0.040770004394076,-0.029042360495586353,-0.005335617236541234,2.7650558948516846,2019-06-20 14:47:21:143
-2.5402091064453125,9.795726257324219,1.0779728088378906,0.04037053023056411,-0.029175518550090315,-0.006001407509061044,2.7701759338378906,2019-06-20 14:47:21:148
-2.5473916015625,9.822062072753907,1.0755786437988282,0.04010421412155619,-0.02970815076810616,-0.006933513890588777,2.7750399112701416,2019-06-20 14:47:21:153
-2.5366178588867188,9.793332092285157,1.0863523864746094,0.04116947855758789,-0.029841308822610123,-0.006667197781580852,2.7801599502563477,2019-06-20 14:47:21:158
-2.5390120239257814,9.798120422363281,1.0839582214355468,0.04103632050308392,-0.03050709909512993,-0.007599304163108585,2.7850239276885986,2019-06-20 14:47:21:163
-2.5497857666015626,9.807697082519532,1.066001983642578,0.040503688285068076,-0.02797709605955466,-0.0074661461086046235,2.7901439666748047,2019-06-20 14:47:21:168
-2.5677420043945314,9.79692333984375,1.085155303955078,0.04037053023056411,-0.028243412168562583,-0.0077324622176125485,2.7950079441070557,2019-06-20 14:47:21:173
-2.542603271484375,9.800514587402343,1.070790313720703,0.04090316244857996,-0.030107624931618046,-0.007998778326620472,2.8001279830932617,2019-06-20 14:47:21:178
-2.5557711791992186,9.808894165039062,1.0899436340332032,0.04156895272109977,-0.029042360495586353,-0.008265094435628395,2.8049919605255127,2019-06-20 14:47:21:183
-2.580909912109375,9.751434204101562,1.0624107360839843,0.040770004394076,-0.029175518550090315,-0.00786562027211651,2.8101119995117188,2019-06-20 14:47:21:188
-2.5797128295898437,9.774178771972656,1.0719873962402344,0.040503688285068076,-0.02797709605955466,-0.008797726653644243,2.8149759769439697,2019-06-20 14:47:21:193
-2.5701361694335936,9.801711669921875,1.070790313720703,0.04103632050308392,-0.029175518550090315,-0.008131936381124433,2.820096015930176,2019-06-20 14:47:21:198
-2.5976690673828124,9.81727374267578,1.0432574157714845,0.04103632050308392,-0.029441834659098238,-0.008131936381124433,2.8249599933624268,2019-06-20 14:47:21:203
-2.5509828491210937,9.823259155273437,1.0743815612792968,0.04010421412155619,-0.02771077995054673,-0.007998778326620472,2.8300797939300537,2019-06-20 14:47:21:208
-2.5677420043945314,9.814879577636718,1.0875494689941405,0.040770004394076,-0.027444463841538806,-0.00786562027211651,2.834944009780884,2019-06-20 14:47:21:212
-2.548588684082031,9.800514587402343,1.0971261291503906,0.039837898012548265,-0.029308676604594276,-0.008531410544636318,2.8400638103485107,2019-06-20 14:47:21:218
-2.5414061889648436,9.78854376220703,1.093534881591797,0.04010421412155619,-0.028509728277570506,-0.009197200817156128,2.845183849334717,2019-06-20 14:47:21:223
-2.562953674316406,9.790937927246093,1.066001983642578,0.04010421412155619,-0.02797709605955466,-0.008131936381124433,2.8500478267669678,2019-06-20 14:47:21:228
-2.5449974365234374,9.793332092285157,1.0875494689941405,0.04023737217606015,-0.028509728277570506,-0.00786562027211651,2.855167865753174,2019-06-20 14:47:21:233
-2.577318664550781,9.79692333984375,1.0600165710449219,0.040503688285068076,-0.02877604438657843,-0.007998778326620472,2.860031843185425,2019-06-20 14:47:21:238
-2.590486572265625,9.801711669921875,1.0719873962402344,0.04023737217606015,-0.02877604438657843,-0.008265094435628395,2.865151882171631,2019-06-20 14:47:21:243
-2.586895324707031,9.792135009765625,1.064804901123047,0.03997105606705223,-0.02890920244108239,-0.007332988054100662,2.870015859603882,2019-06-20 14:47:21:248
-2.586895324707031,9.801711669921875,1.0564253234863281,0.039837898012548265,-0.027444463841538806,-0.006933513890588777,2.875135898590088,2019-06-20 14:47:21:253
-2.5856982421875,9.800514587402343,1.0827611389160157,0.04103632050308392,-0.02811025411405862,-0.0071998299995967,2.879999876022339,2019-06-20 14:47:21:258
-2.574924499511719,9.799317504882811,1.1150823669433594,0.04090316244857996,-0.029042360495586353,-0.008398252490132357,2.885119915008545,2019-06-20 14:47:21:263
-2.574924499511719,9.790937927246093,1.1174765319824218,0.04023737217606015,-0.029308676604594276,-0.007998778326620472,2.889983892440796,2019-06-20 14:47:21:268
-2.574924499511719,9.795726257324219,1.0671990661621094,0.040770004394076,-0.029441834659098238,-0.0077324622176125485,2.895103931427002,2019-06-20 14:47:21:273
-2.5701361694335936,9.77777001953125,1.0983232116699218,0.040503688285068076,-0.030240782986122008,-0.006800355836084815,2.899967908859253,2019-06-20 14:47:21:278
-2.5677420043945314,9.780164184570312,1.0983232116699218,0.03997105606705223,-0.03037394104062597,-0.00653403972707689,2.905087947845459,2019-06-20 14:47:21:283
-2.562953674316406,9.811288330078124,1.0588194885253905,0.04010421412155619,-0.030240782986122008,-0.0070666719450927385,2.90995192527771,2019-06-20 14:47:21:288
-2.562953674316406,9.784952514648436,1.0576224060058594,0.03997105606705223,-0.029841308822610123,-0.006667197781580852,2.915071964263916,2019-06-20 14:47:21:293
-2.571333251953125,9.801711669921875,1.0731844787597655,0.03997105606705223,-0.029841308822610123,-0.0071998299995967,2.919935941696167,2019-06-20 14:47:21:297
-2.5701361694335936,9.802908752441406,1.107899871826172,0.04023737217606015,-0.029441834659098238,-0.006933513890588777,2.925055980682373,2019-06-20 14:47:21:303
-2.572530334472656,9.802908752441406,1.1258561096191406,0.040636846339572034,-0.029308676604594276,-0.006933513890588777,2.93017578125,2019-06-20 14:47:21:308
-2.574924499511719,9.780164184570312,1.0971261291503906,0.040503688285068076,-0.02970815076810616,-0.0077324622176125485,2.93503999710083,2019-06-20 14:47:21:313
-2.5689390869140625,9.768193359375,1.0564253234863281,0.03997105606705223,-0.028376570223066545,-0.0074661461086046235,2.940159797668457,2019-06-20 14:47:21:318
-2.571333251953125,9.763405029296875,1.050439910888672,0.04103632050308392,-0.02890920244108239,-0.0064008816725729285,2.945024013519287,2019-06-20 14:47:21:323
-2.5701361694335936,9.790937927246093,1.079169891357422,0.039704739958044306,-0.02970815076810616,-0.007332988054100662,2.950143814086914,2019-06-20 14:47:21:328
-2.5581653442382812,9.793332092285157,1.0612136535644532,0.039837898012548265,-0.029308676604594276,-0.0071998299995967,2.955007791519165,2019-06-20 14:47:21:333
-2.55696826171875,9.7873466796875,1.0528340759277344,0.041302636612091846,-0.029841308822610123,-0.00653403972707689,2.960127830505371,2019-06-20 14:47:21:338
-2.5533770141601564,9.789740844726563,1.0624107360839843,0.04116947855758789,-0.02784393800505069,-0.0071998299995967,2.964991807937622,2019-06-20 14:47:21:343
-2.5449974365234374,9.789740844726563,1.079169891357422,0.040770004394076,-0.02890920244108239,-0.0077324622176125485,2.970111846923828,2019-06-20 14:47:21:348
-2.5581653442382812,9.7873466796875,1.0875494689941405,0.039704739958044306,-0.02877604438657843,-0.006933513890588777,2.974975824356079,2019-06-20 14:47:21:353
-2.591683654785156,9.789740844726563,1.112688201904297,0.039837898012548265,-0.02890920244108239,-0.007332988054100662,2.980095863342285,2019-06-20 14:47:21:358
-2.5988661499023435,9.793332092285157,1.0779728088378906,0.04116947855758789,-0.029441834659098238,-0.006933513890588777,2.984959840774536,2019-06-20 14:47:21:363
-2.5976690673828124,9.7873466796875,1.0552282409667968,0.041702110775603735,-0.03170552158566559,-0.0074661461086046235,2.990079879760742,2019-06-20 14:47:21:368
-2.5641507568359376,9.776572937011718,1.036074920654297,0.041302636612091846,-0.030240782986122008,-0.00653403972707689,2.994943857192993,2019-06-20 14:47:21:372
-2.5737274169921873,9.75861669921875,1.0612136535644532,0.040770004394076,-0.029974466877114084,-0.006001407509061044,3.000063896179199,2019-06-20 14:47:21:378
-2.577318664550781,9.770587524414061,1.0863523864746094,0.04090316244857996,-0.028642886332074468,-0.006267723618068967,3.0051839351654053,2019-06-20 14:47:21:383
-2.571333251953125,9.756222534179686,1.1222648620605469,0.039704739958044306,-0.028376570223066545,-0.0071998299995967,3.0100479125976562,2019-06-20 14:47:21:388
-2.574924499511719,9.774178771972656,1.094731964111328,0.04023737217606015,-0.03037394104062597,-0.006933513890588777,3.0151679515838623,2019-06-20 14:47:21:393
-2.5880924072265623,9.805302917480468,1.0636078186035156,0.040770004394076,-0.029841308822610123,-0.006134565563565005,3.0200319290161133,2019-06-20 14:47:21:398
-2.5641507568359376,9.808894165039062,1.0612136535644532,0.04037053023056411,-0.029974466877114084,-0.006134565563565005,3.0251519680023193,2019-06-20 14:47:21:403
-2.5497857666015626,9.798120422363281,1.0827611389160157,0.04196842688461166,-0.028509728277570506,-0.0064008816725729285,3.0300159454345703,2019-06-20 14:47:21:408
-2.5473916015625,9.794529174804687,1.0624107360839843,0.04143579466659581,-0.02877604438657843,-0.006267723618068967,3.0351359844207764,2019-06-20 14:47:21:413
-2.5509828491210937,9.771784606933593,1.0719873962402344,0.04103632050308392,-0.02811025411405862,-0.0070666719450927385,3.0399999618530273,2019-06-20 14:47:21:418
-2.5641507568359376,9.780164184570312,1.0719873962402344,0.042101584939115616,-0.028376570223066545,-0.006667197781580852,3.0451200008392334,2019-06-20 14:47:21:423
-2.561756591796875,9.78854376220703,1.085155303955078,0.042501059102627504,-0.02691183162352296,-0.006134565563565005,3.0499839782714844,2019-06-20 14:47:21:428
-2.531829528808594,9.78854376220703,1.1162794494628907,0.04143579466659581,-0.027178147732530883,-0.006134565563565005,3.0551037788391113,2019-06-20 14:47:21:433
-2.5533770141601564,9.800514587402343,1.1067027893066406,0.04116947855758789,-0.02771077995054673,-0.006134565563565005,3.0599679946899414,2019-06-20 14:47:21:438
-2.5641507568359376,9.782558349609374,1.1067027893066406,0.041302636612091846,-0.027577621896042768,-0.006800355836084815,3.0650877952575684,2019-06-20 14:47:21:443
-2.5438003540039062,9.786149597167968,1.1198706970214845,0.04143579466659581,-0.028376570223066545,-0.006001407509061044,3.0699520111083984,2019-06-20 14:47:21:448
-2.5557711791992186,9.793332092285157,1.0911407165527343,0.04143579466659581,-0.028376570223066545,-0.006001407509061044,3.0750718116760254,2019-06-20 14:47:21:453
-2.5509828491210937,9.78854376220703,1.112688201904297,0.04103632050308392,-0.029308676604594276,-0.004936143073029348,3.0799357891082764,2019-06-20 14:47:21:457
-2.560559509277344,9.784952514648436,1.1114911193847656,0.040636846339572034,-0.029974466877114084,-0.005468775291045195,3.0850558280944824,2019-06-20 14:47:21:463
-2.562953674316406,9.781361267089844,1.0887465515136718,0.04143579466659581,-0.030107624931618046,-0.004936143073029348,3.0901758670806885,2019-06-20 14:47:21:468
-2.561756591796875,9.799317504882811,1.0779728088378906,0.04090316244857996,-0.029308676604594276,-0.004936143073029348,3.0950398445129395,2019-06-20 14:47:21:473
-2.586895324707031,9.81607666015625,1.0336807556152343,0.04090316244857996,-0.02890920244108239,-0.005202459182037272,3.1001598834991455,2019-06-20 14:47:21:478
-2.601260314941406,9.804105834960938,1.0636078186035156,0.04196842688461166,-0.029308676604594276,-0.006134565563565005,3.1050238609313965,2019-06-20 14:47:21:483
-2.591683654785156,9.778967102050782,1.1114911193847656,0.04143579466659581,-0.02877604438657843,-0.005335617236541234,3.1101438999176025,2019-06-20 14:47:21:488
-2.609639892578125,9.778967102050782,1.0743815612792968,0.04116947855758789,-0.02797709605955466,-0.0050693011275333094,3.1150078773498535,2019-06-20 14:47:21:493
-2.5509828491210937,9.757419616699218,1.0971261291503906,0.04103632050308392,-0.029175518550090315,-0.005202459182037272,3.1201279163360596,2019-06-20 14:47:21:498
-2.5473916015625,9.752631286621094,1.0588194885253905,0.04090316244857996,-0.030107624931618046,-0.005335617236541234,3.1249918937683105,2019-06-20 14:47:21:503
-2.560559509277344,9.75981378173828,1.0911407165527343,0.04116947855758789,-0.03050709909512993,-0.004936143073029348,3.1301119327545166,2019-06-20 14:47:21:508
-2.5366178588867188,9.75861669921875,1.107899871826172,0.041302636612091846,-0.030107624931618046,-0.004669826964021424,3.1349759101867676,2019-06-20 14:47:21:513
-2.5138732910156247,9.764602111816407,1.0719873962402344,0.041302636612091846,-0.030640257149633893,-0.003071930309973881,3.1400959491729736,2019-06-20 14:47:21:518
-2.5509828491210937,9.79692333984375,1.0983232116699218,0.04156895272109977,-0.029841308822610123,-0.003071930309973881,3.1449599266052246,2019-06-20 14:47:21:523
-2.562953674316406,9.77777001953125,1.0576224060058594,0.04103632050308392,-0.02877604438657843,-0.0034714044734857666,3.1500799655914307,2019-06-20 14:47:21:528
-2.5677420043945314,9.792135009765625,1.051636993408203,0.040770004394076,-0.030107624931618046,-0.0036045625279897287,3.1549439430236816,2019-06-20 14:47:21:532
-2.5557711791992186,9.805302917480468,1.0683961486816407,0.040770004394076,-0.03170552158566559,-0.0034714044734857666,3.1600639820098877,2019-06-20 14:47:21:538
-2.5593624267578123,9.79692333984375,1.0743815612792968,0.04090316244857996,-0.03143920547665766,-0.0036045625279897287,3.1651837825775146,2019-06-20 14:47:21:543
-2.55696826171875,9.784952514648436,1.107899871826172,0.04103632050308392,-0.030107624931618046,-0.0034714044734857666,3.1700479984283447,2019-06-20 14:47:21:548
-2.5845011596679686,9.8065,1.0983232116699218,0.04116947855758789,-0.030107624931618046,-0.004137194746005576,3.1751677989959717,2019-06-20 14:47:21:553
-2.5593624267578123,9.77777001953125,1.1234619445800782,0.040770004394076,-0.029175518550090315,-0.004536668909517462,3.1800320148468018,2019-06-20 14:47:21:558
-2.5641507568359376,9.783755432128906,1.094731964111328,0.04037053023056411,-0.029441834659098238,-0.004669826964021424,3.1851518154144287,2019-06-20 14:47:21:563
-2.5473916015625,9.804105834960938,1.094731964111328,0.04116947855758789,-0.0295749927136022,-0.005601933345549157,3.1900157928466797,2019-06-20 14:47:21:568
-2.5545740966796875,9.789740844726563,1.0444544982910156,0.041302636612091846,-0.029308676604594276,-0.005202459182037272,3.1951358318328857,2019-06-20 14:47:21:573
-2.560559509277344,9.795726257324219,1.0815640563964843,0.04023737217606015,-0.030240782986122008,-0.005335617236541234,3.1999998092651367,2019-06-20 14:47:21:578
-2.5306324462890624,9.813682495117188,1.0540311584472657,0.04023737217606015,-0.030640257149633893,-0.005468775291045195,3.2051198482513428,2019-06-20 14:47:21:583
-2.5509828491210937,9.820864990234375,1.0719873962402344,0.040636846339572034,-0.028642886332074468,-0.0057350914000531186,3.2099838256835938,2019-06-20 14:47:21:588
-2.5270411987304686,9.807697082519532,1.0743815612792968,0.04090316244857996,-0.02890920244108239,-0.005202459182037272,3.2151038646698,2019-06-20 14:47:21:593
-2.51866162109375,9.79692333984375,1.1031115417480468,0.04037053023056411,-0.029441834659098238,-0.0064008816725729285,3.219967842102051,2019-06-20 14:47:21:598
-2.5473916015625,9.789740844726563,1.0827611389160157,0.039837898012548265,-0.028642886332074468,-0.00653403972707689,3.225087881088257,2019-06-20 14:47:21:603
-2.5150703735351563,9.769390441894531,1.0456515808105469,0.03943842384903638,-0.02877604438657843,-0.0064008816725729285,3.229951858520508,2019-06-20 14:47:21:608
-2.5438003540039062,9.786149597167968,1.0875494689941405,0.03997105606705223,-0.02784393800505069,-0.005202459182037272,3.235071897506714,2019-06-20 14:47:21:613
-2.5689390869140625,9.776572937011718,1.0899436340332032,0.039837898012548265,-0.027444463841538806,-0.006267723618068967,3.239935874938965,2019-06-20 14:47:21:617
-2.5509828491210937,9.789740844726563,1.079169891357422,0.039704739958044306,-0.02877604438657843,-0.0070666719450927385,3.245055913925171,2019-06-20 14:47:21:623
-2.5414061889648436,9.798120422363281,1.0600165710449219,0.04010421412155619,-0.028243412168562583,-0.0071998299995967,3.250175952911377,2019-06-20 14:47:21:628
-2.51866162109375,9.805302917480468,1.1222648620605469,0.039038949685524495,-0.02797709605955466,-0.008398252490132357,3.255039930343628,2019-06-20 14:47:21:633
-2.5438003540039062,9.802908752441406,1.0839582214355468,0.03943842384903638,-0.028509728277570506,-0.008664568599140282,3.260159969329834,2019-06-20 14:47:21:638
-2.51866162109375,9.772981689453125,1.066001983642578,0.040503688285068076,-0.028509728277570506,-0.008531410544636318,3.265023946762085,2019-06-20 14:47:21:643
-2.5390120239257814,9.784952514648436,1.0552282409667968,0.03943842384903638,-0.02811025411405862,-0.009596674980668015,3.270143985748291,2019-06-20 14:47:21:648
-2.52823828125,9.7873466796875,1.037272003173828,0.03917210774002846,-0.02784393800505069,-0.010262465253187823,3.275007963180542,2019-06-20 14:47:21:653
-2.523449951171875,9.81727374267578,1.018118682861328,0.039837898012548265,-0.02784393800505069,-0.009729833035171977,3.280128002166748,2019-06-20 14:47:21:658
-2.51866162109375,9.814879577636718,1.0432574157714845,0.04103632050308392,-0.028642886332074468,-0.0099961491441799,3.284991979598999,2019-06-20 14:47:21:663
-2.5306324462890624,9.79692333984375,1.0875494689941405,0.04037053023056411,-0.029308676604594276,-0.01066193941669971,3.290111780166626,2019-06-20 14:47:21:668
-2.5473916015625,9.800514587402343,1.0671990661621094,0.03997105606705223,-0.02797709605955466,-0.010928255525707633,3.294975996017456,2019-06-20 14:47:21:673
-2.5390120239257814,9.813682495117188,1.0420603332519531,0.039837898012548265,-0.028376570223066545,-0.01066193941669971,3.300095796585083,2019-06-20 14:47:21:678
-2.542603271484375,9.77777001953125,1.0899436340332032,0.03943842384903638,-0.028376570223066545,-0.009729833035171977,3.304960012435913,2019-06-20 14:47:21:683
-2.533026611328125,9.812485412597656,1.0552282409667968,0.04023737217606015,-0.028642886332074468,-0.009596674980668015,3.31007981300354,2019-06-20 14:47:21:688
-2.533026611328125,9.802908752441406,1.037272003173828,0.04010421412155619,-0.028243412168562583,-0.009197200817156128,3.314943790435791,2019-06-20 14:47:21:692
-2.542603271484375,9.807697082519532,1.0767757263183593,0.040503688285068076,-0.02797709605955466,-0.009197200817156128,3.320063829421997,2019-06-20 14:47:21:698
-2.548588684082031,9.795726257324219,1.0779728088378906,0.040503688285068076,-0.02890920244108239,-0.0099961491441799,3.325183868408203,2019-06-20 14:47:21:703
-2.5402091064453125,9.792135009765625,1.0695932312011718,0.039837898012548265,-0.028376570223066545,-0.010129307198683862,3.330047845840454,2019-06-20 14:47:21:708
-2.5545740966796875,9.780164184570312,1.0336807556152343,0.039704739958044306,-0.02771077995054673,-0.01066193941669971,3.33516788482666,2019-06-20 14:47:21:713
-2.5402091064453125,9.798120422363281,1.094731964111328,0.03943842384903638,-0.027444463841538806,-0.011194571634715558,3.340031862258911,2019-06-20 14:47:21:718
-2.5366178588867188,9.79692333984375,1.0971261291503906,0.039704739958044306,-0.02704498967802692,-0.010928255525707633,3.345151901245117,2019-06-20 14:47:21:723
-2.560559509277344,9.79692333984375,1.0719873962402344,0.04023737217606015,-0.027311305787034845,-0.011194571634715558,3.350015878677368,2019-06-20 14:47:21:728
-2.5306324462890624,9.807697082519532,1.093534881591797,0.04010421412155619,-0.026778673569018998,-0.01066193941669971,3.355135917663574,2019-06-20 14:47:21:733
-2.5509828491210937,9.798120422363281,1.085155303955078,0.04023737217606015,-0.02811025411405862,-0.010528781362195748,3.359999895095825,2019-06-20 14:47:21:738
-2.5557711791992186,9.8065,1.0827611389160157,0.040503688285068076,-0.02877604438657843,-0.010928255525707633,3.3651199340820312,2019-06-20 14:47:21:743
-2.589289489746094,9.801711669921875,1.0899436340332032,0.04090316244857996,-0.029042360495586353,-0.010395623307691787,3.3699839115142822,2019-06-20 14:47:21:748
-2.5797128295898437,9.774178771972656,1.107899871826172,0.04143579466659581,-0.027444463841538806,-0.010395623307691787,3.3751039505004883,2019-06-20 14:47:21:753
-2.566544921875,9.780164184570312,1.109096954345703,0.040636846339572034,-0.027577621896042768,-0.010928255525707633,3.3799679279327393,2019-06-20 14:47:21:758
-2.5438003540039062,9.784952514648436,1.0767757263183593,0.041302636612091846,-0.02877604438657843,-0.010928255525707633,3.3850879669189453,2019-06-20 14:47:21:763
-2.5509828491210937,9.789740844726563,1.1043086242675781,0.04090316244857996,-0.029308676604594276,-0.01066193941669971,3.3899519443511963,2019-06-20 14:47:21:768
-2.546194519042969,9.790937927246093,1.0983232116699218,0.040636846339572034,-0.029974466877114084,-0.010928255525707633,3.3950719833374023,2019-06-20 14:47:21:773
-2.566544921875,9.799317504882811,1.0887465515136718,0.040636846339572034,-0.028642886332074468,-0.011460887743723482,3.4001917839050293,2019-06-20 14:47:21:778
-2.5533770141601564,9.79692333984375,1.070790313720703,0.040770004394076,-0.028243412168562583,-0.011727203852731405,3.4050559997558594,2019-06-20 14:47:21:783
-2.560559509277344,9.790937927246093,1.1174765319824218,0.04090316244857996,-0.028509728277570506,-0.011194571634715558,3.4101758003234863,2019-06-20 14:47:21:788
-2.5581653442382812,9.813682495117188,1.0875494689941405,0.04037053023056411,-0.02784393800505069,-0.01132772968921952,3.4150400161743164,2019-06-20 14:47:21:793
-2.5581653442382812,9.789740844726563,1.079169891357422,0.039704739958044306,-0.02890920244108239,-0.011460887743723482,3.4201598167419434,2019-06-20 14:47:21:798
-2.5449974365234374,9.77777001953125,1.0971261291503906,0.03943842384903638,-0.02877604438657843,-0.01212667801624329,3.4250237941741943,2019-06-20 14:47:21:803
-2.562953674316406,9.789740844726563,1.064804901123047,0.04010421412155619,-0.028509728277570506,-0.011860361907235367,3.4301438331604004,2019-06-20 14:47:21:808
-2.5689390869140625,9.802908752441406,1.0468486633300782,0.039837898012548265,-0.02890920244108239,-0.011594045798227443,3.4350078105926514,2019-06-20 14:47:21:813
-2.5581653442382812,9.801711669921875,1.0911407165527343,0.04023737217606015,-0.028243412168562583,-0.011594045798227443,3.4401278495788574,2019-06-20 14:47:21:818
-2.5653478393554687,9.802908752441406,1.0779728088378906,0.04037053023056411,-0.02877604438657843,-0.010928255525707633,3.4449918270111084,2019-06-20 14:47:21:823
-2.590486572265625,9.79692333984375,1.085155303955078,0.04010421412155619,-0.02890920244108239,-0.010129307198683862,3.4501118659973145,2019-06-20 14:47:21:828
-2.5785157470703126,9.81607666015625,1.0767757263183593,0.040770004394076,-0.02890920244108239,-0.009862991089675938,3.4549758434295654,2019-06-20 14:47:21:833
-2.5785157470703126,9.78854376220703,1.1162794494628907,0.040503688285068076,-0.028243412168562583,-0.010528781362195748,3.4600958824157715,2019-06-20 14:47:21:838
-2.5880924072265623,9.7873466796875,1.107899871826172,0.039837898012548265,-0.029042360495586353,-0.010528781362195748,3.4649598598480225,2019-06-20 14:47:21:843
-2.5785157470703126,9.784952514648436,1.0755786437988282,0.040636846339572034,-0.029441834659098238,-0.01066193941669971,3.4700798988342285,2019-06-20 14:47:21:848
-2.5677420043945314,9.769390441894531,1.1043086242675781,0.040636846339572034,-0.029441834659098238,-0.010795097471203672,3.4749438762664795,2019-06-20 14:47:21:852
-2.5880924072265623,9.770587524414061,1.0743815612792968,0.04156895272109977,-0.03037394104062597,-0.011194571634715558,3.4800639152526855,2019-06-20 14:47:21:858
-2.5497857666015626,9.784952514648436,1.1067027893066406,0.04116947855758789,-0.030640257149633893,-0.010528781362195748,3.4851839542388916,2019-06-20 14:47:21:863
-2.571333251953125,9.799317504882811,1.093534881591797,0.040770004394076,-0.02890920244108239,-0.010528781362195748,3.4900479316711426,2019-06-20 14:47:21:868
-2.55696826171875,9.786149597167968,1.0767757263183593,0.04103632050308392,-0.02877604438657843,-0.010262465253187823,3.4951679706573486,2019-06-20 14:47:21:873
-2.580909912109375,9.799317504882811,1.0755786437988282,0.04103632050308392,-0.02811025411405862,-0.010528781362195748,3.5000319480895996,2019-06-20 14:47:21:878
-2.57612158203125,9.775375854492188,1.1055057067871092,0.04116947855758789,-0.02877604438657843,-0.009197200817156128,3.5051519870758057,2019-06-20 14:47:21:883
-2.562953674316406,9.780164184570312,1.0755786437988282,0.042501059102627504,-0.030240782986122008,-0.009729833035171977,3.5100159645080566,2019-06-20 14:47:21:888
-2.566544921875,9.766996276855469,1.0695932312011718,0.04116947855758789,-0.031306047422153704,-0.010129307198683862,3.5151360034942627,2019-06-20 14:47:21:893
-2.5414061889648436,9.77777001953125,1.064804901123047,0.040770004394076,-0.030773415204137854,-0.009463516926164052,3.5199999809265137,2019-06-20 14:47:21:898
-2.577318664550781,9.783755432128906,1.1007173767089844,0.04090316244857996,-0.030906573258641816,-0.009463516926164052,3.5251197814941406,2019-06-20 14:47:21:903
-2.5653478393554687,9.784952514648436,1.0923377990722656,0.04116947855758789,-0.030107624931618046,-0.008664568599140282,3.5299839973449707,2019-06-20 14:47:21:908
-2.574924499511719,9.776572937011718,1.0348778381347656,0.04156895272109977,-0.031039731313145778,-0.008930884708148205,3.5351037979125977,2019-06-20 14:47:21:913
-2.562953674316406,9.763405029296875,1.0695932312011718,0.04116947855758789,-0.029974466877114084,-0.009729833035171977,3.5399680137634277,2019-06-20 14:47:21:918
-2.574924499511719,9.780164184570312,1.0588194885253905,0.04143579466659581,-0.02970815076810616,-0.00933035887166009,3.5450878143310547,2019-06-20 14:47:21:923
-2.562953674316406,9.768193359375,1.0624107360839843,0.04156895272109977,-0.030107624931618046,-0.009197200817156128,3.5499517917633057,2019-06-20 14:47:21:928
-2.5509828491210937,9.78854376220703,1.031286590576172,0.04090316244857996,-0.0295749927136022,-0.008531410544636318,3.5550718307495117,2019-06-20 14:47:21:933
-2.5856982421875,9.756222534179686,1.0528340759277344,0.040636846339572034,-0.03050709909512993,-0.008531410544636318,3.5599358081817627,2019-06-20 14:47:21:937
-2.5856982421875,9.762207946777343,1.0600165710449219,0.040503688285068076,-0.029841308822610123,-0.008131936381124433,3.5650558471679688,2019-06-20 14:47:21:943
-2.5928807373046876,9.805302917480468,1.0336807556152343,0.04090316244857996,-0.029042360495586353,-0.007332988054100662,3.570175886154175,2019-06-20 14:47:21:948
-2.59527490234375,9.805302917480468,1.0767757263183593,0.040503688285068076,-0.029042360495586353,-0.00653403972707689,3.575039863586426,2019-06-20 14:47:21:953
-2.609639892578125,9.801711669921875,1.1019144592285155,0.04116947855758789,-0.029841308822610123,-0.006800355836084815,3.580159902572632,2019-06-20 14:47:21:958
-2.5976690673828124,9.8065,1.0683961486816407,0.040636846339572034,-0.02890920244108239,-0.00653403972707689,3.585023880004883,2019-06-20 14:47:21:963
-2.5701361694335936,9.78854376220703,1.1174765319824218,0.04010421412155619,-0.028243412168562583,-0.00653403972707689,3.590143918991089,2019-06-20 14:47:21:968
-2.580909912109375,9.780164184570312,1.1007173767089844,0.04037053023056411,-0.02890920244108239,-0.006800355836084815,3.59500789642334,2019-06-20 14:47:21:973
-2.561756591796875,9.794529174804687,1.0600165710449219,0.040503688285068076,-0.029175518550090315,-0.006267723618068967,3.600127935409546,2019-06-20 14:47:21:978
-2.5509828491210937,9.761010864257813,1.0600165710449219,0.040770004394076,-0.029175518550090315,-0.005202459182037272,3.604991912841797,2019-06-20 14:47:21:983
-2.586895324707031,9.766996276855469,1.0444544982910156,0.04023737217606015,-0.029841308822610123,-0.004936143073029348,3.610111951828003,2019-06-20 14:47:21:988
-2.5737274169921873,9.780164184570312,1.0468486633300782,0.040770004394076,-0.03050709909512993,-0.005601933345549157,3.614975929260254,2019-06-20 14:47:21:993
-2.571333251953125,9.811288330078124,1.064804901123047,0.040636846339572034,-0.02890920244108239,-0.006134565563565005,3.62009596824646,2019-06-20 14:47:21:998
-2.591683654785156,9.792135009765625,1.0983232116699218,0.03930526579453242,-0.029042360495586353,-0.005601933345549157,3.624959945678711,2019-06-20 14:47:22:003
-2.603654479980469,9.781361267089844,1.1234619445800782,0.04037053023056411,-0.02771077995054673,-0.0057350914000531186,3.630079984664917,2019-06-20 14:47:22:008
-2.572530334472656,9.781361267089844,1.080366973876953,0.039704739958044306,-0.028243412168562583,-0.006134565563565005,3.634943962097168,2019-06-20 14:47:22:012
-2.5689390869140625,9.793332092285157,1.0576224060058594,0.03943842384903638,-0.029042360495586353,-0.006267723618068967,3.640064001083374,2019-06-20 14:47:22:018
-2.5414061889648436,9.808894165039062,1.050439910888672,0.039837898012548265,-0.027577621896042768,-0.006001407509061044,3.645183801651001,2019-06-20 14:47:22:023
-2.560559509277344,9.812485412597656,1.0540311584472657,0.039704739958044306,-0.028642886332074468,-0.006001407509061044,3.650047779083252,2019-06-20 14:47:22:028
-2.5641507568359376,9.808894165039062,1.0432574157714845,0.03997105606705223,-0.02797709605955466,-0.005868249454557082,3.655167818069458,2019-06-20 14:47:22:033
-2.5581653442382812,9.798120422363281,1.0612136535644532,0.03997105606705223,-0.028509728277570506,-0.006001407509061044,3.660031795501709,2019-06-20 14:47:22:038
-2.560559509277344,9.793332092285157,1.0683961486816407,0.04010421412155619,-0.02811025411405862,-0.006001407509061044,3.665151834487915,2019-06-20 14:47:22:043
-2.561756591796875,9.8065,1.0612136535644532,0.039837898012548265,-0.02877604438657843,-0.005868249454557082,3.670015811920166,2019-06-20 14:47:22:048
