ACCELEROMETER X (m/s²),ACCELEROMETER Y (m/s²),ACCELEROMETER Z (m/s²),GYROSCOPE X (rad/s),GYROSCOPE Y (rad/s),GYROSCOPE Z (rad/s),Time since start in ms ,YYYY-MO-DD HH-MI-SS_SSS
-7.563167358398437,-7.57513818359375,0.23762088012695312,0.04156895272109977,-0.029042360495586353,-0.008664568599140282,0.0,2019-06-20 14:49:09:187
-7.572744018554688,-7.535634460449218,0.25198587036132813,0.040503688285068076,-0.028509728277570506,-0.007998778326620472,0.005120038986206055,2019-06-20 14:49:09:193
-7.572744018554688,-7.563167358398437,0.25198587036132813,0.04090316244857996,-0.029042360495586353,-0.008398252490132357,0.009984016418457031,2019-06-20 14:49:09:197
-7.5691527709960935,-7.567955688476562,0.25078878784179687,0.04183526883010769,-0.02890920244108239,-0.0077324622176125485,0.015104055404663086,2019-06-20 14:49:09:202
-7.5835177612304685,-7.57513818359375,0.21727047729492188,0.04143579466659581,-0.02890920244108239,-0.0071998299995967,0.019968032836914062,2019-06-20 14:49:09:207
-7.561970275878906,-7.5691527709960935,0.18973757934570312,0.04116947855758789,-0.02797709605955466,-0.0074661461086046235,0.025087833404541016,2019-06-20 14:49:09:212
-7.553590698242187,-7.590700256347656,0.24719754028320312,0.041302636612091846,-0.02784393800505069,-0.0071998299995967,0.029952049255371094,2019-06-20 14:49:09:217
-7.55598486328125,-7.599079833984375,0.2567742004394531,0.040770004394076,-0.028243412168562583,-0.00653403972707689,0.03507184982299805,2019-06-20 14:49:09:222
-7.55598486328125,-7.590700256347656,0.24600045776367188,0.041302636612091846,-0.028376570223066545,-0.006667197781580852,0.0401918888092041,2019-06-20 14:49:09:228
-7.55598486328125,-7.560773193359375,0.25078878784179687,0.04156895272109977,-0.02811025411405862,-0.0071998299995967,0.04505586624145508,2019-06-20 14:49:09:232
-7.539225708007812,-7.595488586425781,0.25078878784179687,0.04196842688461166,-0.02811025411405862,-0.0064008816725729285,0.05017590522766113,2019-06-20 14:49:09:238
-7.538028625488281,-7.58471484375,0.2855041809082031,0.042367901048123546,-0.027311305787034845,-0.006667197781580852,0.05503988265991211,2019-06-20 14:49:09:242
-7.534437377929687,-7.602671081542969,0.23881796264648436,0.04223474299361958,-0.02704498967802692,-0.006001407509061044,0.060159921646118164,2019-06-20 14:49:09:248
-7.552393615722656,-7.588306091308594,0.24839462280273436,0.04223474299361958,-0.02624604135100315,-0.0050693011275333094,0.06502389907836914,2019-06-20 14:49:09:252
-7.546408203125,-7.571546936035156,0.24839462280273436,0.042101584939115616,-0.026645515514515036,-0.0057350914000531186,0.0701439380645752,2019-06-20 14:49:09:258
-7.53683154296875,-7.563167358398437,0.23522671508789061,0.041702110775603735,-0.02624604135100315,-0.004936143073029348,0.07500791549682617,2019-06-20 14:49:09:262
-7.572744018554688,-7.578729431152343,0.27233627319335935,0.04116947855758789,-0.02704498967802692,-0.005202459182037272,0.08012795448303223,2019-06-20 14:49:09:268
-7.578729431152343,-7.557181945800781,0.25078878784179687,0.040770004394076,-0.02531393496947542,-0.005468775291045195,0.0849919319152832,2019-06-20 14:49:09:272
-7.591897338867187,-7.567955688476562,0.26994210815429687,0.039837898012548265,-0.027577621896042768,-0.004802985018525386,0.09011197090148926,2019-06-20 14:49:09:278
-7.5691527709960935,-7.5655615234375,0.23881796264648436,0.04103632050308392,-0.02771077995054673,-0.004270352800509538,0.09497594833374023,2019-06-20 14:49:09:282
-7.55598486328125,-7.577532348632812,0.23642379760742188,0.04143579466659581,-0.02771077995054673,-0.0044035108550135,0.10009598731994629,2019-06-20 14:49:09:287
-7.577532348632812,-7.57513818359375,0.26994210815429687,0.04156895272109977,-0.02544709302397938,-0.005335617236541234,0.10495996475219727,2019-06-20 14:49:09:292
-7.58471484375,-7.585911926269531,0.25078878784179687,0.04223474299361958,-0.025979725241995228,-0.004936143073029348,0.11008000373840332,2019-06-20 14:49:09:297
-7.611050659179687,-7.577532348632812,0.2567742004394531,0.04143579466659581,-0.025846567187491266,-0.0044035108550135,0.11520004272460938,2019-06-20 14:49:09:303
-7.591897338867187,-7.573941101074219,0.2615625305175781,0.04196842688461166,-0.025580251078483343,-0.0050693011275333094,0.12006402015686035,2019-06-20 14:49:09:307
-7.606262329101562,-7.545211120605469,0.2687450256347656,0.04143579466659581,-0.02691183162352296,-0.0050693011275333094,0.1251838207244873,2019-06-20 14:49:09:313
-7.6038681640625,-7.5404227905273435,0.2424092102050781,0.04116947855758789,-0.027444463841538806,-0.005202459182037272,0.13004803657531738,2019-06-20 14:49:09:317
-7.588306091308594,-7.564364440917968,0.2555771179199219,0.041302636612091846,-0.02704498967802692,-0.004669826964021424,0.13516783714294434,2019-06-20 14:49:09:323
-7.587109008789063,-7.5404227905273435,0.19931423950195312,0.04116947855758789,-0.027577621896042768,-0.0044035108550135,0.14003205299377441,2019-06-20 14:49:09:327
-7.579926513671875,-7.547605285644531,0.22565005493164061,0.04156895272109977,-0.028642886332074468,-0.0050693011275333094,0.14515185356140137,2019-06-20 14:49:09:333
-7.578729431152343,-7.534437377929687,0.1849492492675781,0.040770004394076,-0.028243412168562583,-0.0044035108550135,0.15001583099365234,2019-06-20 14:49:09:337
-7.599079833984375,-7.563167358398437,0.22205880737304687,0.04010421412155619,-0.02797709605955466,-0.005868249454557082,0.1551358699798584,2019-06-20 14:49:09:343
-7.593094421386718,-7.570349853515625,0.19692007446289062,0.040503688285068076,-0.029308676604594276,-0.005601933345549157,0.15999984741210938,2019-06-20 14:49:09:347
-7.563167358398437,-7.558379028320313,0.2603654479980469,0.04183526883010769,-0.028376570223066545,-0.006134565563565005,0.16511988639831543,2019-06-20 14:49:09:353
-7.581123596191406,-7.5655615234375,0.18135800170898436,0.04116947855758789,-0.02771077995054673,-0.005868249454557082,0.1699838638305664,2019-06-20 14:49:09:357
-7.585911926269531,-7.567955688476562,0.24121212768554687,0.04090316244857996,-0.02771077995054673,-0.005468775291045195,0.17510390281677246,2019-06-20 14:49:09:362
-7.6038681640625,-7.547605285644531,0.22924130249023436,0.04023737217606015,-0.02811025411405862,-0.006001407509061044,0.17996788024902344,2019-06-20 14:49:09:367
-7.602671081542969,-7.560773193359375,0.2603654479980469,0.04143579466659581,-0.028509728277570506,-0.00653403972707689,0.1850879192352295,2019-06-20 14:49:09:372
-7.590700256347656,-7.55598486328125,0.2615625305175781,0.04090316244857996,-0.02797709605955466,-0.006267723618068967,0.18995189666748047,2019-06-20 14:49:09:377
-7.58471484375,-7.570349853515625,0.22205880737304687,0.040503688285068076,-0.028243412168562583,-0.0057350914000531186,0.19507193565368652,2019-06-20 14:49:09:382
-7.57513818359375,-7.573941101074219,0.20769381713867188,0.040503688285068076,-0.027577621896042768,-0.005335617236541234,0.20019197463989258,2019-06-20 14:49:09:388
-7.589503173828125,-7.549999450683593,0.24001504516601563,0.040636846339572034,-0.02797709605955466,-0.004936143073029348,0.20505595207214355,2019-06-20 14:49:09:392
-7.585911926269531,-7.560773193359375,0.23522671508789061,0.040770004394076,-0.028243412168562583,-0.006267723618068967,0.2101759910583496,2019-06-20 14:49:09:398
-7.582320678710937,-7.573941101074219,0.25078878784179687,0.04103632050308392,-0.028642886332074468,-0.006267723618068967,0.21503996849060059,2019-06-20 14:49:09:402
-7.595488586425781,-7.577532348632812,0.22565005493164061,0.04090316244857996,-0.028376570223066545,-0.005335617236541234,0.22016000747680664,2019-06-20 14:49:09:408
-7.59429150390625,-7.563167358398437,0.24480337524414061,0.040770004394076,-0.029441834659098238,-0.0057350914000531186,0.22502398490905762,2019-06-20 14:49:09:412
-7.591897338867187,-7.551196533203125,0.26515377807617185,0.040636846339572034,-0.029841308822610123,-0.006800355836084815,0.23014402389526367,2019-06-20 14:49:09:418
-7.608656494140625,-7.5404227905273435,0.2543800354003906,0.04010421412155619,-0.02970815076810616,-0.0064008816725729285,0.23500800132751465,2019-06-20 14:49:09:422
-7.588306091308594,-7.560773193359375,0.2615625305175781,0.04010421412155619,-0.029175518550090315,-0.00653403972707689,0.2401280403137207,2019-06-20 14:49:09:428
-7.577532348632812,-7.5691527709960935,0.26994210815429687,0.04103632050308392,-0.029441834659098238,-0.006933513890588777,0.24499201774597168,2019-06-20 14:49:09:432
-7.572744018554688,-7.578729431152343,0.25198587036132813,0.04037053023056411,-0.028642886332074468,-0.006001407509061044,0.25011181831359863,2019-06-20 14:49:09:438
-7.571546936035156,-7.549999450683593,0.25078878784179687,0.04023737217606015,-0.030240782986122008,-0.005335617236541234,0.2549760341644287,2019-06-20 14:49:09:442
-7.559576110839844,-7.567955688476562,0.26994210815429687,0.040503688285068076,-0.029841308822610123,-0.005601933345549157,0.26009583473205566,2019-06-20 14:49:09:447
-7.5691527709960935,-7.566758605957031,0.24480337524414061,0.04023737217606015,-0.029841308822610123,-0.005868249454557082,0.26496005058288574,2019-06-20 14:49:09:452
-7.558379028320313,-7.581123596191406,0.24360629272460937,0.04010421412155619,-0.02970815076810616,-0.00653403972707689,0.2700798511505127,2019-06-20 14:49:09:457
-7.578729431152343,-7.576335266113281,0.22205880737304687,0.040503688285068076,-0.030906573258641816,-0.006134565563565005,0.27494382858276367,2019-06-20 14:49:09:462
-7.5835177612304685,-7.579926513671875,0.22445297241210938,0.03997105606705223,-0.03037394104062597,-0.0057350914000531186,0.2800638675689697,2019-06-20 14:49:09:467
-7.566758605957031,-7.573941101074219,0.22924130249023436,0.04010421412155619,-0.0295749927136022,-0.005468775291045195,0.2851839065551758,2019-06-20 14:49:09:473
-7.5835177612304685,-7.55598486328125,0.22684713745117188,0.04143579466659581,-0.03117288936764974,-0.0050693011275333094,0.29004788398742676,2019-06-20 14:49:09:477
-7.589503173828125,-7.57513818359375,0.24480337524414061,0.04090316244857996,-0.030773415204137854,-0.0050693011275333094,0.2951679229736328,2019-06-20 14:49:09:483
-7.563167358398437,-7.563167358398437,0.23762088012695312,0.04037053023056411,-0.03037394104062597,-0.005468775291045195,0.3000319004058838,2019-06-20 14:49:09:487
-7.57513818359375,-7.558379028320313,0.26395669555664064,0.04010421412155619,-0.030640257149633893,-0.004802985018525386,0.30515193939208984,2019-06-20 14:49:09:493
-7.593094421386718,-7.577532348632812,0.29148959350585935,0.04023737217606015,-0.02877604438657843,-0.004936143073029348,0.3100159168243408,2019-06-20 14:49:09:497
-7.564364440917968,-7.563167358398437,0.2424092102050781,0.039704739958044306,-0.02811025411405862,-0.006134565563565005,0.3151359558105469,2019-06-20 14:49:09:503
-7.587109008789063,-7.602671081542969,0.22086172485351563,0.040636846339572034,-0.02890920244108239,-0.005601933345549157,0.31999993324279785,2019-06-20 14:49:09:507
-7.609853576660156,-7.572744018554688,0.2687450256347656,0.04116947855758789,-0.02890920244108239,-0.004936143073029348,0.3251199722290039,2019-06-20 14:49:09:513
-7.589503173828125,-7.585911926269531,0.26994210815429687,0.04156895272109977,-0.02970815076810616,-0.0050693011275333094,0.3299839496612549,2019-06-20 14:49:09:517
-7.58471484375,-7.567955688476562,0.24839462280273436,0.04143579466659581,-0.02877604438657843,-0.004270352800509538,0.33510398864746094,2019-06-20 14:49:09:522
-7.600276916503906,-7.558379028320313,0.22924130249023436,0.04037053023056411,-0.02797709605955466,-0.0040040366915016145,0.3399679660797119,2019-06-20 14:49:09:527
-7.581123596191406,-7.567955688476562,0.24719754028320312,0.040636846339572034,-0.02797709605955466,-0.005468775291045195,0.34508800506591797,2019-06-20 14:49:09:532
-7.581123596191406,-7.572744018554688,0.21966464233398436,0.04010421412155619,-0.02811025411405862,-0.006134565563565005,0.34995198249816895,2019-06-20 14:49:09:537
-7.587109008789063,-7.572744018554688,0.24001504516601563,0.04023737217606015,-0.029441834659098238,-0.005468775291045195,0.355072021484375,2019-06-20 14:49:09:542
-7.58471484375,-7.57513818359375,0.23642379760742188,0.03997105606705223,-0.030773415204137854,-0.005601933345549157,0.36019182205200195,2019-06-20 14:49:09:548
-7.58471484375,-7.571546936035156,0.2735333557128906,0.039704739958044306,-0.029042360495586353,-0.0050693011275333094,0.36505603790283203,2019-06-20 14:49:09:552
-7.601473999023438,-7.571546936035156,0.2615625305175781,0.03943842384903638,-0.028376570223066545,-0.0050693011275333094,0.370175838470459,2019-06-20 14:49:09:558
-7.5691527709960935,-7.563167358398437,0.20649673461914062,0.04010421412155619,-0.028642886332074468,-0.0050693011275333094,0.37504005432128906,2019-06-20 14:49:09:562
-7.591897338867187,-7.559576110839844,0.22445297241210938,0.04090316244857996,-0.028642886332074468,-0.005468775291045195,0.380159854888916,2019-06-20 14:49:09:568
-7.591897338867187,-7.544014038085938,0.21727047729492188,0.04023737217606015,-0.02877604438657843,-0.0044035108550135,0.385023832321167,2019-06-20 14:49:09:572
-7.566758605957031,-7.545211120605469,0.21008798217773436,0.040770004394076,-0.028376570223066545,-0.004936143073029348,0.39014387130737305,2019-06-20 14:49:09:578
-7.567955688476562,-7.564364440917968,0.22684713745117188,0.04183526883010769,-0.02970815076810616,-0.004137194746005576,0.395007848739624,2019-06-20 14:49:09:582
-7.577532348632812,-7.552393615722656,0.23522671508789061,0.04143579466659581,-0.028243412168562583,-0.0044035108550135,0.4001278877258301,2019-06-20 14:49:09:588
-7.561970275878906,-7.5655615234375,0.25318295288085935,0.042101584939115616,-0.028642886332074468,-0.004270352800509538,0.40499186515808105,2019-06-20 14:49:09:592
-7.564364440917968,-7.579926513671875,0.25198587036132813,0.04143579466659581,-0.02797709605955466,-0.004137194746005576,0.4101119041442871,2019-06-20 14:49:09:598
-7.53683154296875,-7.5978827514648435,0.24959170532226563,0.04116947855758789,-0.029441834659098238,-0.003071930309973881,0.4149758815765381,2019-06-20 14:49:09:602
-7.571546936035156,-7.573941101074219,0.24600045776367188,0.04103632050308392,-0.02890920244108239,-0.0034714044734857666,0.42009592056274414,2019-06-20 14:49:09:607
-7.599079833984375,-7.57513818359375,0.22565005493164061,0.04103632050308392,-0.027444463841538806,-0.0033382464189818046,0.4249598979949951,2019-06-20 14:49:09:612
-7.585911926269531,-7.560773193359375,0.22684713745117188,0.04116947855758789,-0.027178147732530883,-0.0044035108550135,0.43007993698120117,2019-06-20 14:49:09:617
-7.5691527709960935,-7.553590698242187,0.2735333557128906,0.04116947855758789,-0.026778673569018998,-0.0037377205824936904,0.43494391441345215,2019-06-20 14:49:09:622
-7.599079833984375,-7.55598486328125,0.23043838500976563,0.04116947855758789,-0.026778673569018998,-0.003205088364477843,0.4400639533996582,2019-06-20 14:49:09:627
-7.587109008789063,-7.557181945800781,0.2328325500488281,0.04276737521163543,-0.027444463841538806,-0.0033382464189818046,0.44518399238586426,2019-06-20 14:49:09:633
-7.5835177612304685,-7.545211120605469,0.21008798217773436,0.04223474299361958,-0.02784393800505069,-0.0034714044734857666,0.45004796981811523,2019-06-20 14:49:09:637
-7.595488586425781,-7.548802368164062,0.20889089965820312,0.04143579466659581,-0.028243412168562583,-0.002805614200965957,0.4551680088043213,2019-06-20 14:49:09:643
-7.581123596191406,-7.561970275878906,0.2136792297363281,0.04103632050308392,-0.02797709605955466,-0.003071930309973881,0.46003198623657227,2019-06-20 14:49:09:647
-7.590700256347656,-7.557181945800781,0.2328325500488281,0.04090316244857996,-0.02877604438657843,-0.0040040366915016145,0.4651520252227783,2019-06-20 14:49:09:653
-7.595488586425781,-7.551196533203125,0.22804421997070312,0.04156895272109977,-0.029308676604594276,-0.004137194746005576,0.4700160026550293,2019-06-20 14:49:09:657
-7.593094421386718,-7.563167358398437,0.20889089965820312,0.04103632050308392,-0.0295749927136022,-0.0038708786369976524,0.47513604164123535,2019-06-20 14:49:09:663
-7.593094421386718,-7.573941101074219,0.21607339477539061,0.040636846339572034,-0.0295749927136022,-0.0037377205824936904,0.48000001907348633,2019-06-20 14:49:09:667
-7.590700256347656,-7.576335266113281,0.2328325500488281,0.04143579466659581,-0.02890920244108239,-0.004137194746005576,0.4851198196411133,2019-06-20 14:49:09:673
-7.591897338867187,-7.563167358398437,0.24480337524414061,0.04103632050308392,-0.028642886332074468,-0.0040040366915016145,0.48998403549194336,2019-06-20 14:49:09:677
-7.591897338867187,-7.544014038085938,0.21846755981445312,0.04156895272109977,-0.028509728277570506,-0.0038708786369976524,0.4951038360595703,2019-06-20 14:49:09:682
-7.605065246582031,-7.572744018554688,0.30944583129882813,0.04156895272109977,-0.028509728277570506,-0.0044035108550135,0.4999680519104004,2019-06-20 14:49:09:687
-7.590700256347656,-7.589503173828125,0.2747304382324219,0.04156895272109977,-0.028376570223066545,-0.004137194746005576,0.5050878524780273,2019-06-20 14:49:09:692
-7.585911926269531,-7.558379028320313,0.2591683654785156,0.04156895272109977,-0.029441834659098238,-0.004270352800509538,0.5099518299102783,2019-06-20 14:49:09:697
-7.596685668945312,-7.559576110839844,0.2555771179199219,0.042101584939115616,-0.028642886332074468,-0.0036045625279897287,0.5150718688964844,2019-06-20 14:49:09:702
-7.608656494140625,-7.566758605957031,0.2555771179199219,0.04223474299361958,-0.02811025411405862,-0.0033382464189818046,0.5201919078826904,2019-06-20 14:49:09:708
-7.601473999023438,-7.571546936035156,0.2855041809082031,0.04103632050308392,-0.028642886332074468,-0.0036045625279897287,0.5250558853149414,2019-06-20 14:49:09:712
-7.5835177612304685,-7.551196533203125,0.2627596130371094,0.04156895272109977,-0.027311305787034845,-0.003205088364477843,0.5301759243011475,2019-06-20 14:49:09:718
-7.577532348632812,-7.581123596191406,0.1945259094238281,0.04183526883010769,-0.027311305787034845,-0.0034714044734857666,0.5350399017333984,2019-06-20 14:49:09:722
-7.581123596191406,-7.570349853515625,0.26515377807617185,0.04116947855758789,-0.027444463841538806,-0.004137194746005576,0.5401599407196045,2019-06-20 14:49:09:728
-7.572744018554688,-7.5691527709960935,0.2819129333496094,0.040770004394076,-0.027577621896042768,-0.0040040366915016145,0.5450239181518555,2019-06-20 14:49:09:732
-7.576335266113281,-7.5655615234375,0.27113919067382813,0.04103632050308392,-0.027444463841538806,-0.003205088364477843,0.5501439571380615,2019-06-20 14:49:09:738
-7.6038681640625,-7.585911926269531,0.25078878784179687,0.04183526883010769,-0.028376570223066545,-0.0020066658739421855,0.5550079345703125,2019-06-20 14:49:09:742
-7.59429150390625,-7.61344482421875,0.24600045776367188,0.041302636612091846,-0.028642886332074468,-0.002938772255469919,0.5601279735565186,2019-06-20 14:49:09:748
-7.577532348632812,-7.560773193359375,0.2232558898925781,0.04156895272109977,-0.02771077995054673,-0.0036045625279897287,0.5649919509887695,2019-06-20 14:49:09:752
-7.611050659179687,-7.559576110839844,0.23043838500976563,0.042101584939115616,-0.027178147732530883,-0.0021398239284461476,0.5701119899749756,2019-06-20 14:49:09:758
-7.579926513671875,-7.557181945800781,0.23762088012695312,0.041302636612091846,-0.02624604135100315,-0.0022729819829501096,0.5749759674072266,2019-06-20 14:49:09:762
-7.59429150390625,-7.557181945800781,0.2567742004394531,0.04103632050308392,-0.02771077995054673,-0.002938772255469919,0.5800960063934326,2019-06-20 14:49:09:767
-7.589503173828125,-7.553590698242187,0.22804421997070312,0.04143579466659581,-0.02771077995054673,-0.002938772255469919,0.5849599838256836,2019-06-20 14:49:09:772
-7.571546936035156,-7.563167358398437,0.23522671508789061,0.04116947855758789,-0.02611288329649919,-0.0024061400374540713,0.5900800228118896,2019-06-20 14:49:09:777
-7.552393615722656,-7.576335266113281,0.22804421997070312,0.04156895272109977,-0.02611288329649919,-0.0021398239284461476,0.5949440002441406,2019-06-20 14:49:09:782
-7.595488586425781,-7.563167358398437,0.20889089965820312,0.041302636612091846,-0.027178147732530883,-0.0020066658739421855,0.6000640392303467,2019-06-20 14:49:09:787
-7.590700256347656,-7.587109008789063,0.24360629272460937,0.041302636612091846,-0.02691183162352296,-0.003071930309973881,0.6051838397979736,2019-06-20 14:49:09:793
-7.614641906738281,-7.55598486328125,0.24959170532226563,0.041702110775603735,-0.027444463841538806,-0.003205088364477843,0.6100480556488037,2019-06-20 14:49:09:797
-7.619430236816406,-7.553590698242187,0.22804421997070312,0.04223474299361958,-0.02797709605955466,-0.002805614200965957,0.6151678562164307,2019-06-20 14:49:09:803
-7.58471484375,-7.545211120605469,0.24600045776367188,0.041702110775603735,-0.02811025411405862,-0.003205088364477843,0.6200318336486816,2019-06-20 14:49:09:807
-7.59429150390625,-7.553590698242187,0.25318295288085935,0.04143579466659581,-0.028243412168562583,-0.003071930309973881,0.6251518726348877,2019-06-20 14:49:09:813
-7.587109008789063,-7.570349853515625,0.24360629272460937,0.040503688285068076,-0.027311305787034845,-0.002672456146461995,0.6300158500671387,2019-06-20 14:49:09:817
-7.593094421386718,-7.5404227905273435,0.25078878784179687,0.04103632050308392,-0.027311305787034845,-0.002805614200965957,0.6351358890533447,2019-06-20 14:49:09:823
-7.587109008789063,-7.561970275878906,0.25078878784179687,0.04103632050308392,-0.029042360495586353,-0.0033382464189818046,0.6399998664855957,2019-06-20 14:49:09:827
-7.579926513671875,-7.538028625488281,0.2041025695800781,0.040636846339572034,-0.02970815076810616,-0.0036045625279897287,0.6451199054718018,2019-06-20 14:49:09:833
-7.587109008789063,-7.564364440917968,0.2567742004394531,0.040503688285068076,-0.02890920244108239,-0.0040040366915016145,0.6499838829040527,2019-06-20 14:49:09:837
-7.611050659179687,-7.552393615722656,0.24959170532226563,0.041702110775603735,-0.02877604438657843,-0.004270352800509538,0.6551039218902588,2019-06-20 14:49:09:842
-7.5978827514648435,-7.538028625488281,0.2675479431152344,0.04116947855758789,-0.0295749927136022,-0.004669826964021424,0.6599678993225098,2019-06-20 14:49:09:847
-7.611050659179687,-7.539225708007812,0.24959170532226563,0.040770004394076,-0.029974466877114084,-0.004137194746005576,0.6650879383087158,2019-06-20 14:49:09:852
-7.596685668945312,-7.553590698242187,0.22924130249023436,0.04090316244857996,-0.02877604438657843,-0.004936143073029348,0.6699519157409668,2019-06-20 14:49:09:857
-7.596685668945312,-7.552393615722656,0.2591683654785156,0.04103632050308392,-0.030640257149633893,-0.004936143073029348,0.6750719547271729,2019-06-20 14:49:09:862
-7.581123596191406,-7.548802368164062,0.23402963256835937,0.04143579466659581,-0.030906573258641816,-0.005468775291045195,0.6801919937133789,2019-06-20 14:49:09:868
-7.6409777221679684,-7.546408203125,0.20529965209960938,0.040636846339572034,-0.030240782986122008,-0.005335617236541234,0.6850559711456299,2019-06-20 14:49:09:872
-7.631401062011719,-7.560773193359375,0.21966464233398436,0.039837898012548265,-0.02890920244108239,-0.006134565563565005,0.6901760101318359,2019-06-20 14:49:09:878
-7.601473999023438,-7.566758605957031,0.22565005493164061,0.040503688285068076,-0.029175518550090315,-0.006134565563565005,0.6950399875640869,2019-06-20 14:49:09:882
-7.633795227050781,-7.566758605957031,0.2136792297363281,0.04023737217606015,-0.02970815076810616,-0.0057350914000531186,0.700160026550293,2019-06-20 14:49:09:888
-7.59429150390625,-7.567955688476562,0.20769381713867188,0.04037053023056411,-0.029974466877114084,-0.006134565563565005,0.705024003982544,2019-06-20 14:49:09:892
-7.638583557128906,-7.553590698242187,0.2424092102050781,0.041302636612091846,-0.03157236353116163,-0.006001407509061044,0.71014404296875,2019-06-20 14:49:09:898
-7.625415649414062,-7.542816955566406,0.21966464233398436,0.040770004394076,-0.031306047422153704,-0.00653403972707689,0.715008020401001,2019-06-20 14:49:09:902
-7.588306091308594,-7.541619873046875,0.21846755981445312,0.039837898012548265,-0.030906573258641816,-0.007332988054100662,0.7201278209686279,2019-06-20 14:49:09:908
-7.609853576660156,-7.547605285644531,0.23522671508789061,0.03997105606705223,-0.030773415204137854,-0.007332988054100662,0.724992036819458,2019-06-20 14:49:09:912
-7.631401062011719,-7.5691527709960935,0.2735333557128906,0.040503688285068076,-0.030773415204137854,-0.0077324622176125485,0.730111837387085,2019-06-20 14:49:09:918
-7.595488586425781,-7.553590698242187,0.2687450256347656,0.03997105606705223,-0.02890920244108239,-0.007599304163108585,0.734976053237915,2019-06-20 14:49:09:922
-7.6038681640625,-7.544014038085938,0.2747304382324219,0.040503688285068076,-0.029441834659098238,-0.00786562027211651,0.740095853805542,2019-06-20 14:49:09:927
-7.591897338867187,-7.560773193359375,0.23642379760742188,0.04037053023056411,-0.029175518550090315,-0.008131936381124433,0.744959831237793,2019-06-20 14:49:09:932
-7.581123596191406,-7.561970275878906,0.2627596130371094,0.04023737217606015,-0.031039731313145778,-0.008265094435628395,0.750079870223999,2019-06-20 14:49:09:937
-7.593094421386718,-7.5547877807617185,0.23402963256835937,0.03997105606705223,-0.03117288936764974,-0.008930884708148205,0.75494384765625,2019-06-20 14:49:09:942
-7.5835177612304685,-7.5691527709960935,0.23642379760742188,0.04143579466659581,-0.030640257149633893,-0.009463516926164052,0.760063886642456,2019-06-20 14:49:09:947
-7.6038681640625,-7.567955688476562,0.24001504516601563,0.040636846339572034,-0.03037394104062597,-0.009064042762652167,0.7651839256286621,2019-06-20 14:49:09:953
-7.5978827514648435,-7.55598486328125,0.22205880737304687,0.040770004394076,-0.029841308822610123,-0.009596674980668015,0.7700479030609131,2019-06-20 14:49:09:957
-7.581123596191406,-7.530846130371094,0.24121212768554687,0.03997105606705223,-0.030773415204137854,-0.00933035887166009,0.7751679420471191,2019-06-20 14:49:09:963
-7.593094421386718,-7.544014038085938,0.24001504516601563,0.040503688285068076,-0.03117288936764974,-0.008531410544636318,0.7800319194793701,2019-06-20 14:49:09:967
-7.614641906738281,-7.559576110839844,0.2747304382324219,0.040636846339572034,-0.030107624931618046,-0.00933035887166009,0.7851519584655762,2019-06-20 14:49:09:973
-7.590700256347656,-7.560773193359375,0.23881796264648436,0.04090316244857996,-0.02970815076810616,-0.008797726653644243,0.7900159358978271,2019-06-20 14:49:09:977
-7.587109008789063,-7.551196533203125,0.25198587036132813,0.040636846339572034,-0.029974466877114084,-0.008398252490132357,0.7951359748840332,2019-06-20 14:49:09:983
-7.601473999023438,-7.563167358398437,0.26395669555664064,0.03957158190354034,-0.02890920244108239,-0.008265094435628395,0.7999999523162842,2019-06-20 14:49:09:987
-7.590700256347656,-7.5547877807617185,0.24480337524414061,0.04023737217606015,-0.029974466877114084,-0.009197200817156128,0.8051199913024902,2019-06-20 14:49:09:993
-7.614641906738281,-7.553590698242187,0.20889089965820312,0.04090316244857996,-0.030906573258641816,-0.009729833035171977,0.8099839687347412,2019-06-20 14:49:09:997
-7.608656494140625,-7.541619873046875,0.23522671508789061,0.04023737217606015,-0.030640257149633893,-0.009729833035171977,0.8151040077209473,2019-06-20 14:49:10:002
-7.5835177612304685,-7.553590698242187,0.2675479431152344,0.040636846339572034,-0.029974466877114084,-0.008531410544636318,0.8199679851531982,2019-06-20 14:49:10:007
-7.590700256347656,-7.548802368164062,0.23043838500976563,0.040636846339572034,-0.02970815076810616,-0.008797726653644243,0.8250880241394043,2019-06-20 14:49:10:012
-7.570349853515625,-7.558379028320313,0.24480337524414061,0.04037053023056411,-0.03050709909512993,-0.008797726653644243,0.8299520015716553,2019-06-20 14:49:10:017
-7.585911926269531,-7.545211120605469,0.23762088012695312,0.039837898012548265,-0.028376570223066545,-0.008664568599140282,0.8350720405578613,2019-06-20 14:49:10:022
-7.572744018554688,-7.558379028320313,0.2567742004394531,0.04023737217606015,-0.029175518550090315,-0.00933035887166009,0.8401918411254883,2019-06-20 14:49:10:028
-7.588306091308594,-7.570349853515625,0.20170840454101563,0.039837898012548265,-0.029841308822610123,-0.008531410544636318,0.8450558185577393,2019-06-20 14:49:10:032
-7.627809814453125,-7.564364440917968,0.21846755981445312,0.039704739958044306,-0.029308676604594276,-0.008797726653644243,0.8501758575439453,2019-06-20 14:49:10:038
-7.59429150390625,-7.573941101074219,0.23522671508789061,0.03943842384903638,-0.030240782986122008,-0.009463516926164052,0.8550398349761963,2019-06-20 14:49:10:042
-7.582320678710937,-7.549999450683593,0.21128506469726563,0.03957158190354034,-0.029175518550090315,-0.009064042762652167,0.8601598739624023,2019-06-20 14:49:10:048
-7.591897338867187,-7.566758605957031,0.22205880737304687,0.039704739958044306,-0.029441834659098238,-0.009197200817156128,0.8650238513946533,2019-06-20 14:49:10:052
-7.593094421386718,-7.572744018554688,0.2424092102050781,0.04103632050308392,-0.031039731313145778,-0.009596674980668015,0.8701438903808594,2019-06-20 14:49:10:058
-7.600276916503906,-7.5655615234375,0.25078878784179687,0.04103632050308392,-0.029308676604594276,-0.009729833035171977,0.8750078678131104,2019-06-20 14:49:10:062
-7.578729431152343,-7.544014038085938,0.23402963256835937,0.03997105606705223,-0.02877604438657843,-0.009064042762652167,0.8801279067993164,2019-06-20 14:49:10:068
-7.595488586425781,-7.585911926269531,0.25078878784179687,0.03997105606705223,-0.02811025411405862,-0.008131936381124433,0.8849918842315674,2019-06-20 14:49:10:072
-7.601473999023438,-7.558379028320313,0.2424092102050781,0.03957158190354034,-0.029042360495586353,-0.008664568599140282,0.8901119232177734,2019-06-20 14:49:10:078
-7.572744018554688,-7.5691527709960935,0.24959170532226563,0.039837898012548265,-0.029308676604594276,-0.007998778326620472,0.8949759006500244,2019-06-20 14:49:10:082
-7.566758605957031,-7.566758605957031,0.27233627319335935,0.04010421412155619,-0.02890920244108239,-0.00786562027211651,0.9000959396362305,2019-06-20 14:49:10:087
-7.587109008789063,-7.5655615234375,0.2807158508300781,0.039837898012548265,-0.029042360495586353,-0.008531410544636318,0.9049599170684814,2019-06-20 14:49:10:092
-7.606262329101562,-7.578729431152343,0.26994210815429687,0.03997105606705223,-0.028642886332074468,-0.008797726653644243,0.9100799560546875,2019-06-20 14:49:10:097
-7.5978827514648435,-7.5691527709960935,0.2747304382324219,0.03943842384903638,-0.02877604438657843,-0.008531410544636318,0.9149439334869385,2019-06-20 14:49:10:102
-7.566758605957031,-7.558379028320313,0.22565005493164061,0.03957158190354034,-0.028243412168562583,-0.008131936381124433,0.9200639724731445,2019-06-20 14:49:10:107
-7.57513818359375,-7.573941101074219,0.20649673461914062,0.04010421412155619,-0.029042360495586353,-0.008265094435628395,0.9251840114593506,2019-06-20 14:49:10:113
-7.560773193359375,-7.563167358398437,0.23881796264648436,0.04090316244857996,-0.029441834659098238,-0.008398252490132357,0.9300479888916016,2019-06-20 14:49:10:117
-7.582320678710937,-7.553590698242187,0.24360629272460937,0.04116947855758789,-0.029175518550090315,-0.0077324622176125485,0.9351680278778076,2019-06-20 14:49:10:123
-7.564364440917968,-7.559576110839844,0.24959170532226563,0.04090316244857996,-0.029441834659098238,-0.0074661461086046235,0.9400320053100586,2019-06-20 14:49:10:127
-7.596685668945312,-7.566758605957031,0.23402963256835937,0.040503688285068076,-0.029175518550090315,-0.00786562027211651,0.9451520442962646,2019-06-20 14:49:10:133
-7.587109008789063,-7.6038681640625,0.2675479431152344,0.039837898012548265,-0.029441834659098238,-0.006933513890588777,0.9500160217285156,2019-06-20 14:49:10:137
-7.564364440917968,-7.589503173828125,0.23522671508789061,0.04090316244857996,-0.030107624931618046,-0.006667197781580852,0.9551358222961426,2019-06-20 14:49:10:143
-7.5691527709960935,-7.546408203125,0.2759275207519531,0.039837898012548265,-0.028376570223066545,-0.0071998299995967,0.9600000381469727,2019-06-20 14:49:10:147
-7.602671081542969,-7.564364440917968,0.2567742004394531,0.03997105606705223,-0.028642886332074468,-0.007332988054100662,0.9651198387145996,2019-06-20 14:49:10:153
-7.5835177612304685,-7.559576110839844,0.25797128295898436,0.04010421412155619,-0.02811025411405862,-0.006001407509061044,0.9699840545654297,2019-06-20 14:49:10:157
-7.577532348632812,-7.560773193359375,0.2424092102050781,0.04103632050308392,-0.02797709605955466,-0.006001407509061044,0.9751038551330566,2019-06-20 14:49:10:162
-7.566758605957031,-7.559576110839844,0.22445297241210938,0.040636846339572034,-0.02797709605955466,-0.006001407509061044,0.9799678325653076,2019-06-20 14:49:10:167
-7.577532348632812,-7.5691527709960935,0.2328325500488281,0.04037053023056411,-0.02771077995054673,-0.0057350914000531186,0.9850878715515137,2019-06-20 14:49:10:172
-7.590700256347656,-7.549999450683593,0.24719754028320312,0.04090316244857996,-0.028376570223066545,-0.005468775291045195,0.9899518489837646,2019-06-20 14:49:10:177
-7.591897338867187,-7.545211120605469,0.22205880737304687,0.04090316244857996,-0.02784393800505069,-0.006001407509061044,0.9950718879699707,2019-06-20 14:49:10:182
-7.591897338867187,-7.560773193359375,0.25078878784179687,0.040636846339572034,-0.027311305787034845,-0.005868249454557082,1.0001919269561768,2019-06-20 14:49:10:188
-7.600276916503906,-7.573941101074219,0.28311001586914064,0.041302636612091846,-0.027577621896042768,-0.005335617236541234,1.0050559043884277,2019-06-20 14:49:10:192
-7.577532348632812,-7.560773193359375,0.21248214721679687,0.041302636612091846,-0.02784393800505069,-0.005601933345549157,1.0101759433746338,2019-06-20 14:49:10:198
-7.58471484375,-7.573941101074219,0.2615625305175781,0.042101584939115616,-0.027311305787034845,-0.0050693011275333094,1.0150399208068848,2019-06-20 14:49:10:202
-7.602671081542969,-7.558379028320313,0.2687450256347656,0.041702110775603735,-0.027311305787034845,-0.005468775291045195,1.0201599597930908,2019-06-20 14:49:10:208
-7.605065246582031,-7.566758605957031,0.26395669555664064,0.040770004394076,-0.02784393800505069,-0.006134565563565005,1.0250239372253418,2019-06-20 14:49:10:212
-7.614641906738281,-7.539225708007812,0.2687450256347656,0.041302636612091846,-0.028376570223066545,-0.005468775291045195,1.0301439762115479,2019-06-20 14:49:10:218
-7.608656494140625,-7.547605285644531,0.2615625305175781,0.04103632050308392,-0.02877604438657843,-0.004936143073029348,1.0350079536437988,2019-06-20 14:49:10:222
-7.581123596191406,-7.561970275878906,0.24001504516601563,0.04156895272109977,-0.02691183162352296,-0.0050693011275333094,1.0401279926300049,2019-06-20 14:49:10:228
-7.599079833984375,-7.551196533203125,0.24001504516601563,0.04143579466659581,-0.027178147732530883,-0.005601933345549157,1.0449919700622559,2019-06-20 14:49:10:232
-7.600276916503906,-7.552393615722656,0.2543800354003906,0.04143579466659581,-0.02691183162352296,-0.0057350914000531186,1.050112009048462,2019-06-20 14:49:10:238
-7.585911926269531,-7.563167358398437,0.21487631225585938,0.04196842688461166,-0.027178147732530883,-0.005202459182037272,1.054975986480713,2019-06-20 14:49:10:242
-7.5835177612304685,-7.559576110839844,0.23522671508789061,0.04196842688461166,-0.026379199405507113,-0.004936143073029348,1.060096025466919,2019-06-20 14:49:10:247
-7.620627319335937,-7.544014038085938,0.2747304382324219,0.041702110775603735,-0.027311305787034845,-0.004936143073029348,1.06496000289917,2019-06-20 14:49:10:252
-7.5978827514648435,-7.560773193359375,0.2232558898925781,0.04183526883010769,-0.02691183162352296,-0.005601933345549157,1.070080041885376,2019-06-20 14:49:10:257
-7.572744018554688,-7.549999450683593,0.27113919067382813,0.041702110775603735,-0.027311305787034845,-0.0057350914000531186,1.074944019317627,2019-06-20 14:49:10:262
-7.593094421386718,-7.547605285644531,0.27233627319335935,0.04156895272109977,-0.02811025411405862,-0.005335617236541234,1.080063819885254,2019-06-20 14:49:10:267
-7.600276916503906,-7.552393615722656,0.20649673461914062,0.04143579466659581,-0.029042360495586353,-0.006667197781580852,1.08518385887146,2019-06-20 14:49:10:273
-7.5835177612304685,-7.544014038085938,0.2136792297363281,0.041702110775603735,-0.028509728277570506,-0.005468775291045195,1.090047836303711,2019-06-20 14:49:10:277
-7.5655615234375,-7.563167358398437,0.24719754028320312,0.041702110775603735,-0.02784393800505069,-0.005868249454557082,1.095167875289917,2019-06-20 14:49:10:283
-7.591897338867187,-7.546408203125,0.2819129333496094,0.040770004394076,-0.028243412168562583,-0.005468775291045195,1.100031852722168,2019-06-20 14:49:10:287
-7.601473999023438,-7.559576110839844,0.2555771179199219,0.04116947855758789,-0.02811025411405862,-0.0070666719450927385,1.105151891708374,2019-06-20 14:49:10:293
-7.611050659179687,-7.560773193359375,0.25797128295898436,0.04116947855758789,-0.028509728277570506,-0.007332988054100662,1.110015869140625,2019-06-20 14:49:10:297
-7.596685668945312,-7.566758605957031,0.22445297241210938,0.040636846339572034,-0.029042360495586353,-0.006933513890588777,1.115135908126831,2019-06-20 14:49:10:303
-7.59429150390625,-7.553590698242187,0.24959170532226563,0.040770004394076,-0.02890920244108239,-0.006667197781580852,1.119999885559082,2019-06-20 14:49:10:307
-7.6122477416992185,-7.561970275878906,0.2627596130371094,0.04023737217606015,-0.029308676604594276,-0.006933513890588777,1.125119924545288,2019-06-20 14:49:10:313
-7.624218566894531,-7.563167358398437,0.22924130249023436,0.04010421412155619,-0.030107624931618046,-0.006800355836084815,1.129983901977539,2019-06-20 14:49:10:317
-7.593094421386718,-7.538028625488281,0.20529965209960938,0.03957158190354034,-0.029841308822610123,-0.0071998299995967,1.1351039409637451,2019-06-20 14:49:10:322
-7.606262329101562,-7.532043212890625,0.2424092102050781,0.04023737217606015,-0.028376570223066545,-0.006800355836084815,1.139967918395996,2019-06-20 14:49:10:327
-7.590700256347656,-7.53683154296875,0.20769381713867188,0.04037053023056411,-0.029042360495586353,-0.007599304163108585,1.1450879573822021,2019-06-20 14:49:10:332
-7.614641906738281,-7.5404227905273435,0.24600045776367188,0.04037053023056411,-0.028376570223066545,-0.006933513890588777,1.1499519348144531,2019-06-20 14:49:10:337
-7.608656494140625,-7.551196533203125,0.26994210815429687,0.040636846339572034,-0.028509728277570506,-0.006800355836084815,1.1550719738006592,2019-06-20 14:49:10:342
-7.614641906738281,-7.552393615722656,0.22445297241210938,0.039837898012548265,-0.028642886332074468,-0.007599304163108585,1.1601920127868652,2019-06-20 14:49:10:348
-7.5978827514648435,-7.545211120605469,0.23881796264648436,0.04023737217606015,-0.030107624931618046,-0.007332988054100662,1.1650559902191162,2019-06-20 14:49:10:352
-7.59429150390625,-7.549999450683593,0.23642379760742188,0.03997105606705223,-0.029042360495586353,-0.0077324622176125485,1.1701760292053223,2019-06-20 14:49:10:358
-7.581123596191406,-7.549999450683593,0.25078878784179687,0.03943842384903638,-0.028642886332074468,-0.008265094435628395,1.1750400066375732,2019-06-20 14:49:10:362
-7.6122477416992185,-7.5691527709960935,0.2041025695800781,0.03957158190354034,-0.0295749927136022,-0.007599304163108585,1.1801600456237793,2019-06-20 14:49:10:368
-7.618233154296875,-7.553590698242187,0.28909542846679687,0.040503688285068076,-0.029175518550090315,-0.00786562027211651,1.1850240230560303,2019-06-20 14:49:10:372
-7.600276916503906,-7.55598486328125,0.2615625305175781,0.04037053023056411,-0.029974466877114084,-0.008265094435628395,1.1901438236236572,2019-06-20 14:49:10:378
-7.607459411621093,-7.5404227905273435,0.22804421997070312,0.03997105606705223,-0.029175518550090315,-0.008664568599140282,1.1950080394744873,2019-06-20 14:49:10:382
-7.578729431152343,-7.55598486328125,0.24121212768554687,0.04010421412155619,-0.030107624931618046,-0.008398252490132357,1.2001278400421143,2019-06-20 14:49:10:388
-7.590700256347656,-7.557181945800781,0.23043838500976563,0.04023737217606015,-0.03037394104062597,-0.008131936381124433,1.2049920558929443,2019-06-20 14:49:10:392
-7.609853576660156,-7.553590698242187,0.25078878784179687,0.040636846339572034,-0.031039731313145778,-0.00933035887166009,1.2101118564605713,2019-06-20 14:49:10:398
-7.588306091308594,-7.579926513671875,0.2759275207519531,0.040636846339572034,-0.029974466877114084,-0.0099961491441799,1.2149758338928223,2019-06-20 14:49:10:402
-7.58471484375,-7.58471484375,0.2807158508300781,0.039704739958044306,-0.030906573258641816,-0.009463516926164052,1.2200958728790283,2019-06-20 14:49:10:407
-7.614641906738281,-7.558379028320313,0.24839462280273436,0.03917210774002846,-0.029974466877114084,-0.009596674980668015,1.2249598503112793,2019-06-20 14:49:10:412
-7.596685668945312,-7.549999450683593,0.2328325500488281,0.03850631746750865,-0.02890920244108239,-0.0099961491441799,1.2300798892974854,2019-06-20 14:49:10:417
-7.600276916503906,-7.561970275878906,0.2555771179199219,0.039837898012548265,-0.029974466877114084,-0.010262465253187823,1.2349438667297363,2019-06-20 14:49:10:422
-7.6038681640625,-7.588306091308594,0.22205880737304687,0.04010421412155619,-0.03050709909512993,-0.010928255525707633,1.2400639057159424,2019-06-20 14:49:10:427
-7.585911926269531,-7.576335266113281,0.19692007446289062,0.039837898012548265,-0.030773415204137854,-0.01066193941669971,1.2451839447021484,2019-06-20 14:49:10:433
-7.59429150390625,-7.582320678710937,0.20889089965820312,0.04037053023056411,-0.03037394104062597,-0.009197200817156128,1.2500479221343994,2019-06-20 14:49:10:437
-7.619430236816406,-7.5404227905273435,0.2627596130371094,0.039704739958044306,-0.031306047422153704,-0.009729833035171977,1.2551679611206055,2019-06-20 14:49:10:443
-7.596685668945312,-7.572744018554688,0.24121212768554687,0.03957158190354034,-0.03050709909512993,-0.010262465253187823,1.2600319385528564,2019-06-20 14:49:10:447
-7.57513818359375,-7.566758605957031,0.25318295288085935,0.03943842384903638,-0.029042360495586353,-0.009862991089675938,1.2651519775390625,2019-06-20 14:49:10:453
-7.577532348632812,-7.578729431152343,0.26395669555664064,0.03877263357651657,-0.029441834659098238,-0.00933035887166009,1.2700159549713135,2019-06-20 14:49:10:457
-7.553590698242187,-7.561970275878906,0.25318295288085935,0.03943842384903638,-0.029308676604594276,-0.009596674980668015,1.2751359939575195,2019-06-20 14:49:10:463
-7.588306091308594,-7.570349853515625,0.2735333557128906,0.03997105606705223,-0.0295749927136022,-0.009463516926164052,1.2799999713897705,2019-06-20 14:49:10:467
-7.607459411621093,-7.567955688476562,0.28311001586914064,0.040636846339572034,-0.028376570223066545,-0.01066193941669971,1.2851200103759766,2019-06-20 14:49:10:473
-7.614641906738281,-7.581123596191406,0.2555771179199219,0.04090316244857996,-0.029441834659098238,-0.0099961491441799,1.2899839878082275,2019-06-20 14:49:10:477
-7.588306091308594,-7.558379028320313,0.2615625305175781,0.040770004394076,-0.02970815076810616,-0.009596674980668015,1.2951040267944336,2019-06-20 14:49:10:482
-7.631401062011719,-7.549999450683593,0.2926866760253906,0.04037053023056411,-0.029308676604594276,-0.009197200817156128,1.2999680042266846,2019-06-20 14:49:10:487
-7.620627319335937,-7.553590698242187,0.2855041809082031,0.040770004394076,-0.02890920244108239,-0.009729833035171977,1.3050880432128906,2019-06-20 14:49:10:492
-7.623021484375,-7.528451965332031,0.22086172485351563,0.04037053023056411,-0.028642886332074468,-0.010395623307691787,1.3099520206451416,2019-06-20 14:49:10:497
-7.631401062011719,-7.551196533203125,0.22205880737304687,0.04010421412155619,-0.029042360495586353,-0.010395623307691787,1.3150718212127686,2019-06-20 14:49:10:502
-7.6038681640625,-7.542816955566406,0.25198587036132813,0.03997105606705223,-0.029441834659098238,-0.011061413580211595,1.3201918601989746,2019-06-20 14:49:10:508
-7.615838989257813,-7.553590698242187,0.21966464233398436,0.040770004394076,-0.029308676604594276,-0.011194571634715558,1.3250558376312256,2019-06-20 14:49:10:512
-7.623021484375,-7.552393615722656,0.2603654479980469,0.04037053023056411,-0.028509728277570506,-0.010795097471203672,1.3301758766174316,2019-06-20 14:49:10:518
-7.606262329101562,-7.551196533203125,0.29148959350585935,0.04116947855758789,-0.029042360495586353,-0.011460887743723482,1.3350398540496826,2019-06-20 14:49:10:522
-7.576335266113281,-7.572744018554688,0.22205880737304687,0.04116947855758789,-0.0295749927136022,-0.011594045798227443,1.3401598930358887,2019-06-20 14:49:10:528
-7.587109008789063,-7.58471484375,0.23881796264648436,0.040770004394076,-0.030107624931618046,-0.010795097471203672,1.3450238704681396,2019-06-20 14:49:10:532
-7.587109008789063,-7.5691527709960935,0.24360629272460937,0.04116947855758789,-0.03037394104062597,-0.009862991089675938,1.3501439094543457,2019-06-20 14:49:10:538
-7.58471484375,-7.55598486328125,0.24719754028320312,0.04090316244857996,-0.03050709909512993,-0.010528781362195748,1.3550078868865967,2019-06-20 14:49:10:542
-7.581123596191406,-7.581123596191406,0.22086172485351563,0.04103632050308392,-0.03143920547665766,-0.010928255525707633,1.3601279258728027,2019-06-20 14:49:10:548
-7.58471484375,-7.5655615234375,0.21248214721679687,0.040770004394076,-0.031039731313145778,-0.012392994125251213,1.3649919033050537,2019-06-20 14:49:10:552
-7.579926513671875,-7.576335266113281,0.22804421997070312,0.04010421412155619,-0.029308676604594276,-0.011727203852731405,1.3701119422912598,2019-06-20 14:49:10:558
-7.581123596191406,-7.579926513671875,0.2424092102050781,0.04023737217606015,-0.03037394104062597,-0.012925626343267063,1.3749759197235107,2019-06-20 14:49:10:562
-7.608656494140625,-7.561970275878906,0.22205880737304687,0.040503688285068076,-0.031306047422153704,-0.012526152179755175,1.3800959587097168,2019-06-20 14:49:10:567
-7.58471484375,-7.564364440917968,0.2232558898925781,0.040770004394076,-0.0295749927136022,-0.012259836070747251,1.3849599361419678,2019-06-20 14:49:10:572
-7.58471484375,-7.55598486328125,0.25797128295898436,0.04103632050308392,-0.029175518550090315,-0.012792468288763102,1.3900799751281738,2019-06-20 14:49:10:577
-7.600276916503906,-7.549999450683593,0.2783216857910156,0.040636846339572034,-0.029042360495586353,-0.011993519961739328,1.3949439525604248,2019-06-20 14:49:10:582
-7.578729431152343,-7.582320678710937,0.2807158508300781,0.039837898012548265,-0.0295749927136022,-0.010395623307691787,1.4000639915466309,2019-06-20 14:49:10:587
-7.570349853515625,-7.587109008789063,0.21008798217773436,0.04023737217606015,-0.029175518550090315,-0.010528781362195748,1.405184030532837,2019-06-20 14:49:10:593
-7.549999450683593,-7.549999450683593,0.19931423950195312,0.040770004394076,-0.028376570223066545,-0.011860361907235367,1.410048007965088,2019-06-20 14:49:10:597
-7.544014038085938,-7.570349853515625,0.22565005493164061,0.040636846339572034,-0.02970815076810616,-0.011727203852731405,1.415168046951294,2019-06-20 14:49:10:603
-7.572744018554688,-7.559576110839844,0.24480337524414061,0.04023737217606015,-0.029308676604594276,-0.01132772968921952,1.420032024383545,2019-06-20 14:49:10:607
-7.581123596191406,-7.567955688476562,0.2675479431152344,0.040503688285068076,-0.02877604438657843,-0.010262465253187823,1.4251518249511719,2019-06-20 14:49:10:613
-7.559576110839844,-7.557181945800781,0.24480337524414061,0.040636846339572034,-0.027311305787034845,-0.010928255525707633,1.430016040802002,2019-06-20 14:49:10:617
-7.595488586425781,-7.564364440917968,0.21966464233398436,0.04090316244857996,-0.028376570223066545,-0.010129307198683862,1.435135841369629,2019-06-20 14:49:10:623
-7.576335266113281,-7.5547877807617185,0.24839462280273436,0.04143579466659581,-0.02877604438657843,-0.009862991089675938,1.4399998188018799,2019-06-20 14:49:10:627
-7.577532348632812,-7.5691527709960935,0.24959170532226563,0.041302636612091846,-0.029841308822610123,-0.010262465253187823,1.445119857788086,2019-06-20 14:49:10:633
-7.585911926269531,-7.578729431152343,0.2615625305175781,0.040636846339572034,-0.029175518550090315,-0.009197200817156128,1.449983835220337,2019-06-20 14:49:10:637
-7.596685668945312,-7.572744018554688,0.24600045776367188,0.04103632050308392,-0.028642886332074468,-0.008531410544636318,1.455103874206543,2019-06-20 14:49:10:642
-7.587109008789063,-7.567955688476562,0.23402963256835937,0.040770004394076,-0.028376570223066545,-0.008797726653644243,1.459967851638794,2019-06-20 14:49:10:647
-7.578729431152343,-7.53683154296875,0.25198587036132813,0.040636846339572034,-0.028243412168562583,-0.008930884708148205,1.465087890625,2019-06-20 14:49:10:652
-7.600276916503906,-7.564364440917968,0.2555771179199219,0.040770004394076,-0.028376570223066545,-0.008930884708148205,1.469951868057251,2019-06-20 14:49:10:657
-7.564364440917968,-7.570349853515625,0.2615625305175781,0.040770004394076,-0.02970815076810616,-0.008131936381124433,1.475071907043457,2019-06-20 14:49:10:662
-7.558379028320313,-7.572744018554688,0.2747304382324219,0.04103632050308392,-0.02890920244108239,-0.008531410544636318,1.480191946029663,2019-06-20 14:49:10:668
-7.589503173828125,-7.57513818359375,0.2603654479980469,0.04023737217606015,-0.029175518550090315,-0.007998778326620472,1.485055923461914,2019-06-20 14:49:10:672
-7.579926513671875,-7.5655615234375,0.24600045776367188,0.039704739958044306,-0.02877604438657843,-0.008265094435628395,1.4901759624481201,2019-06-20 14:49:10:678
-7.588306091308594,-7.566758605957031,0.19093466186523436,0.03997105606705223,-0.02890920244108239,-0.008398252490132357,1.495039939880371,2019-06-20 14:49:10:682
-7.578729431152343,-7.587109008789063,0.22205880737304687,0.040503688285068076,-0.02877604438657843,-0.008398252490132357,1.5001599788665771,2019-06-20 14:49:10:688
-7.5691527709960935,-7.557181945800781,0.24600045776367188,0.03997105606705223,-0.028642886332074468,-0.008131936381124433,1.5050239562988281,2019-06-20 14:49:10:692
-7.602671081542969,-7.57513818359375,0.2603654479980469,0.03957158190354034,-0.030240782986122008,-0.008398252490132357,1.5101439952850342,2019-06-20 14:49:10:698
-7.577532348632812,-7.560773193359375,0.2543800354003906,0.04010421412155619,-0.0295749927136022,-0.008664568599140282,1.5150079727172852,2019-06-20 14:49:10:702
-7.582320678710937,-7.532043212890625,0.2543800354003906,0.039038949685524495,-0.029441834659098238,-0.008398252490132357,1.5201280117034912,2019-06-20 14:49:10:708
-7.579926513671875,-7.541619873046875,0.23043838500976563,0.03957158190354034,-0.029841308822610123,-0.008265094435628395,1.5249919891357422,2019-06-20 14:49:10:712
-7.576335266113281,-7.571546936035156,0.23642379760742188,0.03917210774002846,-0.030107624931618046,-0.0074661461086046235,1.5301120281219482,2019-06-20 14:49:10:718
-7.59429150390625,-7.593094421386718,0.24959170532226563,0.03863947552201261,-0.029175518550090315,-0.008797726653644243,1.5349760055541992,2019-06-20 14:49:10:722
-7.5978827514648435,-7.588306091308594,0.22565005493164061,0.0379736852494928,-0.0295749927136022,-0.008664568599140282,1.5400960445404053,2019-06-20 14:49:10:727
-7.600276916503906,-7.546408203125,0.25318295288085935,0.03917210774002846,-0.028642886332074468,-0.008398252490132357,1.5449600219726562,2019-06-20 14:49:10:732
-7.595488586425781,-7.564364440917968,0.2663508605957031,0.04010421412155619,-0.029042360495586353,-0.00786562027211651,1.5500798225402832,2019-06-20 14:49:10:737
-7.596685668945312,-7.572744018554688,0.2591683654785156,0.04023737217606015,-0.030240782986122008,-0.008131936381124433,1.5549440383911133,2019-06-20 14:49:10:742
-7.599079833984375,-7.549999450683593,0.20051132202148436,0.03997105606705223,-0.03117288936764974,-0.00786562027211651,1.5600638389587402,2019-06-20 14:49:10:747
-7.58471484375,-7.559576110839844,0.24480337524414061,0.03957158190354034,-0.0295749927136022,-0.0071998299995967,1.5651838779449463,2019-06-20 14:49:10:753
-7.6038681640625,-7.557181945800781,0.21846755981445312,0.03850631746750865,-0.029841308822610123,-0.0074661461086046235,1.5700478553771973,2019-06-20 14:49:10:757
-7.587109008789063,-7.587109008789063,0.24480337524414061,0.03877263357651657,-0.03050709909512993,-0.0071998299995967,1.5751678943634033,2019-06-20 14:49:10:763
-7.585911926269531,-7.572744018554688,0.2878983459472656,0.040770004394076,-0.030773415204137854,-0.007332988054100662,1.5800318717956543,2019-06-20 14:49:10:767
-7.631401062011719,-7.5691527709960935,0.2615625305175781,0.04143579466659581,-0.03050709909512993,-0.008930884708148205,1.5851519107818604,2019-06-20 14:49:10:773
-7.620627319335937,-7.579926513671875,0.23762088012695312,0.041302636612091846,-0.02970815076810616,-0.00933035887166009,1.5900158882141113,2019-06-20 14:49:10:777
-7.624218566894531,-7.570349853515625,0.22086172485351563,0.03997105606705223,-0.02877604438657843,-0.009197200817156128,1.5951359272003174,2019-06-20 14:49:10:783
-7.631401062011719,-7.585911926269531,0.26395669555664064,0.04023737217606015,-0.029974466877114084,-0.009064042762652167,1.5999999046325684,2019-06-20 14:49:10:787
-7.606262329101562,-7.55598486328125,0.2735333557128906,0.04010421412155619,-0.028642886332074468,-0.008531410544636318,1.6051199436187744,2019-06-20 14:49:10:793
-7.599079833984375,-7.570349853515625,0.2555771179199219,0.040503688285068076,-0.02797709605955466,-0.009064042762652167,1.6099839210510254,2019-06-20 14:49:10:797
-7.608656494140625,-7.573941101074219,0.24121212768554687,0.04037053023056411,-0.02811025411405862,-0.009596674980668015,1.6151039600372314,2019-06-20 14:49:10:802
-7.585911926269531,-7.572744018554688,0.2663508605957031,0.04116947855758789,-0.0295749927136022,-0.009596674980668015,1.6199679374694824,2019-06-20 14:49:10:807
-7.5691527709960935,-7.578729431152343,0.2328325500488281,0.040503688285068076,-0.029308676604594276,-0.008664568599140282,1.6250879764556885,2019-06-20 14:49:10:812
-7.563167358398437,-7.578729431152343,0.22924130249023436,0.04023737217606015,-0.029308676604594276,-0.008664568599140282,1.6299519538879395,2019-06-20 14:49:10:817
-7.558379028320313,-7.576335266113281,0.2591683654785156,0.04010421412155619,-0.029042360495586353,-0.009463516926164052,1.6350719928741455,2019-06-20 14:49:10:822
-7.57513818359375,-7.601473999023438,0.25797128295898436,0.04023737217606015,-0.029175518550090315,-0.009197200817156128,1.6401920318603516,2019-06-20 14:49:10:828
-7.57513818359375,-7.549999450683593,0.2136792297363281,0.040636846339572034,-0.028243412168562583,-0.007998778326620472,1.6450560092926025,2019-06-20 14:49:10:832
-7.5691527709960935,-7.576335266113281,0.25078878784179687,0.040770004394076,-0.030240782986122008,-0.00933035887166009,1.6501760482788086,2019-06-20 14:49:10:838
-7.576335266113281,-7.563167358398437,0.25198587036132813,0.04143579466659581,-0.02970815076810616,-0.009197200817156128,1.6550400257110596,2019-06-20 14:49:10:842
-7.572744018554688,-7.5547877807617185,0.2926866760253906,0.04103632050308392,-0.02890920244108239,-0.009596674980668015,1.6601598262786865,2019-06-20 14:49:10:848
-7.5835177612304685,-7.564364440917968,0.24121212768554687,0.04156895272109977,-0.027444463841538806,-0.009197200817156128,1.6650240421295166,2019-06-20 14:49:10:852
-7.599079833984375,-7.542816955566406,0.27113919067382813,0.04090316244857996,-0.028243412168562583,-0.00933035887166009,1.6701438426971436,2019-06-20 14:49:10:858
-7.620627319335937,-7.551196533203125,0.2878983459472656,0.04143579466659581,-0.028509728277570506,-0.008398252490132357,1.6750078201293945,2019-06-20 14:49:10:862
-7.582320678710937,-7.541619873046875,0.25198587036132813,0.041702110775603735,-0.029841308822610123,-0.008398252490132357,1.6801278591156006,2019-06-20 14:49:10:868
-7.5691527709960935,-7.553590698242187,0.23043838500976563,0.040770004394076,-0.029441834659098238,-0.008797726653644243,1.6849918365478516,2019-06-20 14:49:10:872
-7.567955688476562,-7.541619873046875,0.25078878784179687,0.039704739958044306,-0.029042360495586353,-0.009197200817156128,1.6901118755340576,2019-06-20 14:49:10:878
-7.573941101074219,-7.571546936035156,0.2041025695800781,0.03997105606705223,-0.029175518550090315,-0.008664568599140282,1.6949758529663086,2019-06-20 14:49:10:882
-7.577532348632812,-7.521269470214843,0.21248214721679687,0.04090316244857996,-0.029175518550090315,-0.008664568599140282,1.7000958919525146,2019-06-20 14:49:10:887
-7.585911926269531,-7.5404227905273435,0.24001504516601563,0.040636846339572034,-0.029175518550090315,-0.009463516926164052,1.7049598693847656,2019-06-20 14:49:10:892
-7.590700256347656,-7.548802368164062,0.24480337524414061,0.04116947855758789,-0.02811025411405862,-0.009064042762652167,1.7100799083709717,2019-06-20 14:49:10:897
-7.596685668945312,-7.571546936035156,0.2867012634277344,0.04183526883010769,-0.02771077995054673,-0.009064042762652167,1.7151999473571777,2019-06-20 14:49:10:903
-7.559576110839844,-7.548802368164062,0.25078878784179687,0.04103632050308392,-0.02797709605955466,-0.008930884708148205,1.7200639247894287,2019-06-20 14:49:10:907
-7.576335266113281,-7.587109008789063,0.24600045776367188,0.03997105606705223,-0.028376570223066545,-0.009064042762652167,1.7251839637756348,2019-06-20 14:49:10:913
-7.57513818359375,-7.6038681640625,0.26395669555664064,0.04103632050308392,-0.029042360495586353,-0.009596674980668015,1.7300479412078857,2019-06-20 14:49:10:917
-7.587109008789063,-7.609853576660156,0.2675479431152344,0.040636846339572034,-0.028243412168562583,-0.009862991089675938,1.7351679801940918,2019-06-20 14:49:10:923
-7.593094421386718,-7.581123596191406,0.25078878784179687,0.04010421412155619,-0.027577621896042768,-0.009729833035171977,1.7400319576263428,2019-06-20 14:49:10:927
-7.581123596191406,-7.576335266113281,0.19332882690429687,0.040770004394076,-0.02970815076810616,-0.010129307198683862,1.7451519966125488,2019-06-20 14:49:10:933
-7.571546936035156,-7.577532348632812,0.2136792297363281,0.04037053023056411,-0.030240782986122008,-0.010528781362195748,1.7500159740447998,2019-06-20 14:49:10:937
-7.588306091308594,-7.561970275878906,0.2136792297363281,0.03997105606705223,-0.030640257149633893,-0.009862991089675938,1.7551360130310059,2019-06-20 14:49:10:943
-7.572744018554688,-7.55598486328125,0.21487631225585938,0.04023737217606015,-0.030107624931618046,-0.008531410544636318,1.7599999904632568,2019-06-20 14:49:10:947
-7.593094421386718,-7.563167358398437,0.18854049682617188,0.040636846339572034,-0.029308676604594276,-0.008930884708148205,1.765120029449463,2019-06-20 14:49:10:953
-7.590700256347656,-7.5655615234375,0.21727047729492188,0.041702110775603735,-0.030240782986122008,-0.008664568599140282,1.7699840068817139,2019-06-20 14:49:10:957
-7.607459411621093,-7.571546936035156,0.2136792297363281,0.04116947855758789,-0.0295749927136022,-0.009463516926164052,1.77510404586792,2019-06-20 14:49:10:962
-7.571546936035156,-7.571546936035156,0.19572299194335938,0.04103632050308392,-0.02877604438657843,-0.009729833035171977,1.779968023300171,2019-06-20 14:49:10:967
-7.600276916503906,-7.545211120605469,0.2041025695800781,0.04143579466659581,-0.029308676604594276,-0.009197200817156128,1.7850878238677979,2019-06-20 14:49:10:972
-7.599079833984375,-7.561970275878906,0.23762088012695312,0.040770004394076,-0.029974466877114084,-0.008930884708148205,1.789952039718628,2019-06-20 14:49:10:977
-7.561970275878906,-7.561970275878906,0.22804421997070312,0.04090316244857996,-0.02890920244108239,-0.008797726653644243,1.7950718402862549,2019-06-20 14:49:10:982
-7.563167358398437,-7.551196533203125,0.23881796264648436,0.040503688285068076,-0.0295749927136022,-0.009064042762652167,1.800191879272461,2019-06-20 14:49:10:988
-7.581123596191406,-7.57513818359375,0.2615625305175781,0.04010421412155619,-0.02890920244108239,-0.009197200817156128,1.805055856704712,2019-06-20 14:49:10:992
-7.553590698242187,-7.589503173828125,0.25198587036132813,0.04116947855758789,-0.029308676604594276,-0.008664568599140282,1.810175895690918,2019-06-20 14:49:10:998
-7.577532348632812,-7.573941101074219,0.23163546752929687,0.041302636612091846,-0.0295749927136022,-0.008398252490132357,1.815039873123169,2019-06-20 14:49:11:002
-7.59429150390625,-7.579926513671875,0.25078878784179687,0.040770004394076,-0.029308676604594276,-0.008265094435628395,1.820159912109375,2019-06-20 14:49:11:008
-7.585911926269531,-7.590700256347656,0.24839462280273436,0.039837898012548265,-0.028509728277570506,-0.0077324622176125485,1.825023889541626,2019-06-20 14:49:11:012
-7.571546936035156,-7.600276916503906,0.22924130249023436,0.03997105606705223,-0.028642886332074468,-0.006933513890588777,1.830143928527832,2019-06-20 14:49:11:018
-7.577532348632812,-7.570349853515625,0.23522671508789061,0.039837898012548265,-0.02797709605955466,-0.0074661461086046235,1.835007905960083,2019-06-20 14:49:11:022
-7.595488586425781,-7.5547877807617185,0.20889089965820312,0.04010421412155619,-0.02811025411405862,-0.006800355836084815,1.840127944946289,2019-06-20 14:49:11:028
-7.563167358398437,-7.572744018554688,0.24001504516601563,0.04037053023056411,-0.02784393800505069,-0.0071998299995967,1.84499192237854,2019-06-20 14:49:11:032
-7.560773193359375,-7.570349853515625,0.22924130249023436,0.04103632050308392,-0.028509728277570506,-0.007332988054100662,1.850111961364746,2019-06-20 14:49:11:038
-7.561970275878906,-7.566758605957031,0.23762088012695312,0.040770004394076,-0.0295749927136022,-0.006267723618068967,1.854975938796997,2019-06-20 14:49:11:042
-7.578729431152343,-7.6038681640625,0.24719754028320312,0.04090316244857996,-0.02890920244108239,-0.006134565563565005,1.8600959777832031,2019-06-20 14:49:11:047
-7.573941101074219,-7.590700256347656,0.2878983459472656,0.04090316244857996,-0.02890920244108239,-0.006267723618068967,1.864959955215454,2019-06-20 14:49:11:052
-7.5835177612304685,-7.581123596191406,0.25797128295898436,0.04090316244857996,-0.029175518550090315,-0.005868249454557082,1.8700799942016602,2019-06-20 14:49:11:057
-7.600276916503906,-7.567955688476562,0.21966464233398436,0.041302636612091846,-0.029175518550090315,-0.006267723618068967,1.8749439716339111,2019-06-20 14:49:11:062
-7.579926513671875,-7.559576110839844,0.19931423950195312,0.04090316244857996,-0.02877604438657843,-0.006267723618068967,1.8800640106201172,2019-06-20 14:49:11:067
-7.608656494140625,-7.546408203125,0.23163546752929687,0.040770004394076,-0.028642886332074468,-0.00653403972707689,1.8851840496063232,2019-06-20 14:49:11:073
-7.591897338867187,-7.548802368164062,0.25318295288085935,0.041702110775603735,-0.02771077995054673,-0.005868249454557082,1.8900480270385742,2019-06-20 14:49:11:077
-7.577532348632812,-7.558379028320313,0.23881796264648436,0.041702110775603735,-0.027577621896042768,-0.006800355836084815,1.8951678276062012,2019-06-20 14:49:11:083
-7.582320678710937,-7.579926513671875,0.24719754028320312,0.04116947855758789,-0.028509728277570506,-0.005868249454557082,1.9000320434570312,2019-06-20 14:49:11:087
-7.577532348632812,-7.563167358398437,0.24121212768554687,0.04103632050308392,-0.02970815076810616,-0.0050693011275333094,1.9051518440246582,2019-06-20 14:49:11:093
-7.601473999023438,-7.578729431152343,0.2424092102050781,0.04103632050308392,-0.02970815076810616,-0.00653403972707689,1.9100158214569092,2019-06-20 14:49:11:097
-7.587109008789063,-7.599079833984375,0.27712460327148436,0.040770004394076,-0.02970815076810616,-0.0064008816725729285,1.9151358604431152,2019-06-20 14:49:11:103
-7.576335266113281,-7.601473999023438,0.24600045776367188,0.039837898012548265,-0.029841308822610123,-0.006667197781580852,1.9199998378753662,2019-06-20 14:49:11:107
-7.605065246582031,-7.552393615722656,0.2603654479980469,0.040503688285068076,-0.02771077995054673,-0.006134565563565005,1.9251198768615723,2019-06-20 14:49:11:113
-7.611050659179687,-7.559576110839844,0.24959170532226563,0.04116947855758789,-0.027577621896042768,-0.00653403972707689,1.9299838542938232,2019-06-20 14:49:11:117
-7.591897338867187,-7.53683154296875,0.23522671508789061,0.040770004394076,-0.02811025411405862,-0.0070666719450927385,1.9351038932800293,2019-06-20 14:49:11:122
-7.591897338867187,-7.557181945800781,0.21966464233398436,0.04116947855758789,-0.027178147732530883,-0.00653403972707689,1.9399678707122803,2019-06-20 14:49:11:127
-7.589503173828125,-7.551196533203125,0.2424092102050781,0.042101584939115616,-0.027577621896042768,-0.006134565563565005,1.9450879096984863,2019-06-20 14:49:11:132
-7.595488586425781,-7.548802368164062,0.2783216857910156,0.04116947855758789,-0.02771077995054673,-0.0064008816725729285,1.9499518871307373,2019-06-20 14:49:11:137
-7.591897338867187,-7.55598486328125,0.21128506469726563,0.041302636612091846,-0.027444463841538806,-0.006933513890588777,1.9550719261169434,2019-06-20 14:49:11:142
-7.620627319335937,-7.551196533203125,0.21008798217773436,0.04196842688461166,-0.02704498967802692,-0.00653403972707689,1.9601919651031494,2019-06-20 14:49:11:148
-7.609853576660156,-7.566758605957031,0.19213174438476563,0.04143579466659581,-0.027178147732530883,-0.0071998299995967,1.9650559425354004,2019-06-20 14:49:11:152
-7.6122477416992185,-7.566758605957031,0.2747304382324219,0.041702110775603735,-0.02704498967802692,-0.007998778326620472,1.9701759815216064,2019-06-20 14:49:11:158
-7.6038681640625,-7.5691527709960935,0.2795187683105469,0.04196842688461166,-0.02771077995054673,-0.007332988054100662,1.9750399589538574,2019-06-20 14:49:11:162
-7.636189392089843,-7.57513818359375,0.22445297241210938,0.042367901048123546,-0.027444463841538806,-0.0074661461086046235,1.9801599979400635,2019-06-20 14:49:11:168
-7.59429150390625,-7.581123596191406,0.21128506469726563,0.041702110775603735,-0.028243412168562583,-0.0071998299995967,1.9850239753723145,2019-06-20 14:49:11:172
-7.591897338867187,-7.560773193359375,0.2232558898925781,0.03997105606705223,-0.02970815076810616,-0.007332988054100662,1.9901440143585205,2019-06-20 14:49:11:178
-7.5978827514648435,-7.541619873046875,0.22565005493164061,0.040503688285068076,-0.0295749927136022,-0.007332988054100662,1.9950079917907715,2019-06-20 14:49:11:182
-7.57513818359375,-7.561970275878906,0.21128506469726563,0.04143579466659581,-0.029441834659098238,-0.00933035887166009,2.0001280307769775,2019-06-20 14:49:11:188
-7.6038681640625,-7.551196533203125,0.24839462280273436,0.04037053023056411,-0.029441834659098238,-0.007998778326620472,2.0049920082092285,2019-06-20 14:49:11:192
-7.606262329101562,-7.544014038085938,0.27233627319335935,0.04037053023056411,-0.029308676604594276,-0.008531410544636318,2.0101120471954346,2019-06-20 14:49:11:198
-7.606262329101562,-7.542816955566406,0.2603654479980469,0.04143579466659581,-0.029441834659098238,-0.0074661461086046235,2.0149760246276855,2019-06-20 14:49:11:202
-7.6038681640625,-7.552393615722656,0.2615625305175781,0.04143579466659581,-0.030640257149633893,-0.00786562027211651,2.0200958251953125,2019-06-20 14:49:11:207
-7.607459411621093,-7.552393615722656,0.27113919067382813,0.04116947855758789,-0.030240782986122008,-0.00786562027211651,2.0249600410461426,2019-06-20 14:49:11:212
-7.617036071777344,-7.570349853515625,0.2627596130371094,0.04023737217606015,-0.029308676604594276,-0.00786562027211651,2.0300798416137695,2019-06-20 14:49:11:217
-7.570349853515625,-7.572744018554688,0.2627596130371094,0.040503688285068076,-0.03037394104062597,-0.007998778326620472,2.0351998805999756,2019-06-20 14:49:11:223
-7.600276916503906,-7.561970275878906,0.23762088012695312,0.04103632050308392,-0.029175518550090315,-0.008131936381124433,2.0400638580322266,2019-06-20 14:49:11:227
-7.588306091308594,-7.558379028320313,0.2687450256347656,0.040770004394076,-0.029308676604594276,-0.008664568599140282,2.0451838970184326,2019-06-20 14:49:11:233
-7.600276916503906,-7.572744018554688,0.2591683654785156,0.04090316244857996,-0.029308676604594276,-0.009729833035171977,2.0500478744506836,2019-06-20 14:49:11:237
-7.595488586425781,-7.582320678710937,0.24360629272460937,0.04103632050308392,-0.029841308822610123,-0.008930884708148205,2.0551679134368896,2019-06-20 14:49:11:243
-7.623021484375,-7.577532348632812,0.2567742004394531,0.04023737217606015,-0.030773415204137854,-0.008398252490132357,2.0600318908691406,2019-06-20 14:49:11:247
-7.595488586425781,-7.558379028320313,0.2627596130371094,0.03943842384903638,-0.030640257149633893,-0.009729833035171977,2.0651519298553467,2019-06-20 14:49:11:253
-7.587109008789063,-7.549999450683593,0.29627792358398436,0.04010421412155619,-0.029441834659098238,-0.008531410544636318,2.0700159072875977,2019-06-20 14:49:11:257
-7.590700256347656,-7.5547877807617185,0.2615625305175781,0.039704739958044306,-0.029308676604594276,-0.009064042762652167,2.0751359462738037,2019-06-20 14:49:11:263
-7.588306091308594,-7.558379028320313,0.25198587036132813,0.038905791631020537,-0.029441834659098238,-0.009463516926164052,2.0799999237060547,2019-06-20 14:49:11:267
-7.576335266113281,-7.578729431152343,0.24959170532226563,0.039837898012548265,-0.029974466877114084,-0.009729833035171977,2.0851199626922607,2019-06-20 14:49:11:273
-7.587109008789063,-7.561970275878906,0.24360629272460937,0.04037053023056411,-0.029441834659098238,-0.009729833035171977,2.0899839401245117,2019-06-20 14:49:11:277
-7.595488586425781,-7.577532348632812,0.22565005493164061,0.040636846339572034,-0.0295749927136022,-0.009463516926164052,2.0951039791107178,2019-06-20 14:49:11:282
-7.621824401855468,-7.547605285644531,0.23043838500976563,0.04010421412155619,-0.02970815076810616,-0.009064042762652167,2.0999679565429688,2019-06-20 14:49:11:287
-7.601473999023438,-7.585911926269531,0.26515377807617185,0.03997105606705223,-0.029974466877114084,-0.0099961491441799,2.105087995529175,2019-06-20 14:49:11:292
-7.596685668945312,-7.576335266113281,0.25198587036132813,0.04037053023056411,-0.02970815076810616,-0.009064042762652167,2.109951972961426,2019-06-20 14:49:11:297
-7.591897338867187,-7.572744018554688,0.25318295288085935,0.039837898012548265,-0.030906573258641816,-0.008531410544636318,2.115072011947632,2019-06-20 14:49:11:302
-7.577532348632812,-7.552393615722656,0.24121212768554687,0.03997105606705223,-0.030107624931618046,-0.009197200817156128,2.120192050933838,2019-06-20 14:49:11:308
-7.557181945800781,-7.567955688476562,0.21966464233398436,0.039837898012548265,-0.030773415204137854,-0.008797726653644243,2.125056028366089,2019-06-20 14:49:11:312
-7.57513818359375,-7.5547877807617185,0.27712460327148436,0.03997105606705223,-0.031306047422153704,-0.008930884708148205,2.130175828933716,2019-06-20 14:49:11:318
-7.576335266113281,-7.566758605957031,0.2627596130371094,0.04023737217606015,-0.030240782986122008,-0.009197200817156128,2.135040044784546,2019-06-20 14:49:11:322
-7.577532348632812,-7.5691527709960935,0.26994210815429687,0.03997105606705223,-0.02890920244108239,-0.008531410544636318,2.140159845352173,2019-06-20 14:49:11:328
-7.611050659179687,-7.5691527709960935,0.2424092102050781,0.03957158190354034,-0.02890920244108239,-0.008664568599140282,2.145023822784424,2019-06-20 14:49:11:332
-7.579926513671875,-7.564364440917968,0.23522671508789061,0.03943842384903638,-0.028243412168562583,-0.008664568599140282,2.15014386177063,2019-06-20 14:49:11:338
-7.587109008789063,-7.5691527709960935,0.2543800354003906,0.03943842384903638,-0.02877604438657843,-0.009729833035171977,2.155007839202881,2019-06-20 14:49:11:342
-7.609853576660156,-7.548802368164062,0.26515377807617185,0.03997105606705223,-0.029441834659098238,-0.009862991089675938,2.160127878189087,2019-06-20 14:49:11:348
-7.5835177612304685,-7.559576110839844,0.29627792358398436,0.04010421412155619,-0.028509728277570506,-0.009862991089675938,2.164991855621338,2019-06-20 14:49:11:352
-7.589503173828125,-7.564364440917968,0.2747304382324219,0.04010421412155619,-0.029308676604594276,-0.009862991089675938,2.170111894607544,2019-06-20 14:49:11:358
-7.578729431152343,-7.573941101074219,0.2998691711425781,0.04023737217606015,-0.02877604438657843,-0.009197200817156128,2.174975872039795,2019-06-20 14:49:11:362
-7.577532348632812,-7.577532348632812,0.21846755981445312,0.039038949685524495,-0.029042360495586353,-0.008664568599140282,2.180095911026001,2019-06-20 14:49:11:367
-7.58471484375,-7.579926513671875,0.24001504516601563,0.04023737217606015,-0.028376570223066545,-0.00933035887166009,2.184959888458252,2019-06-20 14:49:11:372
-7.588306091308594,-7.57513818359375,0.23402963256835937,0.03997105606705223,-0.02877604438657843,-0.00933035887166009,2.190079927444458,2019-06-20 14:49:11:377
-7.59429150390625,-7.545211120605469,0.24121212768554687,0.04037053023056411,-0.029175518550090315,-0.00933035887166009,2.194943904876709,2019-06-20 14:49:11:382
-7.576335266113281,-7.570349853515625,0.2424092102050781,0.040770004394076,-0.030107624931618046,-0.009197200817156128,2.200063943862915,2019-06-20 14:49:11:387
-7.579926513671875,-7.566758605957031,0.23642379760742188,0.04023737217606015,-0.029441834659098238,-0.009729833035171977,2.205183982849121,2019-06-20 14:49:11:393
-7.618233154296875,-7.564364440917968,0.22445297241210938,0.040636846339572034,-0.029308676604594276,-0.009197200817156128,2.210047960281372,2019-06-20 14:49:11:397
-7.606262329101562,-7.544014038085938,0.20529965209960938,0.04023737217606015,-0.029042360495586353,-0.009862991089675938,2.215167999267578,2019-06-20 14:49:11:403
-7.578729431152343,-7.544014038085938,0.2041025695800781,0.039704739958044306,-0.0295749927136022,-0.010395623307691787,2.220031976699829,2019-06-20 14:49:11:407
-7.581123596191406,-7.548802368164062,0.2555771179199219,0.03957158190354034,-0.029441834659098238,-0.0099961491441799,2.225152015686035,2019-06-20 14:49:11:413
-7.59429150390625,-7.563167358398437,0.2232558898925781,0.040503688285068076,-0.028509728277570506,-0.010129307198683862,2.230015993118286,2019-06-20 14:49:11:417
-7.564364440917968,-7.546408203125,0.22804421997070312,0.04037053023056411,-0.02797709605955466,-0.009862991089675938,2.235136032104492,2019-06-20 14:49:11:423
-7.572744018554688,-7.576335266113281,0.22684713745117188,0.04103632050308392,-0.02797709605955466,-0.009862991089675938,2.240000009536743,2019-06-20 14:49:11:427
-7.589503173828125,-7.579926513671875,0.2627596130371094,0.039837898012548265,-0.028509728277570506,-0.009064042762652167,2.245120048522949,2019-06-20 14:49:11:433
-7.571546936035156,-7.58471484375,0.2878983459472656,0.039704739958044306,-0.029042360495586353,-0.008797726653644243,2.2499840259552,2019-06-20 14:49:11:437
-7.578729431152343,-7.5404227905273435,0.24719754028320312,0.03997105606705223,-0.02811025411405862,-0.009862991089675938,2.255103826522827,2019-06-20 14:49:11:442
-7.557181945800781,-7.545211120605469,0.23881796264648436,0.040636846339572034,-0.027178147732530883,-0.009596674980668015,2.2599680423736572,2019-06-20 14:49:11:447
-7.596685668945312,-7.563167358398437,0.21727047729492188,0.03997105606705223,-0.027577621896042768,-0.010395623307691787,2.265087842941284,2019-06-20 14:49:11:452
-7.566758605957031,-7.552393615722656,0.2328325500488281,0.039837898012548265,-0.027444463841538806,-0.010928255525707633,2.269951820373535,2019-06-20 14:49:11:457
-7.557181945800781,-7.5691527709960935,0.22684713745117188,0.04023737217606015,-0.02811025411405862,-0.01066193941669971,2.275071859359741,2019-06-20 14:49:11:462
-7.599079833984375,-7.593094421386718,0.2687450256347656,0.04090316244857996,-0.029308676604594276,-0.010395623307691787,2.2801918983459473,2019-06-20 14:49:11:468
-7.6122477416992185,-7.606262329101562,0.25797128295898436,0.04116947855758789,-0.029175518550090315,-0.00933035887166009,2.2850558757781982,2019-06-20 14:49:11:472
-7.571546936035156,-7.600276916503906,0.2687450256347656,0.040770004394076,-0.03037394104062597,-0.009862991089675938,2.2901759147644043,2019-06-20 14:49:11:478
-7.576335266113281,-7.552393615722656,0.20889089965820312,0.04023737217606015,-0.031039731313145778,-0.010395623307691787,2.2950398921966553,2019-06-20 14:49:11:482
-7.559576110839844,-7.576335266113281,0.23881796264648436,0.04090316244857996,-0.03037394104062597,-0.01066193941669971,2.3001599311828613,2019-06-20 14:49:11:488
-7.5655615234375,-7.581123596191406,0.23522671508789061,0.04156895272109977,-0.02970815076810616,-0.009729833035171977,2.3050239086151123,2019-06-20 14:49:11:492
-7.5655615234375,-7.5835177612304685,0.24600045776367188,0.04196842688461166,-0.028243412168562583,-0.009729833035171977,2.3101439476013184,2019-06-20 14:49:11:498
-7.566758605957031,-7.581123596191406,0.2328325500488281,0.04196842688461166,-0.028642886332074468,-0.009596674980668015,2.3150079250335693,2019-06-20 14:49:11:502
-7.541619873046875,-7.566758605957031,0.22804421997070312,0.04090316244857996,-0.02784393800505069,-0.009862991089675938,2.3201279640197754,2019-06-20 14:49:11:508
-7.557181945800781,-7.573941101074219,0.2675479431152344,0.04103632050308392,-0.02811025411405862,-0.009197200817156128,2.3249919414520264,2019-06-20 14:49:11:512
-7.620627319335937,-7.5835177612304685,0.2807158508300781,0.04037053023056411,-0.027178147732530883,-0.00933035887166009,2.3301119804382324,2019-06-20 14:49:11:518
-7.567955688476562,-7.602671081542969,0.24600045776367188,0.04103632050308392,-0.028243412168562583,-0.009596674980668015,2.3349759578704834,2019-06-20 14:49:11:522
-7.558379028320313,-7.572744018554688,0.2950808410644531,0.04156895272109977,-0.02797709605955466,-0.010395623307691787,2.3400959968566895,2019-06-20 14:49:11:527
-7.579926513671875,-7.589503173828125,0.23881796264648436,0.04143579466659581,-0.02691183162352296,-0.009729833035171977,2.3449599742889404,2019-06-20 14:49:11:532
-7.582320678710937,-7.609853576660156,0.24839462280273436,0.04103632050308392,-0.027577621896042768,-0.00933035887166009,2.3500800132751465,2019-06-20 14:49:11:537
-7.558379028320313,-7.570349853515625,0.23881796264648436,0.04090316244857996,-0.02877604438657843,-0.009729833035171977,2.3552000522613525,2019-06-20 14:49:11:543
-7.577532348632812,-7.57513818359375,0.24719754028320312,0.042367901048123546,-0.028376570223066545,-0.010262465253187823,2.3600640296936035,2019-06-20 14:49:11:547
-7.582320678710937,-7.578729431152343,0.23522671508789061,0.04103632050308392,-0.02704498967802692,-0.007998778326620472,2.3651838302612305,2019-06-20 14:49:11:553
-7.573941101074219,-7.566758605957031,0.20649673461914062,0.04156895272109977,-0.028243412168562583,-0.008265094435628395,2.3700480461120605,2019-06-20 14:49:11:557
-7.605065246582031,-7.582320678710937,0.2603654479980469,0.041302636612091846,-0.02771077995054673,-0.008398252490132357,2.3751678466796875,2019-06-20 14:49:11:563
-7.6122477416992185,-7.591897338867187,0.2591683654785156,0.04116947855758789,-0.027577621896042768,-0.008398252490132357,2.3800318241119385,2019-06-20 14:49:11:567
-7.549999450683593,-7.577532348632812,0.24001504516601563,0.040503688285068076,-0.02970815076810616,-0.008131936381124433,2.3851518630981445,2019-06-20 14:49:11:573
-7.544014038085938,-7.566758605957031,0.22804421997070312,0.04116947855758789,-0.02877604438657843,-0.0074661461086046235,2.3900158405303955,2019-06-20 14:49:11:577
-7.589503173828125,-7.571546936035156,0.2950808410644531,0.041702110775603735,-0.029441834659098238,-0.006800355836084815,2.3951358795166016,2019-06-20 14:49:11:583
-7.589503173828125,-7.5547877807617185,0.26994210815429687,0.041302636612091846,-0.02811025411405862,-0.0074661461086046235,2.3999998569488525,2019-06-20 14:49:11:587
-7.578729431152343,-7.551196533203125,0.25797128295898436,0.042101584939115616,-0.02771077995054673,-0.006933513890588777,2.4051198959350586,2019-06-20 14:49:11:593
-7.593094421386718,-7.57513818359375,0.2603654479980469,0.04183526883010769,-0.02797709605955466,-0.006800355836084815,2.4099838733673096,2019-06-20 14:49:11:597
-7.6038681640625,-7.567955688476562,0.2615625305175781,0.041702110775603735,-0.02890920244108239,-0.006667197781580852,2.4151039123535156,2019-06-20 14:49:11:602
-7.589503173828125,-7.5835177612304685,0.23402963256835937,0.040503688285068076,-0.02784393800505069,-0.007332988054100662,2.4199678897857666,2019-06-20 14:49:11:607
-7.587109008789063,-7.58471484375,0.2567742004394531,0.041302636612091846,-0.028376570223066545,-0.007332988054100662,2.4250879287719727,2019-06-20 14:49:11:612
-7.566758605957031,-7.58471484375,0.22445297241210938,0.04090316244857996,-0.029974466877114084,-0.006667197781580852,2.4299519062042236,2019-06-20 14:49:11:617
-7.591897338867187,-7.590700256347656,0.2543800354003906,0.04037053023056411,-0.030773415204137854,-0.006134565563565005,2.4350719451904297,2019-06-20 14:49:11:622
-7.590700256347656,-7.585911926269531,0.22804421997070312,0.04143579466659581,-0.03050709909512993,-0.006267723618068967,2.4401919841766357,2019-06-20 14:49:11:628
-7.61344482421875,-7.571546936035156,0.24839462280273436,0.04103632050308392,-0.02970815076810616,-0.005868249454557082,2.4450559616088867,2019-06-20 14:49:11:632
-7.589503173828125,-7.589503173828125,0.25078878784179687,0.03997105606705223,-0.029175518550090315,-0.006134565563565005,2.4501760005950928,2019-06-20 14:49:11:638
-7.5978827514648435,-7.5547877807617185,0.21607339477539061,0.039704739958044306,-0.02797709605955466,-0.00653403972707689,2.4550399780273438,2019-06-20 14:49:11:642
-7.549999450683593,-7.566758605957031,0.23762088012695312,0.040503688285068076,-0.029841308822610123,-0.0064008816725729285,2.46016001701355,2019-06-20 14:49:11:648
-7.581123596191406,-7.561970275878906,0.23522671508789061,0.04037053023056411,-0.028509728277570506,-0.006933513890588777,2.465023994445801,2019-06-20 14:49:11:652
-7.5835177612304685,-7.570349853515625,0.24959170532226563,0.040503688285068076,-0.02877604438657843,-0.007332988054100662,2.470144033432007,2019-06-20 14:49:11:658
-7.571546936035156,-7.573941101074219,0.2328325500488281,0.040636846339572034,-0.02890920244108239,-0.006933513890588777,2.475008010864258,2019-06-20 14:49:11:662
-7.588306091308594,-7.538028625488281,0.2041025695800781,0.041302636612091846,-0.02811025411405862,-0.0064008816725729285,2.480128049850464,2019-06-20 14:49:11:668
-7.57513818359375,-7.563167358398437,0.22924130249023436,0.040636846339572034,-0.0295749927136022,-0.0064008816725729285,2.484992027282715,2019-06-20 14:49:11:672
-7.563167358398437,-7.570349853515625,0.2603654479980469,0.04090316244857996,-0.029175518550090315,-0.006267723618068967,2.490111827850342,2019-06-20 14:49:11:678
-7.587109008789063,-7.572744018554688,0.29148959350585935,0.040636846339572034,-0.028642886332074468,-0.005468775291045195,2.494976043701172,2019-06-20 14:49:11:682
-7.581123596191406,-7.577532348632812,0.24360629272460937,0.04023737217606015,-0.029308676604594276,-0.005868249454557082,2.500095844268799,2019-06-20 14:49:11:687
-7.579926513671875,-7.557181945800781,0.22804421997070312,0.04037053023056411,-0.03050709909512993,-0.006933513890588777,2.50495982170105,2019-06-20 14:49:11:692
-7.5835177612304685,-7.5691527709960935,0.2819129333496094,0.04023737217606015,-0.030107624931618046,-0.0064008816725729285,2.510079860687256,2019-06-20 14:49:11:697
-7.585911926269531,-7.590700256347656,0.2615625305175781,0.040770004394076,-0.02811025411405862,-0.006001407509061044,2.514943838119507,2019-06-20 14:49:11:702
-7.615838989257813,-7.559576110839844,0.20889089965820312,0.04037053023056411,-0.029441834659098238,-0.006933513890588777,2.520063877105713,2019-06-20 14:49:11:707
-7.579926513671875,-7.553590698242187,0.23402963256835937,0.04023737217606015,-0.0295749927136022,-0.006667197781580852,2.525183916091919,2019-06-20 14:49:11:713
-7.591897338867187,-7.581123596191406,0.24001504516601563,0.040770004394076,-0.0295749927136022,-0.006933513890588777,2.53004789352417,2019-06-20 14:49:11:717
-7.590700256347656,-7.549999450683593,0.21248214721679687,0.040636846339572034,-0.030640257149633893,-0.006800355836084815,2.535167932510376,2019-06-20 14:49:11:723
-7.605065246582031,-7.563167358398437,0.25198587036132813,0.040503688285068076,-0.030773415204137854,-0.0077324622176125485,2.540031909942627,2019-06-20 14:49:11:727
-7.578729431152343,-7.58471484375,0.24600045776367188,0.039704739958044306,-0.03117288936764974,-0.0074661461086046235,2.545151948928833,2019-06-20 14:49:11:733
-7.579926513671875,-7.5691527709960935,0.23881796264648436,0.039704739958044306,-0.031306047422153704,-0.007998778326620472,2.550015926361084,2019-06-20 14:49:11:737
-7.606262329101562,-7.551196533203125,0.22804421997070312,0.03957158190354034,-0.031306047422153704,-0.008930884708148205,2.55513596534729,2019-06-20 14:49:11:743
-7.589503173828125,-7.559576110839844,0.21487631225585938,0.04023737217606015,-0.03037394104062597,-0.008131936381124433,2.559999942779541,2019-06-20 14:49:11:747
-7.595488586425781,-7.5835177612304685,0.2603654479980469,0.03930526579453242,-0.02877604438657843,-0.00933035887166009,2.565119981765747,2019-06-20 14:49:11:753
-7.608656494140625,-7.573941101074219,0.2795187683105469,0.039704739958044306,-0.02970815076810616,-0.009463516926164052,2.569983959197998,2019-06-20 14:49:11:757
-7.587109008789063,-7.564364440917968,0.24719754028320312,0.03943842384903638,-0.030640257149633893,-0.008398252490132357,2.575103998184204,2019-06-20 14:49:11:762
-7.607459411621093,-7.5655615234375,0.23642379760742188,0.03930526579453242,-0.029841308822610123,-0.007332988054100662,2.579967975616455,2019-06-20 14:49:11:767
-7.599079833984375,-7.546408203125,0.23642379760742188,0.039038949685524495,-0.029042360495586353,-0.008664568599140282,2.585088014602661,2019-06-20 14:49:11:772
-7.607459411621093,-7.563167358398437,0.23642379760742188,0.03930526579453242,-0.030240782986122008,-0.009729833035171977,2.589951992034912,2019-06-20 14:49:11:777
-7.576335266113281,-7.57513818359375,0.24001504516601563,0.04010421412155619,-0.029441834659098238,-0.009729833035171977,2.595072031021118,2019-06-20 14:49:11:782
-7.57513818359375,-7.5547877807617185,0.19811715698242188,0.04010421412155619,-0.028509728277570506,-0.008930884708148205,2.600191831588745,2019-06-20 14:49:11:788
-7.558379028320313,-7.563167358398437,0.24600045776367188,0.039704739958044306,-0.02890920244108239,-0.008265094435628395,2.605056047439575,2019-06-20 14:49:11:792
-7.566758605957031,-7.567955688476562,0.29627792358398436,0.04023737217606015,-0.02890920244108239,-0.009197200817156128,2.610175848007202,2019-06-20 14:49:11:798
-7.581123596191406,-7.55598486328125,0.2938837585449219,0.040770004394076,-0.029175518550090315,-0.0099961491441799,2.615039825439453,2019-06-20 14:49:11:802
-7.579926513671875,-7.5691527709960935,0.25078878784179687,0.04010421412155619,-0.030107624931618046,-0.009197200817156128,2.620159864425659,2019-06-20 14:49:11:808
-7.58471484375,-7.55598486328125,0.25198587036132813,0.04010421412155619,-0.03037394104062597,-0.009596674980668015,2.62502384185791,2019-06-20 14:49:11:812
-7.579926513671875,-7.5547877807617185,0.2663508605957031,0.04037053023056411,-0.029042360495586353,-0.01066193941669971,2.630143880844116,2019-06-20 14:49:11:818
-7.59429150390625,-7.589503173828125,0.2591683654785156,0.040636846339572034,-0.030107624931618046,-0.010528781362195748,2.635007858276367,2019-06-20 14:49:11:822
-7.589503173828125,-7.560773193359375,0.22684713745117188,0.04037053023056411,-0.030240782986122008,-0.00933035887166009,2.6401278972625732,2019-06-20 14:49:11:828
-7.589503173828125,-7.571546936035156,0.24719754028320312,0.04156895272109977,-0.03037394104062597,-0.009862991089675938,2.644991874694824,2019-06-20 14:49:11:832
-7.561970275878906,-7.55598486328125,0.24839462280273436,0.04090316244857996,-0.03037394104062597,-0.010528781362195748,2.6501119136810303,2019-06-20 14:49:11:838
-7.572744018554688,-7.5547877807617185,0.2424092102050781,0.040503688285068076,-0.029974466877114084,-0.010262465253187823,2.6549758911132812,2019-06-20 14:49:11:842
-7.578729431152343,-7.581123596191406,0.2687450256347656,0.04090316244857996,-0.0295749927136022,-0.009862991089675938,2.6600959300994873,2019-06-20 14:49:11:847
-7.585911926269531,-7.563167358398437,0.22924130249023436,0.039837898012548265,-0.029441834659098238,-0.00933035887166009,2.6649599075317383,2019-06-20 14:49:11:852
-7.581123596191406,-7.572744018554688,0.24121212768554687,0.03997105606705223,-0.0295749927136022,-0.009596674980668015,2.6700799465179443,2019-06-20 14:49:11:857
-7.581123596191406,-7.588306091308594,0.2543800354003906,0.03957158190354034,-0.029974466877114084,-0.010262465253187823,2.6749439239501953,2019-06-20 14:49:11:862
-7.579926513671875,-7.5978827514648435,0.2795187683105469,0.04103632050308392,-0.029974466877114084,-0.009862991089675938,2.6800639629364014,2019-06-20 14:49:11:867
-7.573941101074219,-7.573941101074219,0.27712460327148436,0.04143579466659581,-0.029974466877114084,-0.009729833035171977,2.6851840019226074,2019-06-20 14:49:11:873
-7.55598486328125,-7.560773193359375,0.2938837585449219,0.041702110775603735,-0.02970815076810616,-0.010262465253187823,2.6900479793548584,2019-06-20 14:49:11:877
-7.5547877807617185,-7.5655615234375,0.24121212768554687,0.041302636612091846,-0.029042360495586353,-0.010528781362195748,2.6951680183410645,2019-06-20 14:49:11:883
-7.561970275878906,-7.564364440917968,0.2328325500488281,0.040636846339572034,-0.029841308822610123,-0.009862991089675938,2.7000319957733154,2019-06-20 14:49:11:887
-7.576335266113281,-7.567955688476562,0.24001504516601563,0.04010421412155619,-0.02970815076810616,-0.00933035887166009,2.7051520347595215,2019-06-20 14:49:11:893
-7.596685668945312,-7.58471484375,0.24480337524414061,0.040636846339572034,-0.028509728277570506,-0.009463516926164052,2.7100160121917725,2019-06-20 14:49:11:897
-7.578729431152343,-7.567955688476562,0.2591683654785156,0.040770004394076,-0.02771077995054673,-0.009729833035171977,2.7151360511779785,2019-06-20 14:49:11:903
-7.564364440917968,-7.58471484375,0.25797128295898436,0.04116947855758789,-0.029042360495586353,-0.009463516926164052,2.7200000286102295,2019-06-20 14:49:11:907
-7.585911926269531,-7.57513818359375,0.2555771179199219,0.04116947855758789,-0.02877604438657843,-0.009463516926164052,2.7251198291778564,2019-06-20 14:49:11:913
-7.588306091308594,-7.564364440917968,0.26395669555664064,0.04183526883010769,-0.028509728277570506,-0.010129307198683862,2.7299840450286865,2019-06-20 14:49:11:917
-7.590700256347656,-7.570349853515625,0.24360629272460937,0.04023737217606015,-0.028376570223066545,-0.009463516926164052,2.7351038455963135,2019-06-20 14:49:11:922
-7.582320678710937,-7.5835177612304685,0.23642379760742188,0.03930526579453242,-0.02890920244108239,-0.008265094435628395,2.7399678230285645,2019-06-20 14:49:11:927
-7.5978827514648435,-7.576335266113281,0.2232558898925781,0.04010421412155619,-0.028642886332074468,-0.008797726653644243,2.7450878620147705,2019-06-20 14:49:11:932
-7.561970275878906,-7.548802368164062,0.24959170532226563,0.040770004394076,-0.02877604438657843,-0.008531410544636318,2.7499518394470215,2019-06-20 14:49:11:937
-7.561970275878906,-7.551196533203125,0.25318295288085935,0.040503688285068076,-0.02890920244108239,-0.008265094435628395,2.7550718784332275,2019-06-20 14:49:11:942
-7.563167358398437,-7.545211120605469,0.21008798217773436,0.040636846339572034,-0.028243412168562583,-0.009064042762652167,2.7601919174194336,2019-06-20 14:49:11:948
-7.558379028320313,-7.5691527709960935,0.2555771179199219,0.04103632050308392,-0.029441834659098238,-0.008797726653644243,2.7650558948516846,2019-06-20 14:49:11:952
-7.551196533203125,-7.5691527709960935,0.22924130249023436,0.04090316244857996,-0.03037394104062597,-0.009197200817156128,2.7701759338378906,2019-06-20 14:49:11:958
-7.589503173828125,-7.561970275878906,0.2328325500488281,0.04103632050308392,-0.0295749927136022,-0.008131936381124433,2.7750399112701416,2019-06-20 14:49:11:962
-7.558379028320313,-7.570349853515625,0.22565005493164061,0.040503688285068076,-0.029175518550090315,-0.0074661461086046235,2.7801599502563477,2019-06-20 14:49:11:968
-7.5691527709960935,-7.581123596191406,0.2543800354003906,0.040636846339572034,-0.0295749927136022,-0.00653403972707689,2.7850239276885986,2019-06-20 14:49:11:972
-7.570349853515625,-7.577532348632812,0.22205880737304687,0.03997105606705223,-0.02877604438657843,-0.006800355836084815,2.7901439666748047,2019-06-20 14:49:11:978
-7.559576110839844,-7.588306091308594,0.25198587036132813,0.04010421412155619,-0.02797709605955466,-0.00653403972707689,2.7950079441070557,2019-06-20 14:49:11:982
-7.559576110839844,-7.5547877807617185,0.24959170532226563,0.040770004394076,-0.02797709605955466,-0.0071998299995967,2.8001279830932617,2019-06-20 14:49:11:988
-7.589503173828125,-7.548802368164062,0.24600045776367188,0.04183526883010769,-0.029308676604594276,-0.0077324622176125485,2.8049919605255127,2019-06-20 14:49:11:992
-7.573941101074219,-7.582320678710937,0.2759275207519531,0.04023737217606015,-0.02784393800505069,-0.0077324622176125485,2.8101119995117188,2019-06-20 14:49:11:998
-7.585911926269531,-7.589503173828125,0.23522671508789061,0.03917210774002846,-0.027577621896042768,-0.007332988054100662,2.8149759769439697,2019-06-20 14:49:12:002
-7.588306091308594,-7.567955688476562,0.2328325500488281,0.039837898012548265,-0.028243412168562583,-0.0064008816725729285,2.820096015930176,2019-06-20 14:49:12:007
-7.564364440917968,-7.567955688476562,0.20290548706054687,0.04023737217606015,-0.02890920244108239,-0.006800355836084815,2.8249599933624268,2019-06-20 14:49:12:012
-7.558379028320313,-7.5655615234375,0.24600045776367188,0.03943842384903638,-0.02771077995054673,-0.0071998299995967,2.830080032348633,2019-06-20 14:49:12:017
-7.593094421386718,-7.548802368164062,0.2603654479980469,0.03997105606705223,-0.026512357460011075,-0.006933513890588777,2.834944009780884,2019-06-20 14:49:12:022
-7.590700256347656,-7.579926513671875,0.22445297241210938,0.04010421412155619,-0.025580251078483343,-0.006933513890588777,2.84006404876709,2019-06-20 14:49:12:027
-7.5691527709960935,-7.53683154296875,0.22924130249023436,0.03957158190354034,-0.02771077995054673,-0.006933513890588777,2.845183849334717,2019-06-20 14:49:12:033
-7.591897338867187,-7.547605285644531,0.21607339477539061,0.03930526579453242,-0.028642886332074468,-0.006667197781580852,2.8500478267669678,2019-06-20 14:49:12:037
-7.609853576660156,-7.561970275878906,0.2974750061035156,0.040503688285068076,-0.02811025411405862,-0.0071998299995967,2.855167865753174,2019-06-20 14:49:12:043
-7.599079833984375,-7.553590698242187,0.2855041809082031,0.04103632050308392,-0.029308676604594276,-0.0070666719450927385,2.860031843185425,2019-06-20 14:49:12:047
-7.566758605957031,-7.57513818359375,0.25198587036132813,0.04037053023056411,-0.029441834659098238,-0.0070666719450927385,2.865151882171631,2019-06-20 14:49:12:053
-7.5404227905273435,-7.587109008789063,0.2627596130371094,0.040770004394076,-0.02890920244108239,-0.0070666719450927385,2.870015859603882,2019-06-20 14:49:12:057
-7.558379028320313,-7.587109008789063,0.2675479431152344,0.041302636612091846,-0.026778673569018998,-0.007998778326620472,2.875135898590088,2019-06-20 14:49:12:063
-7.5835177612304685,-7.570349853515625,0.27113919067382813,0.04037053023056411,-0.02704498967802692,-0.008131936381124433,2.879999876022339,2019-06-20 14:49:12:067
-7.59429150390625,-7.582320678710937,0.2747304382324219,0.040770004394076,-0.02877604438657843,-0.0071998299995967,2.885119915008545,2019-06-20 14:49:12:073
-7.621824401855468,-7.581123596191406,0.24001504516601563,0.039704739958044306,-0.02890920244108239,-0.007599304163108585,2.889983892440796,2019-06-20 14:49:12:077
-7.605065246582031,-7.578729431152343,0.24001504516601563,0.04023737217606015,-0.029042360495586353,-0.0070666719450927385,2.895103931427002,2019-06-20 14:49:12:082
-7.591897338867187,-7.581123596191406,0.22086172485351563,0.04010421412155619,-0.028376570223066545,-0.0074661461086046235,2.899967908859253,2019-06-20 14:49:12:087
-7.585911926269531,-7.577532348632812,0.23642379760742188,0.039704739958044306,-0.027178147732530883,-0.008131936381124433,2.905087947845459,2019-06-20 14:49:12:092
-7.577532348632812,-7.57513818359375,0.20170840454101563,0.040636846339572034,-0.02784393800505069,-0.0070666719450927385,2.90995192527771,2019-06-20 14:49:12:097
-7.572744018554688,-7.576335266113281,0.2603654479980469,0.041302636612091846,-0.028642886332074468,-0.007998778326620472,2.915071964263916,2019-06-20 14:49:12:102
-7.5655615234375,-7.571546936035156,0.2627596130371094,0.04116947855758789,-0.02811025411405862,-0.007599304163108585,2.920192003250122,2019-06-20 14:49:12:108
-7.57513818359375,-7.548802368164062,0.27712460327148436,0.04090316244857996,-0.028376570223066545,-0.008797726653644243,2.925055980682373,2019-06-20 14:49:12:112
-7.595488586425781,-7.573941101074219,0.25198587036132813,0.04090316244857996,-0.02784393800505069,-0.008265094435628395,2.930176019668579,2019-06-20 14:49:12:118
-7.588306091308594,-7.551196533203125,0.25797128295898436,0.04103632050308392,-0.028642886332074468,-0.00786562027211651,2.93503999710083,2019-06-20 14:49:12:122
-7.579926513671875,-7.557181945800781,0.3118399963378906,0.04010421412155619,-0.02771077995054673,-0.00786562027211651,2.940160036087036,2019-06-20 14:49:12:128
-7.576335266113281,-7.573941101074219,0.2136792297363281,0.04010421412155619,-0.02771077995054673,-0.00786562027211651,2.945024013519287,2019-06-20 14:49:12:132
-7.566758605957031,-7.561970275878906,0.2328325500488281,0.04103632050308392,-0.028642886332074468,-0.008398252490132357,2.950144052505493,2019-06-20 14:49:12:138
-7.58471484375,-7.561970275878906,0.25198587036132813,0.04090316244857996,-0.028376570223066545,-0.00786562027211651,2.955008029937744,2019-06-20 14:49:12:142
-7.581123596191406,-7.55598486328125,0.23402963256835937,0.04116947855758789,-0.02811025411405862,-0.0074661461086046235,2.960127830505371,2019-06-20 14:49:12:148
-7.6038681640625,-7.579926513671875,0.21487631225585938,0.040503688285068076,-0.02811025411405862,-0.007599304163108585,2.964992046356201,2019-06-20 14:49:12:152
-7.5978827514648435,-7.576335266113281,0.2424092102050781,0.03997105606705223,-0.027178147732530883,-0.006800355836084815,2.970111846923828,2019-06-20 14:49:12:158
-7.570349853515625,-7.573941101074219,0.2424092102050781,0.040503688285068076,-0.028376570223066545,-0.0071998299995967,2.974975824356079,2019-06-20 14:49:12:162
-7.589503173828125,-7.564364440917968,0.22086172485351563,0.04143579466659581,-0.030240782986122008,-0.0077324622176125485,2.980095863342285,2019-06-20 14:49:12:167
-7.5691527709960935,-7.55598486328125,0.24600045776367188,0.041702110775603735,-0.029175518550090315,-0.008131936381124433,2.984959840774536,2019-06-20 14:49:12:172
-7.57513818359375,-7.539225708007812,0.22086172485351563,0.04116947855758789,-0.030240782986122008,-0.00786562027211651,2.990079879760742,2019-06-20 14:49:12:177
-7.557181945800781,-7.5404227905273435,0.23522671508789061,0.04143579466659581,-0.030640257149633893,-0.008664568599140282,2.994943857192993,2019-06-20 14:49:12:182
-7.551196533203125,-7.541619873046875,0.24121212768554687,0.04090316244857996,-0.030906573258641816,-0.008531410544636318,3.000063896179199,2019-06-20 14:49:12:187
-7.5691527709960935,-7.572744018554688,0.24839462280273436,0.04090316244857996,-0.03050709909512993,-0.0074661461086046235,3.0051839351654053,2019-06-20 14:49:12:193
-7.566758605957031,-7.570349853515625,0.2567742004394531,0.04090316244857996,-0.029042360495586353,-0.00786562027211651,3.0100479125976562,2019-06-20 14:49:12:197
-7.57513818359375,-7.590700256347656,0.24480337524414061,0.040636846339572034,-0.028642886332074468,-0.008398252490132357,3.0151679515838623,2019-06-20 14:49:12:203
-7.563167358398437,-7.576335266113281,0.2867012634277344,0.041302636612091846,-0.02877604438657843,-0.007998778326620472,3.0200319290161133,2019-06-20 14:49:12:207
-7.588306091308594,-7.564364440917968,0.22924130249023436,0.04116947855758789,-0.02890920244108239,-0.006267723618068967,3.0251519680023193,2019-06-20 14:49:12:213
-7.582320678710937,-7.5655615234375,0.20051132202148436,0.040636846339572034,-0.02970815076810616,-0.006267723618068967,3.0300159454345703,2019-06-20 14:49:12:217
-7.570349853515625,-7.57513818359375,0.23402963256835937,0.04023737217606015,-0.029175518550090315,-0.0064008816725729285,3.0351359844207764,2019-06-20 14:49:12:223
-7.5691527709960935,-7.561970275878906,0.23642379760742188,0.04103632050308392,-0.0295749927136022,-0.005868249454557082,3.0399999618530273,2019-06-20 14:49:12:227
-7.572744018554688,-7.576335266113281,0.24001504516601563,0.04090316244857996,-0.029175518550090315,-0.004936143073029348,3.0451200008392334,2019-06-20 14:49:12:233
-7.591897338867187,-7.559576110839844,0.20769381713867188,0.04037053023056411,-0.028642886332074468,-0.005601933345549157,3.0499839782714844,2019-06-20 14:49:12:237
-7.585911926269531,-7.579926513671875,0.2878983459472656,0.039837898012548265,-0.0295749927136022,-0.005868249454557082,3.0551040172576904,2019-06-20 14:49:12:242
-7.573941101074219,-7.564364440917968,0.2603654479980469,0.04103632050308392,-0.02797709605955466,-0.006267723618068967,3.0599679946899414,2019-06-20 14:49:12:247
-7.570349853515625,-7.570349853515625,0.2795187683105469,0.04090316244857996,-0.028376570223066545,-0.006667197781580852,3.0650880336761475,2019-06-20 14:49:12:252
-7.588306091308594,-7.600276916503906,0.25078878784179687,0.04156895272109977,-0.029175518550090315,-0.0074661461086046235,3.0699520111083984,2019-06-20 14:49:12:257
-7.578729431152343,-7.595488586425781,0.26395669555664064,0.040503688285068076,-0.028642886332074468,-0.007332988054100662,3.0750720500946045,2019-06-20 14:49:12:262
-7.587109008789063,-7.599079833984375,0.24839462280273436,0.04023737217606015,-0.02811025411405862,-0.006667197781580852,3.0801918506622314,2019-06-20 14:49:12:268
-7.5691527709960935,-7.591897338867187,0.24001504516601563,0.040503688285068076,-0.02877604438657843,-0.0064008816725729285,3.0850558280944824,2019-06-20 14:49:12:272
-7.602671081542969,-7.581123596191406,0.25797128295898436,0.04090316244857996,-0.029308676604594276,-0.006001407509061044,3.0901758670806885,2019-06-20 14:49:12:278
-7.588306091308594,-7.570349853515625,0.2783216857910156,0.040770004394076,-0.02877604438657843,-0.006134565563565005,3.0950398445129395,2019-06-20 14:49:12:282
-7.593094421386718,-7.564364440917968,0.24839462280273436,0.04090316244857996,-0.029042360495586353,-0.0050693011275333094,3.1001598834991455,2019-06-20 14:49:12:288
-7.591897338867187,-7.579926513671875,0.2424092102050781,0.04090316244857996,-0.02890920244108239,-0.005468775291045195,3.1050238609313965,2019-06-20 14:49:12:292
-7.576335266113281,-7.564364440917968,0.27113919067382813,0.04116947855758789,-0.029308676604594276,-0.005868249454557082,3.1101438999176025,2019-06-20 14:49:12:298
-7.561970275878906,-7.566758605957031,0.2603654479980469,0.040636846339572034,-0.029308676604594276,-0.006800355836084815,3.1150078773498535,2019-06-20 14:49:12:302
-7.5547877807617185,-7.579926513671875,0.24121212768554687,0.04103632050308392,-0.02970815076810616,-0.006933513890588777,3.1201279163360596,2019-06-20 14:49:12:308
-7.599079833984375,-7.582320678710937,0.24001504516601563,0.04116947855758789,-0.029308676604594276,-0.006800355836084815,3.1249918937683105,2019-06-20 14:49:12:312
-7.572744018554688,-7.566758605957031,0.2747304382324219,0.04090316244857996,-0.029042360495586353,-0.006800355836084815,3.1301119327545166,2019-06-20 14:49:12:318
-7.573941101074219,-7.552393615722656,0.24121212768554687,0.04196842688461166,-0.02771077995054673,-0.0050693011275333094,3.1349759101867676,2019-06-20 14:49:12:322
-7.560773193359375,-7.567955688476562,0.2759275207519531,0.04156895272109977,-0.029175518550090315,-0.005202459182037272,3.1400959491729736,2019-06-20 14:49:12:327
-7.599079833984375,-7.5691527709960935,0.22924130249023436,0.04103632050308392,-0.02811025411405862,-0.005601933345549157,3.1449599266052246,2019-06-20 14:49:12:332
-7.57513818359375,-7.570349853515625,0.24480337524414061,0.041302636612091846,-0.027577621896042768,-0.0044035108550135,3.1500799655914307,2019-06-20 14:49:12:337
-7.577532348632812,-7.5691527709960935,0.22565005493164061,0.04143579466659581,-0.02771077995054673,-0.0036045625279897287,3.1552000045776367,2019-06-20 14:49:12:343
-7.561970275878906,-7.589503173828125,0.21128506469726563,0.04010421412155619,-0.02797709605955466,-0.004936143073029348,3.1600639820098877,2019-06-20 14:49:12:347
-7.5691527709960935,-7.5691527709960935,0.2136792297363281,0.040636846339572034,-0.027311305787034845,-0.0036045625279897287,3.1651840209960938,2019-06-20 14:49:12:353
-7.571546936035156,-7.561970275878906,0.29148959350585935,0.04090316244857996,-0.028376570223066545,-0.002938772255469919,3.1700479984283447,2019-06-20 14:49:12:357
-7.557181945800781,-7.578729431152343,0.23402963256835937,0.04090316244857996,-0.028376570223066545,-0.002805614200965957,3.175168037414551,2019-06-20 14:49:12:363
-7.552393615722656,-7.573941101074219,0.2627596130371094,0.04116947855758789,-0.026778673569018998,-0.0037377205824936904,3.1800320148468018,2019-06-20 14:49:12:367
-7.55598486328125,-7.578729431152343,0.24001504516601563,0.04183526883010769,-0.026512357460011075,-0.0037377205824936904,3.185152053833008,2019-06-20 14:49:12:373
-7.573941101074219,-7.567955688476562,0.22205880737304687,0.041702110775603735,-0.02691183162352296,-0.0025392980919580334,3.190016031265259,2019-06-20 14:49:12:377
-7.58471484375,-7.551196533203125,0.21128506469726563,0.041302636612091846,-0.027577621896042768,-0.0020066658739421855,3.1951358318328857,2019-06-20 14:49:12:383
-7.570349853515625,-7.5655615234375,0.2687450256347656,0.041302636612091846,-0.02811025411405862,-0.003071930309973881,3.200000047683716,2019-06-20 14:49:12:387
-7.589503173828125,-7.558379028320313,0.2555771179199219,0.04143579466659581,-0.027577621896042768,-0.0033382464189818046,3.2051198482513428,2019-06-20 14:49:12:393
-7.601473999023438,-7.570349853515625,0.2855041809082031,0.041302636612091846,-0.02784393800505069,-0.0024061400374540713,3.2099838256835938,2019-06-20 14:49:12:397
-7.581123596191406,-7.579926513671875,0.2926866760253906,0.040636846339572034,-0.028376570223066545,-0.0021398239284461476,3.2151038646698,2019-06-20 14:49:12:402
-7.552393615722656,-7.567955688476562,0.2555771179199219,0.04156895272109977,-0.02797709605955466,-0.001740349764934262,3.219967842102051,2019-06-20 14:49:12:407
-7.547605285644531,-7.560773193359375,0.22086172485351563,0.041302636612091846,-0.02771077995054673,-0.0025392980919580334,3.225087881088257,2019-06-20 14:49:12:412
-7.573941101074219,-7.5547877807617185,0.23163546752929687,0.04183526883010769,-0.02624604135100315,-0.0016071917104302999,3.229951858520508,2019-06-20 14:49:12:417
-7.58471484375,-7.552393615722656,0.2747304382324219,0.04116947855758789,-0.02704498967802692,-0.002805614200965957,3.235071897506714,2019-06-20 14:49:12:422
-7.602671081542969,-7.553590698242187,0.26515377807617185,0.040503688285068076,-0.026778673569018998,-0.002672456146461995,3.24019193649292,2019-06-20 14:49:12:428
-7.599079833984375,-7.549999450683593,0.20889089965820312,0.04103632050308392,-0.029841308822610123,-0.0036045625279897287,3.245055913925171,2019-06-20 14:49:12:432
-7.6122477416992185,-7.538028625488281,0.24480337524414061,0.040503688285068076,-0.029441834659098238,-0.0044035108550135,3.250175952911377,2019-06-20 14:49:12:438
-7.61344482421875,-7.572744018554688,0.22684713745117188,0.040503688285068076,-0.02797709605955466,-0.004270352800509538,3.255039930343628,2019-06-20 14:49:12:442
-7.617036071777344,-7.566758605957031,0.25318295288085935,0.040636846339572034,-0.027577621896042768,-0.0050693011275333094,3.260159969329834,2019-06-20 14:49:12:448
-7.5978827514648435,-7.553590698242187,0.2687450256347656,0.04090316244857996,-0.02877604438657843,-0.005335617236541234,3.265023946762085,2019-06-20 14:49:12:452
-7.606262329101562,-7.549999450683593,0.2747304382324219,0.04037053023056411,-0.02890920244108239,-0.005202459182037272,3.270143985748291,2019-06-20 14:49:12:458
-7.608656494140625,-7.563167358398437,0.2543800354003906,0.04156895272109977,-0.02970815076810616,-0.005202459182037272,3.275007963180542,2019-06-20 14:49:12:462
-7.6038681640625,-7.576335266113281,0.24719754028320312,0.04196842688461166,-0.0295749927136022,-0.005202459182037272,3.280128002166748,2019-06-20 14:49:12:468
-7.601473999023438,-7.559576110839844,0.2328325500488281,0.042101584939115616,-0.030240782986122008,-0.004669826964021424,3.284991979598999,2019-06-20 14:49:12:472
-7.614641906738281,-7.55598486328125,0.19213174438476563,0.04103632050308392,-0.029974466877114084,-0.004536668909517462,3.290112018585205,2019-06-20 14:49:12:478
-7.614641906738281,-7.551196533203125,0.23522671508789061,0.04116947855758789,-0.030773415204137854,-0.004536668909517462,3.294975996017456,2019-06-20 14:49:12:482
-7.599079833984375,-7.567955688476562,0.23402963256835937,0.04183526883010769,-0.029974466877114084,-0.0050693011275333094,3.300096035003662,2019-06-20 14:49:12:487
-7.579926513671875,-7.595488586425781,0.2591683654785156,0.04196842688461166,-0.030107624931618046,-0.004536668909517462,3.304960012435913,2019-06-20 14:49:12:492
-7.577532348632812,-7.578729431152343,0.23762088012695312,0.04103632050308392,-0.029974466877114084,-0.0044035108550135,3.310080051422119,2019-06-20 14:49:12:497
-7.591897338867187,-7.571546936035156,0.24480337524414061,0.04116947855758789,-0.030107624931618046,-0.005468775291045195,3.31494402885437,2019-06-20 14:49:12:502
-7.599079833984375,-7.578729431152343,0.22086172485351563,0.04143579466659581,-0.030240782986122008,-0.004270352800509538,3.320063829421997,2019-06-20 14:49:12:507
-7.611050659179687,-7.570349853515625,0.24600045776367188,0.041702110775603735,-0.030773415204137854,-0.004536668909517462,3.325183868408203,2019-06-20 14:49:12:513
-7.581123596191406,-7.570349853515625,0.24001504516601563,0.04116947855758789,-0.0295749927136022,-0.0040040366915016145,3.330047845840454,2019-06-20 14:49:12:517
-7.589503173828125,-7.573941101074219,0.25797128295898436,0.04037053023056411,-0.02970815076810616,-0.0036045625279897287,3.33516788482666,2019-06-20 14:49:12:523
-7.563167358398437,-7.55598486328125,0.24839462280273436,0.04103632050308392,-0.029441834659098238,-0.004137194746005576,3.340031862258911,2019-06-20 14:49:12:527
-7.567955688476562,-7.570349853515625,0.24480337524414061,0.041302636612091846,-0.02797709605955466,-0.004137194746005576,3.345151901245117,2019-06-20 14:49:12:533
-7.557181945800781,-7.570349853515625,0.28909542846679687,0.041302636612091846,-0.02797709605955466,-0.0034714044734857666,3.350015878677368,2019-06-20 14:49:12:537
-7.576335266113281,-7.549999450683593,0.2675479431152344,0.04223474299361958,-0.029441834659098238,-0.003071930309973881,3.355135917663574,2019-06-20 14:49:12:543
-7.61344482421875,-7.559576110839844,0.24959170532226563,0.04276737521163543,-0.028642886332074468,-0.0024061400374540713,3.359999895095825,2019-06-20 14:49:12:547
-7.581123596191406,-7.558379028320313,0.24959170532226563,0.04263421715713147,-0.02771077995054673,-0.0033382464189818046,3.3651199340820312,2019-06-20 14:49:12:553
-7.588306091308594,-7.570349853515625,0.2663508605957031,0.042101584939115616,-0.027311305787034845,-0.003205088364477843,3.3699839115142822,2019-06-20 14:49:12:557
-7.589503173828125,-7.571546936035156,0.23522671508789061,0.04263421715713147,-0.028509728277570506,-0.0020066658739421855,3.3751039505004883,2019-06-20 14:49:12:562
-7.576335266113281,-7.544014038085938,0.24121212768554687,0.04196842688461166,-0.027178147732530883,-0.0012077175469184143,3.3799679279327393,2019-06-20 14:49:12:567
-7.567955688476562,-7.55598486328125,0.24121212768554687,0.04196842688461166,-0.027311305787034845,-0.0022729819829501096,3.3850879669189453,2019-06-20 14:49:12:572
-7.585911926269531,-7.595488586425781,0.24839462280273436,0.040770004394076,-0.027577621896042768,-0.0022729819829501096,3.3899519443511963,2019-06-20 14:49:12:577
-7.6122477416992185,-7.585911926269531,0.24719754028320312,0.04037053023056411,-0.02704498967802692,-0.0025392980919580334,3.3950719833374023,2019-06-20 14:49:12:582
-7.577532348632812,-7.560773193359375,0.22684713745117188,0.040770004394076,-0.02704498967802692,-0.0020066658739421855,3.4001920223236084,2019-06-20 14:49:12:588
-7.578729431152343,-7.567955688476562,0.23762088012695312,0.04183526883010769,-0.02704498967802692,-0.001740349764934262,3.4050559997558594,2019-06-20 14:49:12:592
-7.5978827514648435,-7.57513818359375,0.23522671508789061,0.042501059102627504,-0.02691183162352296,-0.0020066658739421855,3.4101760387420654,2019-06-20 14:49:12:598
-7.573941101074219,-7.567955688476562,0.24121212768554687,0.042501059102627504,-0.026379199405507113,-0.0025392980919580334,3.4150400161743164,2019-06-20 14:49:12:602
-7.5835177612304685,-7.558379028320313,0.23043838500976563,0.04196842688461166,-0.02784393800505069,-0.0022729819829501096,3.4201600551605225,2019-06-20 14:49:12:608
-7.5691527709960935,-7.5655615234375,0.23762088012695312,0.042501059102627504,-0.026778673569018998,-0.001740349764934262,3.4250240325927734,2019-06-20 14:49:12:612
-7.572744018554688,-7.547605285644531,0.2759275207519531,0.04223474299361958,-0.026645515514515036,-0.001740349764934262,3.4301438331604004,2019-06-20 14:49:12:618
-7.558379028320313,-7.561970275878906,0.23163546752929687,0.042367901048123546,-0.027178147732530883,-0.0016071917104302999,3.4350080490112305,2019-06-20 14:49:12:622
-7.589503173828125,-7.539225708007812,0.26994210815429687,0.042101584939115616,-0.028243412168562583,-0.0009414014379104903,3.4401278495788574,2019-06-20 14:49:12:628
-7.578729431152343,-7.533240295410156,0.2878983459472656,0.04183526883010769,-0.02877604438657843,-0.001740349764934262,3.4449918270111084,2019-06-20 14:49:12:632
-7.600276916503906,-7.544014038085938,0.25318295288085935,0.041702110775603735,-0.027444463841538806,-0.001740349764934262,3.4501118659973145,2019-06-20 14:49:12:638
-7.611050659179687,-7.542816955566406,0.24600045776367188,0.040636846339572034,-0.027577621896042768,-0.0014740336559263382,3.4549758434295654,2019-06-20 14:49:12:642
-7.608656494140625,-7.544014038085938,0.22804421997070312,0.04090316244857996,-0.027311305787034845,-0.0012077175469184143,3.4600958824157715,2019-06-20 14:49:12:647
-7.608656494140625,-7.544014038085938,0.22804421997070312,0.04090316244857996,-0.027311305787034845,-0.0012077175469184143,3.46291184425354,2019-06-20 14:49:12:650
-7.590700256347656,-7.518875305175781,0.26994210815429687,0.040770004394076,-0.027311305787034845,-0.0020066658739421855,3.4700798988342285,2019-06-20 14:49:12:657
-7.590700256347656,-7.518875305175781,0.26994210815429687,0.040770004394076,-0.027311305787034845,-0.0020066658739421855,3.472895860671997,2019-06-20 14:49:12:660
-7.587109008789063,-7.529649047851563,0.2328325500488281,0.041302636612091846,-0.02890920244108239,-0.003071930309973881,3.4800639152526855,2019-06-20 14:49:12:667
-7.587109008789063,-7.529649047851563,0.2328325500488281,0.041302636612091846,-0.02890920244108239,-0.003071930309973881,3.482879877090454,2019-06-20 14:49:12:670
-7.623021484375,-7.539225708007812,0.23881796264648436,0.04196842688461166,-0.028243412168562583,-0.0025392980919580334,3.4900479316711426,2019-06-20 14:49:12:677
-7.623021484375,-7.539225708007812,0.23881796264648436,0.04196842688461166,-0.028243412168562583,-0.0025392980919580334,3.492863893508911,2019-06-20 14:49:12:680
-7.600276916503906,-7.549999450683593,0.21607339477539061,0.04143579466659581,-0.029042360495586353,-0.0021398239284461476,3.5000319480895996,2019-06-20 14:49:12:687
-7.600276916503906,-7.549999450683593,0.21607339477539061,0.04143579466659581,-0.029042360495586353,-0.0021398239284461476,3.502847909927368,2019-06-20 14:49:12:690
-7.602671081542969,-7.539225708007812,0.2136792297363281,0.04156895272109977,-0.02797709605955466,-0.0021398239284461476,3.5100159645080566,2019-06-20 14:49:12:697
-7.606262329101562,-7.533240295410156,0.25078878784179687,0.04116947855758789,-0.02797709605955466,-0.0020066658739421855,3.5151360034942627,2019-06-20 14:49:12:703
-7.607459411621093,-7.535634460449218,0.2627596130371094,0.03997105606705223,-0.027444463841538806,-0.004137194746005576,3.5199999809265137,2019-06-20 14:49:12:707
-7.615838989257813,-7.551196533203125,0.22086172485351563,0.04156895272109977,-0.028642886332074468,-0.002672456146461995,3.5251200199127197,2019-06-20 14:49:12:713
-7.588306091308594,-7.538028625488281,0.21846755981445312,0.04090316244857996,-0.02877604438657843,-0.0044035108550135,3.5299839973449707,2019-06-20 14:49:12:717
-7.609853576660156,-7.5547877807617185,0.2567742004394531,0.040636846339572034,-0.029175518550090315,-0.004802985018525386,3.5351040363311768,2019-06-20 14:49:12:722
-7.630203979492188,-7.557181945800781,0.2627596130371094,0.04116947855758789,-0.029042360495586353,-0.004669826964021424,3.5399680137634277,2019-06-20 14:49:12:727
-7.609853576660156,-7.548802368164062,0.19213174438476563,0.04090316244857996,-0.029841308822610123,-0.004936143073029348,3.545088052749634,2019-06-20 14:49:12:732
-7.606262329101562,-7.544014038085938,0.2555771179199219,0.040770004394076,-0.02890920244108239,-0.005202459182037272,3.5499520301818848,2019-06-20 14:49:12:737
-7.601473999023438,-7.542816955566406,0.27233627319335935,0.040503688285068076,-0.02811025411405862,-0.0057350914000531186,3.5550718307495117,2019-06-20 14:49:12:742
-7.606262329101562,-7.557181945800781,0.26994210815429687,0.04156895272109977,-0.02797709605955466,-0.005868249454557082,3.5601918697357178,2019-06-20 14:49:12:748
-7.601473999023438,-7.5691527709960935,0.23522671508789061,0.04156895272109977,-0.02771077995054673,-0.006267723618068967,3.5650558471679688,2019-06-20 14:49:12:752
-7.590700256347656,-7.551196533203125,0.2328325500488281,0.04103632050308392,-0.02811025411405862,-0.005868249454557082,3.570175886154175,2019-06-20 14:49:12:758
-7.590700256347656,-7.563167358398437,0.2591683654785156,0.04143579466659581,-0.028243412168562583,-0.006267723618068967,3.575039863586426,2019-06-20 14:49:12:762
-7.57513818359375,-7.5691527709960935,0.24839462280273436,0.04143579466659581,-0.02797709605955466,-0.006267723618068967,3.580159902572632,2019-06-20 14:49:12:768
-7.591897338867187,-7.559576110839844,0.24719754028320312,0.04103632050308392,-0.02890920244108239,-0.006667197781580852,3.585023880004883,2019-06-20 14:49:12:772
-7.579926513671875,-7.5655615234375,0.2424092102050781,0.04103632050308392,-0.02811025411405862,-0.005868249454557082,3.590143918991089,2019-06-20 14:49:12:778
-7.578729431152343,-7.534437377929687,0.2424092102050781,0.042367901048123546,-0.02877604438657843,-0.006001407509061044,3.59500789642334,2019-06-20 14:49:12:782
-7.587109008789063,-7.529649047851563,0.20170840454101563,0.041702110775603735,-0.02890920244108239,-0.006134565563565005,3.600127935409546,2019-06-20 14:49:12:788
-7.5835177612304685,-7.529649047851563,0.2567742004394531,0.041702110775603735,-0.028509728277570506,-0.005868249454557082,3.604991912841797,2019-06-20 14:49:12:792
-7.588306091308594,-7.541619873046875,0.23043838500976563,0.04116947855758789,-0.02771077995054673,-0.006267723618068967,3.610111951828003,2019-06-20 14:49:12:798
-7.572744018554688,-7.546408203125,0.2555771179199219,0.040636846339572034,-0.027178147732530883,-0.006800355836084815,3.614975929260254,2019-06-20 14:49:12:802
-7.590700256347656,-7.552393615722656,0.2567742004394531,0.040636846339572034,-0.027577621896042768,-0.006267723618068967,3.62009596824646,2019-06-20 14:49:12:807
-7.618233154296875,-7.557181945800781,0.24600045776367188,0.04103632050308392,-0.028243412168562583,-0.005335617236541234,3.624959945678711,2019-06-20 14:49:12:812
