ACCELEROMETER X (m/s²),ACCELEROMETER Y (m/s²),ACCELEROMETER Z (m/s²),GYROSCOPE X (rad/s),GYROSCOPE Y (rad/s),GYROSCOPE Z (rad/s),Time since start in ms ,YYYY-MO-DD HH-MI-SS_SSS
8.126993225097657,2.203828918457031,0.8816512756347656,0.03810684330399676,-0.029175518550090315,-0.015189313269834415,0.0,2019-06-20 15:09:02:225
8.129387390136719,2.2074201660156247,0.8589067077636718,0.03837315941300468,-0.02877604438657843,-0.01478983910632253,0.0048639774322509766,2019-06-20 15:09:02:230
8.112628234863282,2.2325588989257814,0.8541183776855469,0.03810684330399676,-0.02970815076810616,-0.014656681051818568,0.009984016418457031,2019-06-20 15:09:02:235
8.113825317382812,2.2409384765625,0.9008045959472656,0.03730789497697299,-0.02890920244108239,-0.014656681051818568,0.014847993850708008,2019-06-20 15:09:02:240
8.152131958007812,2.255303466796875,0.8708775329589844,0.0379736852494928,-0.0295749927136022,-0.01345825856128291,0.019968032836914062,2019-06-20 15:09:02:245
8.11143115234375,2.2301647338867188,0.8613008728027344,0.03837315941300468,-0.03037394104062597,-0.013058784397771025,0.02483201026916504,2019-06-20 15:09:02:250
8.099460327148437,2.23136181640625,0.8732716979980468,0.03610947248643733,-0.0295749927136022,-0.012792468288763102,0.029952049255371094,2019-06-20 15:09:02:255
8.112628234863282,2.2349530639648436,0.8684833679199219,0.0369084208134611,-0.03050709909512993,-0.013857732724794795,0.03481602668762207,2019-06-20 15:09:02:260
8.110234069824218,2.2074201660156247,0.8720746154785156,0.03863947552201261,-0.03050709909512993,-0.013724574670290833,0.039936065673828125,2019-06-20 15:09:02:265
8.079109924316406,2.1918580932617187,0.860103790283203,0.03930526579453242,-0.030906573258641816,-0.013724574670290833,0.04505586624145508,2019-06-20 15:09:02:270
8.117416564941406,2.2193909912109375,0.8481329650878906,0.037840527194988836,-0.029042360495586353,-0.013990890779298756,0.049919843673706055,2019-06-20 15:09:02:275
8.172482360839844,2.242135559082031,0.8002496643066406,0.0379736852494928,-0.029841308822610123,-0.01425720688830668,0.05503988265991211,2019-06-20 15:09:02:280
8.156920288085937,2.1930551757812498,0.8517242126464843,0.03930526579453242,-0.032104995749177474,-0.014124048833802718,0.059903860092163086,2019-06-20 15:09:02:285
8.124599060058594,2.2002376708984372,0.8840454406738281,0.03810684330399676,-0.027577621896042768,-0.014922997160826491,0.06502389907836914,2019-06-20 15:09:02:290
8.079109924316406,2.2050260009765625,0.8960162658691406,0.038240001358500725,-0.0295749927136022,-0.01478983910632253,0.06988787651062012,2019-06-20 15:09:02:295
8.06474493408203,2.1954493408203124,0.8864396057128906,0.04143579466659581,-0.03157236353116163,-0.015322471324338376,0.07500791549682617,2019-06-20 15:09:02:300
8.110234069824218,2.1954493408203124,0.8553154602050781,0.04090316244857996,-0.02811025411405862,-0.01478983910632253,0.07987189292907715,2019-06-20 15:09:02:305
8.075518676757813,2.2074201660156247,0.7954613342285156,0.03770736914048488,-0.029841308822610123,-0.01572194548785026,0.0849919319152832,2019-06-20 15:09:02:310
8.09347491455078,2.227770568847656,0.7846875915527344,0.038905791631020537,-0.03223815380368144,-0.015988261596858185,0.08985590934753418,2019-06-20 15:09:02:315
8.119810729980468,2.203828918457031,0.8840454406738281,0.04156895272109977,-0.03050709909512993,-0.016520893814874035,0.09497594833374023,2019-06-20 15:09:02:320
8.058759521484374,2.2493180541992186,0.8696804504394531,0.04103632050308392,-0.029974466877114084,-0.016520893814874035,0.09983992576599121,2019-06-20 15:09:02:325
8.077912841796875,2.2205880737304686,0.8349650573730468,0.04023737217606015,-0.028509728277570506,-0.016387735760370073,0.10495996475219727,2019-06-20 15:09:02:330
8.061153686523438,2.199040588378906,0.8672862854003907,0.04143579466659581,-0.02771077995054673,-0.01692036797838592,0.10982394218444824,2019-06-20 15:09:02:335
8.110234069824218,2.2205880737304686,0.8493300476074218,0.04090316244857996,-0.029441834659098238,-0.01692036797838592,0.1149439811706543,2019-06-20 15:09:02:340
8.128190307617187,2.225376403808594,0.9055929260253907,0.038905791631020537,-0.028509728277570506,-0.01758615929120303,0.11980795860290527,2019-06-20 15:09:02:345
8.109036987304687,2.22178515625,0.9283374938964843,0.03997105606705223,-0.027311305787034845,-0.01758615929120303,0.12492799758911133,2019-06-20 15:09:02:350
8.085095336914062,2.225376403808594,0.8708775329589844,0.041702110775603735,-0.02797709605955466,-0.016787209923881958,0.13004803657531738,2019-06-20 15:09:02:355
8.082701171875,2.2481209716796875,0.8505271301269531,0.039704739958044306,-0.02704498967802692,-0.0155887874333463,0.13491201400756836,2019-06-20 15:09:02:360
8.106642822265625,2.2517122192382812,0.8888337707519531,0.03943842384903638,-0.028376570223066545,-0.01625457770586611,0.14003205299377441,2019-06-20 15:09:02:365
8.079109924316406,2.227770568847656,0.9391112365722656,0.04116947855758789,-0.028509728277570506,-0.016121419651362146,0.1448960304260254,2019-06-20 15:09:02:370
8.081504089355468,2.242135559082031,0.9223520812988281,0.039837898012548265,-0.02691183162352296,-0.016387735760370073,0.15001606941223145,2019-06-20 15:09:02:375
8.071927429199219,2.254106384277344,0.8589067077636718,0.03850631746750865,-0.029042360495586353,-0.0155887874333463,0.15488004684448242,2019-06-20 15:09:02:380
8.0635478515625,2.270865539550781,0.8517242126464843,0.04090316244857996,-0.028243412168562583,-0.01478983910632253,0.15999984741210938,2019-06-20 15:09:02:385
8.097066162109375,2.2660772094726562,0.8493300476074218,0.04023737217606015,-0.02784393800505069,-0.015056155215330453,0.16486406326293945,2019-06-20 15:09:02:390
8.105445739746093,2.2481209716796875,0.8565125427246093,0.03850631746750865,-0.028509728277570506,-0.0155887874333463,0.1699838638305664,2019-06-20 15:09:02:395
8.112628234863282,2.2409384765625,0.8792571105957031,0.03917210774002846,-0.02784393800505069,-0.015988261596858185,0.17484807968139648,2019-06-20 15:09:02:400
8.100657409667969,2.215799743652344,0.8672862854003907,0.04023737217606015,-0.02877604438657843,-0.015322471324338376,0.17996788024902344,2019-06-20 15:09:02:405
8.116219482421874,2.2241793212890624,0.8768629455566406,0.03917210774002846,-0.028642886332074468,-0.015855103542354223,0.18483185768127441,2019-06-20 15:09:02:410
8.112628234863282,2.2337559814453125,0.8397533874511719,0.03744105303147695,-0.02771077995054673,-0.015056155215330453,0.18995189666748047,2019-06-20 15:09:02:415
8.097066162109375,2.2337559814453125,0.8948191833496093,0.03877263357651657,-0.02970815076810616,-0.015322471324338376,0.19481587409973145,2019-06-20 15:09:02:420
8.080307006835938,2.2469238891601564,0.9043958435058593,0.03877263357651657,-0.030240782986122008,-0.015056155215330453,0.1999359130859375,2019-06-20 15:09:02:425
8.098263244628907,2.255303466796875,0.8517242126464843,0.037840527194988836,-0.03117288936764974,-0.014922997160826491,0.20479989051818848,2019-06-20 15:09:02:430
8.101854492187499,2.2349530639648436,0.8409504699707031,0.037840527194988836,-0.03050709909512993,-0.014922997160826491,0.20991992950439453,2019-06-20 15:09:02:435
8.088686584472656,2.25051513671875,0.8684833679199219,0.03810684330399676,-0.0295749927136022,-0.014922997160826491,0.21503996849060059,2019-06-20 15:09:02:440
8.089883666992188,2.2576976318359376,0.8229942321777344,0.03650894664994922,-0.029308676604594276,-0.014656681051818568,0.21990394592285156,2019-06-20 15:09:02:445
8.101854492187499,2.2529093017578123,0.8816512756347656,0.03570999832292545,-0.029841308822610123,-0.014124048833802718,0.22502398490905762,2019-06-20 15:09:02:450
8.080307006835938,2.2481209716796875,0.8864396057128906,0.0369084208134611,-0.02970815076810616,-0.014390364942810641,0.2298879623413086,2019-06-20 15:09:02:455
8.095869079589843,2.2445297241210938,0.8613008728027344,0.037840527194988836,-0.029974466877114084,-0.013990890779298756,0.23500800132751465,2019-06-20 15:09:02:460
8.09347491455078,2.2493180541992186,0.8541183776855469,0.03664210470445318,-0.02970815076810616,-0.014656681051818568,0.23987197875976562,2019-06-20 15:09:02:465
8.085095336914062,2.2481209716796875,0.8349650573730468,0.03664210470445318,-0.030107624931618046,-0.014124048833802718,0.24499201774597168,2019-06-20 15:09:02:470
8.095869079589843,2.2337559814453125,0.8505271301269531,0.03597631443193337,-0.030773415204137854,-0.01425720688830668,0.24985599517822266,2019-06-20 15:09:02:475
8.09227783203125,2.22178515625,0.8840454406738281,0.03544368221391753,-0.03117288936764974,-0.01345825856128291,0.2549760341644287,2019-06-20 15:09:02:480
8.101854492187499,2.1858726806640623,0.8828483581542969,0.03570999832292545,-0.031039731313145778,-0.013857732724794795,0.2598400115966797,2019-06-20 15:09:02:485
8.088686584472656,2.213405578613281,0.8301767272949219,0.03597631443193337,-0.031306047422153704,-0.014390364942810641,0.26496005058288574,2019-06-20 15:09:02:490
8.162905700683593,2.2493180541992186,0.8732716979980468,0.037840527194988836,-0.030240782986122008,-0.016121419651362146,0.2698240280151367,2019-06-20 15:09:02:495
8.086292419433594,2.2409384765625,0.8792571105957031,0.03957158190354034,-0.02970815076810616,-0.014124048833802718,0.2749440670013428,2019-06-20 15:09:02:500
8.052774108886718,2.23136181640625,0.9211549987792969,0.03863947552201261,-0.030773415204137854,-0.015189313269834415,0.27980804443359375,2019-06-20 15:09:02:505
8.09347491455078,2.25051513671875,0.8265854797363281,0.03504420805040564,-0.02890920244108239,-0.016121419651362146,0.2849278450012207,2019-06-20 15:09:02:510
8.100657409667969,2.2445297241210938,0.8253883972167969,0.03437841777788583,-0.03050709909512993,-0.01478983910632253,0.29004788398742676,2019-06-20 15:09:02:515
8.09347491455078,2.2062230834960936,0.8744687805175781,0.0362426305409413,-0.031971837694673516,-0.015056155215330453,0.29491186141967773,2019-06-20 15:09:02:520
8.09347491455078,2.2433326416015626,0.8325708923339844,0.03744105303147695,-0.02877604438657843,-0.014922997160826491,0.3000319004058838,2019-06-20 15:09:02:525
8.070730346679687,2.260091796875,0.8684833679199219,0.03650894664994922,-0.02970815076810616,-0.015056155215330453,0.30489587783813477,2019-06-20 15:09:02:530
8.083898254394532,2.245726806640625,0.8553154602050781,0.03650894664994922,-0.029841308822610123,-0.01572194548785026,0.3100159168243408,2019-06-20 15:09:02:535
8.123401977539062,2.2517122192382812,0.8816512756347656,0.037174736922469025,-0.029974466877114084,-0.016520893814874035,0.3148798942565918,2019-06-20 15:09:02:540
8.082701171875,2.260091796875,0.8708775329589844,0.0362426305409413,-0.030240782986122008,-0.016121419651362146,0.31999993324279785,2019-06-20 15:09:02:545
8.069533264160157,2.25051513671875,0.8445417175292969,0.03610947248643733,-0.02970815076810616,-0.015455629378842338,0.32486391067504883,2019-06-20 15:09:02:550
8.118613647460938,2.2409384765625,0.8457388000488281,0.037174736922469025,-0.028642886332074468,-0.016121419651362146,0.3299839496612549,2019-06-20 15:09:02:555
8.082701171875,2.2732597045898437,0.8732716979980468,0.037174736922469025,-0.0295749927136022,-0.01572194548785026,0.33484792709350586,2019-06-20 15:09:02:560
8.080307006835938,2.25051513671875,0.8972133483886718,0.036375788595445255,-0.029308676604594276,-0.015455629378842338,0.3399679660797119,2019-06-20 15:09:02:565
8.046788696289063,2.236150146484375,0.860103790283203,0.036375788595445255,-0.02811025411405862,-0.016121419651362146,0.3448319435119629,2019-06-20 15:09:02:570
8.0635478515625,2.2445297241210938,0.8648921203613281,0.03664210470445318,-0.02811025411405862,-0.015988261596858185,0.34995198249816895,2019-06-20 15:09:02:575
8.098263244628907,2.2205880737304686,0.8565125427246093,0.03650894664994922,-0.029175518550090315,-0.01625457770586611,0.3548159599304199,2019-06-20 15:09:02:580
8.103051574707031,2.227770568847656,0.8624979553222656,0.03650894664994922,-0.028509728277570506,-0.016387735760370073,0.359935998916626,2019-06-20 15:09:02:585
8.09347491455078,2.260091796875,0.8493300476074218,0.0369084208134611,-0.029308676604594276,-0.01572194548785026,0.36505603790283203,2019-06-20 15:09:02:590
8.076715759277343,2.260091796875,0.8648921203613281,0.036375788595445255,-0.027577621896042768,-0.015455629378842338,0.369920015335083,2019-06-20 15:09:02:595
8.075518676757813,2.2588947143554687,0.8541183776855469,0.037174736922469025,-0.028509728277570506,-0.015189313269834415,0.37504005432128906,2019-06-20 15:09:02:600
8.097066162109375,2.226573486328125,0.8660892028808593,0.037174736922469025,-0.0295749927136022,-0.015455629378842338,0.37990403175354004,2019-06-20 15:09:02:605
8.104248657226563,2.2469238891601564,0.8684833679199219,0.03810684330399676,-0.029175518550090315,-0.0155887874333463,0.3850240707397461,2019-06-20 15:09:02:610
8.0635478515625,2.2529093017578123,0.8960162658691406,0.0379736852494928,-0.029175518550090315,-0.015189313269834415,0.38988804817199707,2019-06-20 15:09:02:615
8.09227783203125,2.2660772094726562,0.8888337707519531,0.037840527194988836,-0.029175518550090315,-0.014656681051818568,0.395007848739624,2019-06-20 15:09:02:620
8.09347491455078,2.2588947143554687,0.8541183776855469,0.03877263357651657,-0.028243412168562583,-0.014390364942810641,0.3998720645904541,2019-06-20 15:09:02:625
8.061153686523438,2.260091796875,0.8565125427246093,0.03877263357651657,-0.02797709605955466,-0.015455629378842338,0.40499186515808105,2019-06-20 15:09:02:630
8.085095336914062,2.2720626220703126,0.8756658630371094,0.0379736852494928,-0.027178147732530883,-0.014656681051818568,0.40985584259033203,2019-06-20 15:09:02:635
8.098263244628907,2.242135559082031,0.9031987609863281,0.03850631746750865,-0.02771077995054673,-0.013724574670290833,0.4149758815765381,2019-06-20 15:09:02:640
8.082701171875,2.2409384765625,0.8960162658691406,0.03917210774002846,-0.028376570223066545,-0.01345825856128291,0.41983985900878906,2019-06-20 15:09:02:645
8.088686584472656,2.25051513671875,0.8397533874511719,0.037840527194988836,-0.02890920244108239,-0.014656681051818568,0.4249598979949951,2019-06-20 15:09:02:650
8.079109924316406,2.2612888793945314,0.8517242126464843,0.03744105303147695,-0.029042360495586353,-0.014390364942810641,0.4298238754272461,2019-06-20 15:09:02:655
8.079109924316406,2.2780480346679686,0.8613008728027344,0.03863947552201261,-0.02877604438657843,-0.013058784397771025,0.43494391441345215,2019-06-20 15:09:02:660
8.080307006835938,2.239741394042969,0.8493300476074218,0.03837315941300468,-0.029042360495586353,-0.012526152179755175,0.4398078918457031,2019-06-20 15:09:02:665
8.069533264160157,2.2469238891601564,0.8732716979980468,0.03863947552201261,-0.029974466877114084,-0.01265931023425914,0.4449279308319092,2019-06-20 15:09:02:670
8.083898254394532,2.2517122192382812,0.8684833679199219,0.03863947552201261,-0.02890920244108239,-0.01345825856128291,0.45004796981811523,2019-06-20 15:09:02:675
8.06474493408203,2.2983984375,0.8337679748535156,0.039704739958044306,-0.02877604438657843,-0.01425720688830668,0.4549119472503662,2019-06-20 15:09:02:680
8.088686584472656,2.2660772094726562,0.8122204895019531,0.03837315941300468,-0.029441834659098238,-0.013058784397771025,0.46003198623657227,2019-06-20 15:09:02:685
8.112628234863282,2.274456787109375,0.8469358825683594,0.03744105303147695,-0.029441834659098238,-0.012792468288763102,0.46489596366882324,2019-06-20 15:09:02:690
8.089883666992188,2.2576976318359376,0.9175637512207031,0.038240001358500725,-0.029042360495586353,-0.012526152179755175,0.4700160026550293,2019-06-20 15:09:02:695
8.069533264160157,2.2924130249023436,0.8720746154785156,0.0379736852494928,-0.028243412168562583,-0.01265931023425914,0.4748799800872803,2019-06-20 15:09:02:700
8.105445739746093,2.2864276123046876,0.8636950378417969,0.037041578867965066,-0.027311305787034845,-0.012259836070747251,0.48000001907348633,2019-06-20 15:09:02:705
8.109036987304687,2.3043838500976563,0.8648921203613281,0.038240001358500725,-0.029175518550090315,-0.011594045798227443,0.4848639965057373,2019-06-20 15:09:02:710
8.106642822265625,2.2768509521484375,0.8349650573730468,0.037174736922469025,-0.028642886332074468,-0.011194571634715558,0.48998403549194336,2019-06-20 15:09:02:715
8.098263244628907,2.2924130249023436,0.8541183776855469,0.036375788595445255,-0.02970815076810616,-0.01066193941669971,0.49484801292419434,2019-06-20 15:09:02:720
8.098263244628907,2.2864276123046876,0.8744687805175781,0.03597631443193337,-0.029974466877114084,-0.010528781362195748,0.4999680519104004,2019-06-20 15:09:02:725
8.116219482421874,2.2900188598632814,0.8876366882324218,0.03664210470445318,-0.030107624931618046,-0.010262465253187823,0.5048320293426514,2019-06-20 15:09:02:730
8.077912841796875,2.2960042724609373,0.8541183776855469,0.03584315637742941,-0.030107624931618046,-0.008531410544636318,0.5099520683288574,2019-06-20 15:09:02:735
8.068336181640625,2.322340087890625,0.8349650573730468,0.0351773661049096,-0.02890920244108239,-0.008398252490132357,0.5148160457611084,2019-06-20 15:09:02:740
8.051577026367188,2.3343109130859374,0.8577096252441406,0.035576840268421485,-0.030640257149633893,-0.0070666719450927385,0.5199358463287354,2019-06-20 15:09:02:745
8.075518676757813,2.3163546752929687,0.8936221008300781,0.03570999832292545,-0.03143920547665766,-0.006933513890588777,0.5248000621795654,2019-06-20 15:09:02:750
8.069533264160157,2.328325500488281,0.9008045959472656,0.03424525972338187,-0.0323713118581854,-0.005335617236541234,0.5299198627471924,2019-06-20 15:09:02:755
8.082701171875,2.3055809326171874,0.8672862854003907,0.03424525972338187,-0.032903944076201244,-0.0038708786369976524,0.5350399017333984,2019-06-20 15:09:02:760
8.100657409667969,2.2960042724609373,0.8636950378417969,0.03451157583238979,-0.031971837694673516,-0.0038708786369976524,0.5399038791656494,2019-06-20 15:09:02:765
8.101854492187499,2.2924130249023436,0.8684833679199219,0.03331315334185413,-0.033170260185209174,-0.0033382464189818046,0.5450239181518555,2019-06-20 15:09:02:770
8.097066162109375,2.3019896850585937,0.8924250183105469,0.032913679178342245,-0.03330341823971313,-0.0024061400374540713,0.5498878955841064,2019-06-20 15:09:02:775
8.101854492187499,2.3055809326171874,0.8948191833496093,0.03304683723284621,-0.03423552462124087,-0.0016071917104302999,0.5550079345703125,2019-06-20 15:09:02:780
8.103051574707031,2.2924130249023436,0.9043958435058593,0.03198157279681452,-0.032770786021697286,-0.0006750853289025666,0.5598719120025635,2019-06-20 15:09:02:785
8.09227783203125,2.28882177734375,0.8768629455566406,0.030783150306278855,-0.03250446991268936,-0.0004087692198946427,0.5649919509887695,2019-06-20 15:09:02:790
8.103051574707031,2.28882177734375,0.8684833679199219,0.03025051808826301,-0.0323713118581854,0.00012386299812120486,0.5698559284210205,2019-06-20 15:09:02:795
8.107839904785155,2.280442199707031,0.8672862854003907,0.03038367614276697,-0.03383605045772898,0.0007896532706410145,0.5749759674072266,2019-06-20 15:09:02:800
8.099460327148437,2.2983984375,0.9079870910644531,0.03038367614276697,-0.035034475028859244,0.0007896532706410145,0.5798399448394775,2019-06-20 15:09:02:805
8.097066162109375,2.297201354980469,0.898410430908203,0.029984201979255085,-0.0351676330833632,0.0014554435431608239,0.5849599838256836,2019-06-20 15:09:02:810
8.080307006835938,2.3019896850585937,0.8660892028808593,0.03144894057879867,-0.0351676330833632,0.0025207079791925192,0.5898239612579346,2019-06-20 15:09:02:815
8.143752380371094,2.30797509765625,0.8541183776855469,0.030783150306278855,-0.0341023665667369,0.0035859724152242146,0.5949440002441406,2019-06-20 15:09:02:820
8.106642822265625,2.3043838500976563,0.8696804504394531,0.0295847278157432,-0.03649921362840282,0.005317027123775719,0.5998079776763916,2019-06-20 15:09:02:825
8.081504089355468,2.280442199707031,0.8589067077636718,0.03038367614276697,-0.034768156839256714,0.004518078796751947,0.6049280166625977,2019-06-20 15:09:02:830
8.11143115234375,2.28882177734375,0.8469358825683594,0.029318411706735277,-0.0334365762942171,0.005050711014767796,0.6100480556488037,2019-06-20 15:09:02:835
8.085095336914062,2.284033447265625,0.8648921203613281,0.029052095597727354,-0.03570026530137905,0.004917552960263833,0.6149120330810547,2019-06-20 15:09:02:840
8.045591613769531,2.260091796875,0.8840454406738281,0.0295847278157432,-0.033969208512232944,0.006648607668815338,0.6200320720672607,2019-06-20 15:09:02:845
8.097066162109375,2.2780480346679686,0.8624979553222656,0.0295847278157432,-0.033969208512232944,0.006914923777823262,0.6248960494995117,2019-06-20 15:09:02:850
8.058759521484374,2.254106384277344,0.8074321594238281,0.029318411706735277,-0.03303710213070521,0.006382291559807415,0.6300158500671387,2019-06-20 15:09:02:855
8.058759521484374,2.236150146484375,0.8445417175292969,0.030649992251774894,-0.03263762796719332,0.007314397941335148,0.6348800659179688,2019-06-20 15:09:02:860
8.071927429199219,2.2205880737304686,0.8098263244628906,0.03144894057879867,-0.03117288936764974,0.0065154496143113765,0.6399998664855957,2019-06-20 15:09:02:865
8.110234069824218,2.218193908691406,0.8194029846191406,0.03104946641528678,-0.03117288936764974,0.006648607668815338,0.6448638439178467,2019-06-20 15:09:02:870
8.119810729980468,2.225376403808594,0.783490509033203,0.032514205014830364,-0.033170260185209174,0.0058496593417915665,0.6499838829040527,2019-06-20 15:09:02:875
8.107839904785155,2.187069763183594,0.821797149658203,0.03451157583238979,-0.032104995749177474,0.005982817396295529,0.6548478603363037,2019-06-20 15:09:02:880
8.061153686523438,2.2050260009765625,0.8373592224121094,0.03357946945086206,-0.030107624931618046,0.006648607668815338,0.6599678993225098,2019-06-20 15:09:02:885
8.04439453125,2.239741394042969,0.821797149658203,0.034777891941397715,-0.03143920547665766,0.005450185178279681,0.6648318767547607,2019-06-20 15:09:02:890
8.0635478515625,2.199040588378906,0.8253883972167969,0.0369084208134611,-0.028642886332074468,0.005317027123775719,0.6699519157409668,2019-06-20 15:09:02:895
8.09227783203125,2.188266845703125,0.8265854797363281,0.0369084208134611,-0.027577621896042768,0.005183869069271757,0.6748158931732178,2019-06-20 15:09:02:900
8.074321594238281,2.175098937988281,0.8014467468261719,0.037174736922469025,-0.02784393800505069,0.004251762687744024,0.6799359321594238,2019-06-20 15:09:02:905
8.12220489501953,2.1379893798828125,0.8098263244628906,0.03917210774002846,-0.027577621896042768,0.0035859724152242146,0.6850559711456299,2019-06-20 15:09:02:910
8.12220489501953,2.127215637207031,0.8194029846191406,0.040503688285068076,-0.02877604438657843,0.0017217596521687478,0.6899199485778809,2019-06-20 15:09:02:915
8.075518676757813,2.158339782714844,0.8098263244628906,0.04037053023056411,-0.02691183162352296,0.0003901791071291287,0.6950399875640869,2019-06-20 15:09:02:920
8.1210078125,2.172704772949219,0.7978554992675781,0.04156895272109977,-0.026379199405507113,-0.0010745594924144524,0.6999039649963379,2019-06-20 15:09:02:925
8.126993225097657,2.1631281127929687,0.8313738098144531,0.042501059102627504,-0.025580251078483343,-0.0022729819829501096,0.705024003982544,2019-06-20 15:09:02:930
8.126993225097657,2.160733947753906,0.8385563049316406,0.04290053326613939,-0.024115512478939758,-0.0020066658739421855,0.7098879814147949,2019-06-20 15:09:02:935
8.107839904785155,2.1619310302734376,0.8768629455566406,0.0446315879746909,-0.023183406097412027,-0.002938772255469919,0.715008020401001,2019-06-20 15:09:02:940
8.110234069824218,2.175098937988281,0.8481329650878906,0.045963168519730514,-0.023982354424435796,-0.004270352800509538,0.719871997833252,2019-06-20 15:09:02:945
8.088686584472656,2.1774931030273437,0.8014467468261719,0.04569685241072259,-0.02344972220641995,-0.0050693011275333094,0.724992036819458,2019-06-20 15:09:02:950
8.117416564941406,2.1655222778320313,0.821797149658203,0.04423211381117901,-0.02344972220641995,-0.006267723618068967,0.729856014251709,2019-06-20 15:09:02:955
8.089883666992188,2.1679164428710935,0.8349650573730468,0.045963168519730514,-0.023716038315427873,-0.008398252490132357,0.734976053237915,2019-06-20 15:09:02:960
8.099460327148437,2.1906610107421876,0.8613008728027344,0.047161591010266166,-0.022917089988404103,-0.00933035887166009,0.739840030670166,2019-06-20 15:09:02:965
8.083898254394532,2.1822814331054685,0.9091841735839844,0.047694223228282026,-0.022118141661380333,-0.010395623307691787,0.7449600696563721,2019-06-20 15:09:02:970
8.071927429199219,2.22178515625,0.8972133483886718,0.04822685544629787,-0.02344972220641995,-0.010795097471203672,0.749824047088623,2019-06-20 15:09:02:975
8.097066162109375,2.216996826171875,0.8541183776855469,0.04836001350080183,-0.02278393193390014,-0.011594045798227443,0.75494384765625,2019-06-20 15:09:02:980
8.091080749511718,2.226573486328125,0.8948191833496093,0.047694223228282026,-0.023316564151915988,-0.011993519961739328,0.7598080635070801,2019-06-20 15:09:02:985
8.106642822265625,2.188266845703125,0.9055929260253907,0.04729474906477013,-0.02344972220641995,-0.011993519961739328,0.764927864074707,2019-06-20 15:09:02:990
8.107839904785155,2.2050260009765625,0.8613008728027344,0.047827381282785984,-0.023982354424435796,-0.013058784397771025,0.7700479030609131,2019-06-20 15:09:02:995
8.097066162109375,2.2289676513671877,0.8206000671386718,0.04796053933728995,-0.025180776914971458,-0.012925626343267063,0.7749118804931641,2019-06-20 15:09:03:000
8.112628234863282,2.2241793212890624,0.8277825622558593,0.047694223228282026,-0.024781302751459573,-0.01345825856128291,0.7800319194793701,2019-06-20 15:09:03:005
8.09347491455078,2.245726806640625,0.860103790283203,0.04756106517377806,-0.025713409132987305,-0.013325100506778948,0.7848958969116211,2019-06-20 15:09:03:010
8.083898254394532,2.2337559814453125,0.8888337707519531,0.04702843295576221,-0.02611288329649919,-0.013325100506778948,0.7900159358978271,2019-06-20 15:09:03:015
8.071927429199219,2.2241793212890624,0.8864396057128906,0.04689527490125824,-0.025713409132987305,-0.013591416615786871,0.7948799133300781,2019-06-20 15:09:03:020
8.076715759277343,2.2325588989257814,0.8912279357910156,0.04702843295576221,-0.026512357460011075,-0.014656681051818568,0.7999999523162842,2019-06-20 15:09:03:025
8.089883666992188,2.2373472290039063,0.898410430908203,0.047161591010266166,-0.027178147732530883,-0.013724574670290833,0.8048639297485352,2019-06-20 15:09:03:030
8.104248657226563,2.239741394042969,0.8780600280761719,0.04702843295576221,-0.025047618860467497,-0.01425720688830668,0.8099839687347412,2019-06-20 15:09:03:035
8.070730346679687,2.254106384277344,0.8864396057128906,0.04449842992018693,-0.02544709302397938,-0.014656681051818568,0.8148479461669922,2019-06-20 15:09:03:040
8.075518676757813,2.254106384277344,0.9008045959472656,0.04436527186568297,-0.02531393496947542,-0.014390364942810641,0.8199679851531982,2019-06-20 15:09:03:045
8.089883666992188,2.254106384277344,0.9020016784667969,0.04489790408369882,-0.025979725241995228,-0.01425720688830668,0.8248319625854492,2019-06-20 15:09:03:050
8.103051574707031,2.2445297241210938,0.9319287414550781,0.044098955756675044,-0.02624604135100315,-0.013990890779298756,0.8299520015716553,2019-06-20 15:09:03:055
8.110234069824218,2.255303466796875,0.8565125427246093,0.044098955756675044,-0.025047618860467497,-0.013990890779298756,0.8348159790039062,2019-06-20 15:09:03:060
8.095869079589843,2.2636830444335936,0.8505271301269531,0.043965797702171086,-0.026379199405507113,-0.013325100506778948,0.8399360179901123,2019-06-20 15:09:03:065
8.087489501953124,2.256500549316406,0.8768629455566406,0.04423211381117901,-0.02691183162352296,-0.012526152179755175,0.8447999954223633,2019-06-20 15:09:03:070
8.068336181640625,2.2588947143554687,0.898410430908203,0.043166849375147316,-0.02771077995054673,-0.013058784397771025,0.8499200344085693,2019-06-20 15:09:03:075
8.089883666992188,2.2588947143554687,0.9008045959472656,0.04290053326613939,-0.02691183162352296,-0.012792468288763102,0.8550400733947754,2019-06-20 15:09:03:080
8.068336181640625,2.264880126953125,0.9259433288574218,0.042501059102627504,-0.026645515514515036,-0.012925626343267063,0.8599040508270264,2019-06-20 15:09:03:085
8.074321594238281,2.260091796875,0.9127754211425781,0.042501059102627504,-0.027178147732530883,-0.012792468288763102,0.8650238513946533,2019-06-20 15:09:03:090
8.05397119140625,2.2720626220703126,0.9043958435058593,0.042367901048123546,-0.028243412168562583,-0.011727203852731405,0.8698880672454834,2019-06-20 15:09:03:095
8.052774108886718,2.284033447265625,0.898410430908203,0.041702110775603735,-0.029308676604594276,-0.010528781362195748,0.8750078678131104,2019-06-20 15:09:03:100
8.039606201171875,2.2612888793945314,0.8660892028808593,0.04143579466659581,-0.029308676604594276,-0.0099961491441799,0.8798718452453613,2019-06-20 15:09:03:105
8.069533264160157,2.242135559082031,0.8648921203613281,0.04116947855758789,-0.02890920244108239,-0.009064042762652167,0.8849918842315674,2019-06-20 15:09:03:110
8.103051574707031,2.25051513671875,0.8529212951660156,0.04116947855758789,-0.02797709605955466,-0.00933035887166009,0.8898558616638184,2019-06-20 15:09:03:115
8.07312451171875,2.2672742919921873,0.8684833679199219,0.04103632050308392,-0.02877604438657843,-0.009463516926164052,0.8949759006500244,2019-06-20 15:09:03:120
8.081504089355468,2.2469238891601564,0.8265854797363281,0.04037053023056411,-0.028243412168562583,-0.008797726653644243,0.8998398780822754,2019-06-20 15:09:03:125
8.059956604003906,2.23136181640625,0.8565125427246093,0.039837898012548265,-0.029175518550090315,-0.008398252490132357,0.9049599170684814,2019-06-20 15:09:03:130
8.0635478515625,2.236150146484375,0.8912279357910156,0.04037053023056411,-0.029308676604594276,-0.008265094435628395,0.9098238945007324,2019-06-20 15:09:03:135
8.089883666992188,2.2624859619140625,0.8660892028808593,0.03957158190354034,-0.029175518550090315,-0.008531410544636318,0.9149439334869385,2019-06-20 15:09:03:140
8.077912841796875,2.2576976318359376,0.8529212951660156,0.03917210774002846,-0.029841308822610123,-0.007599304163108585,0.9198079109191895,2019-06-20 15:09:03:145
8.075518676757813,2.260091796875,0.8768629455566406,0.039837898012548265,-0.02890920244108239,-0.008265094435628395,0.9249279499053955,2019-06-20 15:09:03:150
8.085095336914062,2.2588947143554687,0.8636950378417969,0.03997105606705223,-0.030107624931618046,-0.008531410544636318,0.9300479888916016,2019-06-20 15:09:03:155
8.09347491455078,2.260091796875,0.8840454406738281,0.039038949685524495,-0.029841308822610123,-0.008131936381124433,0.9349119663238525,2019-06-20 15:09:03:160
8.107839904785155,2.2588947143554687,0.8565125427246093,0.03850631746750865,-0.02970815076810616,-0.008131936381124433,0.9400320053100586,2019-06-20 15:09:03:165
8.128190307617187,2.2756538696289064,0.8768629455566406,0.0379736852494928,-0.029974466877114084,-0.006933513890588777,0.9448959827423096,2019-06-20 15:09:03:170
8.117416564941406,2.256500549316406,0.8194029846191406,0.03650894664994922,-0.031039731313145778,-0.0071998299995967,0.9500160217285156,2019-06-20 15:09:03:175
8.094671997070312,2.268471374511719,0.8457388000488281,0.037041578867965066,-0.031039731313145778,-0.006933513890588777,0.9548799991607666,2019-06-20 15:09:03:180
8.082701171875,2.264880126953125,0.8445417175292969,0.037041578867965066,-0.029974466877114084,-0.007332988054100662,0.9600000381469727,2019-06-20 15:09:03:185
8.110234069824218,2.2481209716796875,0.8517242126464843,0.03730789497697299,-0.03037394104062597,-0.007998778326620472,0.9648640155792236,2019-06-20 15:09:03:190
8.124599060058594,2.2469238891601564,0.8624979553222656,0.0369084208134611,-0.030107624931618046,-0.007332988054100662,0.9699840545654297,2019-06-20 15:09:03:195
8.112628234863282,2.2289676513671877,0.8660892028808593,0.036375788595445255,-0.030240782986122008,-0.007599304163108585,0.9748480319976807,2019-06-20 15:09:03:200
8.079109924316406,2.2337559814453125,0.8325708923339844,0.03610947248643733,-0.03050709909512993,-0.007599304163108585,0.9799680709838867,2019-06-20 15:09:03:205
8.101854492187499,2.2517122192382812,0.8481329650878906,0.03584315637742941,-0.029974466877114084,-0.0071998299995967,0.9848320484161377,2019-06-20 15:09:03:210
8.085095336914062,2.2241793212890624,0.8361621398925781,0.03584315637742941,-0.030640257149633893,-0.00786562027211651,0.9899518489837646,2019-06-20 15:09:03:215
8.09227783203125,2.216996826171875,0.8493300476074218,0.03597631443193337,-0.030240782986122008,-0.009197200817156128,0.9948160648345947,2019-06-20 15:09:03:220
8.130584472656249,2.218193908691406,0.8912279357910156,0.0362426305409413,-0.030240782986122008,-0.009463516926164052,0.9999358654022217,2019-06-20 15:09:03:225
8.100657409667969,2.25051513671875,0.8744687805175781,0.0351773661049096,-0.029974466877114084,-0.009463516926164052,1.0050559043884277,2019-06-20 15:09:03:230
8.101854492187499,2.2349530639648436,0.8493300476074218,0.0351773661049096,-0.03037394104062597,-0.010129307198683862,1.0099198818206787,2019-06-20 15:09:03:235
8.101854492187499,2.2433326416015626,0.8613008728027344,0.03570999832292545,-0.030640257149633893,-0.0099961491441799,1.0150399208068848,2019-06-20 15:09:03:240
8.09227783203125,2.215799743652344,0.9127754211425781,0.03597631443193337,-0.03037394104062597,-0.011194571634715558,1.0199038982391357,2019-06-20 15:09:03:245
8.113825317382812,2.2445297241210938,0.8816512756347656,0.03610947248643733,-0.03050709909512993,-0.011727203852731405,1.0250239372253418,2019-06-20 15:09:03:250
8.095869079589843,2.2529093017578123,0.8529212951660156,0.03610947248643733,-0.03050709909512993,-0.011194571634715558,1.0298879146575928,2019-06-20 15:09:03:255
8.101854492187499,2.256500549316406,0.8876366882324218,0.03597631443193337,-0.030773415204137854,-0.011594045798227443,1.0350079536437988,2019-06-20 15:09:03:260
8.101854492187499,2.2289676513671877,0.9031987609863281,0.03531052415941356,-0.03143920547665766,-0.011993519961739328,1.0398719310760498,2019-06-20 15:09:03:265
8.124599060058594,2.260091796875,0.8852425231933594,0.03504420805040564,-0.03050709909512993,-0.01132772968921952,1.0449919700622559,2019-06-20 15:09:03:270
8.119810729980468,2.2229822387695313,0.8613008728027344,0.03544368221391753,-0.029308676604594276,-0.012925626343267063,1.0498559474945068,2019-06-20 15:09:03:275
8.119810729980468,2.2433326416015626,0.8792571105957031,0.034777891941397715,-0.02970815076810616,-0.013058784397771025,1.054975986480713,2019-06-20 15:09:03:280
8.116219482421874,2.25051513671875,0.9079870910644531,0.03437841777788583,-0.030107624931618046,-0.01345825856128291,1.0598399639129639,2019-06-20 15:09:03:285
8.091080749511718,2.201434753417969,0.8744687805175781,0.03437841777788583,-0.030773415204137854,-0.013058784397771025,1.06496000289917,2019-06-20 15:09:03:290
8.094671997070312,2.2193909912109375,0.8373592224121094,0.03397894361437394,-0.030640257149633893,-0.013325100506778948,1.069823980331421,2019-06-20 15:09:03:295
8.077912841796875,2.239741394042969,0.8780600280761719,0.03344631139635809,-0.029841308822610123,-0.013058784397771025,1.074944019317627,2019-06-20 15:09:03:300
8.057562438964844,2.2349530639648436,0.8636950378417969,0.03344631139635809,-0.030773415204137854,-0.013857732724794795,1.079807996749878,2019-06-20 15:09:03:305
8.09227783203125,2.22178515625,0.8720746154785156,0.03357946945086206,-0.030773415204137854,-0.01425720688830668,1.084928035736084,2019-06-20 15:09:03:310
8.095869079589843,2.2529093017578123,0.8696804504394531,0.03384578555986998,-0.03157236353116163,-0.013191942452274986,1.09004807472229,2019-06-20 15:09:03:315
8.081504089355468,2.2325588989257814,0.8624979553222656,0.03357946945086206,-0.03143920547665766,-0.013857732724794795,1.094912052154541,2019-06-20 15:09:03:320
8.105445739746093,2.2146026611328122,0.860103790283203,0.03424525972338187,-0.030906573258641816,-0.014922997160826491,1.100031852722168,2019-06-20 15:09:03:325
8.085095336914062,2.225376403808594,0.8253883972167969,0.03437841777788583,-0.029974466877114084,-0.015322471324338376,1.104896068572998,2019-06-20 15:09:03:330
8.067139099121093,2.2349530639648436,0.8349650573730468,0.03424525972338187,-0.03050709909512993,-0.01478983910632253,1.110015869140625,2019-06-20 15:09:03:335
8.082701171875,2.2433326416015626,0.8553154602050781,0.03491104999590168,-0.029441834659098238,-0.0155887874333463,1.114879846572876,2019-06-20 15:09:03:340
8.097066162109375,2.2349530639648436,0.8648921203613281,0.034777891941397715,-0.029441834659098238,-0.01625457770586611,1.119999885559082,2019-06-20 15:09:03:345
8.09227783203125,2.2241793212890624,0.8529212951660156,0.033712627505366015,-0.0295749927136022,-0.016520893814874035,1.124863862991333,2019-06-20 15:09:03:350
8.097066162109375,2.2241793212890624,0.8457388000488281,0.03437841777788583,-0.029441834659098238,-0.017186684087393843,1.129983901977539,2019-06-20 15:09:03:355
8.106642822265625,2.2110114135742185,0.8553154602050781,0.03451157583238979,-0.028376570223066545,-0.017319842141897804,1.13484787940979,2019-06-20 15:09:03:360
8.087489501953124,2.2301647338867188,0.8648921203613281,0.03384578555986998,-0.029841308822610123,-0.016654051869377996,1.139967918395996,2019-06-20 15:09:03:365
8.110234069824218,2.245726806640625,0.8433446350097656,0.03504420805040564,-0.03037394104062597,-0.017852475400210954,1.144831895828247,2019-06-20 15:09:03:370
8.086292419433594,2.2588947143554687,0.8684833679199219,0.03664210470445318,-0.029441834659098238,-0.017852475400210954,1.1499519348144531,2019-06-20 15:09:03:375
8.106642822265625,2.26966845703125,0.8636950378417969,0.036375788595445255,-0.02890920244108239,-0.0183851076182268,1.154815912246704,2019-06-20 15:09:03:380
8.104248657226563,2.2409384765625,0.8912279357910156,0.035576840268421485,-0.030906573258641816,-0.018917739836242647,1.1599359512329102,2019-06-20 15:09:03:385
8.091080749511718,2.23136181640625,0.8756658630371094,0.03597631443193337,-0.030107624931618046,-0.019317213999754532,1.1647999286651611,2019-06-20 15:09:03:390
8.099460327148437,2.2193909912109375,0.8589067077636718,0.036375788595445255,-0.03117288936764974,-0.01905089789074661,1.1699199676513672,2019-06-20 15:09:03:395
8.104248657226563,2.2193909912109375,0.8529212951660156,0.0369084208134611,-0.02970815076810616,-0.019450372054258497,1.1750400066375732,2019-06-20 15:09:03:400
8.110234069824218,2.2301647338867188,0.8433446350097656,0.03677526275895714,-0.02797709605955466,-0.019849846217770382,1.1799039840698242,2019-06-20 15:09:03:405
8.098263244628907,2.23136181640625,0.8373592224121094,0.03730789497697299,-0.02890920244108239,-0.02038247843578623,1.1850240230560303,2019-06-20 15:09:03:410
8.105445739746093,2.218193908691406,0.860103790283203,0.0369084208134611,-0.028509728277570506,-0.020915110653802076,1.1898880004882812,2019-06-20 15:09:03:415
8.099460327148437,2.2373472290039063,0.821797149658203,0.03584315637742941,-0.02811025411405862,-0.021447742871817926,1.1950080394744873,2019-06-20 15:09:03:420
8.116219482421874,2.2193909912109375,0.8110234069824218,0.03650894664994922,-0.029042360495586353,-0.022113533144337734,1.1998720169067383,2019-06-20 15:09:03:425
8.107839904785155,2.2529093017578123,0.8433446350097656,0.03757421108598091,-0.02890920244108239,-0.02184721703532981,1.2049920558929443,2019-06-20 15:09:03:430
8.12220489501953,2.2493180541992186,0.8864396057128906,0.03850631746750865,-0.028509728277570506,-0.021980375089833772,1.2098560333251953,2019-06-20 15:09:03:435
8.080307006835938,2.242135559082031,0.9020016784667969,0.03877263357651657,-0.028376570223066545,-0.02184721703532981,1.2149760723114014,2019-06-20 15:09:03:440
8.0635478515625,2.2636830444335936,0.8792571105957031,0.03850631746750865,-0.028642886332074468,-0.022379849253345657,1.2198400497436523,2019-06-20 15:09:03:445
8.068336181640625,2.2756538696289064,0.8541183776855469,0.0379736852494928,-0.02877604438657843,-0.023578271743881312,1.2249598503112793,2019-06-20 15:09:03:450
8.117416564941406,2.264880126953125,0.8792571105957031,0.03877263357651657,-0.02811025411405862,-0.023977745907393204,1.2298240661621094,2019-06-20 15:09:03:455
8.115022399902344,2.256500549316406,0.8529212951660156,0.03943842384903638,-0.028243412168562583,-0.024244062016401127,1.2349438667297363,2019-06-20 15:09:03:460
8.104248657226563,2.255303466796875,0.8696804504394531,0.04010421412155619,-0.027577621896042768,-0.023977745907393204,1.2398078441619873,2019-06-20 15:09:03:465
8.086292419433594,2.2576976318359376,0.8409504699707031,0.04116947855758789,-0.02691183162352296,-0.02437722007090509,1.2449278831481934,2019-06-20 15:09:03:470
8.083898254394532,2.2624859619140625,0.8589067077636718,0.040503688285068076,-0.02797709605955466,-0.025043010343424897,1.2500479221343994,2019-06-20 15:09:03:475
8.099460327148437,2.2636830444335936,0.8624979553222656,0.040503688285068076,-0.02691183162352296,-0.025442484506936782,1.2549118995666504,2019-06-20 15:09:03:480
8.076715759277343,2.2433326416015626,0.8780600280761719,0.040636846339572034,-0.027577621896042768,-0.023977745907393204,1.2600319385528564,2019-06-20 15:09:03:485
8.077912841796875,2.2241793212890624,0.8828483581542969,0.04090316244857996,-0.02771077995054673,-0.023977745907393204,1.2648959159851074,2019-06-20 15:09:03:490
8.082701171875,2.2732597045898437,0.8481329650878906,0.041302636612091846,-0.02771077995054673,-0.024776694234416974,1.2700159549713135,2019-06-20 15:09:03:495
8.094671997070312,2.2792451171875,0.8696804504394531,0.040636846339572034,-0.027577621896042768,-0.024909852288920935,1.2748799324035645,2019-06-20 15:09:03:500
8.095869079589843,2.2660772094726562,0.8517242126464843,0.042101584939115616,-0.026778673569018998,-0.025708800615944705,1.2799999713897705,2019-06-20 15:09:03:505
8.099460327148437,2.270865539550781,0.8864396057128906,0.04196842688461166,-0.028243412168562583,-0.02597511672495263,1.2848639488220215,2019-06-20 15:09:03:510
8.075518676757813,2.2732597045898437,0.8613008728027344,0.041302636612091846,-0.028376570223066545,-0.02530932645243282,1.2899839878082275,2019-06-20 15:09:03:515
8.09347491455078,2.30797509765625,0.8648921203613281,0.04156895272109977,-0.028642886332074468,-0.02517616839792886,1.2948479652404785,2019-06-20 15:09:03:520
8.087489501953124,2.3199459228515624,0.8457388000488281,0.04223474299361958,-0.02890920244108239,-0.024244062016401127,1.2999680042266846,2019-06-20 15:09:03:525
8.086292419433594,2.312763427734375,0.8828483581542969,0.04183526883010769,-0.02797709605955466,-0.024909852288920935,1.3048319816589355,2019-06-20 15:09:03:530
8.067139099121093,2.2876246948242187,0.898410430908203,0.04196842688461166,-0.025979725241995228,-0.023977745907393204,1.3099520206451416,2019-06-20 15:09:03:535
8.05397119140625,2.3007926025390626,0.8948191833496093,0.042101584939115616,-0.027444463841538806,-0.025575642561440744,1.3148159980773926,2019-06-20 15:09:03:540
8.071927429199219,2.299595520019531,0.8840454406738281,0.042501059102627504,-0.02784393800505069,-0.02451037812540905,1.3199360370635986,2019-06-20 15:09:03:545
8.07312451171875,2.3211430053710935,0.9091841735839844,0.04156895272109977,-0.02784393800505069,-0.023711429798385274,1.3248000144958496,2019-06-20 15:09:03:550
8.074321594238281,2.323537170410156,0.8648921203613281,0.041302636612091846,-0.028642886332074468,-0.022379849253345657,1.3299200534820557,2019-06-20 15:09:03:555
8.070730346679687,2.299595520019531,0.8720746154785156,0.041702110775603735,-0.02704498967802692,-0.02264616536235358,1.3350398540496826,2019-06-20 15:09:03:560
8.082701171875,2.303186767578125,0.8433446350097656,0.04116947855758789,-0.027178147732530883,-0.022246691198841696,1.3399040699005127,2019-06-20 15:09:03:565
8.030029541015624,2.293610107421875,0.8469358825683594,0.04183526883010769,-0.02784393800505069,-0.021980375089833772,1.3450238704681396,2019-06-20 15:09:03:570
8.052774108886718,2.3043838500976563,0.8517242126464843,0.04196842688461166,-0.02784393800505069,-0.021980375089833772,1.3498878479003906,2019-06-20 15:09:03:575
8.081504089355468,2.313960510253906,0.8613008728027344,0.041302636612091846,-0.028243412168562583,-0.021980375089833772,1.3550078868865967,2019-06-20 15:09:03:580
8.058759521484374,2.3199459228515624,0.8828483581542969,0.041302636612091846,-0.029175518550090315,-0.02171405898082585,1.3598718643188477,2019-06-20 15:09:03:585
8.071927429199219,2.3247342529296873,0.8948191833496093,0.040636846339572034,-0.029042360495586353,-0.021314584817313964,1.3649919033050537,2019-06-20 15:09:03:590
8.076715759277343,2.3343109130859374,0.8888337707519531,0.03957158190354034,-0.029974466877114084,-0.020648794544794152,1.3698558807373047,2019-06-20 15:09:03:595
8.071927429199219,2.3247342529296873,0.9151695861816406,0.039038949685524495,-0.02890920244108239,-0.019849846217770382,1.3749759197235107,2019-06-20 15:09:03:600
8.083898254394532,2.3163546752929687,0.8816512756347656,0.03863947552201261,-0.029308676604594276,-0.01918405594525057,1.3798398971557617,2019-06-20 15:09:03:605
8.085095336914062,2.311566345214844,0.8648921203613281,0.038905791631020537,-0.030107624931618046,-0.017985633454714916,1.3849599361419678,2019-06-20 15:09:03:610
8.106642822265625,2.3199459228515624,0.8744687805175781,0.03863947552201261,-0.030640257149633893,-0.01758615929120303,1.3898239135742188,2019-06-20 15:09:03:615
8.097066162109375,2.340296325683594,0.8828483581542969,0.03837315941300468,-0.03117288936764974,-0.016787209923881958,1.3949439525604248,2019-06-20 15:09:03:620
8.087489501953124,2.3187488403320313,0.9031987609863281,0.03770736914048488,-0.031039731313145778,-0.016121419651362146,1.3998079299926758,2019-06-20 15:09:03:625
8.109036987304687,2.3390992431640623,0.9175637512207031,0.03677526275895714,-0.03143920547665766,-0.01625457770586611,1.4049279689788818,2019-06-20 15:09:03:630
8.095869079589843,2.322340087890625,0.8720746154785156,0.03664210470445318,-0.03117288936764974,-0.016121419651362146,1.410048007965088,2019-06-20 15:09:03:635
8.135372802734375,2.3199459228515624,0.8648921203613281,0.036375788595445255,-0.029841308822610123,-0.01625457770586611,1.4149119853973389,2019-06-20 15:09:03:640
8.091080749511718,2.3103692626953123,0.8469358825683594,0.037174736922469025,-0.029841308822610123,-0.015855103542354223,1.420032024383545,2019-06-20 15:09:03:645
8.062350769042968,2.340296325683594,0.8648921203613281,0.037174736922469025,-0.030640257149633893,-0.014922997160826491,1.424896001815796,2019-06-20 15:09:03:650
8.109036987304687,2.3319167480468748,0.8720746154785156,0.03650894664994922,-0.030640257149633893,-0.014523522997314606,1.430016040802002,2019-06-20 15:09:03:655
8.107839904785155,2.294807189941406,0.8696804504394531,0.03650894664994922,-0.03170552158566559,-0.014523522997314606,1.434880018234253,2019-06-20 15:09:03:660
8.091080749511718,2.2983984375,0.8960162658691406,0.03677526275895714,-0.031039731313145778,-0.014124048833802718,1.440000057220459,2019-06-20 15:09:03:665
8.09227783203125,2.3067780151367185,0.8732716979980468,0.03677526275895714,-0.030107624931618046,-0.013325100506778948,1.44486403465271,2019-06-20 15:09:03:670
8.105445739746093,2.3319167480468748,0.8912279357910156,0.03677526275895714,-0.030906573258641816,-0.012526152179755175,1.449984073638916,2019-06-20 15:09:03:675
8.074321594238281,2.299595520019531,0.8996075134277344,0.037041578867965066,-0.03050709909512993,-0.013191942452274986,1.454848051071167,2019-06-20 15:09:03:680
8.075518676757813,2.293610107421875,0.8648921203613281,0.037174736922469025,-0.0295749927136022,-0.012792468288763102,1.459967851638794,2019-06-20 15:09:03:685
8.086292419433594,2.303186767578125,0.8206000671386718,0.03677526275895714,-0.029974466877114084,-0.011993519961739328,1.464832067489624,2019-06-20 15:09:03:690
8.110234069824218,2.2960042724609373,0.8732716979980468,0.03730789497697299,-0.03050709909512993,-0.01212667801624329,1.469951868057251,2019-06-20 15:09:03:695
8.077912841796875,2.294807189941406,0.8828483581542969,0.03770736914048488,-0.031306047422153704,-0.011061413580211595,1.474815845489502,2019-06-20 15:09:03:700
8.076715759277343,2.3067780151367185,0.860103790283203,0.03677526275895714,-0.03037394104062597,-0.011194571634715558,1.479935884475708,2019-06-20 15:09:03:705
8.068336181640625,2.3211430053710935,0.8804541931152343,0.03597631443193337,-0.03117288936764974,-0.011460887743723482,1.484799861907959,2019-06-20 15:09:03:710
8.100657409667969,2.3163546752929687,0.8481329650878906,0.03664210470445318,-0.030773415204137854,-0.009862991089675938,1.489919900894165,2019-06-20 15:09:03:715
8.11143115234375,2.2983984375,0.860103790283203,0.037174736922469025,-0.029441834659098238,-0.01066193941669971,1.495039939880371,2019-06-20 15:09:03:720
8.082701171875,2.2912159423828125,0.8529212951660156,0.036375788595445255,-0.03050709909512993,-0.009596674980668015,1.499903917312622,2019-06-20 15:09:03:725
8.088686584472656,2.3007926025390626,0.8445417175292969,0.03677526275895714,-0.030107624931618046,-0.009862991089675938,1.5050239562988281,2019-06-20 15:09:03:730
8.087489501953124,2.3390992431640623,0.8206000671386718,0.036375788595445255,-0.029841308822610123,-0.009064042762652167,1.509887933731079,2019-06-20 15:09:03:735
8.061153686523438,2.342690490722656,0.8445417175292969,0.03650894664994922,-0.02784393800505069,-0.0099961491441799,1.5150079727172852,2019-06-20 15:09:03:740
8.07312451171875,2.3355079956054685,0.8397533874511719,0.0362426305409413,-0.02784393800505069,-0.009729833035171977,1.5198719501495361,2019-06-20 15:09:03:745
8.086292419433594,2.3055809326171874,0.8445417175292969,0.03584315637742941,-0.029308676604594276,-0.007998778326620472,1.5249919891357422,2019-06-20 15:09:03:750
8.085095336914062,2.297201354980469,0.8660892028808593,0.03584315637742941,-0.029175518550090315,-0.008797726653644243,1.5298559665679932,2019-06-20 15:09:03:755
8.062350769042968,2.3295225830078126,0.8780600280761719,0.03597631443193337,-0.029308676604594276,-0.008930884708148205,1.5349760055541992,2019-06-20 15:09:03:760
8.057562438964844,2.3462817382812498,0.8613008728027344,0.03664210470445318,-0.030240782986122008,-0.008131936381124433,1.5398399829864502,2019-06-20 15:09:03:765
8.061153686523438,2.325931335449219,0.8660892028808593,0.03757421108598091,-0.030640257149633893,-0.006933513890588777,1.5449600219726562,2019-06-20 15:09:03:770
8.047985778808593,2.3343109130859374,0.8816512756347656,0.037041578867965066,-0.029841308822610123,-0.006933513890588777,1.5498239994049072,2019-06-20 15:09:03:775
8.068336181640625,2.3319167480468748,0.8852425231933594,0.037840527194988836,-0.029441834659098238,-0.006667197781580852,1.5549440383911133,2019-06-20 15:09:03:780
8.0635478515625,2.3343109130859374,0.8672862854003907,0.037174736922469025,-0.030240782986122008,-0.0070666719450927385,1.5598080158233643,2019-06-20 15:09:03:785
8.082701171875,2.3295225830078126,0.9008045959472656,0.0369084208134611,-0.029841308822610123,-0.006267723618068967,1.5649280548095703,2019-06-20 15:09:03:790
8.076715759277343,2.340296325683594,0.9115783386230468,0.0369084208134611,-0.030240782986122008,-0.005468775291045195,1.5700478553771973,2019-06-20 15:09:03:795
8.103051574707031,2.3295225830078126,0.8768629455566406,0.03664210470445318,-0.0295749927136022,-0.005601933345549157,1.5749120712280273,2019-06-20 15:09:03:800
8.097066162109375,2.322340087890625,0.8553154602050781,0.03650894664994922,-0.0295749927136022,-0.005601933345549157,1.5800318717956543,2019-06-20 15:09:03:805
8.06474493408203,2.2876246948242187,0.8768629455566406,0.03597631443193337,-0.03037394104062597,-0.004936143073029348,1.5848958492279053,2019-06-20 15:09:03:810
8.071927429199219,2.2756538696289064,0.9067900085449219,0.0362426305409413,-0.029841308822610123,-0.0036045625279897287,1.5900158882141113,2019-06-20 15:09:03:815
8.052774108886718,2.2983984375,0.9247462463378906,0.036375788595445255,-0.030773415204137854,-0.0034714044734857666,1.5948798656463623,2019-06-20 15:09:03:820
8.069533264160157,2.3019896850585937,0.8756658630371094,0.03597631443193337,-0.03157236353116163,-0.002672456146461995,1.5999999046325684,2019-06-20 15:09:03:825
8.062350769042968,2.284033447265625,0.8529212951660156,0.03531052415941356,-0.03183867964016955,-0.0037377205824936904,1.6048638820648193,2019-06-20 15:09:03:830
8.083898254394532,2.28882177734375,0.8876366882324218,0.03597631443193337,-0.03117288936764974,-0.0036045625279897287,1.6099839210510254,2019-06-20 15:09:03:835
8.075518676757813,2.2672742919921873,0.8840454406738281,0.037041578867965066,-0.030107624931618046,-0.002938772255469919,1.6148478984832764,2019-06-20 15:09:03:840
8.079109924316406,2.2720626220703126,0.8553154602050781,0.036375788595445255,-0.03157236353116163,-0.0033382464189818046,1.6199679374694824,2019-06-20 15:09:03:845
8.091080749511718,2.2960042724609373,0.7990525817871094,0.0362426305409413,-0.03157236353116163,-0.0033382464189818046,1.6248319149017334,2019-06-20 15:09:03:850
8.069533264160157,2.2876246948242187,0.8708775329589844,0.036375788595445255,-0.031971837694673516,-0.0025392980919580334,1.6299519538879395,2019-06-20 15:09:03:855
8.06474493408203,2.2900188598632814,0.8624979553222656,0.0369084208134611,-0.030107624931618046,-0.0025392980919580334,1.6348159313201904,2019-06-20 15:09:03:860
8.061153686523438,2.2720626220703126,0.9199579162597656,0.03730789497697299,-0.02970815076810616,-0.0020066658739421855,1.6399359703063965,2019-06-20 15:09:03:865
8.099460327148437,2.293610107421875,0.8864396057128906,0.03730789497697299,-0.029175518550090315,-0.0014740336559263382,1.6447999477386475,2019-06-20 15:09:03:870
8.081504089355468,2.3019896850585937,0.9031987609863281,0.03757421108598091,-0.029308676604594276,-0.002672456146461995,1.6499199867248535,2019-06-20 15:09:03:875
8.097066162109375,2.2792451171875,0.8924250183105469,0.037174736922469025,-0.029308676604594276,-0.002672456146461995,1.6550400257110596,2019-06-20 15:09:03:880
8.087489501953124,2.274456787109375,0.8517242126464843,0.03810684330399676,-0.028642886332074468,-0.0025392980919580334,1.6599040031433105,2019-06-20 15:09:03:885
8.089883666992188,2.28882177734375,0.8924250183105469,0.03877263357651657,-0.029974466877114084,-0.0034714044734857666,1.6650240421295166,2019-06-20 15:09:03:890
8.086292419433594,2.26966845703125,0.9020016784667969,0.03850631746750865,-0.03037394104062597,-0.0033382464189818046,1.6698880195617676,2019-06-20 15:09:03:895
8.086292419433594,2.2768509521484375,0.9008045959472656,0.03837315941300468,-0.030640257149633893,-0.0022729819829501096,1.6750080585479736,2019-06-20 15:09:03:900
8.086292419433594,2.2900188598632814,0.8732716979980468,0.039038949685524495,-0.0295749927136022,-0.0013408756014223761,1.6798720359802246,2019-06-20 15:09:03:905
8.095869079589843,2.284033447265625,0.8624979553222656,0.03930526579453242,-0.02890920244108239,-0.0018735078194382236,1.6849920749664307,2019-06-20 15:09:03:910
8.09227783203125,2.2864276123046876,0.8469358825683594,0.039038949685524495,-0.028243412168562583,-0.0025392980919580334,1.6898560523986816,2019-06-20 15:09:03:915
8.097066162109375,2.2732597045898437,0.8960162658691406,0.03930526579453242,-0.027444463841538806,-0.0025392980919580334,1.6949758529663086,2019-06-20 15:09:03:920
8.082701171875,2.28882177734375,0.8768629455566406,0.03957158190354034,-0.02784393800505069,-0.0016071917104302999,1.6998400688171387,2019-06-20 15:09:03:925
8.115022399902344,2.255303466796875,0.8696804504394531,0.039704739958044306,-0.027444463841538806,-0.001740349764934262,1.7049598693847656,2019-06-20 15:09:03:930
8.091080749511718,2.285230529785156,0.8505271301269531,0.03930526579453242,-0.028376570223066545,-0.0020066658739421855,1.7098238468170166,2019-06-20 15:09:03:935
8.087489501953124,2.2876246948242187,0.8852425231933594,0.03850631746750865,-0.028642886332074468,-0.0018735078194382236,1.7149438858032227,2019-06-20 15:09:03:940
8.119810729980468,2.3103692626953123,0.8792571105957031,0.03957158190354034,-0.028376570223066545,-0.0024061400374540713,1.7198078632354736,2019-06-20 15:09:03:945
8.076715759277343,2.2792451171875,0.8720746154785156,0.04103632050308392,-0.029308676604594276,-0.0022729819829501096,1.7249279022216797,2019-06-20 15:09:03:950
8.09227783203125,2.3019896850585937,0.8948191833496093,0.04156895272109977,-0.029308676604594276,-0.0013408756014223761,1.7300479412078857,2019-06-20 15:09:03:955
8.118613647460938,2.28882177734375,0.8828483581542969,0.04116947855758789,-0.028243412168562583,-0.0018735078194382236,1.7349119186401367,2019-06-20 15:09:03:960
8.112628234863282,2.2983984375,0.8864396057128906,0.04010421412155619,-0.02797709605955466,-0.0018735078194382236,1.7400319576263428,2019-06-20 15:09:03:965
8.091080749511718,2.293610107421875,0.8876366882324218,0.040636846339572034,-0.02771077995054673,-0.0004087692198946427,1.7448959350585938,2019-06-20 15:09:03:970
8.067139099121093,2.2756538696289064,0.8541183776855469,0.04037053023056411,-0.02784393800505069,-0.0006750853289025666,1.7500159740447998,2019-06-20 15:09:03:975
8.080307006835938,2.2792451171875,0.8864396057128906,0.040636846339572034,-0.027311305787034845,-0.0008082433834065285,1.7548799514770508,2019-06-20 15:09:03:980
8.112628234863282,2.270865539550781,0.8684833679199219,0.040503688285068076,-0.0295749927136022,-0.0005419272743986046,1.7599999904632568,2019-06-20 15:09:03:985
8.116219482421874,2.282836364746094,0.8660892028808593,0.04143579466659581,-0.029441834659098238,0.0006564952161370526,1.7648639678955078,2019-06-20 15:09:03:990
8.097066162109375,2.2983984375,0.8229942321777344,0.04037053023056411,-0.029308676604594276,-0.0004087692198946427,1.7699840068817139,2019-06-20 15:09:03:995
8.075518676757813,2.280442199707031,0.8660892028808593,0.040770004394076,-0.02797709605955466,-0.0012077175469184143,1.7748479843139648,2019-06-20 15:09:04:000
8.097066162109375,2.2924130249023436,0.8684833679199219,0.040636846339572034,-0.028376570223066545,-0.0005419272743986046,1.779968023300171,2019-06-20 15:09:04:005
8.100657409667969,2.2912159423828125,0.8577096252441406,0.04103632050308392,-0.02811025411405862,-9.295056382757028e-06,1.7848320007324219,2019-06-20 15:09:04:010
8.09347491455078,2.2792451171875,0.8481329650878906,0.040770004394076,-0.029175518550090315,-0.0008082433834065285,1.789952039718628,2019-06-20 15:09:04:015
8.089883666992188,2.285230529785156,0.8780600280761719,0.03997105606705223,-0.028376570223066545,-9.295056382757028e-06,1.794816017150879,2019-06-20 15:09:04:020
8.110234069824218,2.309172180175781,0.8684833679199219,0.03917210774002846,-0.02877604438657843,0.0002570210526251668,1.799936056137085,2019-06-20 15:09:04:025
8.09347491455078,2.294807189941406,0.8720746154785156,0.03957158190354034,-0.029308676604594276,-9.295056382757028e-06,1.804800033569336,2019-06-20 15:09:04:030
8.088686584472656,2.2768509521484375,0.8852425231933594,0.03930526579453242,-0.028243412168562583,-0.0006750853289025666,1.809920072555542,2019-06-20 15:09:04:035
8.09227783203125,2.280442199707031,0.8840454406738281,0.03863947552201261,-0.029441834659098238,0.00012386299812120486,1.815039873123169,2019-06-20 15:09:04:040
8.082701171875,2.2876246948242187,0.8864396057128906,0.03877263357651657,-0.029441834659098238,0.0003901791071291287,1.81990385055542,2019-06-20 15:09:04:045
8.062350769042968,2.2732597045898437,0.8624979553222656,0.039704739958044306,-0.02877604438657843,0.0003901791071291287,1.825023889541626,2019-06-20 15:09:04:050
8.095869079589843,2.2864276123046876,0.8565125427246093,0.03957158190354034,-0.02890920244108239,-0.0004087692198946427,1.829887866973877,2019-06-20 15:09:04:055
8.083898254394532,2.26966845703125,0.8565125427246093,0.039704739958044306,-0.028642886332074468,-0.0005419272743986046,1.835007905960083,2019-06-20 15:09:04:060
8.070730346679687,2.2924130249023436,0.8900308532714843,0.03930526579453242,-0.02877604438657843,0.0005233371616330906,1.839871883392334,2019-06-20 15:09:04:065
8.0635478515625,2.284033447265625,0.8744687805175781,0.03930526579453242,-0.029308676604594276,0.00012386299812120486,1.84499192237854,2019-06-20 15:09:04:070
8.071927429199219,2.270865539550781,0.8996075134277344,0.03850631746750865,-0.029308676604594276,0.00012386299812120486,1.849855899810791,2019-06-20 15:09:04:075
8.083898254394532,2.293610107421875,0.8816512756347656,0.03837315941300468,-0.029441834659098238,-0.00027561116539068085,1.854975938796997,2019-06-20 15:09:04:080
8.12220489501953,2.285230529785156,0.8648921203613281,0.03837315941300468,-0.02877604438657843,-0.0006750853289025666,1.859839916229248,2019-06-20 15:09:04:085
8.1210078125,2.2672742919921873,0.8756658630371094,0.038905791631020537,-0.02890920244108239,-0.0012077175469184143,1.864959955215454,2019-06-20 15:09:04:090
8.100657409667969,2.254106384277344,0.8900308532714843,0.03837315941300468,-0.029308676604594276,0.00012386299812120486,1.869823932647705,2019-06-20 15:09:04:095
8.081504089355468,2.2624859619140625,0.8493300476074218,0.038240001358500725,-0.029175518550090315,-0.00014245311088671893,1.8749439716339111,2019-06-20 15:09:04:100
8.057562438964844,2.2433326416015626,0.8469358825683594,0.03850631746750865,-0.030107624931618046,-9.295056382757028e-06,1.879807949066162,2019-06-20 15:09:04:105
8.086292419433594,2.26966845703125,0.8589067077636718,0.03850631746750865,-0.03117288936764974,-0.00027561116539068085,1.8849279880523682,2019-06-20 15:09:04:110
8.079109924316406,2.2672742919921873,0.8780600280761719,0.03837315941300468,-0.03050709909512993,-0.0004087692198946427,1.8900480270385742,2019-06-20 15:09:04:115
8.087489501953124,2.2445297241210938,0.8936221008300781,0.03863947552201261,-0.030640257149633893,-0.0008082433834065285,1.8949120044708252,2019-06-20 15:09:04:120
8.081504089355468,2.2493180541992186,0.8960162658691406,0.0379736852494928,-0.030107624931618046,-0.0014740336559263382,1.9000320434570312,2019-06-20 15:09:04:125
8.100657409667969,2.2756538696289064,0.8684833679199219,0.038240001358500725,-0.029841308822610123,-0.001740349764934262,1.9048960208892822,2019-06-20 15:09:04:130
8.115022399902344,2.260091796875,0.8636950378417969,0.03744105303147695,-0.029441834659098238,-0.0025392980919580334,1.9100160598754883,2019-06-20 15:09:04:135
8.080307006835938,2.25051513671875,0.8912279357910156,0.037174736922469025,-0.028243412168562583,-0.0020066658739421855,1.9148800373077393,2019-06-20 15:09:04:140
8.077912841796875,2.242135559082031,0.9247462463378906,0.03837315941300468,-0.02811025411405862,-0.0012077175469184143,1.9200000762939453,2019-06-20 15:09:04:145
8.076715759277343,2.239741394042969,0.9199579162597656,0.03770736914048488,-0.029441834659098238,-0.001740349764934262,1.9248640537261963,2019-06-20 15:09:04:150
8.061153686523438,2.245726806640625,0.8624979553222656,0.037041578867965066,-0.0295749927136022,-0.002938772255469919,1.9299838542938232,2019-06-20 15:09:04:155
8.070730346679687,2.2409384765625,0.8062350769042969,0.037041578867965066,-0.030240782986122008,-0.002672456146461995,1.9348480701446533,2019-06-20 15:09:04:160
8.080307006835938,2.2636830444335936,0.821797149658203,0.03810684330399676,-0.03037394104062597,-0.0033382464189818046,1.9399678707122803,2019-06-20 15:09:04:165
8.079109924316406,2.2110114135742185,0.8337679748535156,0.03863947552201261,-0.03050709909512993,-0.002672456146461995,1.9448318481445312,2019-06-20 15:09:04:170
8.074321594238281,2.22178515625,0.8409504699707031,0.039038949685524495,-0.029175518550090315,-0.005335617236541234,1.9499518871307373,2019-06-20 15:09:04:175
8.085095336914062,2.2325588989257814,0.8445417175292969,0.03917210774002846,-0.03050709909512993,-0.005468775291045195,1.9548158645629883,2019-06-20 15:09:04:180
8.099460327148437,2.2205880737304686,0.8936221008300781,0.03917210774002846,-0.03050709909512993,-0.006134565563565005,1.9599359035491943,2019-06-20 15:09:04:185
8.074321594238281,2.2301647338867188,0.8912279357910156,0.03863947552201261,-0.029841308822610123,-0.0071998299995967,1.9650559425354004,2019-06-20 15:09:04:190
8.085095336914062,2.2385443115234374,0.8505271301269531,0.03917210774002846,-0.029974466877114084,-0.007998778326620472,1.9699199199676514,2019-06-20 15:09:04:195
8.09227783203125,2.3019896850585937,0.8972133483886718,0.03917210774002846,-0.030107624931618046,-0.008398252490132357,1.9750399589538574,2019-06-20 15:09:04:200
8.112628234863282,2.2636830444335936,0.8828483581542969,0.038905791631020537,-0.028376570223066545,-0.008398252490132357,1.9799039363861084,2019-06-20 15:09:04:205
8.103051574707031,2.2409384765625,0.8577096252441406,0.039704739958044306,-0.029042360495586353,-0.009197200817156128,1.9850239753723145,2019-06-20 15:09:04:210
8.086292419433594,2.2493180541992186,0.8098263244628906,0.03943842384903638,-0.028243412168562583,-0.0099961491441799,1.9898879528045654,2019-06-20 15:09:04:215
8.103051574707031,2.2624859619140625,0.8517242126464843,0.03957158190354034,-0.029441834659098238,-0.010262465253187823,1.9950079917907715,2019-06-20 15:09:04:220
8.11143115234375,2.254106384277344,0.8289796447753907,0.038905791631020537,-0.0295749927136022,-0.00933035887166009,1.9998719692230225,2019-06-20 15:09:04:225
8.110234069824218,2.2325588989257814,0.8589067077636718,0.039038949685524495,-0.02970815076810616,-0.009729833035171977,2.0049920082092285,2019-06-20 15:09:04:230
8.069533264160157,2.239741394042969,0.8457388000488281,0.039704739958044306,-0.028376570223066545,-0.010395623307691787,2.0098559856414795,2019-06-20 15:09:04:235
8.094671997070312,2.268471374511719,0.8720746154785156,0.03997105606705223,-0.027311305787034845,-0.010395623307691787,2.0149760246276855,2019-06-20 15:09:04:240
8.087489501953124,2.2960042724609373,0.8301767272949219,0.04037053023056411,-0.028642886332074468,-0.0099961491441799,2.0198400020599365,2019-06-20 15:09:04:245
8.101854492187499,2.2433326416015626,0.8792571105957031,0.04090316244857996,-0.029175518550090315,-0.010262465253187823,2.0249600410461426,2019-06-20 15:09:04:250
8.087489501953124,2.245726806640625,0.8433446350097656,0.040636846339572034,-0.029441834659098238,-0.010928255525707633,2.0298240184783936,2019-06-20 15:09:04:255
8.069533264160157,2.2612888793945314,0.8744687805175781,0.039704739958044306,-0.028243412168562583,-0.01265931023425914,2.0349440574645996,2019-06-20 15:09:04:260
8.083898254394532,2.218193908691406,0.8636950378417969,0.040770004394076,-0.030107624931618046,-0.01265931023425914,2.0398080348968506,2019-06-20 15:09:04:265
8.050379943847656,2.2373472290039063,0.8469358825683594,0.04037053023056411,-0.029441834659098238,-0.01425720688830668,2.0449280738830566,2019-06-20 15:09:04:270
8.116219482421874,2.23136181640625,0.8098263244628906,0.040770004394076,-0.029308676604594276,-0.015322471324338376,2.0500478744506836,2019-06-20 15:09:04:275
8.077912841796875,2.226573486328125,0.8158117370605469,0.04223474299361958,-0.02797709605955466,-0.014656681051818568,2.0549118518829346,2019-06-20 15:09:04:280
8.144949462890624,2.2026318359375,0.8301767272949219,0.041702110775603735,-0.025846567187491266,-0.016387735760370073,2.0600318908691406,2019-06-20 15:09:04:285
8.143752380371094,2.2110114135742185,0.8828483581542969,0.04103632050308392,-0.027311305787034845,-0.018518265672730762,2.0648958683013916,2019-06-20 15:09:04:290
8.079109924316406,2.2373472290039063,0.8517242126464843,0.043166849375147316,-0.02771077995054673,-0.01905089789074661,2.0700159072875977,2019-06-20 15:09:04:295
8.081504089355468,2.2289676513671877,0.8660892028808593,0.0435663235386592,-0.025580251078483343,-0.01971668816326642,2.0748798847198486,2019-06-20 15:09:04:300
8.075518676757813,2.2493180541992186,0.8421475524902343,0.042367901048123546,-0.027178147732530883,-0.020648794544794152,2.0799999237060547,2019-06-20 15:09:04:305
8.055168273925782,2.2612888793945314,0.8529212951660156,0.041702110775603735,-0.02611288329649919,-0.020781952599298114,2.0848639011383057,2019-06-20 15:09:04:310
8.107839904785155,2.25051513671875,0.9271404113769531,0.043965797702171086,-0.02624604135100315,-0.02118142676281,2.0899839401245117,2019-06-20 15:09:04:315
8.112628234863282,2.25051513671875,0.8996075134277344,0.043300007429651274,-0.026379199405507113,-0.020915110653802076,2.0948479175567627,2019-06-20 15:09:04:320
8.075518676757813,2.2193909912109375,0.8409504699707031,0.04343316548415524,-0.026645515514515036,-0.022113533144337734,2.0999679565429688,2019-06-20 15:09:04:325
8.09227783203125,2.2241793212890624,0.8565125427246093,0.0452973782472107,-0.027577621896042768,-0.023844587852889235,2.1048319339752197,2019-06-20 15:09:04:330
8.069533264160157,2.2612888793945314,0.8493300476074218,0.0452973782472107,-0.027577621896042768,-0.024643536179913012,2.109951972961426,2019-06-20 15:09:04:335
8.094671997070312,2.236150146484375,0.8648921203613281,0.0435663235386592,-0.024781302751459573,-0.02610827477945659,2.1148159503936768,2019-06-20 15:09:04:340
8.062350769042968,2.2636830444335936,0.8696804504394531,0.04290053326613939,-0.028376570223066545,-0.02597511672495263,2.119935989379883,2019-06-20 15:09:04:345
8.045591613769531,2.2445297241210938,0.8936221008300781,0.043965797702171086,-0.027577621896042768,-0.025575642561440744,2.124799966812134,2019-06-20 15:09:04:350
8.09227783203125,2.236150146484375,0.8720746154785156,0.04543053630171467,-0.025713409132987305,-0.02690722310648036,2.12992000579834,2019-06-20 15:09:04:355
8.062350769042968,2.256500549316406,0.8936221008300781,0.045563694356218626,-0.026645515514515036,-0.027706171433504137,2.135040044784546,2019-06-20 15:09:04:360
8.081504089355468,2.2672742919921873,0.8672862854003907,0.04503106213820278,-0.02531393496947542,-0.029304068087551677,2.139904022216797,2019-06-20 15:09:04:365
8.09347491455078,2.2588947143554687,0.8708775329589844,0.04569685241072259,-0.025979725241995228,-0.030103016414575447,2.145024061203003,2019-06-20 15:09:04:370
8.106642822265625,2.2636830444335936,0.8457388000488281,0.042501059102627504,-0.026645515514515036,-0.030768806687095255,2.149888038635254,2019-06-20 15:09:04:375
8.080307006835938,2.2660772094726562,0.8792571105957031,0.04103632050308392,-0.02771077995054673,-0.03143459695961507,2.15500807762146,2019-06-20 15:09:04:380
8.09227783203125,2.2576976318359376,0.8792571105957031,0.04303369132064335,-0.027444463841538806,-0.032366703341142805,2.159872055053711,2019-06-20 15:09:04:385
8.071927429199219,2.2660772094726562,0.860103790283203,0.04303369132064335,-0.027577621896042768,-0.03289933555915865,2.164991855621338,2019-06-20 15:09:04:390
8.070730346679687,2.2876246948242187,0.8828483581542969,0.042501059102627504,-0.026778673569018998,-0.033565125831678456,2.169856071472168,2019-06-20 15:09:04:395
8.061153686523438,2.340296325683594,0.8768629455566406,0.04290053326613939,-0.028509728277570506,-0.03303249361366261,2.174975872039795,2019-06-20 15:09:04:400
8.070730346679687,2.28882177734375,0.8900308532714843,0.04263421715713147,-0.02811025411405862,-0.03249986139564676,2.179839849472046,2019-06-20 15:09:04:405
8.083898254394532,2.3103692626953123,0.8828483581542969,0.040636846339572034,-0.02624604135100315,-0.03196722917763092,2.184959888458252,2019-06-20 15:09:04:410
8.075518676757813,2.3103692626953123,0.8924250183105469,0.03917210774002846,-0.028509728277570506,-0.033165651668166575,2.189823865890503,2019-06-20 15:09:04:415
8.088686584472656,2.3175517578125,0.8864396057128906,0.03943842384903638,-0.029441834659098238,-0.03369828388618242,2.194943904876709,2019-06-20 15:09:04:420
8.012073303222657,2.3199459228515624,0.8888337707519531,0.03863947552201261,-0.029974466877114084,-0.033565125831678456,2.19980788230896,2019-06-20 15:09:04:425
7.913912536621093,2.3726175537109375,0.9103812561035156,0.03850631746750865,-0.031971837694673516,-0.033165651668166575,2.204927921295166,2019-06-20 15:09:04:430
8.148540710449218,2.3726175537109375,0.9020016784667969,0.0369084208134611,-0.029441834659098238,-0.03263301945015073,2.210047960281372,2019-06-20 15:09:04:435
8.154526123046875,2.3594496459960936,0.8624979553222656,0.03584315637742941,-0.030773415204137854,-0.031168280850607147,2.214911937713623,2019-06-20 15:09:04:440
8.069533264160157,2.342690490722656,0.8325708923339844,0.035576840268421485,-0.031306047422153704,-0.03170091306862299,2.220031976699829,2019-06-20 15:09:04:445
8.03601495361328,2.2493180541992186,0.7978554992675781,0.03597631443193337,-0.029042360495586353,-0.03210038723213488,2.22489595413208,2019-06-20 15:09:04:450
8.042000366210937,2.2241793212890624,0.8696804504394531,0.03810684330399676,-0.030906573258641816,-0.03210038723213488,2.230015993118286,2019-06-20 15:09:04:455
8.126993225097657,2.115244812011719,0.8313738098144531,0.039038949685524495,-0.028642886332074468,-0.033165651668166575,2.234879970550537,2019-06-20 15:09:04:460
8.147343627929688,2.0913031616210938,0.8146146545410156,0.04156895272109977,-0.0295749927136022,-0.03463039026771015,2.240000009536743,2019-06-20 15:09:04:465
7.8720146484375,2.542603271484375,0.7822934265136718,0.04503106213820278,-0.028642886332074468,-0.03716039330328543,2.244863986968994,2019-06-20 15:09:04:470
7.931868774414062,2.730545227050781,1.0444544982910156,0.04143579466659581,-0.031306047422153704,-0.032366703341142805,2.2499840259552,2019-06-20 15:09:04:475
8.267051879882812,2.438457092285156,1.0300895080566406,0.025057353962608497,-0.02890920244108239,-0.033964599995190345,2.254848003387451,2019-06-20 15:09:04:480
8.131781555175781,2.55696826171875,0.9929799499511719,0.0183994512374104,-0.0379639522279464,-0.028505119760527907,2.2599680423736572,2019-06-20 15:09:04:485
8.059956604003906,2.199040588378906,0.7152568054199219,0.029717885870247162,-0.025047618860467497,-0.025575642561440744,2.264832019805908,2019-06-20 15:09:04:490
8.03481787109375,2.3175517578125,0.8325708923339844,0.03997105606705223,-0.032903944076201244,-0.02530932645243282,2.2699520587921143,2019-06-20 15:09:04:495
7.997708312988281,2.5270411987304686,0.8253883972167969,0.04010421412155619,-0.031039731313145778,-0.024110903961897166,2.2748160362243652,2019-06-20 15:09:04:500
8.146146545410156,2.4205008544921873,0.975023712158203,0.0351773661049096,-0.028509728277570506,-0.023178797580369427,2.2799360752105713,2019-06-20 15:09:04:505
8.082701171875,2.562953674316406,0.936717071533203,0.028519463379711507,-0.03450184073024879,-0.021447742871817926,2.2850558757781982,2019-06-20 15:09:04:510
8.136569885253905,2.3019896850585937,0.6230814514160156,0.018532609291914363,-0.029308676604594276,-0.02184721703532981,2.289919853210449,2019-06-20 15:09:04:515
8.101854492187499,2.2900188598632814,0.9247462463378906,0.023592615363064912,-0.034768156839256714,-0.019983004272274344,2.2950398921966553,2019-06-20 15:09:04:520
8.098263244628907,2.2612888793945314,0.8325708923339844,0.029717885870247162,-0.03263762796719332,-0.01958353010876246,2.2999038696289062,2019-06-20 15:09:04:525
8.190438598632813,2.3211430053710935,0.9355199890136718,0.03491104999590168,-0.03157236353116163,-0.017985633454714916,2.3050239086151123,2019-06-20 15:09:04:530
8.052774108886718,2.4121212768554687,0.8493300476074218,0.031315782524294705,-0.030107624931618046,-0.01825194956372284,2.3098878860473633,2019-06-20 15:09:04:535
8.085095336914062,2.4396541748046876,0.8146146545410156,0.02865262143421547,-0.03223815380368144,-0.019450372054258497,2.3150079250335693,2019-06-20 15:09:04:540
8.091080749511718,2.3690263061523438,0.9462937316894531,0.02598946034413623,-0.034768156839256714,-0.018784581781738686,2.3198719024658203,2019-06-20 15:09:04:545
8.113825317382812,2.2900188598632814,0.936717071533203,0.021462086491001526,-0.0323713118581854,-0.018518265672730762,2.3249919414520264,2019-06-20 15:09:04:550
8.070730346679687,2.284033447265625,0.8409504699707031,0.02332629925405699,-0.03330341823971313,-0.018784581781738686,2.3298559188842773,2019-06-20 15:09:04:555
8.079109924316406,2.2912159423828125,0.8541183776855469,0.03278052112383829,-0.030906573258641816,-0.017985633454714916,2.3349759578704834,2019-06-20 15:09:04:560
8.113825317382812,2.3319167480468748,0.7870817565917969,0.03357946945086206,-0.03303710213070521,-0.018518265672730762,2.3398399353027344,2019-06-20 15:09:04:565
8.051577026367188,2.3905737915039063,0.860103790283203,0.03278052112383829,-0.03250446991268936,-0.01905089789074661,2.3449599742889404,2019-06-20 15:09:04:570
8.091080749511718,2.341493408203125,0.9283374938964843,0.0295847278157432,-0.031039731313145778,-0.01825194956372284,2.3498239517211914,2019-06-20 15:09:04:575
8.052774108886718,2.341493408203125,0.8792571105957031,0.02798683116169566,-0.03263762796719332,-0.017453000196401766,2.3549439907073975,2019-06-20 15:09:04:580
8.085095336914062,2.297201354980469,0.7846875915527344,0.02612261839864019,-0.03143920547665766,-0.018784581781738686,2.3598079681396484,2019-06-20 15:09:04:585
8.106642822265625,2.3043838500976563,0.8241913146972656,0.029717885870247162,-0.029974466877114084,-0.01692036797838592,2.3649280071258545,2019-06-20 15:09:04:590
8.055168273925782,2.303186767578125,0.8792571105957031,0.03397894361437394,-0.030640257149633893,-0.017186684087393843,2.3700480461120605,2019-06-20 15:09:04:595
8.068336181640625,2.322340087890625,0.9163666687011719,0.03597631443193337,-0.02970815076810616,-0.017453000196401766,2.3749120235443115,2019-06-20 15:09:04:600
8.056365356445312,2.3343109130859374,0.8816512756347656,0.03357946945086206,-0.02797709605955466,-0.017319842141897804,2.3800320625305176,2019-06-20 15:09:04:605
8.055168273925782,2.340296325683594,0.8768629455566406,0.032913679178342245,-0.03050709909512993,-0.017719317345706993,2.3848960399627686,2019-06-20 15:09:04:610
8.074321594238281,2.3474788208007813,0.8792571105957031,0.03437841777788583,-0.029974466877114084,-0.017186684087393843,2.3900160789489746,2019-06-20 15:09:04:615
8.082701171875,2.2912159423828125,0.8804541931152343,0.03264736306933432,-0.029841308822610123,-0.016520893814874035,2.3948800563812256,2019-06-20 15:09:04:620
8.077912841796875,2.284033447265625,0.8912279357910156,0.03451157583238979,-0.02970815076810616,-0.015855103542354223,2.3999998569488525,2019-06-20 15:09:04:625
8.040803283691407,2.285230529785156,0.8541183776855469,0.0379736852494928,-0.03037394104062597,-0.01625457770586611,2.4048640727996826,2019-06-20 15:09:04:630
8.047985778808593,2.30797509765625,0.8397533874511719,0.04023737217606015,-0.028509728277570506,-0.016387735760370073,2.4099838733673096,2019-06-20 15:09:04:635
8.081504089355468,2.294807189941406,0.8972133483886718,0.03930526579453242,-0.02797709605955466,-0.017453000196401766,2.4148478507995605,2019-06-20 15:09:04:640
8.080307006835938,2.309172180175781,0.9127754211425781,0.03837315941300468,-0.02784393800505069,-0.017186684087393843,2.4199678897857666,2019-06-20 15:09:04:645
8.080307006835938,2.274456787109375,0.8589067077636718,0.039038949685524495,-0.02691183162352296,-0.01758615929120303,2.4248318672180176,2019-06-20 15:09:04:650
8.062350769042968,2.26966845703125,0.8373592224121094,0.038240001358500725,-0.02784393800505069,-0.01905089789074661,2.4299519062042236,2019-06-20 15:09:04:655
8.103051574707031,2.2517122192382812,0.8469358825683594,0.040770004394076,-0.02704498967802692,-0.01958353010876246,2.4348158836364746,2019-06-20 15:09:04:660
8.080307006835938,2.2624859619140625,0.8828483581542969,0.043965797702171086,-0.026778673569018998,-0.019849846217770382,2.4399359226226807,2019-06-20 15:09:04:665
8.095869079589843,2.270865539550781,0.8624979553222656,0.0446315879746909,-0.02611288329649919,-0.020781952599298114,2.4447999000549316,2019-06-20 15:09:04:670
8.059956604003906,2.282836364746094,0.8924250183105469,0.04449842992018693,-0.025180776914971458,-0.021980375089833772,2.4499199390411377,2019-06-20 15:09:04:675
8.070730346679687,2.280442199707031,0.8696804504394531,0.045164220192706744,-0.02611288329649919,-0.022779323416857542,2.4550399780273438,2019-06-20 15:09:04:680
8.09347491455078,2.2900188598632814,0.8876366882324218,0.046362642683242396,-0.026512357460011075,-0.024244062016401127,2.4599039554595947,2019-06-20 15:09:04:685
8.070730346679687,2.293610107421875,0.8732716979980468,0.04609632657423447,-0.025580251078483343,-0.024643536179913012,2.465023994445801,2019-06-20 15:09:04:690
8.065942016601563,2.3019896850585937,0.8624979553222656,0.047827381282785984,-0.025047618860467497,-0.025708800615944705,2.4698879718780518,2019-06-20 15:09:04:695
8.051577026367188,2.3067780151367185,0.8505271301269531,0.05062370042736918,-0.024781302751459573,-0.028238803651519984,2.475008010864258,2019-06-20 15:09:04:700
8.076715759277343,2.3175517578125,0.8744687805175781,0.05075685848187314,-0.025846567187491266,-0.028505119760527907,2.479871988296509,2019-06-20 15:09:04:705
8.065942016601563,2.322340087890625,0.8960162658691406,0.04982475210034541,-0.025047618860467497,-0.028105645597016022,2.484992027282715,2019-06-20 15:09:04:710
8.040803283691407,2.3199459228515624,0.9031987609863281,0.04875948766431372,-0.025180776914971458,-0.028904593924039792,2.489856004714966,2019-06-20 15:09:04:715
8.068336181640625,2.282836364746094,0.8780600280761719,0.050224226263857294,-0.02611288329649919,-0.03023617446907941,2.494976043701172,2019-06-20 15:09:04:720
8.04439453125,2.30797509765625,0.9031987609863281,0.05155580680889692,-0.025180776914971458,-0.029703542251063562,2.499840021133423,2019-06-20 15:09:04:725
8.052774108886718,2.3331138305664063,0.9295345764160156,0.052887387353936534,-0.025713409132987305,-0.029969858360071485,2.504960060119629,2019-06-20 15:09:04:730
8.071927429199219,2.357055480957031,0.8972133483886718,0.05302054540844049,-0.025713409132987305,-0.031035122796103178,2.50982403755188,2019-06-20 15:09:04:735
8.107839904785155,2.3618438110351563,0.8720746154785156,0.052088439026912764,-0.026379199405507113,-0.03143459695961507,2.514944076538086,2019-06-20 15:09:04:740
8.067139099121093,2.3307196655273437,0.8541183776855469,0.05049054237286522,-0.026379199405507113,-0.03156775501411903,2.519808053970337,2019-06-20 15:09:04:745
8.024044128417968,2.323537170410156,0.8756658630371094,0.05155580680889692,-0.02771077995054673,-0.03249986139564676,2.524927854537964,2019-06-20 15:09:04:750
8.06474493408203,2.323537170410156,0.8768629455566406,0.05222159708141672,-0.02784393800505069,-0.03183407112312696,2.53004789352417,2019-06-20 15:09:04:755
8.09227783203125,2.3103692626953123,0.8792571105957031,0.052487913190424645,-0.026778673569018998,-0.03263301945015073,2.534911870956421,2019-06-20 15:09:04:760
8.037212036132813,2.336705078125,0.8876366882324218,0.053686335680960304,-0.02797709605955466,-0.03289933555915865,2.540031909942627,2019-06-20 15:09:04:765
8.070730346679687,2.3678292236328122,0.8780600280761719,0.05395265178996823,-0.026778673569018998,-0.0334319677771745,2.544895887374878,2019-06-20 15:09:04:770
8.082701171875,2.3486759033203124,0.8648921203613281,0.05315370346294446,-0.027444463841538806,-0.03369828388618242,2.550015926361084,2019-06-20 15:09:04:775
8.071927429199219,2.336705078125,0.9079870910644531,0.0519552809724088,-0.02877604438657843,-0.034364074158702226,2.554879903793335,2019-06-20 15:09:04:780
8.101854492187499,2.323537170410156,0.9223520812988281,0.053286861517448415,-0.02704498967802692,-0.03489670637671808,2.559999942779541,2019-06-20 15:09:04:785
8.081504089355468,2.3295225830078126,0.8577096252441406,0.05355317762645634,-0.027577621896042768,-0.036627761085269585,2.564863920211792,2019-06-20 15:09:04:790
8.09227783203125,2.325931335449219,0.8529212951660156,0.05395265178996823,-0.02704498967802692,-0.03729355135778939,2.569983959197998,2019-06-20 15:09:04:795
8.076715759277343,2.3438875732421875,0.8756658630371094,0.053686335680960304,-0.028243412168562583,-0.03755986746679731,2.574847936630249,2019-06-20 15:09:04:800
8.069533264160157,2.3618438110351563,0.9115783386230468,0.05355317762645634,-0.02771077995054673,-0.0379593416303092,2.579967975616455,2019-06-20 15:09:04:805
8.077912841796875,2.336705078125,0.8924250183105469,0.05315370346294446,-0.027444463841538806,-0.03982355439336467,2.584831953048706,2019-06-20 15:09:04:810
8.083898254394532,2.3211430053710935,0.8421475524902343,0.05421896789897615,-0.028376570223066545,-0.04115513493840429,2.589951992034912,2019-06-20 15:09:04:815
8.131781555175781,2.297201354980469,0.7858846740722656,0.05421896789897615,-0.02811025411405862,-0.041288292992908246,2.594815969467163,2019-06-20 15:09:04:820
8.125796142578125,2.2924130249023436,0.8122204895019531,0.055550548444015774,-0.025580251078483343,-0.04142145104741221,2.599936008453369,2019-06-20 15:09:04:825
8.094671997070312,2.284033447265625,0.8229942321777344,0.05768107731607916,-0.025180776914971458,-0.04328566381046768,2.60479998588562,2019-06-20 15:09:04:830
8.091080749511718,2.3043838500976563,0.8134175720214843,0.05834686758859897,-0.02691183162352296,-0.043951454082987486,2.609920024871826,2019-06-20 15:09:04:835
8.088686584472656,2.2768509521484375,0.8780600280761719,0.0575479192615752,-0.025979725241995228,-0.04648145711856276,2.6150400638580322,2019-06-20 15:09:04:840
8.056365356445312,2.2612888793945314,0.8481329650878906,0.05821370953409501,-0.024781302751459573,-0.04754672155459446,2.619904041290283,2019-06-20 15:09:04:845
8.075518676757813,2.299595520019531,0.8924250183105469,0.059012657861118784,-0.02544709302397938,-0.049677250426657854,2.62502384185791,2019-06-20 15:09:04:850
8.082701171875,2.313960510253906,0.9343229064941406,0.05927897397012671,-0.025979725241995228,-0.05180777929872124,2.6298880577087402,2019-06-20 15:09:04:855
8.070730346679687,2.3175517578125,0.9462937316894531,0.05914581591562274,-0.025846567187491266,-0.052074095407729164,2.635007858276367,2019-06-20 15:09:04:860
8.022847045898438,2.2924130249023436,0.8960162658691406,0.05848002564310294,-0.026778673569018998,-0.05393830817078463,2.6398720741271973,2019-06-20 15:09:04:865
8.040803283691407,2.3247342529296873,0.9187608337402343,0.05728160315256728,-0.02624604135100315,-0.055536204824832174,2.644991874694824,2019-06-20 15:09:04:870
8.045591613769531,2.299595520019531,0.8672862854003907,0.057814235370583125,-0.025580251078483343,-0.05673462731536783,2.649855852127075,2019-06-20 15:09:04:875
8.010876220703125,2.303186767578125,0.8385563049316406,0.05794739342508708,-0.025846567187491266,-0.058598840078423295,2.6549758911132812,2019-06-20 15:09:04:880
8.106642822265625,2.2912159423828125,0.8313738098144531,0.05808055147959105,-0.023982354424435796,-0.060063578677966876,2.6598398685455322,2019-06-20 15:09:04:885
8.13896405029297,2.3163546752929687,0.7595488586425782,0.05874634175211086,-0.025580251078483343,-0.06219410755003027,2.6649599075317383,2019-06-20 15:09:04:890
8.085095336914062,2.3247342529296873,0.7679284362792969,0.0603442384061584,-0.026645515514515036,-0.06379200420407781,2.6698238849639893,2019-06-20 15:09:04:895
8.076715759277343,2.3043838500976563,0.7810963439941406,0.06047739646066236,-0.02278393193390014,-0.06538990085812535,2.6749439239501953,2019-06-20 15:09:04:900
8.070730346679687,2.309172180175781,0.8349650573730468,0.059012657861118784,-0.021585509443364483,-0.06672148140316497,2.6798079013824463,2019-06-20 15:09:04:905
8.046788696289063,2.2960042724609373,0.8804541931152343,0.06140950284219009,-0.022118141661380333,-0.0687188522207244,2.6849279403686523,2019-06-20 15:09:04:910
8.052774108886718,2.2876246948242187,0.8421475524902343,0.06194213506020594,-0.020120770843820905,-0.0715151713653076,2.6900479793548584,2019-06-20 15:09:04:915
8.045591613769531,2.28882177734375,0.8170088195800781,0.05954529007913463,-0.02171866749786845,-0.07324622607385911,2.6949119567871094,2019-06-20 15:09:04:920
8.03601495361328,2.303186767578125,0.821797149658203,0.06061055451516632,-0.022118141661380333,-0.07577622910943438,2.7000319957733154,2019-06-20 15:09:04:925
8.061153686523438,2.3055809326171874,0.8732716979980468,0.06447213809578121,-0.021052877225348637,-0.07724096770897797,2.7048959732055664,2019-06-20 15:09:04:930
8.075518676757813,2.3821942138671877,0.8864396057128906,0.06260792533272576,-0.02171866749786845,-0.07923833852653739,2.7100160121917725,2019-06-20 15:09:04:935
8.030029541015624,2.5354207763671877,0.9079870910644531,0.05967844813363859,-0.022384457770388257,-0.08043676101707305,2.7148799896240234,2019-06-20 15:09:04:940
8.049182861328125,2.6072457275390626,0.8517242126464843,0.05981160618814255,-0.0211860352798526,-0.08056991907157701,2.7200000286102295,2019-06-20 15:09:04:945
8.050379943847656,2.644355285644531,0.8325708923339844,0.05674897093455143,-0.021052877225348637,-0.0781730740905057,2.7248640060424805,2019-06-20 15:09:04:950
7.995314147949219,2.695829833984375,0.8648921203613281,0.052487913190424645,-0.020253928898324867,-0.07457780661889872,2.7299840450286865,2019-06-20 15:09:04:955
8.01566455078125,2.7508956298828124,0.9151695861816406,0.052887387353936534,-0.020120770843820905,-0.0697841166567561,2.7348480224609375,2019-06-20 15:09:04:960
7.984540405273437,2.8418739013671876,0.9319287414550781,0.05342001957195238,-0.02145235138886052,-0.06405832031308574,2.7399680614471436,2019-06-20 15:09:04:965
7.988131652832031,2.8885601196289064,0.9235491638183594,0.045563694356218626,-0.020919719170844675,-0.05846568202391934,2.7448320388793945,2019-06-20 15:09:04:970
7.994117065429688,2.893348449707031,0.8720746154785156,0.039038949685524495,-0.022917089988404103,-0.05260672762574501,2.7499520778656006,2019-06-20 15:09:04:975
7.955810424804687,2.8765892944335936,0.8792571105957031,0.03570999832292545,-0.02438182858794769,-0.046747773227570684,2.7548160552978516,2019-06-20 15:09:04:980
7.945036682128906,2.8035672607421875,1.0001624450683593,0.03104946641528678,-0.02531393496947542,-0.039290922175348825,2.7599358558654785,2019-06-20 15:09:04:985
7.9785549926757815,2.7377277221679686,0.9642499694824218,0.02798683116169566,-0.027577621896042768,-0.0340977580496943,2.7648000717163086,2019-06-20 15:09:04:990
8.01566455078125,2.663508605957031,0.9043958435058593,0.02692156672566396,-0.02970815076810616,-0.029969858360071485,2.7699198722839355,2019-06-20 15:09:04:995
8.039606201171875,2.5701361694335936,0.8912279357910156,0.026522092562152075,-0.030240782986122008,-0.026640906997472437,2.7750399112701416,2019-06-20 15:09:05:000
8.071927429199219,2.4923258056640623,0.8780600280761719,0.022261034818025296,-0.029175518550090315,-0.02517616839792886,2.7799038887023926,2019-06-20 15:09:05:005
8.049182861328125,2.3977562866210937,0.8972133483886718,0.020796296218481714,-0.029974466877114084,-0.025442484506936782,2.7850239276885986,2019-06-20 15:09:05:010
8.085095336914062,2.294807189941406,0.9355199890136718,0.022793667036041142,-0.03050709909512993,-0.025708800615944705,2.7898879051208496,2019-06-20 15:09:05:015
8.104248657226563,2.2517122192382812,0.9283374938964843,0.024125247581080762,-0.03050709909512993,-0.027706171433504137,2.7950079441070557,2019-06-20 15:09:05:020
8.180861938476562,2.22178515625,0.7942642517089844,0.02532367007161642,-0.0295749927136022,-0.030768806687095255,2.7998719215393066,2019-06-20 15:09:05:025
8.154526123046875,2.218193908691406,0.8038409118652343,0.029052095597727354,-0.027178147732530883,-0.035828812758245815,2.8049919605255127,2019-06-20 15:09:05:030
8.038409118652343,2.312763427734375,0.8840454406738281,0.03278052112383829,-0.02797709605955466,-0.03942408022985278,2.8098559379577637,2019-06-20 15:09:05:035
8.07312451171875,2.3630408935546874,0.9403083190917969,0.03344631139635809,-0.02797709605955466,-0.04261987353794787,2.8149759769439697,2019-06-20 15:09:05:040
8.11143115234375,2.437260009765625,0.9271404113769531,0.032913679178342245,-0.02624604135100315,-0.045549350737035026,2.8198399543762207,2019-06-20 15:09:05:045
8.067139099121093,2.5150703735351563,0.8696804504394531,0.0323810469603264,-0.028376570223066545,-0.04581566684604295,2.8249599933624268,2019-06-20 15:09:05:050
8.027635375976562,2.504296630859375,0.8577096252441406,0.03144894057879867,-0.02811025411405862,-0.04581566684604295,2.8298239707946777,2019-06-20 15:09:05:055
8.008482055664063,2.586895324707031,0.9079870910644531,0.03278052112383829,-0.02624604135100315,-0.044350928246499374,2.834944009780884,2019-06-20 15:09:05:060
7.952219177246094,2.6694940185546874,0.9199579162597656,0.03317999528735017,-0.029308676604594276,-0.04341882186497164,2.8398079872131348,2019-06-20 15:09:05:065
7.994117065429688,2.6802677612304686,0.9235491638183594,0.03278052112383829,-0.0295749927136022,-0.04035618661138052,2.844928026199341,2019-06-20 15:09:05:070
8.01566455078125,2.701815246582031,0.898410430908203,0.029318411706735277,-0.029974466877114084,-0.03676091913977354,2.850048065185547,2019-06-20 15:09:05:075
8.008482055664063,2.6647056884765625,0.8098263244628906,0.024924195908104536,-0.03143920547665766,-0.03383144194068638,2.854912042617798,2019-06-20 15:09:05:080
8.022847045898438,2.673085266113281,0.9067900085449219,0.02519051201711246,-0.03050709909512993,-0.03196722917763092,2.860031843185425,2019-06-20 15:09:05:085
8.050379943847656,2.658720275878906,0.9486878967285156,0.024791037853600574,-0.030773415204137854,-0.029304068087551677,2.864896059036255,2019-06-20 15:09:05:090
7.997708312988281,2.6311873779296873,0.9379141540527344,0.022793667036041142,-0.033969208512232944,-0.026241432833960552,2.870015859603882,2019-06-20 15:09:05:095
8.042000366210937,2.6108369750976563,0.8565125427246093,0.02172840260000945,-0.03250446991268936,-0.024244062016401127,2.874880075454712,2019-06-20 15:09:05:100
8.0635478515625,2.561756591796875,0.8313738098144531,0.02039682205496983,-0.03170552158566559,-0.022113533144337734,2.879999876022339,2019-06-20 15:09:05:105
8.012073303222657,2.571333251953125,0.8756658630371094,0.018932083455426248,-0.03157236353116163,-0.020648794544794152,2.88486385345459,2019-06-20 15:09:05:110
8.042000366210937,2.5449974365234374,0.8768629455566406,0.017467344855882666,-0.031039731313145778,-0.019849846217770382,2.889983892440796,2019-06-20 15:09:05:115
8.022847045898438,2.4851433105468748,0.9139725036621094,0.018133135128402478,-0.0334365762942171,-0.019317213999754532,2.894847869873047,2019-06-20 15:09:05:120
8.033620788574218,2.5090849609375,0.9295345764160156,0.01826629318290644,-0.03463499878475275,-0.01905089789074661,2.899967908859253,2019-06-20 15:09:05:125
8.033620788574218,2.510282043457031,0.8517242126464843,0.018932083455426248,-0.03383605045772898,-0.018118791509218878,2.904831886291504,2019-06-20 15:09:05:130
8.009679138183593,2.5174645385742185,0.8900308532714843,0.01919839956443417,-0.034768156839256714,-0.018651423727234724,2.90995192527771,2019-06-20 15:09:05:135
8.058759521484374,2.5210557861328122,0.9391112365722656,0.019864189836953983,-0.035433949192371125,-0.018784581781738686,2.914815902709961,2019-06-20 15:09:05:140
8.033620788574218,2.494719970703125,0.9091841735839844,0.01973103178245002,-0.03556710724687509,-0.01905089789074661,2.919935941696167,2019-06-20 15:09:05:145
8.01566455078125,2.505493713378906,0.9008045959472656,0.01973103178245002,-0.03423552462124087,-0.01918405594525057,2.925055980682373,2019-06-20 15:09:05:150
7.997708312988281,2.5019024658203124,0.9067900085449219,0.021062612327489637,-0.033969208512232944,-0.018651423727234724,2.929919958114624,2019-06-20 15:09:05:155
8.004890808105468,2.4875374755859374,0.9427024841308593,0.023592615363064912,-0.0351676330833632,-0.018784581781738686,2.93503999710083,2019-06-20 15:09:05:160
8.012073303222657,2.4923258056640623,0.9582645568847656,0.02452472174459265,-0.035034475028859244,-0.018917739836242647,2.939903974533081,2019-06-20 15:09:05:165
8.027635375976562,2.467187072753906,0.9211549987792969,0.024791037853600574,-0.0351676330833632,-0.019317213999754532,2.945024013519287,2019-06-20 15:09:05:170
8.056365356445312,2.489931640625,0.8457388000488281,0.026255776453144152,-0.03370289240322502,-0.017719317345706993,2.949887990951538,2019-06-20 15:09:05:175
8.038409118652343,2.4887345581054685,0.8265854797363281,0.026522092562152075,-0.033969208512232944,-0.018651423727234724,2.955008029937744,2019-06-20 15:09:05:180
8.022847045898438,2.4779608154296873,0.8780600280761719,0.02758735699818377,-0.034368682675744826,-0.017852475400210954,2.959872007369995,2019-06-20 15:09:05:185
8.033620788574218,2.5019024658203124,0.8648921203613281,0.02945156976123924,-0.034768156839256714,-0.017319842141897804,2.964992046356201,2019-06-20 15:09:05:190
8.031226623535156,2.504296630859375,0.8900308532714843,0.02878577948871943,-0.03490131489376067,-0.01758615929120303,2.969856023788452,2019-06-20 15:09:05:195
8.026438293457032,2.495917053222656,0.8301767272949219,0.030516834197270932,-0.032770786021697286,-0.016654051869377996,2.974976062774658,2019-06-20 15:09:05:200
8.027635375976562,2.5222528686523438,0.8313738098144531,0.03104946641528678,-0.0323713118581854,-0.015322471324338376,2.979840040206909,2019-06-20 15:09:05:205
7.997708312988281,2.5258441162109375,0.8660892028808593,0.03184841474231055,-0.03330341823971313,-0.01425720688830668,2.9849600791931152,2019-06-20 15:09:05:210
8.008482055664063,2.5066907958984372,0.8397533874511719,0.03278052112383829,-0.032104995749177474,-0.013857732724794795,2.989824056625366,2019-06-20 15:09:05:215
8.012073303222657,2.5138732910156247,0.8684833679199219,0.03357946945086206,-0.031971837694673516,-0.013191942452274986,2.994943857192993,2019-06-20 15:09:05:220
8.003693725585938,2.531829528808594,0.8684833679199219,0.03384578555986998,-0.03223815380368144,-0.012259836070747251,2.9998080730438232,2019-06-20 15:09:05:225
8.01566455078125,2.5402091064453125,0.8589067077636718,0.03424525972338187,-0.031306047422153704,-0.012259836070747251,3.00492787361145,2019-06-20 15:09:05:230
8.030029541015624,2.548588684082031,0.8229942321777344,0.0351773661049096,-0.03170552158566559,-0.010795097471203672,3.0100479125976562,2019-06-20 15:09:05:235
8.031226623535156,2.5270411987304686,0.8648921203613281,0.03597631443193337,-0.030640257149633893,-0.01066193941669971,3.0149118900299072,2019-06-20 15:09:05:240
8.042000366210937,2.5306324462890624,0.8720746154785156,0.0351773661049096,-0.0295749927136022,-0.009862991089675938,3.0200319290161133,2019-06-20 15:09:05:245
8.013270385742187,2.5509828491210937,0.8385563049316406,0.035576840268421485,-0.030240782986122008,-0.009064042762652167,3.0248959064483643,2019-06-20 15:09:05:250
8.031226623535156,2.5306324462890624,0.8385563049316406,0.03730789497697299,-0.030240782986122008,-0.008531410544636318,3.0300159454345703,2019-06-20 15:09:05:255
8.030029541015624,2.4983112182617186,0.9091841735839844,0.03770736914048488,-0.029308676604594276,-0.008797726653644243,3.0348799228668213,2019-06-20 15:09:05:260
8.057562438964844,2.5007053833007813,0.8349650573730468,0.037840527194988836,-0.029308676604594276,-0.008531410544636318,3.0399999618530273,2019-06-20 15:09:05:265
8.012073303222657,2.5210557861328122,0.8457388000488281,0.03837315941300468,-0.0295749927136022,-0.0077324622176125485,3.0448639392852783,2019-06-20 15:09:05:270
8.021649963378906,2.5366178588867188,0.9211549987792969,0.03930526579453242,-0.03170552158566559,-0.007332988054100662,3.0499839782714844,2019-06-20 15:09:05:275
8.00728497314453,2.507887878417969,0.8780600280761719,0.039038949685524495,-0.030640257149633893,-0.007599304163108585,3.0548479557037354,2019-06-20 15:09:05:280
8.020452880859375,2.5138732910156247,0.9020016784667969,0.03837315941300468,-0.030773415204137854,-0.007332988054100662,3.0599679946899414,2019-06-20 15:09:05:285
8.047985778808593,2.505493713378906,0.9043958435058593,0.03957158190354034,-0.03143920547665766,-0.00653403972707689,3.0648319721221924,2019-06-20 15:09:05:290
8.042000366210937,2.5438003540039062,0.9486878967285156,0.04116947855758789,-0.030240782986122008,-0.005335617236541234,3.0699520111083984,2019-06-20 15:09:05:295
8.028832458496094,2.5473916015625,0.8816512756347656,0.040503688285068076,-0.03143920547665766,-0.0050693011275333094,3.0748159885406494,2019-06-20 15:09:05:300
8.071927429199219,2.542603271484375,0.8672862854003907,0.03957158190354034,-0.029308676604594276,-0.004669826964021424,3.0799360275268555,2019-06-20 15:09:05:305
8.033620788574218,2.533026611328125,0.8756658630371094,0.039038949685524495,-0.030640257149633893,-0.004669826964021424,3.0848000049591064,2019-06-20 15:09:05:310
8.055168273925782,2.531829528808594,0.8732716979980468,0.03957158190354034,-0.030240782986122008,-0.004802985018525386,3.0899200439453125,2019-06-20 15:09:05:315
8.065942016601563,2.524647033691406,0.8756658630371094,0.040770004394076,-0.0295749927136022,-0.0040040366915016145,3.0950398445129395,2019-06-20 15:09:05:320
8.028832458496094,2.5497857666015626,0.8636950378417969,0.040636846339572034,-0.02970815076810616,-0.002672456146461995,3.0999040603637695,2019-06-20 15:09:05:325
8.038409118652343,2.561756591796875,0.8457388000488281,0.03957158190354034,-0.029841308822610123,-0.0020066658739421855,3.1050238609313965,2019-06-20 15:09:05:330
8.05397119140625,2.55696826171875,0.8481329650878906,0.03877263357651657,-0.030240782986122008,-0.0008082433834065285,3.1098880767822266,2019-06-20 15:09:05:335
8.03601495361328,2.5545740966796875,0.8182059020996093,0.03850631746750865,-0.030640257149633893,-0.00027561116539068085,3.1150078773498535,2019-06-20 15:09:05:340
8.045591613769531,2.5438003540039062,0.8325708923339844,0.03930526579453242,-0.03183867964016955,-0.0004087692198946427,3.1198718547821045,2019-06-20 15:09:05:345
8.050379943847656,2.524647033691406,0.8445417175292969,0.03850631746750865,-0.031039731313145778,0.0002570210526251668,3.1249918937683105,2019-06-20 15:09:05:350
8.03481787109375,2.5138732910156247,0.8505271301269531,0.03863947552201261,-0.031039731313145778,0.0006564952161370526,3.1298558712005615,2019-06-20 15:09:05:355
8.06474493408203,2.5509828491210937,0.8481329650878906,0.03863947552201261,-0.03143920547665766,0.001322285488656862,3.1349759101867676,2019-06-20 15:09:05:360
8.039606201171875,2.5581653442382812,0.8469358825683594,0.03877263357651657,-0.03143920547665766,0.0017217596521687478,3.1398398876190186,2019-06-20 15:09:05:365
8.046788696289063,2.5258441162109375,0.8194029846191406,0.03877263357651657,-0.02890920244108239,0.0019880757611766718,3.1449599266052246,2019-06-20 15:09:05:370
8.039606201171875,2.495917053222656,0.8098263244628906,0.03850631746750865,-0.030640257149633893,0.0029201821427044046,3.1498239040374756,2019-06-20 15:09:05:375
8.033620788574218,2.542603271484375,0.8313738098144531,0.03837315941300468,-0.03037394104062597,0.003053340197208367,3.1549439430236816,2019-06-20 15:09:05:380
8.049182861328125,2.5258441162109375,0.8385563049316406,0.0379736852494928,-0.03050709909512993,0.0038522885242321388,3.1598079204559326,2019-06-20 15:09:05:385
8.059956604003906,2.4983112182617186,0.9020016784667969,0.03677526275895714,-0.030107624931618046,0.0029201821427044046,3.1649279594421387,2019-06-20 15:09:05:390
8.014467468261719,2.510282043457031,0.8804541931152343,0.03744105303147695,-0.029441834659098238,0.0038522885242321388,3.1700479984283447,2019-06-20 15:09:05:395
8.039606201171875,2.5114791259765625,0.860103790283203,0.03810684330399676,-0.02877604438657843,0.0039854465787361,3.1749119758605957,2019-06-20 15:09:05:400
8.040803283691407,2.5258441162109375,0.8313738098144531,0.03810684330399676,-0.03037394104062597,0.004251762687744024,3.1800320148468018,2019-06-20 15:09:05:405
8.058759521484374,2.5114791259765625,0.821797149658203,0.037840527194988836,-0.0295749927136022,0.005050711014767796,3.1848959922790527,2019-06-20 15:09:05:410
8.042000366210937,2.5162674560546874,0.8289796447753907,0.0379736852494928,-0.02877604438657843,0.005317027123775719,3.190016031265259,2019-06-20 15:09:05:415
7.9929199829101565,2.5150703735351563,0.8756658630371094,0.03810684330399676,-0.0295749927136022,0.0058496593417915665,3.1948800086975098,2019-06-20 15:09:05:420
8.026438293457032,2.5210557861328122,0.8840454406738281,0.03863947552201261,-0.029042360495586353,0.006382291559807415,3.200000047683716,2019-06-20 15:09:05:425
8.013270385742187,2.533026611328125,0.8732716979980468,0.03850631746750865,-0.02811025411405862,0.006249133505303452,3.204864025115967,2019-06-20 15:09:05:430
8.024044128417968,2.507887878417969,0.8648921203613281,0.03850631746750865,-0.02797709605955466,0.007048081832327224,3.209984064102173,2019-06-20 15:09:05:435
8.04439453125,2.5138732910156247,0.8613008728027344,0.03810684330399676,-0.02784393800505069,0.00824650432286288,3.214848041534424,2019-06-20 15:09:05:440
8.03601495361328,2.52823828125,0.8373592224121094,0.03744105303147695,-0.02704498967802692,0.008645978486374767,3.219967842102051,2019-06-20 15:09:05:445
8.0252412109375,2.5294353637695313,0.8553154602050781,0.03744105303147695,-0.026778673569018998,0.009444926813398537,3.224832057952881,2019-06-20 15:09:05:450
8.010876220703125,2.533026611328125,0.8744687805175781,0.03664210470445318,-0.026512357460011075,0.009311768758894575,3.229951858520508,2019-06-20 15:09:05:455
8.016861633300781,2.5210557861328122,0.8888337707519531,0.03650894664994922,-0.028376570223066545,0.010643349303934195,3.234816074371338,2019-06-20 15:09:05:460
8.010876220703125,2.533026611328125,0.8613008728027344,0.0369084208134611,-0.028243412168562583,0.010776507358438157,3.239935874938965,2019-06-20 15:09:05:465
8.045591613769531,2.507887878417969,0.8816512756347656,0.0362426305409413,-0.02811025411405862,0.01104282346744608,3.245055913925171,2019-06-20 15:09:05:470
8.030029541015624,2.4887345581054685,0.8672862854003907,0.03544368221391753,-0.028243412168562583,0.012507562066989662,3.249919891357422,2019-06-20 15:09:05:475
8.039606201171875,2.507887878417969,0.8840454406738281,0.03677526275895714,-0.02811025411405862,0.012108087903477775,3.255039930343628,2019-06-20 15:09:05:480
8.047985778808593,2.4995083007812497,0.9427024841308593,0.03744105303147695,-0.028376570223066545,0.012241245957981737,3.259903907775879,2019-06-20 15:09:05:485
8.020452880859375,2.504296630859375,0.9151695861816406,0.03664210470445318,-0.026379199405507113,0.013173352339509472,3.265023946762085,2019-06-20 15:09:05:490
8.004890808105468,2.5366178588867188,0.9223520812988281,0.03570999832292545,-0.027178147732530883,0.01304019428500551,3.269887924194336,2019-06-20 15:09:05:495
8.009679138183593,2.5174645385742185,0.8816512756347656,0.0351773661049096,-0.02784393800505069,0.01383914261202928,3.275007963180542,2019-06-20 15:09:05:500
8.000102478027344,2.504296630859375,0.9031987609863281,0.03344631139635809,-0.027577621896042768,0.014504932884549092,3.279871940612793,2019-06-20 15:09:05:505
8.006087890625,2.475566650390625,0.9043958435058593,0.03504420805040564,-0.02691183162352296,0.014371774830045128,3.284991979598999,2019-06-20 15:09:05:510
8.027635375976562,2.495917053222656,0.8948191833496093,0.034777891941397715,-0.026778673569018998,0.014904407048060977,3.28985595703125,2019-06-20 15:09:05:515
8.008482055664063,2.5114791259765625,0.8840454406738281,0.0362426305409413,-0.02890920244108239,0.015437039266076823,3.294975996017456,2019-06-20 15:09:05:520
7.985737487792969,2.4875374755859374,0.9067900085449219,0.03597631443193337,-0.02890920244108239,0.0151707231570689,3.299839973449707,2019-06-20 15:09:05:525
8.01566455078125,2.493522888183594,0.9343229064941406,0.03504420805040564,-0.030240782986122008,0.01596967148409267,3.304960012435913,2019-06-20 15:09:05:530
8.068336181640625,2.5066907958984372,0.9307316589355469,0.034777891941397715,-0.030640257149633893,0.01583651342958871,3.309823989868164,2019-06-20 15:09:05:535
8.056365356445312,2.5019024658203124,0.9079870910644531,0.03424525972338187,-0.029042360495586353,0.016235987593100593,3.31494402885437,2019-06-20 15:09:05:540
8.026438293457032,2.504296630859375,0.8505271301269531,0.034777891941397715,-0.030773415204137854,0.01730125202913229,3.319808006286621,2019-06-20 15:09:05:545
8.008482055664063,2.493522888183594,0.8996075134277344,0.03451157583238979,-0.030773415204137854,0.01810019931585876,3.324928045272827,2019-06-20 15:09:05:550
8.03601495361328,2.5007053833007813,0.9199579162597656,0.03451157583238979,-0.03050709909512993,0.01863283153387461,3.330047845840454,2019-06-20 15:09:05:555
8.040803283691407,2.510282043457031,0.8948191833496093,0.034777891941397715,-0.03117288936764974,0.01943177986089838,3.334912061691284,2019-06-20 15:09:05:560
8.021649963378906,2.4875374755859374,0.8792571105957031,0.03437841777788583,-0.031039731313145778,0.01956493791540234,3.340031862258911,2019-06-20 15:09:05:565
8.031226623535156,2.5030995483398435,0.8888337707519531,0.03424525972338187,-0.032903944076201244,0.019698095969906303,3.344896078109741,2019-06-20 15:09:05:570
8.040803283691407,2.475566650390625,0.9115783386230468,0.03357946945086206,-0.033569734348721056,0.02063020235143404,3.350015878677368,2019-06-20 15:09:05:575
8.0252412109375,2.4695812377929687,0.9343229064941406,0.03464473388689375,-0.03383605045772898,0.020497044296930077,3.354879856109619,2019-06-20 15:09:05:580
8.032423706054688,2.464792907714844,0.8996075134277344,0.03544368221391753,-0.03383605045772898,0.02063020235143404,3.359999895095825,2019-06-20 15:09:05:585
8.049182861328125,2.4827491455078126,0.8696804504394531,0.03504420805040564,-0.03370289240322502,0.020363886242426115,3.364863872528076,2019-06-20 15:09:05:590
8.037212036132813,2.4779608154296873,0.898410430908203,0.03544368221391753,-0.033170260185209174,0.02063020235143404,3.3699839115142822,2019-06-20 15:09:05:595
8.062350769042968,2.462398742675781,0.8744687805175781,0.03464473388689375,-0.032770786021697286,0.021029676514945923,3.374847888946533,2019-06-20 15:09:05:600
8.058759521484374,2.446836669921875,0.9331258239746093,0.03491104999590168,-0.03330341823971313,0.021162834569449885,3.3799679279327393,2019-06-20 15:09:05:605
8.014467468261719,2.452822082519531,0.8732716979980468,0.03504420805040564,-0.032903944076201244,0.020763360405938,3.3848319053649902,2019-06-20 15:09:05:610
8.070730346679687,2.4205008544921873,0.8361621398925781,0.03544368221391753,-0.0334365762942171,0.020763360405938,3.3899519443511963,2019-06-20 15:09:05:615
8.067139099121093,2.421697937011719,0.8421475524902343,0.03677526275895714,-0.03463499878475275,0.01943177986089838,3.3948159217834473,2019-06-20 15:09:05:620
8.050379943847656,2.4205008544921873,0.8541183776855469,0.03730789497697299,-0.03370289240322502,0.01956493791540234,3.3999359607696533,2019-06-20 15:09:05:625
8.03601495361328,2.427683349609375,0.8960162658691406,0.03677526275895714,-0.033569734348721056,0.019831254024410265,3.4050559997558594,2019-06-20 15:09:05:630
8.051577026367188,2.4288804321289064,0.8864396057128906,0.03730789497697299,-0.0334365762942171,0.01956493791540234,3.4099199771881104,2019-06-20 15:09:05:635
8.055168273925782,2.4264862670898437,0.8577096252441406,0.03863947552201261,-0.033170260185209174,0.01943177986089838,3.4150400161743164,2019-06-20 15:09:05:640
8.05397119140625,2.4193037719726562,0.8972133483886718,0.039038949685524495,-0.03330341823971313,0.01956493791540234,3.4199039936065674,2019-06-20 15:09:05:645
8.03481787109375,2.4252891845703126,0.8565125427246093,0.038905791631020537,-0.033969208512232944,0.018899147642882533,3.4250240325927734,2019-06-20 15:09:05:650
8.057562438964844,2.4288804321289064,0.8708775329589844,0.03943842384903638,-0.03423552462124087,0.019165463751890457,3.4298880100250244,2019-06-20 15:09:05:655
8.081504089355468,2.436062927246094,0.8684833679199219,0.039837898012548265,-0.032770786021697286,0.019964412078914227,3.4350080490112305,2019-06-20 15:09:05:660
8.056365356445312,2.4540191650390626,0.8170088195800781,0.040636846339572034,-0.03263762796719332,0.020363886242426115,3.4398720264434814,2019-06-20 15:09:05:665
8.024044128417968,2.467187072753906,0.8529212951660156,0.03957158190354034,-0.033170260185209174,0.019964412078914227,3.4449920654296875,2019-06-20 15:09:05:670
8.028832458496094,2.448033752441406,0.8517242126464843,0.03943842384903638,-0.032903944076201244,0.02023072818792215,3.4498560428619385,2019-06-20 15:09:05:675
8.062350769042968,2.438457092285156,0.8409504699707031,0.04037053023056411,-0.032104995749177474,0.020363886242426115,3.4549758434295654,2019-06-20 15:09:05:680
8.016861633300781,2.437260009765625,0.8517242126464843,0.04010421412155619,-0.03143920547665766,0.019964412078914227,3.4598400592803955,2019-06-20 15:09:05:685
8.056365356445312,2.44204833984375,0.8229942321777344,0.04023737217606015,-0.03143920547665766,0.02023072818792215,3.4649598598480225,2019-06-20 15:09:05:690
8.061153686523438,2.4456395874023436,0.8517242126464843,0.04103632050308392,-0.029974466877114084,0.01956493791540234,3.4698240756988525,2019-06-20 15:09:05:695
8.04439453125,2.4324716796875,0.8648921203613281,0.04156895272109977,-0.029308676604594276,0.02009757013341819,3.4749438762664795,2019-06-20 15:09:05:700
8.021649963378906,2.4300775146484375,0.8768629455566406,0.041702110775603735,-0.030107624931618046,0.01956493791540234,3.4798078536987305,2019-06-20 15:09:05:705
8.045591613769531,2.4288804321289064,0.8457388000488281,0.04263421715713147,-0.03037394104062597,0.018899147642882533,3.4849278926849365,2019-06-20 15:09:05:710
8.038409118652343,2.42289501953125,0.8672862854003907,0.042501059102627504,-0.029308676604594276,0.019964412078914227,3.4900479316711426,2019-06-20 15:09:05:715
8.0635478515625,2.433668762207031,0.9103812561035156,0.04290053326613939,-0.03037394104062597,0.02009757013341819,3.4949119091033936,2019-06-20 15:09:05:720
8.049182861328125,2.4109241943359376,0.8337679748535156,0.0446315879746909,-0.02877604438657843,0.020363886242426115,3.5000319480895996,2019-06-20 15:09:05:725
8.045591613769531,2.448033752441406,0.8481329650878906,0.0435663235386592,-0.02784393800505069,0.021162834569449885,3.5048959255218506,2019-06-20 15:09:05:730
8.049182861328125,2.4396541748046876,0.8505271301269531,0.042501059102627504,-0.02704498967802692,0.02142915067845781,3.5100159645080566,2019-06-20 15:09:05:735
8.070730346679687,2.408530029296875,0.8445417175292969,0.043300007429651274,-0.027311305787034845,0.02089651846044196,3.5148799419403076,2019-06-20 15:09:05:740
8.050379943847656,2.413318359375,0.8720746154785156,0.04303369132064335,-0.027178147732530883,0.02156230873296177,3.5199999809265137,2019-06-20 15:09:05:745
8.03601495361328,2.4169096069335936,0.8577096252441406,0.043300007429651274,-0.028243412168562583,0.021828624841969693,3.5248639583587646,2019-06-20 15:09:05:750
8.076715759277343,2.424092102050781,0.8672862854003907,0.04369948159316316,-0.02691183162352296,0.02142915067845781,3.5299839973449707,2019-06-20 15:09:05:755
8.057562438964844,2.418106689453125,0.8277825622558593,0.042367901048123546,-0.025846567187491266,0.021828624841969693,3.5348479747772217,2019-06-20 15:09:05:760
8.06474493408203,2.4157125244140625,0.8361621398925781,0.04223474299361958,-0.027311305787034845,0.023027047332505348,3.5399680137634277,2019-06-20 15:09:05:765
8.051577026367188,2.450427917480469,0.898410430908203,0.041302636612091846,-0.028509728277570506,0.0224944151144895,3.5448319911956787,2019-06-20 15:09:05:770
8.026438293457032,2.4432454223632813,0.8996075134277344,0.03957158190354034,-0.028509728277570506,0.022760731223497425,3.5499520301818848,2019-06-20 15:09:05:775
8.016861633300781,2.4324716796875,0.8804541931152343,0.04037053023056411,-0.028376570223066545,0.022627573168993463,3.5548160076141357,2019-06-20 15:09:05:780
8.06474493408203,2.4252891845703126,0.8972133483886718,0.04010421412155619,-0.02771077995054673,0.022760731223497425,3.559936046600342,2019-06-20 15:09:05:785
8.043197448730469,2.4300775146484375,0.8744687805175781,0.03917210774002846,-0.02784393800505069,0.02329336344151328,3.5650558471679688,2019-06-20 15:09:05:790
8.05397119140625,2.4348658447265623,0.8517242126464843,0.0379736852494928,-0.029175518550090315,0.023825995659529125,3.569920063018799,2019-06-20 15:09:05:795
8.03601495361328,2.427683349609375,0.8421475524902343,0.03757421108598091,-0.02890920244108239,0.02342652149601724,3.575039863586426,2019-06-20 15:09:05:800
8.051577026367188,2.42289501953125,0.8517242126464843,0.03744105303147695,-0.029974466877114084,0.024491785932048933,3.579904079437256,2019-06-20 15:09:05:805
8.05397119140625,2.4049387817382812,0.8624979553222656,0.03677526275895714,-0.03037394104062597,0.023959153714033087,3.585023880004883,2019-06-20 15:09:05:810
8.043197448730469,2.3941650390625,0.8840454406738281,0.03570999832292545,-0.02970815076810616,0.024758102041056856,3.589887857437134,2019-06-20 15:09:05:815
8.075518676757813,2.3869825439453125,0.8289796447753907,0.0351773661049096,-0.029974466877114084,0.025423892313576665,3.59500789642334,2019-06-20 15:09:05:820
8.057562438964844,2.395362121582031,0.8936221008300781,0.03437841777788583,-0.029974466877114084,0.024891260095560818,3.599871873855591,2019-06-20 15:09:05:825
8.074321594238281,2.3905737915039063,0.9043958435058593,0.03491104999590168,-0.0295749927136022,0.024491785932048933,3.604991912841797,2019-06-20 15:09:05:830
8.051577026367188,2.378602966308594,0.9103812561035156,0.03491104999590168,-0.029974466877114084,0.0235596795505212,3.609855890274048,2019-06-20 15:09:05:835
8.062350769042968,2.380997131347656,0.8828483581542969,0.03437841777788583,-0.031306047422153704,0.023959153714033087,3.614975929260254,2019-06-20 15:09:05:840
8.04439453125,2.3738146362304686,0.9211549987792969,0.03384578555986998,-0.03117288936764974,0.023825995659529125,3.619839906692505,2019-06-20 15:09:05:845
8.046788696289063,2.357055480957031,0.9510820617675781,0.03504420805040564,-0.030906573258641816,0.022893889278001386,3.624959945678711,2019-06-20 15:09:05:850
8.080307006835938,2.3774058837890624,0.9103812561035156,0.03531052415941356,-0.031039731313145778,0.02156230873296177,3.629823923110962,2019-06-20 15:09:05:855
8.076715759277343,2.3582525634765625,0.9163666687011719,0.03491104999590168,-0.03117288936764974,0.021162834569449885,3.634943962097168,2019-06-20 15:09:05:860
8.0635478515625,2.357055480957031,0.9187608337402343,0.03397894361437394,-0.031971837694673516,0.020497044296930077,3.639807939529419,2019-06-20 15:09:05:865
8.080307006835938,2.3618438110351563,0.8613008728027344,0.03317999528735017,-0.031306047422153704,0.02009757013341819,3.644927978515625,2019-06-20 15:09:05:870
8.074321594238281,2.380997131347656,0.8636950378417969,0.032114730851318475,-0.031306047422153704,0.018899147642882533,3.650048017501831,2019-06-20 15:09:05:875
8.06474493408203,2.352267150878906,0.8864396057128906,0.03224788890582244,-0.03143920547665766,0.01863283153387461,3.654911994934082,2019-06-20 15:09:05:880
8.057562438964844,2.3355079956054685,0.8696804504394531,0.03198157279681452,-0.031039731313145778,0.018899147642882533,3.660032033920288,2019-06-20 15:09:05:885
8.081504089355468,2.336705078125,0.8852425231933594,0.03278052112383829,-0.031039731313145778,0.01810019931585876,3.664896011352539,2019-06-20 15:09:05:890
8.088686584472656,2.3594496459960936,0.9163666687011719,0.032114730851318475,-0.03263762796719332,0.017034935920124367,3.670016050338745,2019-06-20 15:09:05:895
8.095869079589843,2.3618438110351563,0.8397533874511719,0.032114730851318475,-0.03263762796719332,0.016768619811116443,3.674880027770996,2019-06-20 15:09:05:900
8.06474493408203,2.3247342529296873,0.8613008728027344,0.03357946945086206,-0.0323713118581854,0.01596967148409267,3.680000066757202,2019-06-20 15:09:05:905
8.039606201171875,2.3103692626953123,0.8122204895019531,0.03264736306933432,-0.031306047422153704,0.014904407048060977,3.684864044189453,2019-06-20 15:09:05:910
8.047985778808593,2.2864276123046876,0.8182059020996093,0.03264736306933432,-0.03250446991268936,0.013439668448517395,3.68998384475708,2019-06-20 15:09:05:915
