ACCELEROMETER X (m/s²),ACCELEROMETER Y (m/s²),ACCELEROMETER Z (m/s²),GYROSCOPE X (rad/s),GYROSCOPE Y (rad/s),GYROSCOPE Z (rad/s),Time since start in ms ,YYYY-MO-DD HH-MI-SS_SSS
6.4438952026367184,5.8752810058593745,0.7032859802246093,0.04196842688461166,-0.020120770843820905,-0.021580900926321887,0.0,2019-06-20 16:14:09:372
6.434318542480469,5.8752810058593745,0.7188480529785156,0.04223474299361958,-0.019987612789316943,-0.022779323416857542,0.005120038986206055,2019-06-20 16:14:09:377
6.417559387207031,5.900419738769531,0.6841326599121094,0.04303369132064335,-0.021585509443364483,-0.024110903961897166,0.01024007797241211,2019-06-20 16:14:09:382
6.403194396972656,5.913587646484375,0.6829355773925782,0.04223474299361958,-0.020786561116340713,-0.02517616839792886,0.015104055404663086,2019-06-20 16:14:09:387
6.403194396972656,5.925558471679687,0.6865268249511719,0.04290053326613939,-0.02052024500733279,-0.024776694234416974,0.02022409439086914,2019-06-20 16:14:09:392
6.397208984375,5.915981811523437,0.7116655578613281,0.04276737521163543,-0.019987612789316943,-0.024643536179913012,0.025088071823120117,2019-06-20 16:14:09:397
6.418756469726563,5.9351351318359375,0.7499721984863281,0.04276737521163543,-0.01905550640778921,-0.024643536179913012,0.030208110809326172,2019-06-20 16:14:09:402
6.375661499023438,5.931543884277343,0.7260305480957031,0.04290053326613939,-0.02145235138886052,-0.02437722007090509,0.03507208824157715,2019-06-20 16:14:09:407
6.4008002319335935,5.948303039550781,0.7475780334472656,0.04303369132064335,-0.020253928898324867,-0.023578271743881312,0.0401918888092041,2019-06-20 16:14:09:412
6.385238159179687,5.961470947265624,0.7380013732910156,0.04343316548415524,-0.019721296680309017,-0.022779323416857542,0.04505610466003418,2019-06-20 16:14:09:417
6.363690673828125,5.960273864746093,0.745183868408203,0.04423211381117901,-0.02065340306183675,-0.021580900926321887,0.05017590522766113,2019-06-20 16:14:09:422
6.3397490234375,5.965062194824219,0.7427897033691406,0.043965797702171086,-0.019721296680309017,-0.021447742871817926,0.05503988265991211,2019-06-20 16:14:09:427
6.338551940917968,5.965062194824219,0.7595488586425782,0.04369948159316316,-0.021052877225348637,-0.020249320381282267,0.060159921646118164,2019-06-20 16:14:09:432
6.334960693359375,5.989003845214843,0.7631401062011719,0.04343316548415524,-0.02251761582489222,-0.019317213999754532,0.06502389907836914,2019-06-20 16:14:09:437
6.322989868164062,6.009354248046875,0.7499721984863281,0.043166849375147316,-0.0211860352798526,-0.0183851076182268,0.0701439380645752,2019-06-20 16:14:09:442
6.328975280761719,5.999777587890625,0.7619430236816406,0.04263421715713147,-0.02198498360687637,-0.015855103542354223,0.07500791549682617,2019-06-20 16:14:09:447
6.309821960449218,5.996186340332031,0.7846875915527344,0.042367901048123546,-0.022251299715884295,-0.013990890779298756,0.08012795448303223,2019-06-20 16:14:09:452
6.290668640136719,6.04287255859375,0.7559576110839844,0.04116947855758789,-0.021585509443364483,-0.011727203852731405,0.08524799346923828,2019-06-20 16:14:09:457
6.317004455566406,6.024916320800781,0.7631401062011719,0.04196842688461166,-0.023050248042908065,-0.009862991089675938,0.09011197090148926,2019-06-20 16:14:09:462
6.289471557617188,6.010551330566406,0.7260305480957031,0.04183526883010769,-0.024781302751459573,-0.008398252490132357,0.09523200988769531,2019-06-20 16:14:09:467
6.288274475097656,6.026113403320313,0.7655342712402343,0.040770004394076,-0.024781302751459573,-0.0057350914000531186,0.10009598731994629,2019-06-20 16:14:09:472
6.293062805175781,6.029704650878906,0.7607459411621094,0.04037053023056411,-0.02464814469695561,-0.003205088364477843,0.10521602630615234,2019-06-20 16:14:09:477
6.320595703125,6.050055053710937,0.7296217956542969,0.040636846339572034,-0.024914460805963535,-0.0014740336559263382,0.11008000373840332,2019-06-20 16:14:09:482
6.315807373046875,6.04287255859375,0.745183868408203,0.04023737217606015,-0.025846567187491266,-0.00027561116539068085,0.11520004272460938,2019-06-20 16:14:09:487
6.350522766113281,6.028507568359375,0.7248334655761719,0.03943842384903638,-0.02691183162352296,0.0015886015976647857,0.12006402015686035,2019-06-20 16:14:09:492
6.321792785644531,6.041675476074219,0.7439867858886718,0.039837898012548265,-0.02811025411405862,0.004118604633240062,0.1251840591430664,2019-06-20 16:14:09:497
6.322989868164062,6.015339660644531,0.7583517761230468,0.03877263357651657,-0.02811025411405862,0.005982817396295529,0.13004803657531738,2019-06-20 16:14:09:502
6.337354858398437,6.000974670410156,0.7439867858886718,0.039038949685524495,-0.0295749927136022,0.006914923777823262,0.13516807556152344,2019-06-20 16:14:09:507
6.337354858398437,6.020127990722656,0.7643371887207031,0.03917210774002846,-0.0295749927136022,0.008113346268358919,0.14003205299377441,2019-06-20 16:14:09:512
6.3433402709960935,6.030901733398437,0.7739138488769531,0.038905791631020537,-0.029175518550090315,0.009444926813398537,0.14515209197998047,2019-06-20 16:14:09:517
6.356508178710937,5.998580505371094,0.7703226013183594,0.03917210774002846,-0.029841308822610123,0.010510191249430234,0.15001606941223145,2019-06-20 16:14:09:522
6.384041076660156,5.9638651123046875,0.7870817565917969,0.03917210774002846,-0.030240782986122008,0.011175981521950044,0.1551361083984375,2019-06-20 16:14:09:527
6.388829406738281,5.971047607421875,0.7595488586425782,0.039038949685524495,-0.0323713118581854,0.012108087903477775,0.16000008583068848,2019-06-20 16:14:09:532
6.381646911621093,5.957879699707031,0.7595488586425782,0.039837898012548265,-0.032770786021697286,0.011974929848973814,0.16511988639831543,2019-06-20 16:14:09:537
6.375661499023438,5.936332214355469,0.7380013732910156,0.038905791631020537,-0.03303710213070521,0.012507562066989662,0.17023992538452148,2019-06-20 16:14:09:542
6.375661499023438,5.954288452148437,0.706877227783203,0.037840527194988836,-0.03117288936764974,0.012507562066989662,0.17510390281677246,2019-06-20 16:14:09:547
6.430727294921875,5.951894287109375,0.7008918151855469,0.03863947552201261,-0.03263762796719332,0.012108087903477775,0.18022394180297852,2019-06-20 16:14:09:552
6.397208984375,5.92795263671875,0.7356072082519531,0.03837315941300468,-0.032903944076201244,0.011575455685461929,0.1850879192352295,2019-06-20 16:14:09:557
6.3720702514648435,5.920770141601563,0.7080743103027344,0.03810684330399676,-0.03183867964016955,0.011974929848973814,0.19020795822143555,2019-06-20 16:14:09:562
6.390026489257813,5.915981811523437,0.7248334655761719,0.03863947552201261,-0.03223815380368144,0.012108087903477775,0.19507193565368652,2019-06-20 16:14:09:567
6.3720702514648435,5.914784729003906,0.7164538879394531,0.038905791631020537,-0.03223815380368144,0.012108087903477775,0.20019197463989258,2019-06-20 16:14:09:572
6.391223571777344,5.9339380493164064,0.7487751159667969,0.03770736914048488,-0.030773415204137854,0.012507562066989662,0.20505595207214355,2019-06-20 16:14:09:577
6.384041076660156,5.912390563964844,0.706877227783203,0.038905791631020537,-0.030240782986122008,0.012241245957981737,0.2101759910583496,2019-06-20 16:14:09:582
6.3780556640625,5.902813903808593,0.6853297424316406,0.039837898012548265,-0.029841308822610123,0.012241245957981737,0.21503996849060059,2019-06-20 16:14:09:587
6.413968139648437,5.924361389160156,0.745183868408203,0.03837315941300468,-0.029308676604594276,0.011575455685461929,0.22016000747680664,2019-06-20 16:14:09:592
6.430727294921875,5.924361389160156,0.706877227783203,0.03770736914048488,-0.03037394104062597,0.011442297630957967,0.22502398490905762,2019-06-20 16:14:09:597
6.428333129882812,5.909996398925781,0.7272276306152343,0.03730789497697299,-0.030906573258641816,0.011575455685461929,0.23014402389526367,2019-06-20 16:14:09:602
6.421150634765625,5.926755554199219,0.6877239074707031,0.03730789497697299,-0.030107624931618046,0.011575455685461929,0.23500800132751465,2019-06-20 16:14:09:607
6.4462893676757815,5.926755554199219,0.7332130432128906,0.03757421108598091,-0.030640257149633893,0.011575455685461929,0.2401280403137207,2019-06-20 16:14:09:612
6.436712707519531,5.923164306640625,0.7140597229003907,0.0379736852494928,-0.030107624931618046,0.010243875140422309,0.24524807929992676,2019-06-20 16:14:09:617
6.447486450195313,5.886054748535156,0.6925122375488281,0.03850631746750865,-0.029841308822610123,0.009178610704390614,0.25011205673217773,2019-06-20 16:14:09:622
6.466639770507812,5.915981811523437,0.7104684753417969,0.03863947552201261,-0.02970815076810616,0.008645978486374767,0.2552320957183838,2019-06-20 16:14:09:627
6.440303955078125,5.887251831054687,0.6853297424316406,0.03837315941300468,-0.030240782986122008,0.007314397941335148,0.26009607315063477,2019-06-20 16:14:09:632
6.4450922851562495,5.871689758300781,0.6793443298339844,0.03757421108598091,-0.0295749927136022,0.005583343232783643,0.2652161121368408,2019-06-20 16:14:09:637
6.455866027832031,5.882463500976562,0.6877239074707031,0.03837315941300468,-0.029308676604594276,0.004518078796751947,0.2700800895690918,2019-06-20 16:14:09:642
6.471428100585937,5.87049267578125,0.7104684753417969,0.038905791631020537,-0.029042360495586353,0.00465123685125591,0.27519989013671875,2019-06-20 16:14:09:647
6.481004760742187,5.8800693359375,0.7104684753417969,0.03863947552201261,-0.029841308822610123,0.003452814360720253,0.28006410598754883,2019-06-20 16:14:09:652
6.498960998535156,5.8609160156249995,0.7308188781738281,0.03930526579453242,-0.028243412168562583,0.0017217596521687478,0.2851839065551758,2019-06-20 16:14:09:657
6.467836853027344,5.868098510742187,0.7008918151855469,0.039704739958044306,-0.02877604438657843,0.0017217596521687478,0.29004788398742676,2019-06-20 16:14:09:662
6.463048522949219,5.883660583496094,0.6458260192871094,0.03997105606705223,-0.029042360495586353,-9.295056382757028e-06,0.2951679229736328,2019-06-20 16:14:09:667
6.4594572753906245,5.868098510742187,0.6901180725097656,0.03917210774002846,-0.028509728277570506,-0.0021398239284461476,0.3000319004058838,2019-06-20 16:14:09:672
6.465442687988281,5.8609160156249995,0.7164538879394531,0.03877263357651657,-0.02624604135100315,-0.002672456146461995,0.30515193939208984,2019-06-20 16:14:09:677
6.472625183105468,5.857324768066406,0.7080743103027344,0.03957158190354034,-0.026379199405507113,-0.002805614200965957,0.3100159168243408,2019-06-20 16:14:09:682
6.478610595703125,5.882463500976562,0.6769501647949219,0.040636846339572034,-0.02624604135100315,-0.0037377205824936904,0.3151359558105469,2019-06-20 16:14:09:687
6.452274780273437,5.894434326171875,0.7116655578613281,0.03997105606705223,-0.02611288329649919,-0.004936143073029348,0.31999993324279785,2019-06-20 16:14:09:692
6.442698120117187,5.8908430786132815,0.7080743103027344,0.039837898012548265,-0.025979725241995228,-0.006001407509061044,0.3251199722290039,2019-06-20 16:14:09:697
6.424741882324218,5.893237243652344,0.6949064025878906,0.039837898012548265,-0.02624604135100315,-0.0071998299995967,0.33024001121520996,2019-06-20 16:14:09:702
6.449880615234375,5.895631408691406,0.7128626403808593,0.04010421412155619,-0.02611288329649919,-0.0077324622176125485,0.33510398864746094,2019-06-20 16:14:09:707
6.447486450195313,5.895631408691406,0.7403955383300781,0.03997105606705223,-0.024781302751459573,-0.0077324622176125485,0.340224027633667,2019-06-20 16:14:09:712
6.42593896484375,5.907602233886719,0.7236363830566406,0.040770004394076,-0.024914460805963535,-0.0074661461086046235,0.34508800506591797,2019-06-20 16:14:09:717
6.394814819335937,5.906405151367188,0.7583517761230468,0.04023737217606015,-0.02611288329649919,-0.008131936381124433,0.350208044052124,2019-06-20 16:14:09:722
6.418756469726563,5.90879931640625,0.7595488586425782,0.03917210774002846,-0.024781302751459573,-0.007998778326620472,0.355072021484375,2019-06-20 16:14:09:727
6.427136047363281,5.924361389160156,0.7655342712402343,0.03917210774002846,-0.02691183162352296,-0.008797726653644243,0.36019206047058105,2019-06-20 16:14:09:732
6.421150634765625,5.912390563964844,0.7439867858886718,0.03930526579453242,-0.028243412168562583,-0.00933035887166009,0.36505603790283203,2019-06-20 16:14:09:737
6.407982727050781,5.931543884277343,0.7511692810058593,0.03837315941300468,-0.027311305787034845,-0.00933035887166009,0.3701760768890381,2019-06-20 16:14:09:742
6.407982727050781,5.915981811523437,0.7535634460449219,0.03810684330399676,-0.027577621896042768,-0.011061413580211595,0.37504005432128906,2019-06-20 16:14:09:747
6.394814819335937,5.906405151367188,0.7332130432128906,0.038240001358500725,-0.02771077995054673,-0.010262465253187823,0.3801600933074951,2019-06-20 16:14:09:752
6.42593896484375,5.912390563964844,0.7284247131347656,0.03863947552201261,-0.02691183162352296,-0.01066193941669971,0.3850240707397461,2019-06-20 16:14:09:757
6.4438952026367184,5.936332214355469,0.6769501647949219,0.038905791631020537,-0.02784393800505069,-0.01066193941669971,0.39014410972595215,2019-06-20 16:14:09:762
6.439106872558594,5.923164306640625,0.6565997619628906,0.04010421412155619,-0.026379199405507113,-0.01132772968921952,0.3950080871582031,2019-06-20 16:14:09:767
6.433121459960938,5.913587646484375,0.7391984558105469,0.038905791631020537,-0.025180776914971458,-0.011860361907235367,0.4001278877258301,2019-06-20 16:14:09:772
6.388829406738281,5.894434326171875,0.7272276306152343,0.03757421108598091,-0.025979725241995228,-0.011594045798227443,0.40524792671203613,2019-06-20 16:14:09:777
6.413968139648437,5.893237243652344,0.7128626403808593,0.03917210774002846,-0.02691183162352296,-0.01212667801624329,0.4101119041442871,2019-06-20 16:14:09:782
6.442698120117187,5.9040109863281245,0.7260305480957031,0.03837315941300468,-0.025713409132987305,-0.011860361907235367,0.41523194313049316,2019-06-20 16:14:09:787
6.434318542480469,5.892040161132813,0.7176509704589844,0.039038949685524495,-0.02451498664245165,-0.013058784397771025,0.42009592056274414,2019-06-20 16:14:09:792
6.439106872558594,5.913587646484375,0.6781472473144531,0.039704739958044306,-0.023050248042908065,-0.012792468288763102,0.4252159595489502,2019-06-20 16:14:09:797
6.403194396972656,5.911193481445312,0.7236363830566406,0.04023737217606015,-0.022917089988404103,-0.011860361907235367,0.43007993698120117,2019-06-20 16:14:09:802
6.404391479492188,5.930346801757812,0.7080743103027344,0.04103632050308392,-0.023050248042908065,-0.012392994125251213,0.4351999759674072,2019-06-20 16:14:09:807
6.4151652221679685,5.921967224121094,0.7092713928222656,0.04090316244857996,-0.023050248042908065,-0.01265931023425914,0.4400639533996582,2019-06-20 16:14:09:812
6.407982727050781,5.914784729003906,0.7188480529785156,0.040770004394076,-0.02278393193390014,-0.013191942452274986,0.44518399238586426,2019-06-20 16:14:09:817
6.370873168945312,5.914784729003906,0.6577968444824218,0.04103632050308392,-0.023050248042908065,-0.01212667801624329,0.45004796981811523,2019-06-20 16:14:09:822
6.419953552246094,5.912390563964844,0.7463809509277344,0.041302636612091846,-0.023050248042908065,-0.012792468288763102,0.4551680088043213,2019-06-20 16:14:09:827
6.405588562011719,5.896828491210937,0.7212422180175782,0.041302636612091846,-0.02185182555237241,-0.013058784397771025,0.46003198623657227,2019-06-20 16:14:09:832
6.385238159179687,5.909996398925781,0.6877239074707031,0.041702110775603735,-0.022917089988404103,-0.012925626343267063,0.4651520252227783,2019-06-20 16:14:09:837
6.369676086425781,5.901616821289062,0.7056801452636718,0.04143579466659581,-0.02265077387939618,-0.01265931023425914,0.4700160026550293,2019-06-20 16:14:09:842
6.366084838867187,5.923164306640625,0.7547605285644531,0.04223474299361958,-0.020919719170844675,-0.012792468288763102,0.47513604164123535,2019-06-20 16:14:09:847
6.412771057128906,5.915981811523437,0.7846875915527344,0.041302636612091846,-0.020253928898324867,-0.014124048833802718,0.48000001907348633,2019-06-20 16:14:09:852
6.399603149414062,5.906405151367188,0.7727167663574218,0.04143579466659581,-0.02185182555237241,-0.014124048833802718,0.4851200580596924,2019-06-20 16:14:09:857
6.394814819335937,5.9183759765624995,0.7475780334472656,0.041302636612091846,-0.0211860352798526,-0.013724574670290833,0.49024009704589844,2019-06-20 16:14:09:862
6.3780556640625,5.912390563964844,0.7368042907714843,0.04090316244857996,-0.02171866749786845,-0.01345825856128291,0.4951040744781494,2019-06-20 16:14:09:867
6.410376892089843,5.9195730590820315,0.7368042907714843,0.042101584939115616,-0.019454980571301093,-0.013724574670290833,0.5002238750457764,2019-06-20 16:14:09:872
6.418756469726563,5.925558471679687,0.7547605285644531,0.04303369132064335,-0.021585509443364483,-0.013990890779298756,0.5050880908966064,2019-06-20 16:14:09:877
6.401997314453125,5.896828491210937,0.7403955383300781,0.042501059102627504,-0.022251299715884295,-0.013724574670290833,0.5102078914642334,2019-06-20 16:14:09:882
6.376858581542969,5.931543884277343,0.7655342712402343,0.042101584939115616,-0.02198498360687637,-0.01345825856128291,0.5150721073150635,2019-06-20 16:14:09:887
6.4008002319335935,5.930346801757812,0.7703226013183594,0.04290053326613939,-0.02198498360687637,-0.01345825856128291,0.5201919078826904,2019-06-20 16:14:09:892
6.38763232421875,5.957879699707031,0.7368042907714843,0.042501059102627504,-0.02344972220641995,-0.013591416615786871,0.5250558853149414,2019-06-20 16:14:09:897
6.3720702514648435,5.954288452148437,0.7619430236816406,0.042501059102627504,-0.02424867053344372,-0.01265931023425914,0.5301759243011475,2019-06-20 16:14:09:902
6.376858581542969,5.945908874511718,0.7679284362792969,0.042101584939115616,-0.02424867053344372,-0.011993519961739328,0.5350399017333984,2019-06-20 16:14:09:907
6.392420654296875,5.939923461914062,0.7643371887207031,0.04156895272109977,-0.02424867053344372,-0.011194571634715558,0.5401599407196045,2019-06-20 16:14:09:912
6.375661499023438,5.9495001220703125,0.745183868408203,0.04183526883010769,-0.02464814469695561,-0.011194571634715558,0.5450239181518555,2019-06-20 16:14:09:917
6.399603149414062,5.955485534667969,0.7798992614746093,0.04303369132064335,-0.026512357460011075,-0.010262465253187823,0.5501439571380615,2019-06-20 16:14:09:922
6.396011901855468,5.950697204589844,0.8038409118652343,0.04263421715713147,-0.026379199405507113,-0.010528781362195748,0.5550079345703125,2019-06-20 16:14:09:927
6.3864352416992185,5.957879699707031,0.8050379943847656,0.040503688285068076,-0.02771077995054673,-0.010395623307691787,0.5601279735565186,2019-06-20 16:14:09:932
6.388829406738281,5.977033020019531,0.7751109313964843,0.04090316244857996,-0.029042360495586353,-0.010528781362195748,0.5652480125427246,2019-06-20 16:14:09:937
6.360099426269531,5.968653442382812,0.7787021789550781,0.04116947855758789,-0.028642886332074468,-0.008664568599140282,0.5701119899749756,2019-06-20 16:14:09:942
6.373267333984375,5.960273864746093,0.7523663635253907,0.040636846339572034,-0.0295749927136022,-0.007599304163108585,0.5752320289611816,2019-06-20 16:14:09:947
6.374464416503906,5.9638651123046875,0.7751109313964843,0.04116947855758789,-0.0295749927136022,-0.00786562027211651,0.5800960063934326,2019-06-20 16:14:09:952
6.398406066894531,5.955485534667969,0.7619430236816406,0.041302636612091846,-0.027178147732530883,-0.006933513890588777,0.5852160453796387,2019-06-20 16:14:09:957
6.375661499023438,5.943514709472656,0.6913151550292969,0.04037053023056411,-0.02784393800505069,-0.006800355836084815,0.5900800228118896,2019-06-20 16:14:09:962
6.375661499023438,5.9471059570312494,0.7846875915527344,0.04023737217606015,-0.029042360495586353,-0.006134565563565005,0.5952000617980957,2019-06-20 16:14:09:967
6.373267333984375,5.941120544433594,0.7559576110839844,0.04037053023056411,-0.030640257149633893,-0.005202459182037272,0.6000640392303467,2019-06-20 16:14:09:972
6.385238159179687,5.969850524902344,0.7846875915527344,0.039837898012548265,-0.03170552158566559,-0.005601933345549157,0.6051840782165527,2019-06-20 16:14:09:977
6.367281921386718,5.9183759765624995,0.7415926208496093,0.041302636612091846,-0.030240782986122008,-0.006134565563565005,0.6100480556488037,2019-06-20 16:14:09:982
6.392420654296875,5.921967224121094,0.7080743103027344,0.04037053023056411,-0.03037394104062597,-0.006001407509061044,0.6151680946350098,2019-06-20 16:14:09:987
6.417559387207031,5.950697204589844,0.7212422180175782,0.039837898012548265,-0.03050709909512993,-0.005868249454557082,0.6200320720672607,2019-06-20 16:14:09:992
6.4163623046875,5.955485534667969,0.7104684753417969,0.03957158190354034,-0.030240782986122008,-0.004936143073029348,0.6251521110534668,2019-06-20 16:14:09:997
6.391223571777344,5.9351351318359375,0.7128626403808593,0.04010421412155619,-0.03117288936764974,-0.0038708786369976524,0.6300160884857178,2019-06-20 16:14:10:002
6.393617736816406,5.883660583496094,0.7248334655761719,0.04010421412155619,-0.030640257149633893,-0.0040040366915016145,0.6351358890533447,2019-06-20 16:14:10:007
6.399603149414062,5.900419738769531,0.7020888977050781,0.038905791631020537,-0.029841308822610123,-0.004536668909517462,0.6402559280395508,2019-06-20 16:14:10:012
6.399603149414062,5.900419738769531,0.7020888977050781,0.038905791631020537,-0.029841308822610123,-0.004536668909517462,0.6430718898773193,2019-06-20 16:14:10:015
6.413968139648437,5.911193481445312,0.7176509704589844,0.04010421412155619,-0.030107624931618046,-0.0033382464189818046,0.6502399444580078,2019-06-20 16:14:10:022
6.413968139648437,5.911193481445312,0.7176509704589844,0.04010421412155619,-0.030107624931618046,-0.0033382464189818046,0.6530559062957764,2019-06-20 16:14:10:025
6.374464416503906,5.954288452148437,0.6913151550292969,0.03943842384903638,-0.02797709605955466,-0.003071930309973881,0.6602239608764648,2019-06-20 16:14:10:032
6.374464416503906,5.954288452148437,0.6913151550292969,0.03943842384903638,-0.02797709605955466,-0.003071930309973881,0.6630399227142334,2019-06-20 16:14:10:035
6.393617736816406,5.936332214355469,0.7008918151855469,0.03863947552201261,-0.028376570223066545,-0.001740349764934262,0.6702079772949219,2019-06-20 16:14:10:042
6.393617736816406,5.936332214355469,0.7008918151855469,0.03863947552201261,-0.028376570223066545,-0.001740349764934262,0.6730239391326904,2019-06-20 16:14:10:045
6.354114013671875,5.954288452148437,0.7296217956542969,0.03863947552201261,-0.030107624931618046,-0.0020066658739421855,0.6801919937133789,2019-06-20 16:14:10:052
6.354114013671875,5.954288452148437,0.7296217956542969,0.03863947552201261,-0.030107624931618046,-0.0020066658739421855,0.6830079555511475,2019-06-20 16:14:10:055
6.381646911621093,5.896828491210937,0.6949064025878906,0.03770736914048488,-0.029042360495586353,-0.0016071917104302999,0.6901760101318359,2019-06-20 16:14:10:062
6.38763232421875,5.930346801757812,0.6733589172363281,0.03770736914048488,-0.029308676604594276,-0.0010745594924144524,0.6950399875640869,2019-06-20 16:14:10:067
6.40678564453125,5.943514709472656,0.6685705871582031,0.03757421108598091,-0.029175518550090315,-0.0010745594924144524,0.700160026550293,2019-06-20 16:14:10:072
6.394814819335937,5.942317626953125,0.7224393005371094,0.037174736922469025,-0.029042360495586353,-0.001740349764934262,0.705024003982544,2019-06-20 16:14:10:077
6.388829406738281,5.937529296875,0.7272276306152343,0.03837315941300468,-0.02890920244108239,-0.0010745594924144524,0.71014404296875,2019-06-20 16:14:10:082
6.423544799804687,5.9040109863281245,0.7284247131347656,0.03877263357651657,-0.02811025411405862,-0.0009414014379104903,0.715008020401001,2019-06-20 16:14:10:087
6.428333129882812,5.945908874511718,0.6925122375488281,0.03810684330399676,-0.02890920244108239,-0.0008082433834065285,0.720128059387207,2019-06-20 16:14:10:092
6.401997314453125,5.937529296875,0.6542055969238281,0.0369084208134611,-0.028243412168562583,0.0006564952161370526,0.7252480983734131,2019-06-20 16:14:10:097
6.411573974609375,5.930346801757812,0.7140597229003907,0.03770736914048488,-0.028642886332074468,-9.295056382757028e-06,0.7301120758056641,2019-06-20 16:14:10:102
6.4008002319335935,5.923164306640625,0.7332130432128906,0.037174736922469025,-0.02890920244108239,-0.0009414014379104903,0.735231876373291,2019-06-20 16:14:10:107
6.376858581542969,5.896828491210937,0.7020888977050781,0.037041578867965066,-0.02797709605955466,-0.00027561116539068085,0.7400960922241211,2019-06-20 16:14:10:112
6.3780556640625,5.9327409667968745,0.7499721984863281,0.037840527194988836,-0.029175518550090315,0.001055969379648938,0.745215892791748,2019-06-20 16:14:10:117
6.448683532714844,5.900419738769531,0.7547605285644531,0.03664210470445318,-0.02970815076810616,-9.295056382757028e-06,0.7500801086425781,2019-06-20 16:14:10:122
6.428333129882812,5.896828491210937,0.7116655578613281,0.0369084208134611,-0.02797709605955466,-0.0005419272743986046,0.7551999092102051,2019-06-20 16:14:10:127
6.437909790039062,5.938726379394531,0.7152568054199219,0.03730789497697299,-0.02811025411405862,-0.00014245311088671893,0.760063886642456,2019-06-20 16:14:10:132
6.419953552246094,5.9052080688476565,0.7356072082519531,0.037174736922469025,-0.02970815076810616,-0.00014245311088671893,0.7651839256286621,2019-06-20 16:14:10:137
6.417559387207031,5.912390563964844,0.7415926208496093,0.0379736852494928,-0.029841308822610123,-0.0004087692198946427,0.7700479030609131,2019-06-20 16:14:10:142
6.424741882324218,5.87049267578125,0.6697676696777344,0.03730789497697299,-0.030240782986122008,-0.0009414014379104903,0.7751679420471191,2019-06-20 16:14:10:147
6.401997314453125,5.900419738769531,0.6589939270019531,0.037041578867965066,-0.028642886332074468,-0.001740349764934262,0.7800319194793701,2019-06-20 16:14:10:152
6.427136047363281,5.8752810058593745,0.6877239074707031,0.03650894664994922,-0.028642886332074468,-0.0018735078194382236,0.7851519584655762,2019-06-20 16:14:10:157
6.449880615234375,5.8896459960937495,0.7320159606933594,0.03570999832292545,-0.027311305787034845,-0.0018735078194382236,0.7900159358978271,2019-06-20 16:14:10:162
6.440303955078125,5.931543884277343,0.6793443298339844,0.03664210470445318,-0.02771077995054673,-0.003071930309973881,0.7951359748840332,2019-06-20 16:14:10:167
6.447486450195313,5.8896459960937495,0.6913151550292969,0.03810684330399676,-0.02877604438657843,-0.0037377205824936904,0.7999999523162842,2019-06-20 16:14:10:172
6.419953552246094,5.882463500976562,0.7356072082519531,0.039704739958044306,-0.02797709605955466,-0.0033382464189818046,0.8051199913024902,2019-06-20 16:14:10:177
6.413968139648437,5.881266418457031,0.7080743103027344,0.03810684330399676,-0.026512357460011075,-0.004137194746005576,0.8102400302886963,2019-06-20 16:14:10:182
6.409179809570312,5.892040161132813,0.6805414123535156,0.039038949685524495,-0.027577621896042768,-0.0040040366915016145,0.8151040077209473,2019-06-20 16:14:10:187
6.4295302124023435,5.87049267578125,0.7631401062011719,0.038905791631020537,-0.02691183162352296,-0.0050693011275333094,0.8202240467071533,2019-06-20 16:14:10:192
6.424741882324218,5.892040161132813,0.7176509704589844,0.0379736852494928,-0.025713409132987305,-0.006001407509061044,0.8250880241394043,2019-06-20 16:14:10:197
6.434318542480469,5.900419738769531,0.7487751159667969,0.0379736852494928,-0.02691183162352296,-0.0070666719450927385,0.8302080631256104,2019-06-20 16:14:10:202
6.410376892089843,5.864507263183594,0.7691255187988281,0.040636846339572034,-0.026778673569018998,-0.006134565563565005,0.8350720405578613,2019-06-20 16:14:10:207
6.381646911621093,5.878872253417969,0.7475780334472656,0.039038949685524495,-0.02611288329649919,-0.0070666719450927385,0.8401920795440674,2019-06-20 16:14:10:212
6.401997314453125,5.887251831054687,0.7320159606933594,0.039038949685524495,-0.025979725241995228,-0.008265094435628395,0.8450560569763184,2019-06-20 16:14:10:217
6.439106872558594,5.8800693359375,0.7332130432128906,0.03917210774002846,-0.027178147732530883,-0.008398252490132357,0.8501760959625244,2019-06-20 16:14:10:222
6.435515625,5.892040161132813,0.7152568054199219,0.037041578867965066,-0.027178147732530883,-0.008531410544636318,0.8550400733947754,2019-06-20 16:14:10:227
6.418756469726563,5.917178894042968,0.7380013732910156,0.037840527194988836,-0.025580251078483343,-0.00933035887166009,0.8601601123809814,2019-06-20 16:14:10:232
6.396011901855468,5.9052080688476565,0.7116655578613281,0.04010421412155619,-0.027311305787034845,-0.008930884708148205,0.8650240898132324,2019-06-20 16:14:10:237
6.4151652221679685,5.887251831054687,0.7188480529785156,0.039837898012548265,-0.026379199405507113,-0.00933035887166009,0.8701438903808594,2019-06-20 16:14:10:242
6.404391479492188,5.8896459960937495,0.6685705871582031,0.03930526579453242,-0.025047618860467497,-0.00933035887166009,0.8750081062316895,2019-06-20 16:14:10:247
6.396011901855468,5.868098510742187,0.6913151550292969,0.04037053023056411,-0.025180776914971458,-0.009596674980668015,0.8801279067993164,2019-06-20 16:14:10:252
6.461851440429688,5.894434326171875,0.7463809509277344,0.039704739958044306,-0.025180776914971458,-0.010262465253187823,0.8852479457855225,2019-06-20 16:14:10:257
6.466639770507812,5.931543884277343,0.7212422180175782,0.03943842384903638,-0.026379199405507113,-0.009862991089675938,0.8901119232177734,2019-06-20 16:14:10:262
6.4151652221679685,5.852536437988281,0.7523663635253907,0.04090316244857996,-0.02611288329649919,-0.010395623307691787,0.8952319622039795,2019-06-20 16:14:10:267
6.393617736816406,5.858521850585937,0.7260305480957031,0.04023737217606015,-0.023183406097412027,-0.011194571634715558,0.9000959396362305,2019-06-20 16:14:10:272
6.4008002319335935,5.906405151367188,0.6757530822753907,0.040503688285068076,-0.02544709302397938,-0.01265931023425914,0.9052159786224365,2019-06-20 16:14:10:277
6.428333129882812,5.924361389160156,0.7739138488769531,0.04436527186568297,-0.02611288329649919,-0.012925626343267063,0.9100799560546875,2019-06-20 16:14:10:282
6.451077697753906,5.920770141601563,0.7380013732910156,0.04116947855758789,-0.023050248042908065,-0.013058784397771025,0.9151999950408936,2019-06-20 16:14:10:287
6.417559387207031,5.9327409667968745,0.5979427185058593,0.04037053023056411,-0.02438182858794769,-0.013191942452274986,0.9200639724731445,2019-06-20 16:14:10:292
6.404391479492188,5.896828491210937,0.7344101257324218,0.04303369132064335,-0.026379199405507113,-0.01265931023425914,0.9251840114593506,2019-06-20 16:14:10:297
6.4295302124023435,5.886054748535156,0.7858846740722656,0.04196842688461166,-0.023982354424435796,-0.012392994125251213,0.9300479888916016,2019-06-20 16:14:10:302
6.401997314453125,5.913587646484375,0.7224393005371094,0.04183526883010769,-0.025713409132987305,-0.01425720688830668,0.9351680278778076,2019-06-20 16:14:10:307
6.421150634765625,5.8896459960937495,0.7248334655761719,0.044098955756675044,-0.02464814469695561,-0.01425720688830668,0.9400320053100586,2019-06-20 16:14:10:312
6.422347717285156,5.9183759765624995,0.7308188781738281,0.04183526883010769,-0.023316564151915988,-0.01425720688830668,0.9451520442962646,2019-06-20 16:14:10:317
6.4008002319335935,5.915981811523437,0.7308188781738281,0.04116947855758789,-0.024781302751459573,-0.014523522997314606,0.9500160217285156,2019-06-20 16:14:10:322
6.411573974609375,5.874083923339843,0.7643371887207031,0.044098955756675044,-0.02424867053344372,-0.014922997160826491,0.9551360607147217,2019-06-20 16:14:10:327
6.413968139648437,5.895631408691406,0.7427897033691406,0.04503106213820278,-0.02704498967802692,-0.01478983910632253,0.9600000381469727,2019-06-20 16:14:10:332
6.431924377441406,5.931543884277343,0.6601910095214844,0.04223474299361958,-0.026778673569018998,-0.014922997160826491,0.9651200771331787,2019-06-20 16:14:10:337
6.4151652221679685,5.913587646484375,0.706877227783203,0.042501059102627504,-0.026512357460011075,-0.015855103542354223,0.9702398777008057,2019-06-20 16:14:10:342
6.419953552246094,5.8908430786132815,0.7739138488769531,0.04303369132064335,-0.02704498967802692,-0.015056155215330453,0.9751040935516357,2019-06-20 16:14:10:347
6.392420654296875,5.900419738769531,0.7380013732910156,0.04116947855758789,-0.025047618860467497,-0.015189313269834415,0.9802238941192627,2019-06-20 16:14:10:352
6.404391479492188,5.90879931640625,0.6733589172363281,0.04290053326613939,-0.025713409132987305,-0.014656681051818568,0.9850881099700928,2019-06-20 16:14:10:357
6.403194396972656,5.92795263671875,0.7212422180175782,0.04369948159316316,-0.027311305787034845,-0.015322471324338376,0.9902079105377197,2019-06-20 16:14:10:362
6.398406066894531,5.939923461914062,0.7020888977050781,0.042367901048123546,-0.026512357460011075,-0.014656681051818568,0.9950718879699707,2019-06-20 16:14:10:367
6.398406066894531,5.906405151367188,0.6984976501464844,0.04303369132064335,-0.02464814469695561,-0.014523522997314606,1.0001919269561768,2019-06-20 16:14:10:372
6.38763232421875,5.9183759765624995,0.7631401062011719,0.04383263964766712,-0.026379199405507113,-0.015056155215330453,1.0050559043884277,2019-06-20 16:14:10:377
6.4151652221679685,5.948303039550781,0.7044830627441406,0.042501059102627504,-0.02691183162352296,-0.015455629378842338,1.0101759433746338,2019-06-20 16:14:10:382
6.399603149414062,5.937529296875,0.6805414123535156,0.042501059102627504,-0.02624604135100315,-0.014922997160826491,1.0150399208068848,2019-06-20 16:14:10:387
6.390026489257813,5.942317626953125,0.7032859802246093,0.04196842688461166,-0.026778673569018998,-0.014124048833802718,1.0201599597930908,2019-06-20 16:14:10:392
6.379252746582031,5.926755554199219,0.7427897033691406,0.04103632050308392,-0.025580251078483343,-0.015056155215330453,1.0250239372253418,2019-06-20 16:14:10:397
6.393617736816406,5.923164306640625,0.7200451354980468,0.04290053326613939,-0.025846567187491266,-0.015455629378842338,1.0301439762115479,2019-06-20 16:14:10:402
6.390026489257813,5.907602233886719,0.7188480529785156,0.04276737521163543,-0.02797709605955466,-0.014523522997314606,1.0350079536437988,2019-06-20 16:14:10:407
6.407982727050781,5.938726379394531,0.7248334655761719,0.041702110775603735,-0.02611288329649919,-0.014390364942810641,1.0401279926300049,2019-06-20 16:14:10:412
6.417559387207031,5.926755554199219,0.7475780334472656,0.041302636612091846,-0.02544709302397938,-0.013857732724794795,1.045248031616211,2019-06-20 16:14:10:417
6.399603149414062,5.929149719238281,0.7715196838378906,0.04223474299361958,-0.02704498967802692,-0.014523522997314606,1.050112009048462,2019-06-20 16:14:10:422
6.410376892089843,5.924361389160156,0.7200451354980468,0.04156895272109977,-0.026778673569018998,-0.014523522997314606,1.055232048034668,2019-06-20 16:14:10:427
6.417559387207031,5.921967224121094,0.6673735046386718,0.040770004394076,-0.026645515514515036,-0.01425720688830668,1.060096025466919,2019-06-20 16:14:10:432
6.412771057128906,5.943514709472656,0.6865268249511719,0.04183526883010769,-0.02691183162352296,-0.014656681051818568,1.065216064453125,2019-06-20 16:14:10:437
6.399603149414062,5.921967224121094,0.7044830627441406,0.041702110775603735,-0.026512357460011075,-0.01625457770586611,1.070080041885376,2019-06-20 16:14:10:442
6.419953552246094,5.9183759765624995,0.7236363830566406,0.04116947855758789,-0.026778673569018998,-0.015988261596858185,1.075200080871582,2019-06-20 16:14:10:447
6.418756469726563,5.937529296875,0.6996947326660156,0.041702110775603735,-0.02544709302397938,-0.01572194548785026,1.080064058303833,2019-06-20 16:14:10:452
6.407982727050781,5.945908874511718,0.6925122375488281,0.04196842688461166,-0.025846567187491266,-0.015855103542354223,1.085184097290039,2019-06-20 16:14:10:457
6.411573974609375,5.936332214355469,0.7140597229003907,0.042101584939115616,-0.02704498967802692,-0.015455629378842338,1.09004807472229,2019-06-20 16:14:10:462
6.422347717285156,5.937529296875,0.7104684753417969,0.04196842688461166,-0.025846567187491266,-0.015988261596858185,1.095167875289917,2019-06-20 16:14:10:467
6.409179809570312,5.953091369628906,0.6937093200683594,0.042101584939115616,-0.025846567187491266,-0.01625457770586611,1.100032091140747,2019-06-20 16:14:10:472
6.407982727050781,5.950697204589844,0.7008918151855469,0.041302636612091846,-0.025846567187491266,-0.015455629378842338,1.105151891708374,2019-06-20 16:14:10:477
6.4163623046875,5.974638854980468,0.7044830627441406,0.04156895272109977,-0.02544709302397938,-0.015056155215330453,1.110016107559204,2019-06-20 16:14:10:482
6.431924377441406,5.936332214355469,0.6996947326660156,0.04223474299361958,-0.025713409132987305,-0.014922997160826491,1.115135908126831,2019-06-20 16:14:10:487
6.388829406738281,5.937529296875,0.7236363830566406,0.04090316244857996,-0.024914460805963535,-0.015988261596858185,1.119999885559082,2019-06-20 16:14:10:492
6.4008002319335935,5.9471059570312494,0.6973005676269531,0.04023737217606015,-0.024914460805963535,-0.015455629378842338,1.125119924545288,2019-06-20 16:14:10:497
6.417559387207031,5.961470947265624,0.7344101257324218,0.04037053023056411,-0.02544709302397938,-0.015455629378842338,1.1302399635314941,2019-06-20 16:14:10:502
6.399603149414062,5.950697204589844,0.7080743103027344,0.039837898012548265,-0.025713409132987305,-0.01572194548785026,1.1351039409637451,2019-06-20 16:14:10:507
6.385238159179687,5.930346801757812,0.7463809509277344,0.039704739958044306,-0.025846567187491266,-0.015056155215330453,1.1402239799499512,2019-06-20 16:14:10:512
6.354114013671875,5.9327409667968745,0.7679284362792969,0.03957158190354034,-0.027311305787034845,-0.013857732724794795,1.1450879573822021,2019-06-20 16:14:10:517
6.376858581542969,5.942317626953125,0.7391984558105469,0.03917210774002846,-0.027577621896042768,-0.012792468288763102,1.1502079963684082,2019-06-20 16:14:10:522
6.407982727050781,5.954288452148437,0.7368042907714843,0.03877263357651657,-0.027178147732530883,-0.012792468288763102,1.1550719738006592,2019-06-20 16:14:10:527
6.417559387207031,5.942317626953125,0.7368042907714843,0.03837315941300468,-0.026645515514515036,-0.01345825856128291,1.1601920127868652,2019-06-20 16:14:10:532
6.411573974609375,5.929149719238281,0.7475780334472656,0.03770736914048488,-0.027311305787034845,-0.013191942452274986,1.1650559902191162,2019-06-20 16:14:10:537
6.3864352416992185,5.937529296875,0.7439867858886718,0.037840527194988836,-0.027178147732530883,-0.013191942452274986,1.1701760292053223,2019-06-20 16:14:10:542
6.393617736816406,5.937529296875,0.7200451354980468,0.038240001358500725,-0.027577621896042768,-0.013191942452274986,1.1750400066375732,2019-06-20 16:14:10:547
6.388829406738281,5.9339380493164064,0.6829355773925782,0.038905791631020537,-0.027577621896042768,-0.011727203852731405,1.1801600456237793,2019-06-20 16:14:10:552
6.394814819335937,5.926755554199219,0.6901180725097656,0.03863947552201261,-0.027444463841538806,-0.012259836070747251,1.1850240230560303,2019-06-20 16:14:10:557
6.396011901855468,5.914784729003906,0.6793443298339844,0.038905791631020537,-0.02797709605955466,-0.012392994125251213,1.1901440620422363,2019-06-20 16:14:10:562
6.421150634765625,5.900419738769531,0.7499721984863281,0.039704739958044306,-0.02771077995054673,-0.011860361907235367,1.1950080394744873,2019-06-20 16:14:10:567
6.4151652221679685,5.912390563964844,0.7523663635253907,0.038905791631020537,-0.02797709605955466,-0.011727203852731405,1.2001280784606934,2019-06-20 16:14:10:572
6.413968139648437,5.920770141601563,0.7116655578613281,0.03917210774002846,-0.02797709605955466,-0.011993519961739328,1.2052478790283203,2019-06-20 16:14:10:577
6.385238159179687,5.925558471679687,0.7559576110839844,0.03957158190354034,-0.027311305787034845,-0.013191942452274986,1.2101120948791504,2019-06-20 16:14:10:582
6.418756469726563,5.941120544433594,0.7272276306152343,0.039704739958044306,-0.027577621896042768,-0.012259836070747251,1.2152318954467773,2019-06-20 16:14:10:587
6.38763232421875,5.9351351318359375,0.7260305480957031,0.03957158190354034,-0.02797709605955466,-0.012792468288763102,1.2200961112976074,2019-06-20 16:14:10:592
6.398406066894531,5.931543884277343,0.7631401062011719,0.03877263357651657,-0.027577621896042768,-0.014124048833802718,1.2252159118652344,2019-06-20 16:14:10:597
6.396011901855468,5.929149719238281,0.7332130432128906,0.0379736852494928,-0.02611288329649919,-0.012526152179755175,1.2300798892974854,2019-06-20 16:14:10:602
6.374464416503906,5.938726379394531,0.6996947326660156,0.038905791631020537,-0.02771077995054673,-0.01265931023425914,1.2351999282836914,2019-06-20 16:14:10:607
6.376858581542969,5.943514709472656,0.6865268249511719,0.039704739958044306,-0.028243412168562583,-0.012792468288763102,1.2400639057159424,2019-06-20 16:14:10:612
6.360099426269531,5.925558471679687,0.7368042907714843,0.03957158190354034,-0.02811025411405862,-0.012925626343267063,1.2451839447021484,2019-06-20 16:14:10:617
6.3780556640625,5.9339380493164064,0.7619430236816406,0.04037053023056411,-0.02784393800505069,-0.01265931023425914,1.2500479221343994,2019-06-20 16:14:10:622
6.382843994140625,5.901616821289062,0.7140597229003907,0.039038949685524495,-0.027311305787034845,-0.013191942452274986,1.2551679611206055,2019-06-20 16:14:10:627
6.397208984375,5.9327409667968745,0.7368042907714843,0.03877263357651657,-0.02704498967802692,-0.013058784397771025,1.2600319385528564,2019-06-20 16:14:10:632
6.392420654296875,5.920770141601563,0.7092713928222656,0.03837315941300468,-0.026778673569018998,-0.012259836070747251,1.2651519775390625,2019-06-20 16:14:10:637
6.409179809570312,5.945908874511718,0.7212422180175782,0.038905791631020537,-0.026778673569018998,-0.011727203852731405,1.2700159549713135,2019-06-20 16:14:10:642
6.370873168945312,5.938726379394531,0.7284247131347656,0.03837315941300468,-0.027178147732530883,-0.01212667801624329,1.2751359939575195,2019-06-20 16:14:10:647
6.396011901855468,5.9339380493164064,0.7104684753417969,0.03863947552201261,-0.026778673569018998,-0.01132772968921952,1.2799999713897705,2019-06-20 16:14:10:652
6.376858581542969,5.944711791992187,0.7272276306152343,0.039038949685524495,-0.025979725241995228,-0.011194571634715558,1.2851200103759766,2019-06-20 16:14:10:657
6.394814819335937,5.931543884277343,0.7356072082519531,0.03877263357651657,-0.026778673569018998,-0.010928255525707633,1.2902400493621826,2019-06-20 16:14:10:662
6.394814819335937,5.950697204589844,0.7427897033691406,0.03850631746750865,-0.027178147732530883,-0.011194571634715558,1.2951040267944336,2019-06-20 16:14:10:667
6.374464416503906,5.937529296875,0.7344101257324218,0.03997105606705223,-0.026645515514515036,-0.010928255525707633,1.3002240657806396,2019-06-20 16:14:10:672
6.403194396972656,5.92795263671875,0.7296217956542969,0.03957158190354034,-0.026379199405507113,-0.010129307198683862,1.3050880432128906,2019-06-20 16:14:10:677
6.397208984375,5.924361389160156,0.7020888977050781,0.03930526579453242,-0.02691183162352296,-0.00933035887166009,1.3102080821990967,2019-06-20 16:14:10:682
6.392420654296875,5.920770141601563,0.7260305480957031,0.039704739958044306,-0.027577621896042768,-0.009463516926164052,1.3150720596313477,2019-06-20 16:14:10:687
6.391223571777344,5.911193481445312,0.7403955383300781,0.04010421412155619,-0.027178147732530883,-0.009197200817156128,1.3201920986175537,2019-06-20 16:14:10:692
6.388829406738281,5.950697204589844,0.6817384948730468,0.04010421412155619,-0.027311305787034845,-0.009862991089675938,1.3250560760498047,2019-06-20 16:14:10:697
6.407982727050781,5.937529296875,0.7212422180175782,0.04010421412155619,-0.02704498967802692,-0.00933035887166009,1.3301758766174316,2019-06-20 16:14:10:702
6.409179809570312,5.9495001220703125,0.7380013732910156,0.039837898012548265,-0.026512357460011075,-0.010262465253187823,1.3350400924682617,2019-06-20 16:14:10:707
6.398406066894531,5.9471059570312494,0.7320159606933594,0.04010421412155619,-0.027577621896042768,-0.009463516926164052,1.3401598930358887,2019-06-20 16:14:10:712
6.393617736816406,5.9495001220703125,0.7559576110839844,0.040503688285068076,-0.02771077995054673,-0.009596674980668015,1.3450241088867188,2019-06-20 16:14:10:717
6.407982727050781,5.906405151367188,0.7224393005371094,0.039704739958044306,-0.02877604438657843,-0.008930884708148205,1.3501439094543457,2019-06-20 16:14:10:722
6.413968139648437,5.92795263671875,0.7128626403808593,0.04010421412155619,-0.027311305787034845,-0.009197200817156128,1.3550078868865967,2019-06-20 16:14:10:727
6.398406066894531,5.959076782226562,0.7164538879394531,0.038905791631020537,-0.027178147732530883,-0.009197200817156128,1.3601279258728027,2019-06-20 16:14:10:732
6.379252746582031,5.943514709472656,0.7403955383300781,0.04090316244857996,-0.027311305787034845,-0.009197200817156128,1.3652479648590088,2019-06-20 16:14:10:737
6.363690673828125,5.937529296875,0.7092713928222656,0.04090316244857996,-0.027178147732530883,-0.008265094435628395,1.3701119422912598,2019-06-20 16:14:10:742
6.375661499023438,5.937529296875,0.6697676696777344,0.03863947552201261,-0.027178147732530883,-0.007599304163108585,1.3752319812774658,2019-06-20 16:14:10:747
6.385238159179687,5.936332214355469,0.7140597229003907,0.038905791631020537,-0.028243412168562583,-0.0077324622176125485,1.3800959587097168,2019-06-20 16:14:10:752
6.398406066894531,5.944711791992187,0.7535634460449219,0.03943842384903638,-0.027577621896042768,-0.0074661461086046235,1.3852159976959229,2019-06-20 16:14:10:757
6.421150634765625,5.938726379394531,0.7092713928222656,0.03943842384903638,-0.02704498967802692,-0.007332988054100662,1.3900799751281738,2019-06-20 16:14:10:762
6.419953552246094,5.925558471679687,0.7260305480957031,0.04090316244857996,-0.026645515514515036,-0.007332988054100662,1.3952000141143799,2019-06-20 16:14:10:767
6.391223571777344,5.9195730590820315,0.7607459411621094,0.040636846339572034,-0.027577621896042768,-0.006933513890588777,1.4000639915466309,2019-06-20 16:14:10:772
6.399603149414062,5.945908874511718,0.7595488586425782,0.039704739958044306,-0.02784393800505069,-0.007599304163108585,1.405184030532837,2019-06-20 16:14:10:777
6.397208984375,5.924361389160156,0.7176509704589844,0.040503688285068076,-0.02811025411405862,-0.008131936381124433,1.410048007965088,2019-06-20 16:14:10:782
6.3720702514648435,5.9339380493164064,0.7188480529785156,0.040636846339572034,-0.027444463841538806,-0.0070666719450927385,1.415168046951294,2019-06-20 16:14:10:787
6.394814819335937,5.936332214355469,0.7212422180175782,0.039704739958044306,-0.02611288329649919,-0.006933513890588777,1.420032024383545,2019-06-20 16:14:10:792
6.4163623046875,5.92795263671875,0.7499721984863281,0.041302636612091846,-0.025047618860467497,-0.0070666719450927385,1.425152063369751,2019-06-20 16:14:10:797
6.410376892089843,5.944711791992187,0.7655342712402343,0.04023737217606015,-0.024914460805963535,-0.0074661461086046235,1.430016040802002,2019-06-20 16:14:10:802
6.388829406738281,5.911193481445312,0.7200451354980468,0.04023737217606015,-0.025979725241995228,-0.007599304163108585,1.435136079788208,2019-06-20 16:14:10:807
6.388829406738281,5.906405151367188,0.7008918151855469,0.03943842384903638,-0.025979725241995228,-0.007599304163108585,1.440000057220459,2019-06-20 16:14:10:812
6.404391479492188,5.945908874511718,0.7008918151855469,0.04010421412155619,-0.02544709302397938,-0.0077324622176125485,1.445120096206665,2019-06-20 16:14:10:817
6.382843994140625,5.944711791992187,0.6769501647949219,0.040503688285068076,-0.02624604135100315,-0.007332988054100662,1.450239896774292,2019-06-20 16:14:10:822
6.394814819335937,5.942317626953125,0.7200451354980468,0.04037053023056411,-0.026512357460011075,-0.007599304163108585,1.455104112625122,2019-06-20 16:14:10:827
6.388829406738281,5.938726379394531,0.7128626403808593,0.04010421412155619,-0.02691183162352296,-0.007998778326620472,1.460223913192749,2019-06-20 16:14:10:832
6.379252746582031,5.925558471679687,0.6769501647949219,0.04090316244857996,-0.027178147732530883,-0.00786562027211651,1.465087890625,2019-06-20 16:14:10:837
6.380449829101562,5.930346801757812,0.7212422180175782,0.04090316244857996,-0.025979725241995228,-0.008531410544636318,1.470207929611206,2019-06-20 16:14:10:842
6.3864352416992185,5.92795263671875,0.7272276306152343,0.040636846339572034,-0.025713409132987305,-0.008664568599140282,1.475071907043457,2019-06-20 16:14:10:847
6.373267333984375,5.9195730590820315,0.706877227783203,0.04037053023056411,-0.02624604135100315,-0.008797726653644243,1.480191946029663,2019-06-20 16:14:10:852
6.388829406738281,5.9183759765624995,0.7308188781738281,0.04103632050308392,-0.02691183162352296,-0.007998778326620472,1.485055923461914,2019-06-20 16:14:10:857
6.403194396972656,5.936332214355469,0.6996947326660156,0.04037053023056411,-0.026379199405507113,-0.00786562027211651,1.4901759624481201,2019-06-20 16:14:10:862
6.381646911621093,5.920770141601563,0.6973005676269531,0.040503688285068076,-0.02624604135100315,-0.008131936381124433,1.495039939880371,2019-06-20 16:14:10:867
6.396011901855468,5.930346801757812,0.7056801452636718,0.04023737217606015,-0.026645515514515036,-0.007998778326620472,1.5001599788665771,2019-06-20 16:14:10:872
6.394814819335937,5.944711791992187,0.6805414123535156,0.03957158190354034,-0.02611288329649919,-0.008531410544636318,1.5050239562988281,2019-06-20 16:14:10:877
6.413968139648437,5.950697204589844,0.7152568054199219,0.04010421412155619,-0.025713409132987305,-0.009463516926164052,1.5101439952850342,2019-06-20 16:14:10:882
6.367281921386718,5.931543884277343,0.7020888977050781,0.040770004394076,-0.026512357460011075,-0.008664568599140282,1.5150079727172852,2019-06-20 16:14:10:887
6.393617736816406,5.923164306640625,0.6961034851074218,0.04023737217606015,-0.026645515514515036,-0.008930884708148205,1.5201280117034912,2019-06-20 16:14:10:892
6.40678564453125,5.9183759765624995,0.6937093200683594,0.039837898012548265,-0.025979725241995228,-0.009064042762652167,1.5252480506896973,2019-06-20 16:14:10:897
6.393617736816406,5.902813903808593,0.7308188781738281,0.03997105606705223,-0.02544709302397938,-0.009064042762652167,1.5301120281219482,2019-06-20 16:14:10:902
6.385238159179687,5.941120544433594,0.7116655578613281,0.04010421412155619,-0.02544709302397938,-0.008664568599140282,1.5352320671081543,2019-06-20 16:14:10:907
6.390026489257813,5.929149719238281,0.7403955383300781,0.04023737217606015,-0.024914460805963535,-0.008664568599140282,1.5400960445404053,2019-06-20 16:14:10:912
6.40678564453125,5.924361389160156,0.7643371887207031,0.04037053023056411,-0.02464814469695561,-0.008265094435628395,1.5452160835266113,2019-06-20 16:14:10:917
6.40678564453125,5.911193481445312,0.7499721984863281,0.04023737217606015,-0.026645515514515036,-0.008930884708148205,1.5500800609588623,2019-06-20 16:14:10:922
6.409179809570312,5.926755554199219,0.7607459411621094,0.04116947855758789,-0.027444463841538806,-0.009463516926164052,1.5552000999450684,2019-06-20 16:14:10:927
6.411573974609375,5.930346801757812,0.7655342712402343,0.041302636612091846,-0.02691183162352296,-0.009064042762652167,1.5600640773773193,2019-06-20 16:14:10:932
6.403194396972656,5.9351351318359375,0.7511692810058593,0.040770004394076,-0.026778673569018998,-0.008797726653644243,1.5651838779449463,2019-06-20 16:14:10:937
6.419953552246094,5.943514709472656,0.7080743103027344,0.04023737217606015,-0.025580251078483343,-0.009064042762652167,1.5700480937957764,2019-06-20 16:14:10:942
6.411573974609375,5.920770141601563,0.7104684753417969,0.04090316244857996,-0.025713409132987305,-0.009596674980668015,1.5751678943634033,2019-06-20 16:14:10:947
6.398406066894531,5.923164306640625,0.7332130432128906,0.04196842688461166,-0.025979725241995228,-0.010262465253187823,1.5800321102142334,2019-06-20 16:14:10:952
6.398406066894531,5.925558471679687,0.7224393005371094,0.04156895272109977,-0.025047618860467497,-0.010262465253187823,1.5851519107818604,2019-06-20 16:14:10:957
6.391223571777344,5.965062194824219,0.6817384948730468,0.040770004394076,-0.025846567187491266,-0.009596674980668015,1.5900158882141113,2019-06-20 16:14:10:962
6.396011901855468,5.944711791992187,0.6949064025878906,0.04103632050308392,-0.02611288329649919,-0.0099961491441799,1.5951359272003174,2019-06-20 16:14:10:967
6.4151652221679685,5.9351351318359375,0.6889209899902343,0.041302636612091846,-0.025180776914971458,-0.010262465253187823,1.5999999046325684,2019-06-20 16:14:10:972
6.401997314453125,5.944711791992187,0.7463809509277344,0.04116947855758789,-0.024914460805963535,-0.009463516926164052,1.6051199436187744,2019-06-20 16:14:10:977
6.403194396972656,5.959076782226562,0.7056801452636718,0.04143579466659581,-0.026778673569018998,-0.009463516926164052,1.6102399826049805,2019-06-20 16:14:10:982
6.4008002319335935,5.944711791992187,0.7212422180175782,0.041302636612091846,-0.025979725241995228,-0.00933035887166009,1.6151039600372314,2019-06-20 16:14:10:987
6.379252746582031,5.953091369628906,0.6673735046386718,0.040770004394076,-0.025846567187491266,-0.009197200817156128,1.6202239990234375,2019-06-20 16:14:10:992
6.381646911621093,5.9471059570312494,0.7164538879394531,0.040636846339572034,-0.026512357460011075,-0.008531410544636318,1.6250879764556885,2019-06-20 16:14:10:997
6.388829406738281,5.939923461914062,0.7044830627441406,0.04037053023056411,-0.025180776914971458,-0.008131936381124433,1.6302080154418945,2019-06-20 16:14:11:002
6.419953552246094,5.944711791992187,0.7403955383300781,0.039837898012548265,-0.026512357460011075,-0.0077324622176125485,1.6350719928741455,2019-06-20 16:14:11:007
6.407982727050781,5.937529296875,0.745183868408203,0.03943842384903638,-0.027178147732530883,-0.0074661461086046235,1.6401920318603516,2019-06-20 16:14:11:012
6.393617736816406,5.957879699707031,0.7679284362792969,0.03997105606705223,-0.027577621896042768,-0.006667197781580852,1.6450560092926025,2019-06-20 16:14:11:017
6.381646911621093,5.950697204589844,0.6949064025878906,0.03917210774002846,-0.02811025411405862,-0.005335617236541234,1.6501760482788086,2019-06-20 16:14:11:022
6.3780556640625,5.945908874511718,0.7128626403808593,0.03957158190354034,-0.02797709605955466,-0.006001407509061044,1.6550400257110596,2019-06-20 16:14:11:027
6.391223571777344,5.950697204589844,0.7463809509277344,0.03943842384903638,-0.02811025411405862,-0.0057350914000531186,1.6601600646972656,2019-06-20 16:14:11:032
6.390026489257813,5.968653442382812,0.7236363830566406,0.03917210774002846,-0.027444463841538806,-0.005868249454557082,1.6650240421295166,2019-06-20 16:14:11:037
6.391223571777344,5.953091369628906,0.6889209899902343,0.04037053023056411,-0.02811025411405862,-0.005868249454557082,1.6701440811157227,2019-06-20 16:14:11:042
6.38763232421875,5.930346801757812,0.7104684753417969,0.03957158190354034,-0.027577621896042768,-0.005601933345549157,1.6750080585479736,2019-06-20 16:14:11:047
6.404391479492188,5.92795263671875,0.7475780334472656,0.03877263357651657,-0.026778673569018998,-0.0050693011275333094,1.6801280975341797,2019-06-20 16:14:11:052
6.392420654296875,5.943514709472656,0.7296217956542969,0.03850631746750865,-0.02784393800505069,-0.005468775291045195,1.6852478981018066,2019-06-20 16:14:11:057
6.363690673828125,5.953091369628906,0.7368042907714843,0.03877263357651657,-0.028642886332074468,-0.005202459182037272,1.6901118755340576,2019-06-20 16:14:11:062
6.384041076660156,5.917178894042968,0.7008918151855469,0.03997105606705223,-0.02784393800505069,-0.004936143073029348,1.6952319145202637,2019-06-20 16:14:11:067
6.381646911621093,5.930346801757812,0.7224393005371094,0.03943842384903638,-0.027178147732530883,-0.004137194746005576,1.7000958919525146,2019-06-20 16:14:11:072
6.381646911621093,5.9339380493164064,0.6877239074707031,0.039704739958044306,-0.02771077995054673,-0.004669826964021424,1.7052159309387207,2019-06-20 16:14:11:077
6.369676086425781,5.951894287109375,0.7188480529785156,0.03943842384903638,-0.02811025411405862,-0.004270352800509538,1.7100799083709717,2019-06-20 16:14:11:082
6.369676086425781,5.9471059570312494,0.7116655578613281,0.03917210774002846,-0.028243412168562583,-0.004936143073029348,1.7151999473571777,2019-06-20 16:14:11:087
6.382843994140625,5.945908874511718,0.7140597229003907,0.038905791631020537,-0.02811025411405862,-0.004802985018525386,1.7200639247894287,2019-06-20 16:14:11:092
6.398406066894531,5.92795263671875,0.6889209899902343,0.03943842384903638,-0.028243412168562583,-0.0050693011275333094,1.7251839637756348,2019-06-20 16:14:11:097
6.3864352416992185,5.926755554199219,0.6949064025878906,0.03943842384903638,-0.028642886332074468,-0.004536668909517462,1.7300479412078857,2019-06-20 16:14:11:102
6.401997314453125,5.945908874511718,0.7164538879394531,0.03943842384903638,-0.027311305787034845,-0.004270352800509538,1.7351679801940918,2019-06-20 16:14:11:107
6.401997314453125,5.9495001220703125,0.6805414123535156,0.03943842384903638,-0.028509728277570506,-0.0044035108550135,1.7400319576263428,2019-06-20 16:14:11:112
6.40678564453125,5.9339380493164064,0.6901180725097656,0.03943842384903638,-0.027444463841538806,-0.0044035108550135,1.7451519966125488,2019-06-20 16:14:11:117
6.405588562011719,5.9052080688476565,0.6925122375488281,0.03917210774002846,-0.02771077995054673,-0.0044035108550135,1.7500159740447998,2019-06-20 16:14:11:122
6.350522766113281,5.915981811523437,0.7104684753417969,0.03997105606705223,-0.02691183162352296,-0.004802985018525386,1.7551360130310059,2019-06-20 16:14:11:127
6.394814819335937,5.926755554199219,0.7248334655761719,0.03930526579453242,-0.027444463841538806,-0.004802985018525386,1.7599999904632568,2019-06-20 16:14:11:132
6.40678564453125,5.914784729003906,0.7152568054199219,0.03957158190354034,-0.02784393800505069,-0.0040040366915016145,1.765120029449463,2019-06-20 16:14:11:137
6.407982727050781,5.929149719238281,0.7164538879394531,0.039704739958044306,-0.02784393800505069,-0.004536668909517462,1.770240068435669,2019-06-20 16:14:11:142
6.418756469726563,5.926755554199219,0.7152568054199219,0.039704739958044306,-0.02691183162352296,-0.004270352800509538,1.77510404586792,2019-06-20 16:14:11:147
6.401997314453125,5.92795263671875,0.6996947326660156,0.03957158190354034,-0.02877604438657843,-0.005202459182037272,1.780224084854126,2019-06-20 16:14:11:152
6.417559387207031,5.912390563964844,0.6973005676269531,0.03997105606705223,-0.02811025411405862,-0.006001407509061044,1.785088062286377,2019-06-20 16:14:11:157
6.427136047363281,5.9327409667968745,0.7380013732910156,0.039038949685524495,-0.027444463841538806,-0.005868249454557082,1.790208101272583,2019-06-20 16:14:11:162
6.424741882324218,5.915981811523437,0.6721618347167969,0.03957158190354034,-0.025979725241995228,-0.0071998299995967,1.795072078704834,2019-06-20 16:14:11:167
6.421150634765625,5.895631408691406,0.6757530822753907,0.040503688285068076,-0.02704498967802692,-0.0064008816725729285,1.800191879272461,2019-06-20 16:14:11:172
6.417559387207031,5.9195730590820315,0.6913151550292969,0.04103632050308392,-0.02797709605955466,-0.006667197781580852,1.805056095123291,2019-06-20 16:14:11:177
6.405588562011719,5.90879931640625,0.7260305480957031,0.040636846339572034,-0.026645515514515036,-0.00653403972707689,1.810175895690918,2019-06-20 16:14:11:182
6.422347717285156,5.929149719238281,0.7116655578613281,0.04103632050308392,-0.02691183162352296,-0.0074661461086046235,1.815040111541748,2019-06-20 16:14:11:187
6.4295302124023435,5.936332214355469,0.7296217956542969,0.040503688285068076,-0.026645515514515036,-0.008131936381124433,1.820159912109375,2019-06-20 16:14:11:192
6.411573974609375,5.938726379394531,0.7128626403808593,0.04023737217606015,-0.026778673569018998,-0.008797726653644243,1.825023889541626,2019-06-20 16:14:11:197
6.397208984375,5.950697204589844,0.7272276306152343,0.03930526579453242,-0.02624604135100315,-0.006667197781580852,1.830143928527832,2019-06-20 16:14:11:202
6.399603149414062,5.942317626953125,0.7296217956542969,0.03997105606705223,-0.026778673569018998,-0.00653403972707689,1.835007905960083,2019-06-20 16:14:11:207
6.42593896484375,5.9327409667968745,0.7499721984863281,0.04090316244857996,-0.02611288329649919,-0.006267723618068967,1.840127944946289,2019-06-20 16:14:11:212
6.385238159179687,5.9195730590820315,0.7152568054199219,0.04037053023056411,-0.027178147732530883,-0.008131936381124433,1.8452479839324951,2019-06-20 16:14:11:217
6.373267333984375,5.9471059570312494,0.7200451354980468,0.040503688285068076,-0.027178147732530883,-0.007998778326620472,1.850111961364746,2019-06-20 16:14:11:222
6.42593896484375,5.917178894042968,0.7248334655761719,0.04010421412155619,-0.026512357460011075,-0.0077324622176125485,1.8552320003509521,2019-06-20 16:14:11:227
6.385238159179687,5.920770141601563,0.7439867858886718,0.039704739958044306,-0.02704498967802692,-0.008265094435628395,1.8600959777832031,2019-06-20 16:14:11:232
6.388829406738281,5.92795263671875,0.7296217956542969,0.03997105606705223,-0.027178147732530883,-0.0074661461086046235,1.8652160167694092,2019-06-20 16:14:11:237
6.397208984375,5.9183759765624995,0.7020888977050781,0.03997105606705223,-0.02611288329649919,-0.0071998299995967,1.8700799942016602,2019-06-20 16:14:11:242
6.411573974609375,5.937529296875,0.7044830627441406,0.04010421412155619,-0.026512357460011075,-0.0070666719450927385,1.8752000331878662,2019-06-20 16:14:11:247
6.404391479492188,5.954288452148437,0.6877239074707031,0.040636846339572034,-0.026379199405507113,-0.006800355836084815,1.8800640106201172,2019-06-20 16:14:11:252
6.407982727050781,5.936332214355469,0.6805414123535156,0.04010421412155619,-0.02797709605955466,-0.007599304163108585,1.8851840496063232,2019-06-20 16:14:11:257
6.4151652221679685,5.9495001220703125,0.6673735046386718,0.03997105606705223,-0.0295749927136022,-0.006933513890588777,1.8900480270385742,2019-06-20 16:14:11:262
6.409179809570312,5.929149719238281,0.6925122375488281,0.039837898012548265,-0.029441834659098238,-0.006667197781580852,1.8951680660247803,2019-06-20 16:14:11:267
6.392420654296875,5.9195730590820315,0.6865268249511719,0.040503688285068076,-0.02771077995054673,-0.0074661461086046235,1.9000320434570312,2019-06-20 16:14:11:272
6.4163623046875,5.9195730590820315,0.7152568054199219,0.04090316244857996,-0.026379199405507113,-0.0070666719450927385,1.9051520824432373,2019-06-20 16:14:11:277
6.38763232421875,5.9327409667968745,0.7260305480957031,0.03957158190354034,-0.02771077995054673,-0.0074661461086046235,1.9100160598754883,2019-06-20 16:14:11:282
6.412771057128906,5.925558471679687,0.7368042907714843,0.03917210774002846,-0.02784393800505069,-0.008265094435628395,1.9151360988616943,2019-06-20 16:14:11:287
6.4008002319335935,5.9339380493164064,0.7152568054199219,0.04023737217606015,-0.02877604438657843,-0.007998778326620472,1.9202558994293213,2019-06-20 16:14:11:292
6.4163623046875,5.942317626953125,0.7260305480957031,0.04010421412155619,-0.02771077995054673,-0.006800355836084815,1.9251198768615723,2019-06-20 16:14:11:297
6.405588562011719,5.954288452148437,0.7224393005371094,0.03957158190354034,-0.02784393800505069,-0.008531410544636318,1.9302399158477783,2019-06-20 16:14:11:302
6.4163623046875,5.931543884277343,0.6973005676269531,0.03957158190354034,-0.028243412168562583,-0.006933513890588777,1.9351038932800293,2019-06-20 16:14:11:307
6.399603149414062,5.941120544433594,0.6925122375488281,0.039837898012548265,-0.02877604438657843,-0.0070666719450927385,1.9402239322662354,2019-06-20 16:14:11:312
6.411573974609375,5.951894287109375,0.7140597229003907,0.040636846339572034,-0.027178147732530883,-0.007998778326620472,1.9450879096984863,2019-06-20 16:14:11:317
6.403194396972656,5.931543884277343,0.7104684753417969,0.040503688285068076,-0.02704498967802692,-0.0074661461086046235,1.9502079486846924,2019-06-20 16:14:11:322
6.393617736816406,5.948303039550781,0.7427897033691406,0.039704739958044306,-0.02624604135100315,-0.006933513890588777,1.9550719261169434,2019-06-20 16:14:11:327
6.393617736816406,5.929149719238281,0.7320159606933594,0.039038949685524495,-0.02624604135100315,-0.007332988054100662,1.9601919651031494,2019-06-20 16:14:11:332
6.388829406738281,5.9195730590820315,0.7427897033691406,0.03837315941300468,-0.027444463841538806,-0.0071998299995967,1.9650559425354004,2019-06-20 16:14:11:337
6.398406066894531,5.926755554199219,0.7344101257324218,0.03957158190354034,-0.027311305787034845,-0.0071998299995967,1.9701759815216064,2019-06-20 16:14:11:342
6.398406066894531,5.930346801757812,0.7284247131347656,0.03943842384903638,-0.02704498967802692,-0.0074661461086046235,1.9750399589538574,2019-06-20 16:14:11:347
6.3720702514648435,5.913587646484375,0.7870817565917969,0.039837898012548265,-0.02811025411405862,-0.007599304163108585,1.9801599979400635,2019-06-20 16:14:11:352
6.393617736816406,5.929149719238281,0.7272276306152343,0.040636846339572034,-0.027178147732530883,-0.007998778326620472,1.9850239753723145,2019-06-20 16:14:11:357
6.390026489257813,5.9327409667968745,0.745183868408203,0.03997105606705223,-0.026778673569018998,-0.0070666719450927385,1.9901440143585205,2019-06-20 16:14:11:362
6.397208984375,5.923164306640625,0.7523663635253907,0.04010421412155619,-0.026379199405507113,-0.0064008816725729285,1.9950079917907715,2019-06-20 16:14:11:367
6.404391479492188,5.925558471679687,0.7224393005371094,0.04023737217606015,-0.02704498967802692,-0.006267723618068967,2.0001280307769775,2019-06-20 16:14:11:372
6.392420654296875,5.930346801757812,0.7080743103027344,0.039704739958044306,-0.02691183162352296,-0.007332988054100662,2.0052480697631836,2019-06-20 16:14:11:377
6.3780556640625,5.917178894042968,0.6817384948730468,0.04037053023056411,-0.028243412168562583,-0.0077324622176125485,2.0101120471954346,2019-06-20 16:14:11:382
6.397208984375,5.913587646484375,0.6961034851074218,0.040770004394076,-0.027444463841538806,-0.00653403972707689,2.0152320861816406,2019-06-20 16:14:11:387
6.4008002319335935,5.936332214355469,0.6805414123535156,0.040503688285068076,-0.027577621896042768,-0.006667197781580852,2.0200960636138916,2019-06-20 16:14:11:392
6.404391479492188,5.950697204589844,0.6709647521972656,0.04010421412155619,-0.02704498967802692,-0.0064008816725729285,2.0252161026000977,2019-06-20 16:14:11:397
6.4008002319335935,5.92795263671875,0.6817384948730468,0.03930526579453242,-0.027577621896042768,-0.0071998299995967,2.0300800800323486,2019-06-20 16:14:11:402
6.373267333984375,5.937529296875,0.7212422180175782,0.04023737217606015,-0.02611288329649919,-0.007332988054100662,2.0351998805999756,2019-06-20 16:14:11:407
6.394814819335937,5.9471059570312494,0.7260305480957031,0.03957158190354034,-0.025979725241995228,-0.0077324622176125485,2.0400640964508057,2019-06-20 16:14:11:412
6.390026489257813,5.945908874511718,0.7332130432128906,0.03943842384903638,-0.02704498967802692,-0.006667197781580852,2.0451838970184326,2019-06-20 16:14:11:417
6.38763232421875,5.945908874511718,0.7116655578613281,0.03957158190354034,-0.027577621896042768,-0.006134565563565005,2.0500481128692627,2019-06-20 16:14:11:422
6.407982727050781,5.9471059570312494,0.7044830627441406,0.039704739958044306,-0.026512357460011075,-0.0070666719450927385,2.0551679134368896,2019-06-20 16:14:11:427
6.4008002319335935,5.942317626953125,0.7188480529785156,0.040636846339572034,-0.02704498967802692,-0.006800355836084815,2.0600318908691406,2019-06-20 16:14:11:432
6.4163623046875,5.921967224121094,0.7236363830566406,0.03997105606705223,-0.026379199405507113,-0.0074661461086046235,2.0651519298553467,2019-06-20 16:14:11:437
6.419953552246094,5.9351351318359375,0.7008918151855469,0.040636846339572034,-0.025979725241995228,-0.00653403972707689,2.0700159072875977,2019-06-20 16:14:11:442
6.427136047363281,5.907602233886719,0.7200451354980468,0.03957158190354034,-0.027577621896042768,-0.0074661461086046235,2.0751359462738037,2019-06-20 16:14:11:447
6.40678564453125,5.907602233886719,0.7332130432128906,0.038905791631020537,-0.027444463841538806,-0.007332988054100662,2.0799999237060547,2019-06-20 16:14:11:452
6.417559387207031,5.912390563964844,0.7415926208496093,0.04037053023056411,-0.027311305787034845,-0.00653403972707689,2.0851199626922607,2019-06-20 16:14:11:457
6.413968139648437,5.898025573730469,0.7176509704589844,0.04103632050308392,-0.027577621896042768,-0.007599304163108585,2.090240001678467,2019-06-20 16:14:11:462
6.442698120117187,5.915981811523437,0.7284247131347656,0.040503688285068076,-0.02771077995054673,-0.006667197781580852,2.0951039791107178,2019-06-20 16:14:11:467
6.4008002319335935,5.930346801757812,0.7296217956542969,0.04023737217606015,-0.02704498967802692,-0.005868249454557082,2.100224018096924,2019-06-20 16:14:11:472
6.398406066894531,5.9339380493164064,0.7380013732910156,0.039704739958044306,-0.027577621896042768,-0.0070666719450927385,2.105087995529175,2019-06-20 16:14:11:477
6.40678564453125,5.954288452148437,0.6913151550292969,0.039704739958044306,-0.02784393800505069,-0.006667197781580852,2.110208034515381,2019-06-20 16:14:11:482
6.4008002319335935,5.9566826171875,0.7212422180175782,0.039704739958044306,-0.027311305787034845,-0.006667197781580852,2.115072011947632,2019-06-20 16:14:11:487
6.38763232421875,5.943514709472656,0.7128626403808593,0.03930526579453242,-0.027311305787034845,-0.006933513890588777,2.120192050933838,2019-06-20 16:14:11:492
6.394814819335937,5.942317626953125,0.7523663635253907,0.03930526579453242,-0.02771077995054673,-0.007599304163108585,2.125056028366089,2019-06-20 16:14:11:497
6.397208984375,5.930346801757812,0.7356072082519531,0.038905791631020537,-0.027178147732530883,-0.007332988054100662,2.130176067352295,2019-06-20 16:14:11:502
6.373267333984375,5.925558471679687,0.7092713928222656,0.03957158190354034,-0.02771077995054673,-0.006933513890588777,2.135040044784546,2019-06-20 16:14:11:507
6.40678564453125,5.943514709472656,0.7200451354980468,0.04010421412155619,-0.028376570223066545,-0.006667197781580852,2.140160083770752,2019-06-20 16:14:11:512
6.399603149414062,5.915981811523437,0.7631401062011719,0.04037053023056411,-0.027577621896042768,-0.007599304163108585,2.145024061203003,2019-06-20 16:14:11:517
6.397208984375,5.920770141601563,0.7368042907714843,0.03917210774002846,-0.027311305787034845,-0.006667197781580852,2.150144100189209,2019-06-20 16:14:11:522
6.412771057128906,5.898025573730469,0.7260305480957031,0.038905791631020537,-0.027311305787034845,-0.006267723618068967,2.15500807762146,2019-06-20 16:14:11:527
6.4008002319335935,5.929149719238281,0.7487751159667969,0.03917210774002846,-0.027444463841538806,-0.006800355836084815,2.160127878189087,2019-06-20 16:14:11:532
6.418756469726563,5.945908874511718,0.7200451354980468,0.03930526579453242,-0.02877604438657843,-0.0070666719450927385,2.165247917175293,2019-06-20 16:14:11:537
6.4008002319335935,5.923164306640625,0.7080743103027344,0.03943842384903638,-0.02877604438657843,-0.0071998299995967,2.170111894607544,2019-06-20 16:14:11:542
6.384041076660156,5.942317626953125,0.7164538879394531,0.039704739958044306,-0.028243412168562583,-0.0064008816725729285,2.17523193359375,2019-06-20 16:14:11:547
6.385238159179687,5.931543884277343,0.7284247131347656,0.038905791631020537,-0.02784393800505069,-0.006667197781580852,2.180095911026001,2019-06-20 16:14:11:552
6.3720702514648435,5.920770141601563,0.7547605285644531,0.03957158190354034,-0.02771077995054673,-0.006667197781580852,2.185215950012207,2019-06-20 16:14:11:557
6.403194396972656,5.923164306640625,0.7140597229003907,0.04010421412155619,-0.02771077995054673,-0.0070666719450927385,2.190079927444458,2019-06-20 16:14:11:562
6.354114013671875,5.917178894042968,0.7080743103027344,0.03957158190354034,-0.02811025411405862,-0.00653403972707689,2.195199966430664,2019-06-20 16:14:11:567
6.338551940917968,5.923164306640625,0.7152568054199219,0.03997105606705223,-0.02691183162352296,-0.006267723618068967,2.200063943862915,2019-06-20 16:14:11:572
6.398406066894531,5.9339380493164064,0.7356072082519531,0.03997105606705223,-0.026645515514515036,-0.006134565563565005,2.205183982849121,2019-06-20 16:14:11:577
6.413968139648437,5.936332214355469,0.6757530822753907,0.039704739958044306,-0.026512357460011075,-0.006933513890588777,2.210047960281372,2019-06-20 16:14:11:582
6.412771057128906,5.942317626953125,0.7092713928222656,0.039837898012548265,-0.026778673569018998,-0.006667197781580852,2.215167999267578,2019-06-20 16:14:11:587
6.392420654296875,5.948303039550781,0.7272276306152343,0.04023737217606015,-0.02704498967802692,-0.007599304163108585,2.220031976699829,2019-06-20 16:14:11:592
6.38763232421875,5.937529296875,0.7391984558105469,0.039704739958044306,-0.02784393800505069,-0.007332988054100662,2.225152015686035,2019-06-20 16:14:11:597
6.399603149414062,5.925558471679687,0.7296217956542969,0.04010421412155619,-0.027311305787034845,-0.0077324622176125485,2.230015993118286,2019-06-20 16:14:11:602
6.4151652221679685,5.9195730590820315,0.7056801452636718,0.04037053023056411,-0.027178147732530883,-0.0074661461086046235,2.235136032104492,2019-06-20 16:14:11:607
6.410376892089843,5.926755554199219,0.6865268249511719,0.040636846339572034,-0.02771077995054673,-0.00786562027211651,2.240000009536743,2019-06-20 16:14:11:612
6.410376892089843,5.926755554199219,0.7427897033691406,0.040770004394076,-0.02784393800505069,-0.00786562027211651,2.245120048522949,2019-06-20 16:14:11:617
6.375661499023438,5.912390563964844,0.7176509704589844,0.04010421412155619,-0.02704498967802692,-0.0077324622176125485,2.2502400875091553,2019-06-20 16:14:11:622
6.397208984375,5.926755554199219,0.7308188781738281,0.03997105606705223,-0.02704498967802692,-0.006933513890588777,2.2551040649414062,2019-06-20 16:14:11:627
6.401997314453125,5.911193481445312,0.7152568054199219,0.040636846339572034,-0.026379199405507113,-0.006933513890588777,2.2602241039276123,2019-06-20 16:14:11:632
6.385238159179687,5.941120544433594,0.7044830627441406,0.04103632050308392,-0.02704498967802692,-0.007998778326620472,2.2650880813598633,2019-06-20 16:14:11:637
6.393617736816406,5.944711791992187,0.7140597229003907,0.041302636612091846,-0.026512357460011075,-0.007998778326620472,2.2702078819274902,2019-06-20 16:14:11:642
6.392420654296875,5.939923461914062,0.6937093200683594,0.04090316244857996,-0.02691183162352296,-0.008265094435628395,2.2750720977783203,2019-06-20 16:14:11:647
6.384041076660156,5.926755554199219,0.7380013732910156,0.04143579466659581,-0.025846567187491266,-0.008531410544636318,2.2801918983459473,2019-06-20 16:14:11:652
6.409179809570312,5.944711791992187,0.6984976501464844,0.04103632050308392,-0.025846567187491266,-0.007599304163108585,2.2850558757781982,2019-06-20 16:14:11:657
6.385238159179687,5.9327409667968745,0.7020888977050781,0.04023737217606015,-0.02611288329649919,-0.0074661461086046235,2.2901759147644043,2019-06-20 16:14:11:662
6.381646911621093,5.930346801757812,0.6973005676269531,0.04010421412155619,-0.025979725241995228,-0.007332988054100662,2.2950398921966553,2019-06-20 16:14:11:667
6.409179809570312,5.926755554199219,0.7631401062011719,0.03997105606705223,-0.026379199405507113,-0.00653403972707689,2.3001599311828613,2019-06-20 16:14:11:672
6.390026489257813,5.939923461914062,0.7152568054199219,0.04010421412155619,-0.02544709302397938,-0.00653403972707689,2.3050239086151123,2019-06-20 16:14:11:677
6.394814819335937,5.912390563964844,0.7236363830566406,0.039038949685524495,-0.026645515514515036,-0.007332988054100662,2.3101439476013184,2019-06-20 16:14:11:682
6.398406066894531,5.913587646484375,0.7140597229003907,0.039837898012548265,-0.026379199405507113,-0.006933513890588777,2.3150079250335693,2019-06-20 16:14:11:687
6.407982727050781,5.89922265625,0.6913151550292969,0.03930526579453242,-0.027311305787034845,-0.007332988054100662,2.3201279640197754,2019-06-20 16:14:11:692
6.405588562011719,5.900419738769531,0.7272276306152343,0.040636846339572034,-0.02624604135100315,-0.006933513890588777,2.3252480030059814,2019-06-20 16:14:11:697
6.410376892089843,5.913587646484375,0.7080743103027344,0.03943842384903638,-0.025580251078483343,-0.007599304163108585,2.3301119804382324,2019-06-20 16:14:11:702
6.409179809570312,5.917178894042968,0.7212422180175782,0.04023737217606015,-0.02531393496947542,-0.0077324622176125485,2.3352320194244385,2019-06-20 16:14:11:707
6.409179809570312,5.917178894042968,0.7332130432128906,0.04090316244857996,-0.026379199405507113,-0.0074661461086046235,2.3400959968566895,2019-06-20 16:14:11:712
6.393617736816406,5.9339380493164064,0.7391984558105469,0.04037053023056411,-0.02624604135100315,-0.008531410544636318,2.3452160358428955,2019-06-20 16:14:11:717
6.410376892089843,5.926755554199219,0.7080743103027344,0.04010421412155619,-0.026379199405507113,-0.008531410544636318,2.3500800132751465,2019-06-20 16:14:11:722
6.392420654296875,5.954288452148437,0.7224393005371094,0.03930526579453242,-0.02704498967802692,-0.009064042762652167,2.3552000522613525,2019-06-20 16:14:11:727
6.379252746582031,5.959076782226562,0.7380013732910156,0.03997105606705223,-0.026379199405507113,-0.008664568599140282,2.3600640296936035,2019-06-20 16:14:11:732
6.380449829101562,5.929149719238281,0.7403955383300781,0.040636846339572034,-0.025180776914971458,-0.008398252490132357,2.3651840686798096,2019-06-20 16:14:11:737
6.380449829101562,5.917178894042968,0.6913151550292969,0.04010421412155619,-0.02438182858794769,-0.0074661461086046235,2.3700480461120605,2019-06-20 16:14:11:742
6.373267333984375,5.936332214355469,0.7284247131347656,0.039837898012548265,-0.025580251078483343,-0.006667197781580852,2.3751680850982666,2019-06-20 16:14:11:747
6.396011901855468,5.937529296875,0.7439867858886718,0.039837898012548265,-0.02611288329649919,-0.007599304163108585,2.3800320625305176,2019-06-20 16:14:11:752
6.391223571777344,5.943514709472656,0.7212422180175782,0.039837898012548265,-0.026778673569018998,-0.007998778326620472,2.3851521015167236,2019-06-20 16:14:11:757
6.401997314453125,5.92795263671875,0.6901180725097656,0.039704739958044306,-0.027577621896042768,-0.007998778326620472,2.3900160789489746,2019-06-20 16:14:11:762
6.38763232421875,5.92795263671875,0.7320159606933594,0.03943842384903638,-0.026778673569018998,-0.008664568599140282,2.3951358795166016,2019-06-20 16:14:11:767
6.376858581542969,5.913587646484375,0.745183868408203,0.04023737217606015,-0.026645515514515036,-0.0077324622176125485,2.4000000953674316,2019-06-20 16:14:11:772
6.391223571777344,5.945908874511718,0.7415926208496093,0.039837898012548265,-0.027178147732530883,-0.008664568599140282,2.4051198959350586,2019-06-20 16:14:11:777
6.441501037597656,5.941120544433594,0.7427897033691406,0.039837898012548265,-0.027444463841538806,-0.008930884708148205,2.4102399349212646,2019-06-20 16:14:11:782
6.401997314453125,5.9327409667968745,0.7080743103027344,0.039704739958044306,-0.026645515514515036,-0.007998778326620472,2.4151039123535156,2019-06-20 16:14:11:787
6.397208984375,5.923164306640625,0.7751109313964843,0.03917210774002846,-0.026645515514515036,-0.0074661461086046235,2.4202239513397217,2019-06-20 16:14:11:792
6.376858581542969,5.906405151367188,0.7176509704589844,0.039038949685524495,-0.027178147732530883,-0.0077324622176125485,2.4250879287719727,2019-06-20 16:14:11:797
6.401997314453125,5.911193481445312,0.6984976501464844,0.04037053023056411,-0.028243412168562583,-0.008664568599140282,2.4302079677581787,2019-06-20 16:14:11:802
6.433121459960938,5.90879931640625,0.7080743103027344,0.039038949685524495,-0.02704498967802692,-0.008797726653644243,2.4350719451904297,2019-06-20 16:14:11:807
6.391223571777344,5.942317626953125,0.6937093200683594,0.03877263357651657,-0.02691183162352296,-0.009064042762652167,2.4401919841766357,2019-06-20 16:14:11:812
6.4151652221679685,5.9195730590820315,0.7140597229003907,0.03863947552201261,-0.02771077995054673,-0.009064042762652167,2.4450559616088867,2019-06-20 16:14:11:817
6.442698120117187,5.937529296875,0.7380013732910156,0.03957158190354034,-0.027178147732530883,-0.009862991089675938,2.4501760005950928,2019-06-20 16:14:11:822
6.452274780273437,5.950697204589844,0.7212422180175782,0.039704739958044306,-0.027577621896042768,-0.009862991089675938,2.4550399780273438,2019-06-20 16:14:11:827
6.405588562011719,5.930346801757812,0.7332130432128906,0.039704739958044306,-0.029175518550090315,-0.010395623307691787,2.46016001701355,2019-06-20 16:14:11:832
6.403194396972656,5.930346801757812,0.7511692810058593,0.039837898012548265,-0.02797709605955466,-0.0099961491441799,2.465023994445801,2019-06-20 16:14:11:837
6.394814819335937,5.926755554199219,0.7511692810058593,0.03943842384903638,-0.027577621896042768,-0.010528781362195748,2.470144033432007,2019-06-20 16:14:11:842
6.396011901855468,5.912390563964844,0.7308188781738281,0.039704739958044306,-0.02811025411405862,-0.010129307198683862,2.475008010864258,2019-06-20 16:14:11:847
6.4151652221679685,5.907602233886719,0.7475780334472656,0.03917210774002846,-0.02771077995054673,-0.010262465253187823,2.480128049850464,2019-06-20 16:14:11:852
6.38763232421875,5.924361389160156,0.7116655578613281,0.03997105606705223,-0.027311305787034845,-0.01132772968921952,2.48524808883667,2019-06-20 16:14:11:857
6.38763232421875,5.914784729003906,0.7571546936035156,0.040770004394076,-0.026512357460011075,-0.011594045798227443,2.490112066268921,2019-06-20 16:14:11:862
6.380449829101562,5.923164306640625,0.7523663635253907,0.039704739958044306,-0.02784393800505069,-0.012392994125251213,2.495232105255127,2019-06-20 16:14:11:867
6.428333129882812,5.924361389160156,0.7403955383300781,0.03957158190354034,-0.02811025411405862,-0.012259836070747251,2.500096082687378,2019-06-20 16:14:11:872
6.4295302124023435,5.909996398925781,0.7356072082519531,0.03917210774002846,-0.028243412168562583,-0.011993519961739328,2.505215883255005,2019-06-20 16:14:11:877
6.4438952026367184,5.944711791992187,0.7236363830566406,0.03943842384903638,-0.027577621896042768,-0.013058784397771025,2.510080099105835,2019-06-20 16:14:11:882
6.428333129882812,5.913587646484375,0.7320159606933594,0.04090316244857996,-0.026512357460011075,-0.01265931023425914,2.515199899673462,2019-06-20 16:14:11:887
6.403194396972656,5.902813903808593,0.7032859802246093,0.04037053023056411,-0.027178147732530883,-0.011993519961739328,2.520063877105713,2019-06-20 16:14:11:892
6.423544799804687,5.901616821289062,0.7332130432128906,0.04103632050308392,-0.028376570223066545,-0.012259836070747251,2.525183916091919,2019-06-20 16:14:11:897
6.411573974609375,5.912390563964844,0.7380013732910156,0.04103632050308392,-0.02771077995054673,-0.012792468288763102,2.53004789352417,2019-06-20 16:14:11:902
6.417559387207031,5.924361389160156,0.7212422180175782,0.04116947855758789,-0.02784393800505069,-0.012259836070747251,2.535167932510376,2019-06-20 16:14:11:907
6.42593896484375,5.911193481445312,0.7224393005371094,0.042101584939115616,-0.02531393496947542,-0.013325100506778948,2.540031909942627,2019-06-20 16:14:11:912
6.412771057128906,5.939923461914062,0.7116655578613281,0.04156895272109977,-0.02424867053344372,-0.013058784397771025,2.545151948928833,2019-06-20 16:14:11:917
6.4008002319335935,5.930346801757812,0.7092713928222656,0.04116947855758789,-0.02464814469695561,-0.013058784397771025,2.550015926361084,2019-06-20 16:14:11:922
6.404391479492188,5.954288452148437,0.7296217956542969,0.04103632050308392,-0.02624604135100315,-0.01345825856128291,2.55513596534729,2019-06-20 16:14:11:927
6.412771057128906,5.907602233886719,0.7332130432128906,0.040770004394076,-0.025979725241995228,-0.013058784397771025,2.559999942779541,2019-06-20 16:14:11:932
6.390026489257813,5.929149719238281,0.7104684753417969,0.040503688285068076,-0.025846567187491266,-0.01212667801624329,2.565119981765747,2019-06-20 16:14:11:937
6.388829406738281,5.930346801757812,0.7619430236816406,0.040636846339572034,-0.025580251078483343,-0.01265931023425914,2.570240020751953,2019-06-20 16:14:11:942
6.392420654296875,5.951894287109375,0.7356072082519531,0.04103632050308392,-0.025180776914971458,-0.012392994125251213,2.575103998184204,2019-06-20 16:14:11:947
6.40678564453125,5.9351351318359375,0.7080743103027344,0.042501059102627504,-0.024781302751459573,-0.013058784397771025,2.58022403717041,2019-06-20 16:14:11:952
6.398406066894531,5.923164306640625,0.6829355773925782,0.04183526883010769,-0.02531393496947542,-0.012925626343267063,2.585088014602661,2019-06-20 16:14:11:957
6.417559387207031,5.931543884277343,0.7344101257324218,0.041702110775603735,-0.025580251078483343,-0.012792468288763102,2.590208053588867,2019-06-20 16:14:11:962
6.391223571777344,5.944711791992187,0.7104684753417969,0.04143579466659581,-0.026778673569018998,-0.012792468288763102,2.595072031021118,2019-06-20 16:14:11:967
6.390026489257813,5.960273864746093,0.7092713928222656,0.04116947855758789,-0.02544709302397938,-0.01212667801624329,2.600192070007324,2019-06-20 16:14:11:972
6.388829406738281,5.945908874511718,0.7356072082519531,0.040636846339572034,-0.02544709302397938,-0.012792468288763102,2.605056047439575,2019-06-20 16:14:11:977
6.376858581542969,5.921967224121094,0.7356072082519531,0.04143579466659581,-0.026778673569018998,-0.012792468288763102,2.6101760864257812,2019-06-20 16:14:11:982
6.380449829101562,5.937529296875,0.7535634460449219,0.04010421412155619,-0.027444463841538806,-0.011727203852731405,2.6150400638580322,2019-06-20 16:14:11:987
6.394814819335937,5.931543884277343,0.7415926208496093,0.040503688285068076,-0.026778673569018998,-0.011727203852731405,2.6201601028442383,2019-06-20 16:14:11:992
6.391223571777344,5.936332214355469,0.7080743103027344,0.04090316244857996,-0.026778673569018998,-0.011860361907235367,2.6250240802764893,2019-06-20 16:14:11:997
6.3780556640625,5.926755554199219,0.6925122375488281,0.040636846339572034,-0.02531393496947542,-0.012259836070747251,2.630143880844116,2019-06-20 16:14:12:002
6.388829406738281,5.9351351318359375,0.706877227783203,0.041302636612091846,-0.02451498664245165,-0.010928255525707633,2.6350080966949463,2019-06-20 16:14:12:007
6.388829406738281,5.945908874511718,0.7104684753417969,0.040770004394076,-0.025846567187491266,-0.011061413580211595,2.6401278972625732,2019-06-20 16:14:12:012
6.3864352416992185,5.925558471679687,0.7439867858886718,0.04116947855758789,-0.025846567187491266,-0.011061413580211595,2.6452479362487793,2019-06-20 16:14:12:017
6.384041076660156,5.945908874511718,0.7547605285644531,0.039837898012548265,-0.025580251078483343,-0.011993519961739328,2.6501119136810303,2019-06-20 16:14:12:022
6.397208984375,5.951894287109375,0.7032859802246093,0.039837898012548265,-0.024914460805963535,-0.010795097471203672,2.6552319526672363,2019-06-20 16:14:12:027
6.401997314453125,5.942317626953125,0.7595488586425782,0.039704739958044306,-0.02544709302397938,-0.01066193941669971,2.6600959300994873,2019-06-20 16:14:12:032
6.404391479492188,5.915981811523437,0.7403955383300781,0.04037053023056411,-0.026645515514515036,-0.011194571634715558,2.6652159690856934,2019-06-20 16:14:12:037
6.398406066894531,5.938726379394531,0.7380013732910156,0.04037053023056411,-0.026645515514515036,-0.01066193941669971,2.6700799465179443,2019-06-20 16:14:12:042
6.403194396972656,5.942317626953125,0.7356072082519531,0.040503688285068076,-0.026512357460011075,-0.009862991089675938,2.6751999855041504,2019-06-20 16:14:12:047
6.384041076660156,5.960273864746093,0.6781472473144531,0.040636846339572034,-0.025979725241995228,-0.010262465253187823,2.6800639629364014,2019-06-20 16:14:12:052
6.397208984375,5.9566826171875,0.706877227783203,0.040636846339572034,-0.026512357460011075,-0.01066193941669971,2.6851840019226074,2019-06-20 16:14:12:057
6.3864352416992185,5.942317626953125,0.7116655578613281,0.040503688285068076,-0.025580251078483343,-0.010262465253187823,2.6900479793548584,2019-06-20 16:14:12:062
6.375661499023438,5.9471059570312494,0.7164538879394531,0.04090316244857996,-0.025713409132987305,-0.010395623307691787,2.6951680183410645,2019-06-20 16:14:12:067
6.366084838867187,5.929149719238281,0.7080743103027344,0.040770004394076,-0.02611288329649919,-0.01066193941669971,2.7000319957733154,2019-06-20 16:14:12:072
6.397208984375,5.9566826171875,0.6996947326660156,0.040503688285068076,-0.025846567187491266,-0.010528781362195748,2.7051520347595215,2019-06-20 16:14:12:077
6.427136047363281,5.925558471679687,0.7511692810058593,0.04103632050308392,-0.026379199405507113,-0.010262465253187823,2.7100160121917725,2019-06-20 16:14:12:082
6.405588562011719,5.9339380493164064,0.7260305480957031,0.040636846339572034,-0.02624604135100315,-0.01066193941669971,2.7151360511779785,2019-06-20 16:14:12:087
6.413968139648437,5.939923461914062,0.7391984558105469,0.040636846339572034,-0.026645515514515036,-0.010528781362195748,2.7202560901641846,2019-06-20 16:14:12:092
6.382843994140625,5.971047607421875,0.7248334655761719,0.04103632050308392,-0.027444463841538806,-0.010262465253187823,2.7251200675964355,2019-06-20 16:14:12:097
6.390026489257813,5.961470947265624,0.7248334655761719,0.039704739958044306,-0.02797709605955466,-0.010528781362195748,2.7302401065826416,2019-06-20 16:14:12:102
6.397208984375,5.942317626953125,0.7116655578613281,0.039837898012548265,-0.02771077995054673,-0.00933035887166009,2.7351040840148926,2019-06-20 16:14:12:107
6.412771057128906,5.975835937499999,0.7260305480957031,0.040636846339572034,-0.027178147732530883,-0.009064042762652167,2.7402238845825195,2019-06-20 16:14:12:112
6.35890234375,5.938726379394531,0.7607459411621094,0.041302636612091846,-0.026512357460011075,-0.009596674980668015,2.7450881004333496,2019-06-20 16:14:12:117
6.392420654296875,5.955485534667969,0.7212422180175782,0.04023737217606015,-0.026778673569018998,-0.009862991089675938,2.7502079010009766,2019-06-20 16:14:12:122
6.401997314453125,5.955485534667969,0.7535634460449219,0.040770004394076,-0.027577621896042768,-0.009596674980668015,2.7550718784332275,2019-06-20 16:14:12:127
6.370873168945312,5.9495001220703125,0.6925122375488281,0.03997105606705223,-0.02797709605955466,-0.00933035887166009,2.7601919174194336,2019-06-20 16:14:12:132
6.3864352416992185,5.945908874511718,0.6937093200683594,0.04090316244857996,-0.027311305787034845,-0.009463516926164052,2.7650558948516846,2019-06-20 16:14:12:137
6.391223571777344,5.943514709472656,0.6913151550292969,0.04010421412155619,-0.026645515514515036,-0.010129307198683862,2.7701759338378906,2019-06-20 16:14:12:142
6.423544799804687,5.942317626953125,0.6961034851074218,0.03957158190354034,-0.026512357460011075,-0.010528781362195748,2.7750399112701416,2019-06-20 16:14:12:147
6.407982727050781,5.920770141601563,0.7284247131347656,0.03957158190354034,-0.026512357460011075,-0.009197200817156128,2.7801599502563477,2019-06-20 16:14:12:152
6.381646911621093,5.925558471679687,0.6841326599121094,0.04010421412155619,-0.026778673569018998,-0.009596674980668015,2.7850239276885986,2019-06-20 16:14:12:157
6.396011901855468,5.937529296875,0.7104684753417969,0.04023737217606015,-0.026645515514515036,-0.009463516926164052,2.7901439666748047,2019-06-20 16:14:12:162
6.388829406738281,5.937529296875,0.6949064025878906,0.04116947855758789,-0.025846567187491266,-0.008930884708148205,2.7950079441070557,2019-06-20 16:14:12:167
6.398406066894531,5.920770141601563,0.7439867858886718,0.040770004394076,-0.025580251078483343,-0.008131936381124433,2.8001279830932617,2019-06-20 16:14:12:172
6.418756469726563,5.938726379394531,0.6949064025878906,0.040636846339572034,-0.02544709302397938,-0.00786562027211651,2.8052480220794678,2019-06-20 16:14:12:177
6.381646911621093,5.960273864746093,0.7248334655761719,0.04023737217606015,-0.025580251078483343,-0.008265094435628395,2.8101119995117188,2019-06-20 16:14:12:182
6.397208984375,5.939923461914062,0.6733589172363281,0.040503688285068076,-0.026645515514515036,-0.008664568599140282,2.815232038497925,2019-06-20 16:14:12:187
6.422347717285156,5.950697204589844,0.7152568054199219,0.04023737217606015,-0.025979725241995228,-0.008531410544636318,2.820096015930176,2019-06-20 16:14:12:192
6.417559387207031,5.9327409667968745,0.706877227783203,0.039704739958044306,-0.025979725241995228,-0.00933035887166009,2.825216054916382,2019-06-20 16:14:12:197
6.391223571777344,5.9183759765624995,0.7368042907714843,0.03997105606705223,-0.026512357460011075,-0.00933035887166009,2.830080032348633,2019-06-20 16:14:12:202
6.405588562011719,5.931543884277343,0.7332130432128906,0.040770004394076,-0.02544709302397938,-0.009463516926164052,2.835200071334839,2019-06-20 16:14:12:207
6.40678564453125,5.9471059570312494,0.7439867858886718,0.04143579466659581,-0.02611288329649919,-0.008930884708148205,2.84006404876709,2019-06-20 16:14:12:212
6.3780556640625,5.944711791992187,0.7475780334472656,0.040636846339572034,-0.026645515514515036,-0.008531410544636318,2.845184087753296,2019-06-20 16:14:12:217
6.409179809570312,5.941120544433594,0.7368042907714843,0.04116947855758789,-0.02624604135100315,-0.008398252490132357,2.850048065185547,2019-06-20 16:14:12:222
6.410376892089843,5.938726379394531,0.7104684753417969,0.040636846339572034,-0.026379199405507113,-0.009064042762652167,2.855168104171753,2019-06-20 16:14:12:227
6.409179809570312,5.9339380493164064,0.6996947326660156,0.04010421412155619,-0.027577621896042768,-0.008930884708148205,2.860032081604004,2019-06-20 16:14:12:232
6.391223571777344,5.920770141601563,0.7200451354980468,0.04010421412155619,-0.027577621896042768,-0.008131936381124433,2.865151882171631,2019-06-20 16:14:12:237
6.376858581542969,5.9327409667968745,0.6996947326660156,0.040503688285068076,-0.028243412168562583,-0.007332988054100662,2.870016098022461,2019-06-20 16:14:12:242
6.412771057128906,5.938726379394531,0.7380013732910156,0.04090316244857996,-0.027311305787034845,-0.0071998299995967,2.875135898590088,2019-06-20 16:14:12:247
6.399603149414062,5.925558471679687,0.7403955383300781,0.040636846339572034,-0.027311305787034845,-0.0074661461086046235,2.879999876022339,2019-06-20 16:14:12:252
6.391223571777344,5.923164306640625,0.7715196838378906,0.04103632050308392,-0.027577621896042768,-0.008131936381124433,2.885119915008545,2019-06-20 16:14:12:257
6.385238159179687,5.9195730590820315,0.7380013732910156,0.041302636612091846,-0.02691183162352296,-0.007998778326620472,2.890239953994751,2019-06-20 16:14:12:262
6.434318542480469,5.9566826171875,0.7368042907714843,0.040503688285068076,-0.02811025411405862,-0.009064042762652167,2.895103931427002,2019-06-20 16:14:12:267
6.436712707519531,5.941120544433594,0.7104684753417969,0.04037053023056411,-0.027311305787034845,-0.008930884708148205,2.900223970413208,2019-06-20 16:14:12:272
6.388829406738281,5.9351351318359375,0.7368042907714843,0.041702110775603735,-0.027577621896042768,-0.008531410544636318,2.905087947845459,2019-06-20 16:14:12:277
6.3780556640625,5.923164306640625,0.7176509704589844,0.040503688285068076,-0.027444463841538806,-0.008265094435628395,2.910207986831665,2019-06-20 16:14:12:282
6.393617736816406,5.9183759765624995,0.7080743103027344,0.039038949685524495,-0.025979725241995228,-0.008265094435628395,2.915071964263916,2019-06-20 16:14:12:287
6.4151652221679685,5.941120544433594,0.7631401062011719,0.04023737217606015,-0.028509728277570506,-0.008664568599140282,2.920192003250122,2019-06-20 16:14:12:292
6.422347717285156,5.944711791992187,0.7320159606933594,0.04010421412155619,-0.02970815076810616,-0.007998778326620472,2.925055980682373,2019-06-20 16:14:12:297
6.366084838867187,5.9327409667968745,0.7176509704589844,0.03997105606705223,-0.02797709605955466,-0.008930884708148205,2.930176019668579,2019-06-20 16:14:12:302
6.363690673828125,5.923164306640625,0.7140597229003907,0.040636846339572034,-0.02784393800505069,-0.009862991089675938,2.93503999710083,2019-06-20 16:14:12:307
6.370873168945312,5.957879699707031,0.7463809509277344,0.03930526579453242,-0.028376570223066545,-0.009729833035171977,2.940160036087036,2019-06-20 16:14:12:312
6.3780556640625,5.9638651123046875,0.7128626403808593,0.03930526579453242,-0.027577621896042768,-0.009064042762652167,2.945024013519287,2019-06-20 16:14:12:317
6.397208984375,5.941120544433594,0.7176509704589844,0.04023737217606015,-0.028243412168562583,-0.008930884708148205,2.950144052505493,2019-06-20 16:14:12:322
6.409179809570312,5.924361389160156,0.7308188781738281,0.03943842384903638,-0.028243412168562583,-0.008664568599140282,2.955008029937744,2019-06-20 16:14:12:327
6.388829406738281,5.942317626953125,0.706877227783203,0.04010421412155619,-0.02970815076810616,-0.007998778326620472,2.96012806892395,2019-06-20 16:14:12:332
6.40678564453125,5.9471059570312494,0.7104684753417969,0.03957158190354034,-0.028509728277570506,-0.008797726653644243,2.9652481079101562,2019-06-20 16:14:12:337
6.394814819335937,5.944711791992187,0.7308188781738281,0.039837898012548265,-0.028642886332074468,-0.009463516926164052,2.9701120853424072,2019-06-20 16:14:12:342
6.369676086425781,5.939923461914062,0.7188480529785156,0.04037053023056411,-0.028376570223066545,-0.009862991089675938,2.975231885910034,2019-06-20 16:14:12:347
6.410376892089843,5.942317626953125,0.6817384948730468,0.039704739958044306,-0.02784393800505069,-0.0099961491441799,2.9800961017608643,2019-06-20 16:14:12:352
6.407982727050781,5.938726379394531,0.7020888977050781,0.03997105606705223,-0.027311305787034845,-0.009729833035171977,2.985215902328491,2019-06-20 16:14:12:357
6.401997314453125,5.945908874511718,0.6721618347167969,0.03917210774002846,-0.029042360495586353,-0.00933035887166009,2.990079879760742,2019-06-20 16:14:12:362
6.404391479492188,5.931543884277343,0.7008918151855469,0.039704739958044306,-0.02890920244108239,-0.009862991089675938,2.9951999187469482,2019-06-20 16:14:12:367
6.381646911621093,5.939923461914062,0.7032859802246093,0.03997105606705223,-0.029042360495586353,-0.010129307198683862,3.000063896179199,2019-06-20 16:14:12:372
6.412771057128906,5.941120544433594,0.7224393005371094,0.04010421412155619,-0.030107624931618046,-0.009729833035171977,3.0051839351654053,2019-06-20 16:14:12:377
6.382843994140625,5.937529296875,0.6937093200683594,0.03943842384903638,-0.02877604438657843,-0.010129307198683862,3.0100479125976562,2019-06-20 16:14:12:382
6.3720702514648435,5.92795263671875,0.6973005676269531,0.03930526579453242,-0.02771077995054673,-0.009862991089675938,3.0151679515838623,2019-06-20 16:14:12:387
6.374464416503906,5.914784729003906,0.7056801452636718,0.039837898012548265,-0.02691183162352296,-0.0099961491441799,3.0200319290161133,2019-06-20 16:14:12:392
6.392420654296875,5.942317626953125,0.7212422180175782,0.03957158190354034,-0.025979725241995228,-0.009463516926164052,3.0251519680023193,2019-06-20 16:14:12:397
6.380449829101562,5.938726379394531,0.7368042907714843,0.03930526579453242,-0.02704498967802692,-0.008131936381124433,3.0300159454345703,2019-06-20 16:14:12:402
6.376858581542969,5.944711791992187,0.7403955383300781,0.03957158190354034,-0.02771077995054673,-0.008265094435628395,3.0351359844207764,2019-06-20 16:14:12:407
6.396011901855468,5.9495001220703125,0.6709647521972656,0.03997105606705223,-0.026512357460011075,-0.008265094435628395,3.0399999618530273,2019-06-20 16:14:12:412
6.382843994140625,5.930346801757812,0.6865268249511719,0.03957158190354034,-0.02784393800505069,-0.008797726653644243,3.0451200008392334,2019-06-20 16:14:12:417
6.380449829101562,5.9351351318359375,0.7308188781738281,0.03943842384903638,-0.02784393800505069,-0.008265094435628395,3.0502400398254395,2019-06-20 16:14:12:422
6.375661499023438,5.937529296875,0.7523663635253907,0.03957158190354034,-0.026379199405507113,-0.007998778326620472,3.0551040172576904,2019-06-20 16:14:12:427
6.374464416503906,5.936332214355469,0.7200451354980468,0.03917210774002846,-0.025979725241995228,-0.008265094435628395,3.0602240562438965,2019-06-20 16:14:12:432
6.376858581542969,5.9351351318359375,0.7164538879394531,0.039038949685524495,-0.02624604135100315,-0.0077324622176125485,3.0650880336761475,2019-06-20 16:14:12:437
6.374464416503906,5.936332214355469,0.6853297424316406,0.03863947552201261,-0.02797709605955466,-0.008664568599140282,3.0702080726623535,2019-06-20 16:14:12:442
6.3864352416992185,5.972244689941406,0.7080743103027344,0.03837315941300468,-0.026645515514515036,-0.0077324622176125485,3.0750720500946045,2019-06-20 16:14:12:447
6.3864352416992185,5.943514709472656,0.7344101257324218,0.03850631746750865,-0.026645515514515036,-0.0070666719450927385,3.0801920890808105,2019-06-20 16:14:12:452
6.373267333984375,5.9495001220703125,0.7368042907714843,0.03850631746750865,-0.02611288329649919,-0.008531410544636318,3.0850560665130615,2019-06-20 16:14:12:457
6.363690673828125,5.929149719238281,0.7140597229003907,0.03930526579453242,-0.025713409132987305,-0.008265094435628395,3.0901761054992676,2019-06-20 16:14:12:462
6.388829406738281,5.9471059570312494,0.6937093200683594,0.03930526579453242,-0.026379199405507113,-0.0074661461086046235,3.0950400829315186,2019-06-20 16:14:12:467
6.396011901855468,5.954288452148437,0.7571546936035156,0.039038949685524495,-0.025713409132987305,-0.00653403972707689,3.1001598834991455,2019-06-20 16:14:12:472
6.392420654296875,5.914784729003906,0.7308188781738281,0.03877263357651657,-0.026512357460011075,-0.006667197781580852,3.1050240993499756,2019-06-20 16:14:12:477
6.404391479492188,5.930346801757812,0.6877239074707031,0.03943842384903638,-0.026778673569018998,-0.0071998299995967,3.1101438999176025,2019-06-20 16:14:12:482
6.385238159179687,5.909996398925781,0.6937093200683594,0.03997105606705223,-0.027178147732530883,-0.006667197781580852,3.1150078773498535,2019-06-20 16:14:12:487
6.373267333984375,5.937529296875,0.6973005676269531,0.039038949685524495,-0.026379199405507113,-0.006267723618068967,3.1201279163360596,2019-06-20 16:14:12:492
6.4151652221679685,5.936332214355469,0.7356072082519531,0.03957158190354034,-0.02611288329649919,-0.006667197781580852,3.1252479553222656,2019-06-20 16:14:12:497
6.42593896484375,5.923164306640625,0.7487751159667969,0.03930526579453242,-0.026778673569018998,-0.006134565563565005,3.1301119327545166,2019-06-20 16:14:12:502
6.409179809570312,5.937529296875,0.7128626403808593,0.039704739958044306,-0.026645515514515036,-0.006933513890588777,3.1352319717407227,2019-06-20 16:14:12:507
6.4151652221679685,5.931543884277343,0.7164538879394531,0.03997105606705223,-0.025846567187491266,-0.0074661461086046235,3.1400959491729736,2019-06-20 16:14:12:512
6.393617736816406,5.914784729003906,0.7044830627441406,0.03957158190354034,-0.025846567187491266,-0.006800355836084815,3.1452159881591797,2019-06-20 16:14:12:517
6.427136047363281,5.907602233886719,0.6973005676269531,0.039704739958044306,-0.02624604135100315,-0.007599304163108585,3.1500799655914307,2019-06-20 16:14:12:522
6.405588562011719,5.913587646484375,0.6853297424316406,0.039704739958044306,-0.026512357460011075,-0.00653403972707689,3.1552000045776367,2019-06-20 16:14:12:527
6.409179809570312,5.9183759765624995,0.7212422180175782,0.040503688285068076,-0.025846567187491266,-0.006267723618068967,3.1600639820098877,2019-06-20 16:14:12:532
6.407982727050781,5.906405151367188,0.7487751159667969,0.04090316244857996,-0.025713409132987305,-0.0070666719450927385,3.1651840209960938,2019-06-20 16:14:12:537
6.405588562011719,5.929149719238281,0.7236363830566406,0.04143579466659581,-0.024781302751459573,-0.0070666719450927385,3.1700479984283447,2019-06-20 16:14:12:542
6.4008002319335935,5.9351351318359375,0.7356072082519531,0.041702110775603735,-0.025580251078483343,-0.0074661461086046235,3.175168037414551,2019-06-20 16:14:12:547
6.390026489257813,5.921967224121094,0.7140597229003907,0.04183526883010769,-0.024914460805963535,-0.006933513890588777,3.1800320148468018,2019-06-20 16:14:12:552
6.3864352416992185,5.939923461914062,0.6913151550292969,0.04223474299361958,-0.024914460805963535,-0.007332988054100662,3.185152053833008,2019-06-20 16:14:12:557
6.3780556640625,5.945908874511718,0.7008918151855469,0.04183526883010769,-0.02438182858794769,-0.006667197781580852,3.190016031265259,2019-06-20 16:14:12:562
6.382843994140625,5.9351351318359375,0.7224393005371094,0.04090316244857996,-0.025180776914971458,-0.006800355836084815,3.195136070251465,2019-06-20 16:14:12:567
6.363690673828125,5.92795263671875,0.7487751159667969,0.04116947855758789,-0.025713409132987305,-0.0071998299995967,3.200000047683716,2019-06-20 16:14:12:572
6.38763232421875,5.943514709472656,0.7583517761230468,0.04103632050308392,-0.02611288329649919,-0.0071998299995967,3.205120086669922,2019-06-20 16:14:12:577
6.381646911621093,5.942317626953125,0.7607459411621094,0.04103632050308392,-0.025846567187491266,-0.007599304163108585,3.210239887237549,2019-06-20 16:14:12:582
6.375661499023438,5.9339380493164064,0.7619430236816406,0.04090316244857996,-0.025979725241995228,-0.008131936381124433,3.215104103088379,2019-06-20 16:14:12:587
6.404391479492188,5.953091369628906,0.7499721984863281,0.04090316244857996,-0.02611288329649919,-0.007599304163108585,3.220223903656006,2019-06-20 16:14:12:592
6.407982727050781,5.953091369628906,0.7415926208496093,0.04037053023056411,-0.028243412168562583,-0.0074661461086046235,3.225087881088257,2019-06-20 16:14:12:597
6.403194396972656,5.92795263671875,0.7200451354980468,0.04090316244857996,-0.02877604438657843,-0.0071998299995967,3.230207920074463,2019-06-20 16:14:12:602
6.40678564453125,5.951894287109375,0.7391984558105469,0.039837898012548265,-0.027577621896042768,-0.0064008816725729285,3.235071897506714,2019-06-20 16:14:12:607
6.376858581542969,5.968653442382812,0.7499721984863281,0.04023737217606015,-0.02704498967802692,-0.006001407509061044,3.24019193649292,2019-06-20 16:14:12:612
6.385238159179687,5.937529296875,0.7164538879394531,0.04023737217606015,-0.027444463841538806,-0.006800355836084815,3.245055913925171,2019-06-20 16:14:12:617
6.3864352416992185,5.924361389160156,0.6889209899902343,0.04010421412155619,-0.02771077995054673,-0.006933513890588777,3.250175952911377,2019-06-20 16:14:12:622
6.390026489257813,5.925558471679687,0.7092713928222656,0.04010421412155619,-0.026512357460011075,-0.006667197781580852,3.255039930343628,2019-06-20 16:14:12:627
6.397208984375,5.913587646484375,0.6925122375488281,0.04010421412155619,-0.02784393800505069,-0.006001407509061044,3.260159969329834,2019-06-20 16:14:12:632
6.385238159179687,5.929149719238281,0.7380013732910156,0.040770004394076,-0.027444463841538806,-0.005601933345549157,3.265023946762085,2019-06-20 16:14:12:637
6.376858581542969,5.926755554199219,0.6805414123535156,0.04010421412155619,-0.028376570223066545,-0.006001407509061044,3.270143985748291,2019-06-20 16:14:12:642
6.397208984375,5.9327409667968745,0.7152568054199219,0.04010421412155619,-0.027577621896042768,-0.00653403972707689,3.275007963180542,2019-06-20 16:14:12:647
6.404391479492188,5.938726379394531,0.7284247131347656,0.04010421412155619,-0.027444463841538806,-0.0070666719450927385,3.280128002166748,2019-06-20 16:14:12:652
6.393617736816406,5.937529296875,0.7080743103027344,0.03943842384903638,-0.026512357460011075,-0.00653403972707689,3.285248041152954,2019-06-20 16:14:12:657
6.4151652221679685,5.936332214355469,0.7092713928222656,0.039704739958044306,-0.02624604135100315,-0.005335617236541234,3.290112018585205,2019-06-20 16:14:12:662
6.40678564453125,5.953091369628906,0.7164538879394531,0.03997105606705223,-0.028243412168562583,-0.0057350914000531186,3.295232057571411,2019-06-20 16:14:12:667
6.422347717285156,5.948303039550781,0.6817384948730468,0.039704739958044306,-0.028509728277570506,-0.006001407509061044,3.300096035003662,2019-06-20 16:14:12:672
6.407982727050781,5.930346801757812,0.745183868408203,0.04010421412155619,-0.02784393800505069,-0.006134565563565005,3.305216073989868,2019-06-20 16:14:12:677
6.401997314453125,5.945908874511718,0.7032859802246093,0.039837898012548265,-0.02624604135100315,-0.0070666719450927385,3.310080051422119,2019-06-20 16:14:12:682
6.392420654296875,5.920770141601563,0.6877239074707031,0.039837898012548265,-0.02784393800505069,-0.006134565563565005,3.315200090408325,2019-06-20 16:14:12:687
6.366084838867187,5.926755554199219,0.6661764221191406,0.03997105606705223,-0.02877604438657843,-0.0057350914000531186,3.320064067840576,2019-06-20 16:14:12:692
6.381646911621093,5.941120544433594,0.7044830627441406,0.03943842384903638,-0.02771077995054673,-0.005335617236541234,3.3251841068267822,2019-06-20 16:14:12:697
6.388829406738281,5.951894287109375,0.7391984558105469,0.03997105606705223,-0.027444463841538806,-0.005335617236541234,3.330048084259033,2019-06-20 16:14:12:702
6.421150634765625,5.9566826171875,0.7248334655761719,0.03957158190354034,-0.02771077995054673,-0.0064008816725729285,3.33516788482666,2019-06-20 16:14:12:707
6.364887756347656,5.929149719238281,0.7272276306152343,0.03943842384903638,-0.02784393800505069,-0.006667197781580852,3.3400321006774902,2019-06-20 16:14:12:712
6.398406066894531,5.950697204589844,0.7200451354980468,0.039837898012548265,-0.028376570223066545,-0.005468775291045195,3.345151901245117,2019-06-20 16:14:12:717
6.401997314453125,5.945908874511718,0.7044830627441406,0.03943842384903638,-0.02797709605955466,-0.005601933345549157,3.350015878677368,2019-06-20 16:14:12:722
6.398406066894531,5.945908874511718,0.6973005676269531,0.039837898012548265,-0.02797709605955466,-0.0064008816725729285,3.355135917663574,2019-06-20 16:14:12:727
6.397208984375,5.9183759765624995,0.6949064025878906,0.039704739958044306,-0.02704498967802692,-0.006800355836084815,3.359999895095825,2019-06-20 16:14:12:732
6.396011901855468,5.92795263671875,0.6913151550292969,0.03957158190354034,-0.02704498967802692,-0.006800355836084815,3.3651199340820312,2019-06-20 16:14:12:737
6.392420654296875,5.941120544433594,0.7236363830566406,0.03917210774002846,-0.02811025411405862,-0.007332988054100662,3.3702399730682373,2019-06-20 16:14:12:742
6.40678564453125,5.9339380493164064,0.7200451354980468,0.03930526579453242,-0.027444463841538806,-0.005468775291045195,3.3751039505004883,2019-06-20 16:14:12:747
6.3780556640625,5.950697204589844,0.6925122375488281,0.03930526579453242,-0.026379199405507113,-0.0064008816725729285,3.3802239894866943,2019-06-20 16:14:12:752
6.399603149414062,5.937529296875,0.6853297424316406,0.039704739958044306,-0.026645515514515036,-0.005468775291045195,3.3850879669189453,2019-06-20 16:14:12:757
6.396011901855468,5.930346801757812,0.7020888977050781,0.040503688285068076,-0.028243412168562583,-0.004936143073029348,3.3902080059051514,2019-06-20 16:14:12:762
6.428333129882812,5.9327409667968745,0.7320159606933594,0.04023737217606015,-0.027577621896042768,-0.0044035108550135,3.3950719833374023,2019-06-20 16:14:12:767
6.411573974609375,5.955485534667969,0.7116655578613281,0.04023737217606015,-0.027577621896042768,-0.004669826964021424,3.4001920223236084,2019-06-20 16:14:12:772
6.384041076660156,5.9638651123046875,0.7344101257324218,0.040503688285068076,-0.027178147732530883,-0.005202459182037272,3.4050559997558594,2019-06-20 16:14:12:777
6.394814819335937,5.954288452148437,0.6877239074707031,0.03997105606705223,-0.02784393800505069,-0.004802985018525386,3.4101760387420654,2019-06-20 16:14:12:782
6.397208984375,5.911193481445312,0.6889209899902343,0.039704739958044306,-0.02704498967802692,-0.005202459182037272,3.4150400161743164,2019-06-20 16:14:12:787
6.405588562011719,5.9495001220703125,0.7164538879394531,0.03957158190354034,-0.027178147732530883,-0.0050693011275333094,3.4201600551605225,2019-06-20 16:14:12:792
6.374464416503906,5.951894287109375,0.7080743103027344,0.04010421412155619,-0.02691183162352296,-0.004802985018525386,3.4250240325927734,2019-06-20 16:14:12:797
6.391223571777344,5.938726379394531,0.7032859802246093,0.039704739958044306,-0.02691183162352296,-0.004936143073029348,3.4301440715789795,2019-06-20 16:14:12:802
6.422347717285156,5.92795263671875,0.7224393005371094,0.03917210774002846,-0.02691183162352296,-0.0033382464189818046,3.4350080490112305,2019-06-20 16:14:12:807
6.385238159179687,5.945908874511718,0.7523663635253907,0.038240001358500725,-0.02624604135100315,-0.004270352800509538,3.4401280879974365,2019-06-20 16:14:12:812
6.3780556640625,5.917178894042968,0.6996947326660156,0.03837315941300468,-0.02611288329649919,-0.004936143073029348,3.4452478885650635,2019-06-20 16:14:12:817
6.36847900390625,5.923164306640625,0.7344101257324218,0.03917210774002846,-0.02624604135100315,-0.004536668909517462,3.4501121044158936,2019-06-20 16:14:12:822
6.385238159179687,5.923164306640625,0.7152568054199219,0.03943842384903638,-0.02624604135100315,-0.0044035108550135,3.4552319049835205,2019-06-20 16:14:12:827
6.391223571777344,5.926755554199219,0.6889209899902343,0.03917210774002846,-0.02691183162352296,-0.004536668909517462,3.4600958824157715,2019-06-20 16:14:12:832
6.397208984375,5.943514709472656,0.7080743103027344,0.03877263357651657,-0.02611288329649919,-0.004137194746005576,3.4652159214019775,2019-06-20 16:14:12:837
6.419953552246094,5.917178894042968,0.7044830627441406,0.039704739958044306,-0.025846567187491266,-0.004536668909517462,3.4700798988342285,2019-06-20 16:14:12:842
6.407982727050781,5.926755554199219,0.6781472473144531,0.03943842384903638,-0.027178147732530883,-0.005601933345549157,3.4751999378204346,2019-06-20 16:14:12:847
6.421150634765625,5.937529296875,0.6625851745605469,0.03917210774002846,-0.026512357460011075,-0.006001407509061044,3.4800639152526855,2019-06-20 16:14:12:852
6.403194396972656,5.911193481445312,0.7415926208496093,0.03917210774002846,-0.025846567187491266,-0.0057350914000531186,3.4851839542388916,2019-06-20 16:14:12:857
6.405588562011719,5.915981811523437,0.6913151550292969,0.03943842384903638,-0.026379199405507113,-0.006134565563565005,3.4900479316711426,2019-06-20 16:14:12:862
6.393617736816406,5.914784729003906,0.6961034851074218,0.038905791631020537,-0.025580251078483343,-0.006001407509061044,3.4951679706573486,2019-06-20 16:14:12:867
6.411573974609375,5.90879931640625,0.7200451354980468,0.03930526579453242,-0.026379199405507113,-0.00653403972707689,3.5000319480895996,2019-06-20 16:14:12:872
6.404391479492188,5.884857666015625,0.706877227783203,0.039837898012548265,-0.027178147732530883,-0.006800355836084815,3.5051519870758057,2019-06-20 16:14:12:877
6.409179809570312,5.915981811523437,0.7667313537597656,0.039837898012548265,-0.027178147732530883,-0.0070666719450927385,3.5100159645080566,2019-06-20 16:14:12:882
6.4008002319335935,5.911193481445312,0.7427897033691406,0.03917210774002846,-0.027311305787034845,-0.0070666719450927385,3.5151360034942627,2019-06-20 16:14:12:887
6.3864352416992185,5.9195730590820315,0.7475780334472656,0.03943842384903638,-0.025713409132987305,-0.0071998299995967,3.5199999809265137,2019-06-20 16:14:12:892
6.405588562011719,5.925558471679687,0.7403955383300781,0.03943842384903638,-0.026379199405507113,-0.006001407509061044,3.5251200199127197,2019-06-20 16:14:12:897
6.4008002319335935,5.9566826171875,0.7463809509277344,0.04023737217606015,-0.025180776914971458,-0.007332988054100662,3.530240058898926,2019-06-20 16:14:12:902
6.436712707519531,5.971047607421875,0.7595488586425782,0.039704739958044306,-0.026512357460011075,-0.0074661461086046235,3.5351040363311768,2019-06-20 16:14:12:907
6.427136047363281,5.930346801757812,0.7260305480957031,0.040636846339572034,-0.02811025411405862,-0.007332988054100662,3.540224075317383,2019-06-20 16:14:12:912
6.399603149414062,5.913587646484375,0.6889209899902343,0.039837898012548265,-0.02877604438657843,-0.00786562027211651,3.545088052749634,2019-06-20 16:14:12:917
6.396011901855468,5.937529296875,0.6961034851074218,0.038905791631020537,-0.026512357460011075,-0.008131936381124433,3.55020809173584,2019-06-20 16:14:12:922
6.396011901855468,5.942317626953125,0.783490509033203,0.040636846339572034,-0.027311305787034845,-0.00786562027211651,3.555072069168091,2019-06-20 16:14:12:927
6.4151652221679685,5.911193481445312,0.7643371887207031,0.04010421412155619,-0.026778673569018998,-0.00786562027211651,3.560192108154297,2019-06-20 16:14:12:932
6.4008002319335935,5.921967224121094,0.6685705871582031,0.039704739958044306,-0.026512357460011075,-0.008265094435628395,3.565056085586548,2019-06-20 16:14:12:937
6.394814819335937,5.930346801757812,0.7356072082519531,0.039837898012548265,-0.02691183162352296,-0.007599304163108585,3.570175886154175,2019-06-20 16:14:12:942
6.409179809570312,5.929149719238281,0.7703226013183594,0.039837898012548265,-0.028243412168562583,-0.007998778326620472,3.575040102005005,2019-06-20 16:14:12:947
6.403194396972656,5.942317626953125,0.7368042907714843,0.03957158190354034,-0.027577621896042768,-0.009197200817156128,3.580159902572632,2019-06-20 16:14:12:952
6.411573974609375,5.954288452148437,0.7499721984863281,0.03957158190354034,-0.02704498967802692,-0.008930884708148205,3.585023880004883,2019-06-20 16:14:12:957
6.401997314453125,5.92795263671875,0.7260305480957031,0.039837898012548265,-0.028509728277570506,-0.00933035887166009,3.590143918991089,2019-06-20 16:14:12:962
6.423544799804687,5.953091369628906,0.7152568054199219,0.03917210774002846,-0.029308676604594276,-0.008531410544636318,3.59500789642334,2019-06-20 16:14:12:967
6.391223571777344,5.943514709472656,0.7583517761230468,0.03957158190354034,-0.028376570223066545,-0.00786562027211651,3.600127935409546,2019-06-20 16:14:12:972
6.403194396972656,5.925558471679687,0.7487751159667969,0.039837898012548265,-0.028509728277570506,-0.008265094435628395,3.605247974395752,2019-06-20 16:14:12:977
6.398406066894531,5.936332214355469,0.7320159606933594,0.04023737217606015,-0.028642886332074468,-0.008131936381124433,3.610111951828003,2019-06-20 16:14:12:982
6.3864352416992185,5.9351351318359375,0.6984976501464844,0.039837898012548265,-0.029308676604594276,-0.009064042762652167,3.615231990814209,2019-06-20 16:14:12:987
6.374464416503906,5.920770141601563,0.706877227783203,0.039704739958044306,-0.029841308822610123,-0.009197200817156128,3.62009596824646,2019-06-20 16:14:12:992
6.401997314453125,5.923164306640625,0.7236363830566406,0.03930526579453242,-0.029042360495586353,-0.009729833035171977,3.625216007232666,2019-06-20 16:14:12:997
6.394814819335937,5.9351351318359375,0.7332130432128906,0.03850631746750865,-0.028642886332074468,-0.009197200817156128,3.630079984664917,2019-06-20 16:14:13:002
6.388829406738281,5.944711791992187,0.7296217956542969,0.03930526579453242,-0.029308676604594276,-0.008797726653644243,3.635200023651123,2019-06-20 16:14:13:007
6.418756469726563,5.942317626953125,0.7320159606933594,0.039038949685524495,-0.0295749927136022,-0.009729833035171977,3.640064001083374,2019-06-20 16:14:13:012
6.419953552246094,5.948303039550781,0.7284247131347656,0.03863947552201261,-0.030107624931618046,-0.00933035887166009,3.64518404006958,2019-06-20 16:14:13:017
6.417559387207031,5.929149719238281,0.7320159606933594,0.03850631746750865,-0.02797709605955466,-0.00933035887166009,3.650048017501831,2019-06-20 16:14:13:022
6.413968139648437,5.929149719238281,0.6984976501464844,0.04010421412155619,-0.029175518550090315,-0.009197200817156128,3.655168056488037,2019-06-20 16:14:13:027
6.407982727050781,5.945908874511718,0.6996947326660156,0.039704739958044306,-0.028376570223066545,-0.009463516926164052,3.660032033920288,2019-06-20 16:14:13:032
6.397208984375,5.923164306640625,0.7044830627441406,0.03930526579453242,-0.028376570223066545,-0.00933035887166009,3.665152072906494,2019-06-20 16:14:13:037
6.399603149414062,5.92795263671875,0.706877227783203,0.039837898012548265,-0.02797709605955466,-0.01066193941669971,3.670016050338745,2019-06-20 16:14:13:042
6.404391479492188,5.925558471679687,0.7212422180175782,0.03957158190354034,-0.02784393800505069,-0.011061413580211595,3.675136089324951,2019-06-20 16:14:13:047
6.418756469726563,5.9052080688476565,0.7128626403808593,0.039837898012548265,-0.02784393800505069,-0.009862991089675938,3.680000066757202,2019-06-20 16:14:13:052
6.410376892089843,5.941120544433594,0.7415926208496093,0.03943842384903638,-0.027311305787034845,-0.0099961491441799,3.685120105743408,2019-06-20 16:14:13:057
