ACCELEROMETER X (m/s²),ACCELEROMETER Y (m/s²),ACCELEROMETER Z (m/s²),GYROSCOPE X (rad/s),GYROSCOPE Y (rad/s),GYROSCOPE Z (rad/s),Time since start in ms ,YYYY-MO-DD HH-MI-SS_SSS,MagX,MagY,MagZ
-0.07270220667123795,0.025810612365603447,9.797842979431152,0.0012390718474905686,0.0009846778706428594,0.001628387897971511,0.0,2019-06-20 16:46:37:438,0.0,0.0,0.0
-0.09904444962739944,0.030600111931562424,9.76431655883789,-9.283383109216743e-05,-0.003676992187261477,0.0006960539514092252,0.004996299743652344,2019-06-20 16:46:37:443,0.0,0.0,0.0
-0.0822812020778656,0.02102111279964447,9.80502700805664,-0.002756645326422125,-0.004609325873749438,-0.0015681857631363464,0.009997367858886719,2019-06-20 16:46:37:448,0.0,0.0,0.0
-0.17567645013332367,0.044968608766794205,9.785869598388672,-0.00022602440301410239,0.000851487306848247,0.0012288162065876742,0.01590251922607422,2019-06-20 16:46:37:454,0.0,0.0,0.0
-0.0559389591217041,0.018626363947987556,9.766711235046387,-0.0018243112498226766,-0.005142088649076538,0.0022943408469817354,0.02000904083251953,2019-06-20 16:46:37:458,0.0,0.0,0.0
-0.13017620146274567,0.04975811019539833,9.819396018981934,0.0021714059240900176,-0.005142088649076538,0.0018947690255607357,0.024999618530273438,2019-06-20 16:46:37:463,0.0,0.0,0.0
-0.09664970636367798,0.06652135401964188,9.840948104858398,0.003103740000689466,-0.0020787052916889674,-0.000902232944163285,0.030008316040039062,2019-06-20 16:46:37:468,0.0,0.0,0.0
-0.13257095217704773,0.059337109327316284,9.80502700805664,0.0017718342327061804,0.0004519156154644102,-0.0006358518165740604,0.03591489791870117,2019-06-20 16:46:37:474,0.0,0.0,0.0
-0.09186020493507385,0.03299486264586449,9.807421684265137,-0.0026234547626275127,-0.0003472278323218449,0.0014951973341768988,0.040007591247558594,2019-06-20 16:46:37:478,0.0,0.0,0.0
-0.15651844441890717,0.044968608766794205,9.83376407623291,-0.0012915489946442272,-0.008205471356278294,0.003626246484927858,0.04644298553466797,2019-06-20 16:46:37:484,0.0,0.0,0.0
-0.07988645136356354,0.016231613233685493,9.788264274597168,0.004036073947251752,-0.003011039368288416,-0.004231997299102917,0.05148601531982422,2019-06-20 16:46:37:490,0.0,0.0,0.0
-0.11820244789123535,0.013836863450706005,9.843342781066895,-0.0018243112498226766,-0.0012795617788841308,0.0025607219745709597,0.056466102600097656,2019-06-20 16:46:37:494,0.0,0.0,0.0
-0.11101820319890976,0.03299486264586449,9.781079292297363,-0.002090692377411901,-0.0024782768530356414,0.0030934842297494092,0.061476707458496094,2019-06-20 16:46:37:499,0.0,0.0,0.0
-0.07270220667123795,0.011442113667726517,9.860106468200684,0.00043992846472289506,-0.005941232031844212,0.0024275314107763475,0.06647920608520508,2019-06-20 16:46:37:504,0.0,0.0,0.0
-0.12299194931983948,0.04736335948109627,9.790658950805664,-0.00502088517100486,-0.005541660080386049,0.0012288162065876742,0.07149124145507812,2019-06-20 16:46:37:510,0.0,0.0,0.0
-0.09425495564937592,0.011442113667726517,9.807421684265137,-0.0004924055468579722,-0.006340803463153723,0.006556438888409328,0.07647132873535156,2019-06-20 16:46:37:514,0.0,0.0,0.0
-0.13736045360565186,0.023415861651301384,9.817001342773438,0.004036073947251752,-0.006074422335564498,0.0005628633876146128,0.08158588409423828,2019-06-20 16:46:37:520,0.0,0.0,0.0
-0.11341295391321182,0.071310855448246,9.797842979431152,-0.002756645326422125,-0.00647399428702266,-0.000902232944163285,0.0865478515625,2019-06-20 16:46:37:525,0.0,0.0,0.0
-0.1277814507484436,0.006652614567428827,9.848133087158203,0.0019050247965007928,-0.0032774204958776402,0.0006960539514092252,0.09150218963623047,2019-06-20 16:46:37:530,0.0,0.0,0.0
-0.1086234524846077,0.006652614567428827,9.733184814453125,0.0025709774854366916,-0.0044761355700291515,0.0017615784617661236,0.09647846221923828,2019-06-20 16:46:37:534,0.0,0.0,0.0
-0.11341295391321182,0.023415861651301384,9.800237655639648,-0.0014247395584388394,-0.004209754442439926,-0.0034328539163352434,0.10149097442626953,2019-06-20 16:46:37:540,0.0,0.0,0.0
-0.11341295391321182,0.006652614567428827,9.831369400024414,-0.0008919772382418092,-0.004742516697618376,0.0030934842297494092,0.10647201538085938,2019-06-20 16:46:37:544,0.0,0.0,0.0
-0.10143920034170151,0.04017911106348038,9.819396018981934,0.003370121128278691,-0.006074422335564498,0.0038926276125170823,0.11148929595947266,2019-06-20 16:46:37:550,0.0,0.0,0.0
-0.12299194931983948,0.06652135401964188,9.82179069519043,-0.0010251678020364214,-0.006207613159433436,-0.0010354235079578973,0.1165008544921875,2019-06-20 16:46:37:555,0.0,0.0,0.0
-0.12299194931983948,0.009047363884747028,9.771500587463379,-0.002889835890216737,-0.005808041207975274,-0.00010308950450435256,0.12150287628173828,2019-06-20 16:46:37:560,0.0,0.0,0.0
-0.1086234524846077,0.016231613233685493,9.83376407623291,0.0025709774854366916,-0.006340803463153723,0.0030934842297494092,0.1266002655029297,2019-06-20 16:46:37:565,0.0,0.0,0.0
-0.10143920034170151,0.08567935228347778,9.769105911254883,-0.001158358430849615,-0.0038101827510560898,0.0022943408469817354,0.13150835037231445,2019-06-20 16:46:37:570,0.0,0.0,0.0
-0.07988645136356354,0.030600111931562424,9.776289939880371,0.003370121128278691,-0.001945514727894355,0.003626246484927858,0.13647699356079102,2019-06-20 16:46:37:574,0.0,0.0,0.0
-0.11101820319890976,0.04975811019539833,9.817001342773438,-0.0018243112498226766,-0.004609325873749438,0.0014951973341768988,0.1415414810180664,2019-06-20 16:46:37:580,0.0,0.0,0.0
-0.12538670003414154,0.023415861651301384,9.848133087158203,0.001372262411285181,-0.002744658240699191,-0.001834566890725571,0.14501476287841797,2019-06-20 16:46:37:583,0.0,0.0,0.0
-0.13975520431995392,0.011442113667726517,9.836158752441406,-0.0007587866744471969,-0.004342945006234539,-0.001834566890725571,0.15088367462158203,2019-06-20 16:46:37:589,0.0,0.0,0.0
-0.07988645136356354,0.016231613233685493,9.80502700805664,0.0019050247965007928,-0.003410611059672253,3.010106944941304e-05,0.15498781204223633,2019-06-20 16:46:37:593,0.0,0.0,0.0
-0.1277814507484436,0.04257386177778244,9.790658950805664,0.004702026766224813,-0.006074422335564498,0.0009624350789984497,0.15999889373779297,2019-06-20 16:46:37:598,0.0,0.0,0.0
-0.12538670003414154,0.009047363884747028,9.802632331848145,0.00043992846472289506,-0.006207613159433436,0.00042967279131070986,0.16499710083007812,2019-06-20 16:46:37:603,0.0,0.0,0.0
-0.10143920034170151,0.052152857184410095,9.800237655639648,-0.0035557887091897987,-0.00847185248386752,-0.0027669008372878568,0.1700000762939453,2019-06-20 16:46:37:608,0.0,0.0,0.0
-0.10383395105600357,-0.002926384098827839,9.735579490661621,0.0020382153602954054,-0.004209754442439926,0.00042967279131070986,0.17590761184692383,2019-06-20 16:46:37:614,0.0,0.0,0.0
-0.07270220667123795,0.05454760789871216,9.848133087158203,-0.0026234547626275127,-0.0006136089599110694,-0.0014349951993417342,0.18088245391845703,2019-06-20 16:46:37:619,0.0,0.0,0.0
-0.10622870177030563,0.037784360349178314,9.783474922180176,-0.0012915489946442272,-0.0028778488044938037,0.0002964822275160976,0.18498754501342773,2019-06-20 16:46:37:623,0.0,0.0,0.0
-0.11101820319890976,0.03299486264586449,9.824185371398926,0.0011058812836959564,-0.0050088978252076,-0.00023628007642628753,0.1909174919128418,2019-06-20 16:46:37:629,0.0,0.0,0.0
-0.1349657028913498,0.04257386177778244,9.778684616088867,0.0012390718474905686,-0.004342945006234539,-0.0029000914010824694,0.19499921798706055,2019-06-20 16:46:37:633,0.0,0.0,0.0
-0.09904444962739944,0.037784360349178314,9.795448303222656,-0.0004924055468579722,-0.0044761355700291515,0.0022943408469817354,0.1999959945678711,2019-06-20 16:46:37:638,0.0,0.0,0.0
-0.13736045360565186,0.018626363947987556,9.72360610961914,0.001372262411285181,-0.004209754442439926,0.004958152122873981,0.20499229431152344,2019-06-20 16:46:37:643,0.0,0.0,0.0
-0.1349657028913498,0.02820536121726036,9.824185371398926,4.035674489342885e-05,-0.004742516697618376,-0.0038324256077190803,0.20999431610107422,2019-06-20 16:46:37:648,0.0,0.0,0.0
-0.1421499401330948,0.013836863450706005,9.790658950805664,0.0024377869216420794,-0.0018123241640997428,-0.001834566890725571,0.21499252319335938,2019-06-20 16:46:37:653,0.0,0.0,0.0
-0.10383395105600357,0.025810612365603447,9.831369400024414,0.0021714059240900176,0.0035152987777962367,0.001095625642793062,0.22001934051513672,2019-06-20 16:46:37:658,0.0,0.0,0.0
-0.13975520431995392,0.013836863450706005,9.836158752441406,0.0027041680492313038,-0.0007467995237056817,-0.000902232944163285,0.2258896827697754,2019-06-20 16:46:37:664,0.0,0.0,0.0
-0.10143920034170151,0.06891610473394394,9.855317115783691,-0.0010251678020364214,-0.0011463712150895187,-0.0034328539163352434,0.22999191284179688,2019-06-20 16:46:37:668,0.0,0.0,0.0
-0.1277814507484436,0.011442113667726517,9.800237655639648,-0.0016911206860280642,-0.0044761355700291515,-0.0038324256077190803,0.2350172996520996,2019-06-20 16:46:37:673,0.0,0.0,0.0
-0.07030745595693588,0.011442113667726517,9.824185371398926,-0.0016911206860280642,-0.004742516697618376,-0.00023628007642628753,0.24089622497558594,2019-06-20 16:46:37:679,0.0,0.0,0.0
-0.05354420840740204,0.013836863450706005,9.831369400024414,0.00043992846472289506,-0.003144229932083028,-0.0011686140717525096,0.24498558044433594,2019-06-20 16:46:37:683,0.0,0.0,0.0
-0.13975520431995392,0.02102111279964447,9.809816360473633,0.0012390718474905686,-0.0035438016234668654,0.0017615784617661236,0.25,2019-06-20 16:46:37:688,0.0,0.0,0.0
-0.11580769717693329,0.025810612365603447,9.843342781066895,-0.002090692377411901,-0.004342945006234539,0.0025607219745709597,0.25499773025512695,2019-06-20 16:46:37:693,0.0,0.0,0.0
-0.13017620146274567,0.016231613233685493,9.848133087158203,0.0015054529750797934,-0.0028778488044938037,-0.0017013763269309588,0.2599940299987793,2019-06-20 16:46:37:698,0.0,0.0,0.0
-0.15172894299030304,0.059337109327316284,9.76431655883789,0.005234789021403263,-0.004875707001338663,-0.000902232944163285,0.26499271392822266,2019-06-20 16:46:37:703,0.0,0.0,0.0
-0.09186020493507385,0.04736335948109627,9.757132530212402,-0.0036889792729844113,-0.0026114674168302536,3.010106944941304e-05,0.2708911895751953,2019-06-20 16:46:37:709,0.0,0.0,0.0
-0.09425495564937592,0.059337109327316284,9.776289939880371,0.0008395001561067318,-0.0020787052916889674,-0.0006358518165740604,0.27498817443847656,2019-06-20 16:46:37:713,0.0,0.0,0.0
-0.10622870177030563,0.052152857184410095,9.83376407623291,0.001372262411285181,-0.006873565718332173,-0.0015681857631363464,0.2808856964111328,2019-06-20 16:46:37:719,0.0,0.0,0.0
-0.14933419227600098,0.04017911106348038,9.773895263671875,-0.001957501813617289,-0.006074422335564498,-0.000902232944163285,0.2859039306640625,2019-06-20 16:46:37:724,0.0,0.0,0.0
-0.12059719860553741,-0.03405813127756119,9.788264274597168,4.035674489342885e-05,-0.003943373314850702,-0.00023628007642628753,0.2908821105957031,2019-06-20 16:46:37:729,0.0,0.0,0.0
-0.13257095217704773,0.030600111931562424,9.817001342773438,-0.002090692377411901,-0.0023450862892410293,-0.0029000914010824694,0.2949867248535156,2019-06-20 16:46:37:733,0.0,0.0,0.0
-0.08467595279216766,0.05694235861301422,9.80502700805664,0.0019050247965007928,-0.0024782768530356414,-0.005297521549385491,0.30089235305786133,2019-06-20 16:46:37:739,0.0,0.0,0.0
-0.1421499401330948,0.004257864784449339,9.812211036682129,-0.0018243112498226766,-0.005142088649076538,0.005091342946742919,0.3049917221069336,2019-06-20 16:46:37:743,0.0,0.0,0.0
-0.10143920034170151,0.011442113667726517,9.790658950805664,-0.0010251678020364214,-0.008205471356278294,3.010106944941304e-05,0.309995174407959,2019-06-20 16:46:37:748,0.0,0.0,0.0
-0.09664970636367798,0.02820536121726036,9.819396018981934,-0.001957501813617289,-0.0018123241640997428,0.0017615784617661236,0.31592655181884766,2019-06-20 16:46:37:754,0.0,0.0,0.0
-0.11820244789123535,0.08807410299777985,9.82179069519043,0.0003067379009282828,-0.0040765638786453146,-0.0023673291459040203,0.3208951950073242,2019-06-20 16:46:37:759,0.0,0.0,0.0
-0.08467595279216766,0.04017911106348038,9.785869598388672,-0.0036889792729844113,-0.0024782768530356414,-0.0032996633525406317,0.32498645782470703,2019-06-20 16:46:37:763,0.0,0.0,0.0
-0.11101820319890976,0.052152857184410095,9.824185371398926,0.0016386436689115682,-0.0016791336003051302,-0.0019677574545201833,0.33000850677490234,2019-06-20 16:46:37:768,0.0,0.0,0.0
-0.11341295391321182,0.05694235861301422,9.819396018981934,-0.0006255961106525846,-0.006207613159433436,-0.0005026612202701574,0.3358922004699707,2019-06-20 16:46:37:774,0.0,0.0,0.0
-0.07988645136356354,0.04257386177778244,9.831369400024414,-0.0010251678020364214,-0.007006756542201109,-0.00036947065647554515,0.33999156951904297,2019-06-20 16:46:37:778,0.0,0.0,0.0
-0.09904444962739944,0.0018631152343004942,9.737974166870117,0.0012390718474905686,-0.003676992187261477,0.0006960539514092252,0.34499168395996094,2019-06-20 16:46:37:783,0.0,0.0,0.0
-0.11101820319890976,0.016231613233685493,9.790658950805664,4.035674489342885e-05,-0.002744658240699191,0.00016329164746684,0.34999942779541016,2019-06-20 16:46:37:788,0.0,0.0,0.0
-0.1349657028913498,0.016231613233685493,9.872079849243164,-0.00022602440301410239,-0.0032774204958776402,-0.0013018046355471218,0.3549976348876953,2019-06-20 16:46:37:793,0.0,0.0,0.0
-0.11101820319890976,0.004257864784449339,9.817001342773438,0.002970549436894854,-0.0040765638786453146,0.0014951973341768988,0.3600187301635742,2019-06-20 16:46:37:798,0.0,0.0,0.0
-0.11820244789123535,0.023415861651301384,9.831369400024414,0.0037696928196625274,-0.004209754442439926,0.00016329164746684,0.36589574813842773,2019-06-20 16:46:37:804,0.0,0.0,0.0
-0.08707070350646973,-0.012505383230745792,9.817001342773438,-0.00022602440301410239,-0.001945514727894355,0.0013620067703822866,0.3699932098388672,2019-06-20 16:46:37:808,0.0,0.0,0.0
-0.11101820319890976,0.009047363884747028,9.82179069519043,-0.001557930122233452,-0.005408469776665762,-0.0023673291459040203,0.37515687942504883,2019-06-20 16:46:37:813,0.0,0.0,0.0
-0.11580769717693329,0.004257864784449339,9.790658950805664,-0.003955360400573636,-0.004209754442439926,-0.00010308950450435256,0.38089847564697266,2019-06-20 16:46:37:819,0.0,0.0,0.0
-0.09425495564937592,0.025810612365603447,9.83376407623291,0.0012390718474905686,-0.008338662180147232,0.00042967279131070986,0.38498878479003906,2019-06-20 16:46:37:823,0.0,0.0,0.0
-0.1421499401330948,0.044968608766794205,9.817001342773438,0.0039028833834571395,-0.0044761355700291515,-0.00023628007642628753,0.39088916778564453,2019-06-20 16:46:37:829,0.0,0.0,0.0
-0.08467595279216766,0.03299486264586449,9.802632331848145,0.003636502255867915,-0.003943373314850702,-0.00036947065647554515,0.39499378204345703,2019-06-20 16:46:37:833,0.0,0.0,0.0
-0.11580769717693329,-0.029268629848957062,9.76431655883789,0.0023045963578474673,-0.008738234131605394,-0.0011686140717525096,0.40088367462158203,2019-06-20 16:46:37:839,0.0,0.0,0.0
-0.11341295391321182,0.006652614567428827,9.754737854003906,0.003636502255867915,-0.0014127523426787432,0.0012288162065876742,0.4049873352050781,2019-06-20 16:46:37:843,0.0,0.0,0.0
-0.058333706110715866,0.023415861651301384,9.802632331848145,0.0003067379009282828,-0.003943373314850702,0.0021611501531499603,0.4109058380126953,2019-06-20 16:46:37:849,0.0,0.0,0.0
-0.058333706110715866,0.011442113667726517,9.766711235046387,0.0032369305644840782,-0.0007467995237056817,0.001628387897971511,0.4149904251098633,2019-06-20 16:46:37:853,0.0,0.0,0.0
-0.09186020493507385,0.023415861651301384,9.800237655639648,0.0012390718474905686,-0.003943373314850702,-0.002234138582109408,0.42088794708251953,2019-06-20 16:46:37:859,0.0,0.0,0.0
-0.11820244789123535,0.03299486264586449,9.800237655639648,-0.00035921498306336,-0.004742516697618376,0.002693912538365572,0.425018310546875,2019-06-20 16:46:37:863,0.0,0.0,0.0
-0.08946545422077179,0.025810612365603447,9.817001342773438,-0.001557930122233452,-0.007672709101099845,-0.000902232944163285,0.43000030517578125,2019-06-20 16:46:37:868,0.0,0.0,0.0
-0.12059719860553741,0.016231613233685493,9.831369400024414,0.0043024550748409765,-0.006074422335564498,-0.0005026612202701574,0.435880184173584,2019-06-20 16:46:37:874,0.0,0.0,0.0
-0.09904444962739944,0.059337109327316284,9.812211036682129,-0.002889835890216737,-0.004742516697618376,0.0030934842297494092,0.43999433517456055,2019-06-20 16:46:37:878,0.0,0.0,0.0
-0.13257095217704773,0.023415861651301384,9.790658950805664,-0.0008919772382418092,-0.003676992187261477,-0.004098806735308305,0.4458885192871094,2019-06-20 16:46:37:884,0.0,0.0,0.0
-0.12538670003414154,0.02102111279964447,9.83376407623291,-0.0004924055468579722,0.0005851061792590224,0.0012288162065876742,0.44999217987060547,2019-06-20 16:46:37:888,0.0,0.0,0.0
-0.10622870177030563,0.06891610473394394,9.797842979431152,0.004169264511046364,-0.005541660080386049,-0.0032996633525406317,0.4550008773803711,2019-06-20 16:46:37:893,0.0,0.0,0.0
-0.1349657028913498,0.018626363947987556,9.757132530212402,-0.0018243112498226766,-0.00793909022868907,-0.0007690423803686727,0.46088075637817383,2019-06-20 16:46:37:899,0.0,0.0,0.0
-0.09904444962739944,-0.005321133881807327,9.83376407623291,-0.0016911206860280642,-0.009004614739045968,-0.0027669008372878568,0.46498584747314453,2019-06-20 16:46:37:903,0.0,0.0,0.0
-0.07988645136356354,0.04257386177778244,9.773895263671875,-0.0007587866744471969,-0.003943373314850702,-0.004764759294207041,0.4699993133544922,2019-06-20 16:46:37:908,0.0,0.0,0.0
-0.08707070350646973,0.016231613233685493,9.824185371398926,-0.0007587866744471969,-0.0015459429064733554,-0.0015681857631363464,0.47499847412109375,2019-06-20 16:46:37:913,0.0,0.0,0.0
-0.1277814507484436,0.04975811019539833,9.82179069519043,0.0016386436689115682,-0.0038101827510560898,0.0021611501531499603,0.4808955192565918,2019-06-20 16:46:37:919,0.0,0.0,0.0
-0.06791270524263382,0.04257386177778244,9.840948104858398,-0.003422598145395187,-0.003676992187261477,0.0005628633876146128,0.4849872589111328,2019-06-20 16:46:37:923,0.0,0.0,0.0
-0.09186020493507385,0.009047363884747028,9.8505277633667,0.0024377869216420794,-0.0032774204958776402,0.0009624350789984497,0.48999834060668945,2019-06-20 16:46:37:928,0.0,0.0,0.0
-0.07988645136356354,0.04257386177778244,9.66134262084961,-0.0035557887091897987,-0.0035438016234668654,-0.0031664725286716937,0.4958839416503906,2019-06-20 16:46:37:934,0.0,0.0,0.0
-0.07749170809984207,0.02102111279964447,9.845738410949707,0.003370121128278691,-0.004209754442439926,-0.006096665452301814,0.5000128746032715,2019-06-20 16:46:37:938,0.0,0.0,0.0
-0.12299194931983948,0.04257386177778244,9.819396018981934,-0.004354932091957473,-0.0023450862892410293,-0.0005026612202701574,0.5058956146240234,2019-06-20 16:46:37:944,0.0,0.0,0.0
-0.0631232038140297,0.04017911106348038,9.812211036682129,0.0025709774854366916,0.0004519156154644102,-0.0023673291459040203,0.5099935531616211,2019-06-20 16:46:37:948,0.0,0.0,0.0
-0.15172894299030304,0.05454760789871216,9.795448303222656,-0.001158358430849615,-0.002744658240699191,-0.003965616171513693,0.514991283416748,2019-06-20 16:46:37:953,0.0,0.0,0.0
-0.12059719860553741,0.03538960963487625,9.790658950805664,-0.004621313219546697,-0.003943373314850702,-0.0010354235079578973,0.5200209617614746,2019-06-20 16:46:37:958,0.0,0.0,0.0
-0.11101820319890976,0.06412661075592041,9.735579490661621,0.0009726907199013442,-0.005541660080386049,-0.0030332819648770815,0.5258884429931641,2019-06-20 16:46:37:964,0.0,0.0,0.0
-0.06551795452833176,0.03538960963487625,9.867290496826172,-0.0004924055468579722,-0.00993694894568258,0.0017615784617661236,0.5299921035766602,2019-06-20 16:46:37:968,0.0,0.0,0.0
-0.1086234524846077,0.07610035687685013,9.800237655639648,-0.0014247395584388394,-0.00647399428702266,-0.003566044480129856,0.5359067916870117,2019-06-20 16:46:37:974,0.0,0.0,0.0
-0.13736045360565186,0.013836863450706005,9.824185371398926,0.0025709774854366916,-0.003011039368288416,0.0006960539514092252,0.5399942398071289,2019-06-20 16:46:37:978,0.0,0.0,0.0
-0.11341295391321182,0.05454760789871216,9.785869598388672,0.001372262411285181,-0.0023450862892410293,-0.0021009480183147955,0.545875072479248,2019-06-20 16:46:37:984,0.0,0.0,0.0
-0.1421499401330948,0.023415861651301384,9.800237655639648,-0.0008919772382418092,-0.006340803463153723,-0.0014349951993417342,0.5509004592895508,2019-06-20 16:46:37:989,0.0,0.0,0.0
-0.1277814507484436,0.0018631152343004942,9.79305362701416,-0.004887694347135921,-0.007805899924968783,-0.0010354235079578973,0.5549917221069336,2019-06-20 16:46:37:993,0.0,0.0,0.0
-0.1277814507484436,0.009047363884747028,9.828974723815918,0.0032369305644840782,-0.0026114674168302536,-0.0006358518165740604,0.5608844757080078,2019-06-20 16:46:37:999,0.0,0.0,0.0
-0.10383395105600357,0.011442113667726517,9.773895263671875,-0.003955360400573636,-0.0035438016234668654,-0.0014349951993417342,0.5653543472290039,2019-06-20 16:46:38:003,0.0,0.0,0.0
-0.10383395105600357,0.030600111931562424,9.840948104858398,-0.0004924055468579722,-0.00847185248386752,-0.0038324256077190803,0.5715675354003906,2019-06-20 16:46:38:010,0.0,0.0,0.0
-0.11101820319890976,0.018626363947987556,9.747552871704102,0.0011058812836959564,-0.006207613159433436,-0.0026337102734932446,0.5764479637145996,2019-06-20 16:46:38:014,0.0,0.0,0.0
-0.11341295391321182,0.025810612365603447,9.75234317779541,4.035674489342885e-05,-0.003676992187261477,0.0002964822275160976,0.5815601348876953,2019-06-20 16:46:38:020,0.0,0.0,0.0
-0.058333706110715866,0.037784360349178314,9.83376407623291,0.00017354732087902514,-0.003144229932083028,-0.0048979501180759786,0.586461067199707,2019-06-20 16:46:38:024,0.0,0.0,0.0
-0.07030745595693588,0.02820536121726036,9.814606666564941,0.002970549436894854,-0.006207613159433436,-0.00010308950450435256,0.5914754867553711,2019-06-20 16:46:38:029,0.0,0.0,0.0
-0.13017620146274567,0.030600111931562424,9.754737854003906,-0.00035921498306336,-0.0038101827510560898,-0.0014349951993417342,0.5965113639831543,2019-06-20 16:46:38:035,0.0,0.0,0.0
-0.10383395105600357,0.04257386177778244,9.819396018981934,0.0043024550748409765,-0.0020787052916889674,0.00549091437805243,0.6014823913574219,2019-06-20 16:46:38:039,0.0,0.0,0.0
-0.15891319513320923,0.05694235861301422,9.812211036682129,0.0027041680492313038,-8.084668035065233e-05,-0.001834566890725571,0.6064491271972656,2019-06-20 16:46:38:044,0.0,0.0,0.0
-0.12538670003414154,0.09525835514068604,9.778684616088867,-0.00422174152816286,-0.0023450862892410293,0.0002964822275160976,0.6114840507507324,2019-06-20 16:46:38:049,0.0,0.0,0.0
-0.09664970636367798,0.037784360349178314,9.783474922180176,-0.00035921498306336,-0.004342945006234539,0.004159008740106307,0.6164588928222656,2019-06-20 16:46:38:054,0.0,0.0,0.0
-0.10622870177030563,0.03538960963487625,9.778684616088867,-0.0006255961106525846,-0.0007467995237056817,0.0028271031021601845,0.6214866638183594,2019-06-20 16:46:38:060,0.0,0.0,0.0
-0.11580769717693329,0.025810612365603447,9.857711791992188,-0.002223883071243676,-0.0016791336003051302,-0.0032996633525406317,0.6264438629150391,2019-06-20 16:46:38:064,0.0,0.0,0.0
-0.13736045360565186,0.04975811019539833,9.79305362701416,-0.003955360400573636,-0.0052752789527968245,0.0014951973341768988,0.6315650939941406,2019-06-20 16:46:38:070,0.0,0.0,0.0
-0.07988645136356354,0.052152857184410095,9.802632331848145,0.0003067379009282828,-0.003144229932083028,-0.003566044480129856,0.6364774703979492,2019-06-20 16:46:38:074,0.0,0.0,0.0
-0.08707070350646973,0.013836863450706005,9.771500587463379,-0.002223883071243676,-0.0067403754146118855,0.0025607219745709597,0.6416425704956055,2019-06-20 16:46:38:080,0.0,0.0,0.0
-0.11101820319890976,0.02820536121726036,9.776289939880371,0.0023045963578474673,-0.0026114674168302536,-0.000902232944163285,0.6465153694152832,2019-06-20 16:46:38:085,0.0,0.0,0.0
-0.1349657028913498,0.04257386177778244,9.800237655639648,0.0019050247965007928,-0.004342945006234539,0.0025607219745709597,0.6514625549316406,2019-06-20 16:46:38:089,0.0,0.0,0.0
-0.16609744727611542,0.023415861651301384,9.778684616088867,0.00590074210045065,-0.006607184590742948,0.00042967279131070986,0.6564469337463379,2019-06-20 16:46:38:094,0.0,0.0,0.0
-0.0822812020778656,0.06891610473394394,9.812211036682129,0.0032369305644840782,-0.0006136089599110694,0.001095625642793062,0.6614713668823242,2019-06-20 16:46:38:099,0.0,0.0,0.0
-0.12299194931983948,0.009047363884747028,9.840948104858398,0.0057675512765817125,-0.0028778488044938037,0.002027959589355348,0.6664628982543945,2019-06-20 16:46:38:104,0.0,0.0,0.0
-0.10143920034170151,0.030600111931562424,9.776289939880371,-0.002756645326422125,-0.0010131806512949063,-0.001834566890725571,0.6714563369750977,2019-06-20 16:46:38:109,0.0,0.0,0.0
-0.13736045360565186,0.016231613233685493,9.809816360473633,0.0027041680492313038,-0.0023450862892410293,0.0009624350789984497,0.6764435768127441,2019-06-20 16:46:38:114,0.0,0.0,0.0
-0.1277814507484436,0.044968608766794205,9.790658950805664,-0.0007587866744471969,-0.004209754442439926,0.0037594370487224705,0.6814794540405273,2019-06-20 16:46:38:119,0.0,0.0,0.0
-0.12299194931983948,0.018626363947987556,9.814606666564941,0.003636502255867915,-0.0018123241640997428,0.0012288162065876742,0.6864538192749023,2019-06-20 16:46:38:124,0.0,0.0,0.0
-0.10383395105600357,0.006652614567428827,9.836158752441406,0.0024377869216420794,-0.0067403754146118855,0.0005628633876146128,0.6916580200195312,2019-06-20 16:46:38:130,0.0,0.0,0.0
-0.1349657028913498,0.03538960963487625,9.783474922180176,0.00043992846472289506,-0.0040765638786453146,-0.0006358518165740604,0.6964645385742188,2019-06-20 16:46:38:134,0.0,0.0,0.0
-0.1277814507484436,0.02820536121726036,9.802632331848145,0.0017718342327061804,-0.0040765638786453146,0.0009624350789984497,0.7014613151550293,2019-06-20 16:46:38:139,0.0,0.0,0.0
-0.10143920034170151,0.006652614567428827,9.783474922180176,0.003103740000689466,-0.004742516697618376,0.004425389867695532,0.7064456939697266,2019-06-20 16:46:38:144,0.0,0.0,0.0
-0.12538670003414154,0.03538960963487625,9.814606666564941,-0.00035921498306336,-0.0028778488044938037,0.0018947690255607357,0.7114648818969727,2019-06-20 16:46:38:149,0.0,0.0,0.0
-0.15891319513320923,0.0018631152343004942,9.759527206420898,0.0019050247965007928,-0.0026114674168302536,-0.00010308950450435256,0.7164463996887207,2019-06-20 16:46:38:154,0.0,0.0,0.0
-0.11101820319890976,0.052152857184410095,9.80502700805664,0.007099456914527835,-0.003011039368288416,0.0006960539514092252,0.7214937210083008,2019-06-20 16:46:38:160,0.0,0.0,0.0
-0.1086234524846077,0.011442113667726517,9.778684616088867,0.001372262411285181,-0.0035438016234668654,-0.004365187862897529,0.7264466285705566,2019-06-20 16:46:38:164,0.0,0.0,0.0
-0.13975520431995392,0.02102111279964447,9.800237655639648,0.0023045963578474673,-0.00647399428702266,3.010106944941304e-05,0.7314977645874023,2019-06-20 16:46:38:170,0.0,0.0,0.0
-0.10143920034170151,0.06652135401964188,9.824185371398926,0.0011058812836959564,-0.004742516697618376,0.0005628633876146128,0.7365427017211914,2019-06-20 16:46:38:175,0.0,0.0,0.0
-0.09904444962739944,-0.007715883664786816,9.800237655639648,-0.0010251678020364214,-0.005541660080386049,-0.0010354235079578973,0.7414836883544922,2019-06-20 16:46:38:179,0.0,0.0,0.0
-0.11580769717693329,0.044968608766794205,9.817001342773438,-0.0007587866744471969,0.000851487306848247,0.003626246484927858,0.7464466094970703,2019-06-20 16:46:38:184,0.0,0.0,0.0
-0.08707070350646973,-0.005321133881807327,9.802632331848145,-0.0010251678020364214,-0.003676992187261477,-0.0021009480183147955,0.751469612121582,2019-06-20 16:46:38:189,0.0,0.0,0.0
-0.13257095217704773,0.04257386177778244,9.8505277633667,0.0007063095923121196,-0.0032774204958776402,-0.004231997299102917,0.7564582824707031,2019-06-20 16:46:38:194,0.0,0.0,0.0
-0.08467595279216766,0.030600111931562424,9.819396018981934,-0.0008919772382418092,-0.002744658240699191,-0.005297521549385491,0.7614541053771973,2019-06-20 16:46:38:199,0.0,0.0,0.0
-0.13975520431995392,0.013836863450706005,9.747552871704102,0.0011058812836959564,-0.004742516697618376,-0.0007690423803686727,0.7664451599121094,2019-06-20 16:46:38:204,0.0,0.0,0.0
-0.10622870177030563,-0.007715883664786816,9.773895263671875,0.00043992846472289506,-0.0015459429064733554,-0.002234138582109408,0.7714815139770508,2019-06-20 16:46:38:209,0.0,0.0,0.0
-0.08946545422077179,0.044968608766794205,9.83376407623291,-0.003156217017805962,-0.007805899924968783,-0.003965616171513693,0.776453971862793,2019-06-20 16:46:38:214,0.0,0.0,0.0
-0.08946545422077179,0.06412661075592041,9.819396018981934,-0.0023570736350382883,-0.005808041207975274,-0.00023628007642628753,0.7815065383911133,2019-06-20 16:46:38:220,0.0,0.0,0.0
-0.08467595279216766,0.02820536121726036,9.773895263671875,0.003636502255867915,-0.0052752789527968245,-0.0026337102734932446,0.7865400314331055,2019-06-20 16:46:38:225,0.0,0.0,0.0
-0.07988645136356354,0.02820536121726036,9.807421684265137,0.0012390718474905686,0.00031872505166979784,-0.0029000914010824694,0.7914543151855469,2019-06-20 16:46:38:229,0.0,0.0,0.0
-0.12299194931983948,-0.002926384098827839,9.819396018981934,-0.0018243112498226766,-0.004609325873749438,-0.0036992350439244686,0.7964506149291992,2019-06-20 16:46:38:234,0.0,0.0,0.0
-0.12299194931983948,0.011442113667726517,9.75234317779541,-0.00035921498306336,-0.007539518797379559,0.0014951973341768988,0.8014740943908691,2019-06-20 16:46:38:239,0.0,0.0,0.0
-0.13257095217704773,0.06173185631632805,9.817001342773438,-0.0007587866744471969,-0.005674850904254987,-0.000902232944163285,0.8064537048339844,2019-06-20 16:46:38:244,0.0,0.0,0.0
-0.09186020493507385,0.071310855448246,9.836158752441406,0.0020382153602954054,-0.0052752789527968245,-0.0023673291459040203,0.8114800453186035,2019-06-20 16:46:38:249,0.0,0.0,0.0
-0.09186020493507385,0.018626363947987556,9.785869598388672,-0.00035921498306336,-0.01193480766267609,0.0008292445152038374,0.816443920135498,2019-06-20 16:46:38:254,0.0,0.0,0.0
-0.043965209275484085,0.04975811019539833,9.817001342773438,-0.005553647426183308,-0.0052752789527968245,-0.0017013763269309588,0.8215060234069824,2019-06-20 16:46:38:260,0.0,0.0,0.0
-0.13017620146274567,0.037784360349178314,9.86250114440918,-0.002223883071243676,-0.0052752789527968245,0.0024275314107763475,0.8264598846435547,2019-06-20 16:46:38:264,0.0,0.0,0.0
-0.13736045360565186,0.03299486264586449,9.838553428649902,-9.283383109216743e-05,-0.0040765638786453146,-0.002234138582109408,0.8315963745117188,2019-06-20 16:46:38:270,0.0,0.0,0.0
-0.09904444962739944,0.013836863450706005,9.769105911254883,0.0025709774854366916,-0.005142088649076538,-0.0005026612202701574,0.8364639282226562,2019-06-20 16:46:38:274,0.0,0.0,0.0
-0.11580769717693329,-0.010110633447766304,9.771500587463379,0.0027041680492313038,-0.005408469776665762,-0.0036992350439244686,0.8414583206176758,2019-06-20 16:46:38:279,0.0,0.0,0.0
-0.10622870177030563,-0.0005316344322636724,9.778684616088867,0.0048352170699451,-0.003144229932083028,-0.0017013763269309588,0.8464441299438477,2019-06-20 16:46:38:284,0.0,0.0,0.0
-0.10622870177030563,-0.0005316344322636724,9.800237655639648,0.0037696928196625274,-0.0050088978252076,-0.0007690423803686727,0.8514728546142578,2019-06-20 16:46:38:289,0.0,0.0,0.0
-0.11341295391321182,0.037784360349178314,9.838553428649902,-0.0007587866744471969,-0.0014127523426787432,-0.00036947065647554515,0.8564586639404297,2019-06-20 16:46:38:294,0.0,0.0,0.0
-0.08946545422077179,0.052152857184410095,9.852922439575195,4.035674489342885e-05,-0.010602901504581317,0.002693912538365572,0.8614606857299805,2019-06-20 16:46:38:299,0.0,0.0,0.0
-0.10143920034170151,0.04736335948109627,9.881659507751465,0.001372262411285181,-0.004875707001338663,-0.004098806735308305,0.8664522171020508,2019-06-20 16:46:38:304,0.0,0.0,0.0
-0.11341295391321182,0.016231613233685493,9.840948104858398,0.003370121128278691,-0.0028778488044938037,-0.000902232944163285,0.8714799880981445,2019-06-20 16:46:38:309,0.0,0.0,0.0
-0.12059719860553741,-0.0005316344322636724,9.788264274597168,0.0007063095923121196,-0.004742516697618376,-0.0005026612202701574,0.8765659332275391,2019-06-20 16:46:38:315,0.0,0.0,0.0
-0.12059719860553741,0.025810612365603447,9.814606666564941,0.0009726907199013442,-0.002744658240699191,0.0002964822275160976,0.8814830780029297,2019-06-20 16:46:38:319,0.0,0.0,0.0
-0.11580769717693329,0.03538960963487625,9.809816360473633,0.0011058812836959564,-0.003943373314850702,0.0017615784617661236,0.886448860168457,2019-06-20 16:46:38:324,0.0,0.0,0.0
-0.10622870177030563,0.03299486264586449,9.826580047607422,0.0017718342327061804,-0.0006136089599110694,0.0002964822275160976,0.8914699554443359,2019-06-20 16:46:38:329,0.0,0.0,0.0
-0.11101820319890976,0.044968608766794205,9.781079292297363,0.00043992846472289506,-0.0035438016234668654,-0.0026337102734932446,0.8964691162109375,2019-06-20 16:46:38:334,0.0,0.0,0.0
-0.08467595279216766,0.006652614567428827,9.843342781066895,-0.0023570736350382883,-0.003676992187261477,0.0014951973341768988,0.9014749526977539,2019-06-20 16:46:38:339,0.0,0.0,0.0
-0.11820244789123535,-0.007715883664786816,9.802632331848145,0.003103740000689466,-0.005142088649076538,0.0008292445152038374,0.9064412117004395,2019-06-20 16:46:38:344,0.0,0.0,0.0
-0.12059719860553741,0.025810612365603447,9.80502700805664,0.004702026766224813,-0.0026114674168302536,0.001095625642793062,0.9114837646484375,2019-06-20 16:46:38:349,0.0,0.0,0.0
-0.08707070350646973,-0.012505383230745792,9.855317115783691,-0.002223883071243676,-0.0018123241640997428,0.00042967279131070986,0.9164609909057617,2019-06-20 16:46:38:354,0.0,0.0,0.0
-0.10143920034170151,0.023415861651301384,9.771500587463379,0.00017354732087902514,-0.007006756542201109,0.0013620067703822866,0.9214906692504883,2019-06-20 16:46:38:360,0.0,0.0,0.0
-0.10143920034170151,0.03299486264586449,9.76431655883789,-0.003955360400573636,-0.0052752789527968245,3.010106944941304e-05,0.9314255714416504,2019-06-20 16:46:38:369,0.0,0.0,0.0
-0.12299194931983948,0.013836863450706005,9.785869598388672,0.0003067379009282828,-0.003943373314850702,0.0009624350789984497,0.9364504814147949,2019-06-20 16:46:38:374,0.0,0.0,0.0
-0.11341295391321182,-0.005321133881807327,9.76431655883789,-0.002889835890216737,-0.003676992187261477,0.001095625642793062,0.9414706230163574,2019-06-20 16:46:38:379,0.0,0.0,0.0
-0.12538670003414154,0.07370560616254807,9.79305362701416,-0.003955360400573636,-0.005674850904254987,-0.0006358518165740604,0.9464559555053711,2019-06-20 16:46:38:384,0.0,0.0,0.0
-0.12538670003414154,0.04257386177778244,9.769105911254883,0.0005731190285175073,-0.007139946845921397,-0.0023673291459040203,0.9514608383178711,2019-06-20 16:46:38:389,0.0,0.0,0.0
-0.14933419227600098,0.04975811019539833,9.773895263671875,-0.0006255961106525846,-0.0035438016234668654,0.0012288162065876742,0.9564428329467773,2019-06-20 16:46:38:394,0.0,0.0,0.0
-0.11341295391321182,0.023415861651301384,9.817001342773438,-0.0018243112498226766,-0.003676992187261477,-0.0023673291459040203,0.9614720344543457,2019-06-20 16:46:38:399,0.0,0.0,0.0
-0.09425495564937592,0.07370560616254807,9.800237655639648,-0.0004924055468579722,-0.004742516697618376,-0.0010354235079578973,0.9664497375488281,2019-06-20 16:46:38:404,0.0,0.0,0.0
-0.10143920034170151,0.02102111279964447,9.802632331848145,-0.003156217017805962,-0.005541660080386049,-0.0014349951993417342,0.9712123870849609,2019-06-20 16:46:38:409,0.0,0.0,0.0
-0.10143920034170151,0.02102111279964447,9.817001342773438,-0.00022602440301410239,-0.00021403725227258724,0.0014951973341768988,0.9750127792358398,2019-06-20 16:46:38:413,0.0,0.0,0.0
-0.08707070350646973,-0.012505383230745792,9.781079292297363,0.0021714059240900176,-0.0018123241640997428,-0.00010308950450435256,0.9799985885620117,2019-06-20 16:46:38:418,0.0,0.0,0.0
-0.1086234524846077,0.009047363884747028,9.857711791992188,-0.004354932091957473,-0.006340803463153723,-0.0019677574545201833,0.9858803749084473,2019-06-20 16:46:38:424,0.0,0.0,0.0
-0.11580769717693329,0.04257386177778244,9.836158752441406,-0.001158358430849615,0.00031872505166979784,-0.0005026612202701574,0.9899959564208984,2019-06-20 16:46:38:428,0.0,0.0,0.0
-0.13975520431995392,0.02102111279964447,9.819396018981934,-0.003955360400573636,-0.009004614739045968,0.001628387897971511,0.9949979782104492,2019-06-20 16:46:38:433,0.0,0.0,0.0
-0.12538670003414154,0.025810612365603447,9.759527206420898,-0.00035921498306336,-0.003943373314850702,3.010106944941304e-05,0.9999980926513672,2019-06-20 16:46:38:438,0.0,0.0,0.0
-0.08467595279216766,0.023415861651301384,9.740368843078613,4.035674489342885e-05,-0.007539518797379559,-0.0023673291459040203,1.0049943923950195,2019-06-20 16:46:38:443,0.0,0.0,0.0
-0.09186020493507385,0.04257386177778244,9.757132530212402,0.0025709774854366916,-0.003943373314850702,3.010106944941304e-05,1.0108895301818848,2019-06-20 16:46:38:449,0.0,0.0,0.0
-0.12538670003414154,0.011442113667726517,9.824185371398926,0.0007063095923121196,-0.006207613159433436,0.00042967279131070986,1.0149965286254883,2019-06-20 16:46:38:453,0.0,0.0,0.0
-0.07509695738554001,0.016231613233685493,9.766711235046387,0.0017718342327061804,0.0011178684994560528,-0.0036992350439244686,1.0209121704101562,2019-06-20 16:46:38:459,0.0,0.0,0.0
-0.10383395105600357,-0.012505383230745792,9.824185371398926,0.0020382153602954054,-0.005941232031844212,0.0012288162065876742,1.0249977111816406,2019-06-20 16:46:38:463,0.0,0.0,0.0
-0.07988645136356354,0.037784360349178314,9.802632331848145,-0.0014247395584388394,-0.004342945006234539,0.0018947690255607357,1.0299997329711914,2019-06-20 16:46:38:468,0.0,0.0,0.0
-0.10143920034170151,0.011442113667726517,9.788264274597168,0.0016386436689115682,-0.0044761355700291515,0.0014951973341768988,1.0358867645263672,2019-06-20 16:46:38:474,0.0,0.0,0.0
-0.10622870177030563,0.04017911106348038,9.817001342773438,4.035674489342885e-05,-0.0023450862892410293,0.0006960539514092252,1.0399999618530273,2019-06-20 16:46:38:478,0.0,0.0,0.0
-0.10622870177030563,0.02820536121726036,9.773895263671875,-0.0007587866744471969,-0.003676992187261477,0.0014951973341768988,1.0458755493164062,2019-06-20 16:46:38:484,0.0,0.0,0.0
-0.10143920034170151,0.06652135401964188,9.814606666564941,0.0032369305644840782,-0.005541660080386049,-0.0029000914010824694,1.050008773803711,2019-06-20 16:46:38:488,0.0,0.0,0.0
-0.11820244789123535,0.044968608766794205,9.778684616088867,0.0009726907199013442,-0.004742516697618376,-0.0010354235079578973,1.0550007820129395,2019-06-20 16:46:38:493,0.0,0.0,0.0
-0.0822812020778656,-0.017294881865382195,9.737974166870117,-0.0008919772382418092,-0.008738234131605394,0.005091342946742919,1.060154914855957,2019-06-20 16:46:38:498,0.0,0.0,0.0
-0.10143920034170151,0.04736335948109627,9.814606666564941,0.0005731190285175073,-0.0026114674168302536,0.006290057760820104,1.0651226043701172,2019-06-20 16:46:38:503,0.0,0.0,0.0
-0.08946545422077179,0.018626363947987556,9.761921882629395,0.0012390718474905686,-0.006207613159433436,0.0013620067703822866,1.0700149536132812,2019-06-20 16:46:38:508,0.0,0.0,0.0
-0.06791270524263382,0.016231613233685493,9.754737854003906,0.003636502255867915,-0.0028778488044938037,-0.0006358518165740604,1.0758800506591797,2019-06-20 16:46:38:514,0.0,0.0,0.0
-0.11341295391321182,-0.005321133881807327,9.867290496826172,-0.0010251678020364214,-0.006873565718332173,0.0025607219745709597,1.0799994468688965,2019-06-20 16:46:38:518,0.0,0.0,0.0
-0.09664970636367798,0.037784360349178314,9.79305362701416,0.0005731190285175073,-0.0038101827510560898,0.0014951973341768988,1.0849981307983398,2019-06-20 16:46:38:523,0.0,0.0,0.0
-0.12059719860553741,0.018626363947987556,9.884054183959961,0.0032369305644840782,-0.00793909022868907,0.0018947690255607357,1.0899996757507324,2019-06-20 16:46:38:528,0.0,0.0,0.0
-0.08946545422077179,0.04017911106348038,9.790658950805664,0.0023045963578474673,-0.00647399428702266,-0.00036947065647554515,1.0958776473999023,2019-06-20 16:46:38:534,0.0,0.0,0.0
-0.1349657028913498,0.04017911106348038,9.75234317779541,-0.0010251678020364214,-0.004609325873749438,0.0008292445152038374,1.1000080108642578,2019-06-20 16:46:38:538,0.0,0.0,0.0
-0.08707070350646973,0.03538960963487625,9.80502700805664,0.0007063095923121196,-0.0018123241640997428,-0.0032996633525406317,1.104996681213379,2019-06-20 16:46:38:543,0.0,0.0,0.0
-0.10383395105600357,0.013836863450706005,9.79305362701416,0.0028373588731002413,-0.003943373314850702,0.0030934842297494092,1.110036849975586,2019-06-20 16:46:38:548,0.0,0.0,0.0
-0.09904444962739944,0.03299486264586449,9.845738410949707,-9.283383109216743e-05,0.0011178684994560528,-0.0011686140717525096,1.115896224975586,2019-06-20 16:46:38:554,0.0,0.0,0.0
-0.08707070350646973,0.044968608766794205,9.79305362701416,-0.002223883071243676,-0.006607184590742948,0.0008292445152038374,1.1200084686279297,2019-06-20 16:46:38:558,0.0,0.0,0.0
-0.10622870177030563,0.02102111279964447,9.79305362701416,0.0023045963578474673,-0.005808041207975274,0.006023676633230879,1.1258792877197266,2019-06-20 16:46:38:564,0.0,0.0,0.0
-0.11101820319890976,0.04017911106348038,9.773895263671875,0.0012390718474905686,-0.004742516697618376,-0.0025005197096986324,1.1299972534179688,2019-06-20 16:46:38:568,0.0,0.0,0.0
-0.1349657028913498,0.02820536121726036,9.809816360473633,-0.003422598145395187,-0.003943373314850702,0.001628387897971511,1.1349983215332031,2019-06-20 16:46:38:573,0.0,0.0,0.0
-0.09664970636367798,0.02102111279964447,9.802632331848145,-0.0018243112498226766,-0.006207613159433436,-0.004764759294207041,1.140000343322754,2019-06-20 16:46:38:578,0.0,0.0,0.0
-0.09904444962739944,0.04257386177778244,9.83376407623291,0.0021714059240900176,-0.007406327973510622,-0.003965616171513693,1.1449956893920898,2019-06-20 16:46:38:583,0.0,0.0,0.0
-0.13017620146274567,0.009047363884747028,9.80502700805664,0.003370121128278691,0.00018553447162054023,0.00042967279131070986,1.1500091552734375,2019-06-20 16:46:38:588,0.0,0.0,0.0
-0.09186020493507385,0.02820536121726036,9.831369400024414,4.035674489342885e-05,-0.005142088649076538,0.006423248584689041,1.1549968719482422,2019-06-20 16:46:38:593,0.0,0.0,0.0
-0.09425495564937592,0.04736335948109627,9.785869598388672,-0.0016911206860280642,-0.0052752789527968245,-0.0014349951993417342,1.160912036895752,2019-06-20 16:46:38:599,0.0,0.0,0.0
-0.12059719860553741,-0.002926384098827839,9.771500587463379,0.0003067379009282828,-0.000879990087500294,-0.00023628007642628753,1.1649971008300781,2019-06-20 16:46:38:603,0.0,0.0,0.0
-0.12538670003414154,0.023415861651301384,9.807421684265137,-0.0010251678020364214,-0.00021403725227258724,0.004824961819153694,1.170884132385254,2019-06-20 16:46:38:609,0.0,0.0,0.0
-0.1277814507484436,-0.005321133881807327,9.814606666564941,0.0039028833834571395,-0.003410611059672253,-0.0013018046355471218,1.1749954223632812,2019-06-20 16:46:38:613,0.0,0.0,0.0
-0.07270220667123795,0.04257386177778244,9.754737854003906,-0.002090692377411901,-0.0024782768530356414,-0.0048979501180759786,1.1800012588500977,2019-06-20 16:46:38:618,0.0,0.0,0.0
-0.08707070350646973,0.016231613233685493,9.807421684265137,-0.001957501813617289,-0.0012795617788841308,-0.00010308950450435256,1.185875415802002,2019-06-20 16:46:38:624,0.0,0.0,0.0
-0.13257095217704773,-0.0005316344322636724,9.754737854003906,0.0021714059240900176,-0.00647399428702266,0.0005628633876146128,1.190000057220459,2019-06-20 16:46:38:628,0.0,0.0,0.0
-0.11341295391321182,0.02820536121726036,9.802632331848145,0.0007063095923121196,-0.008072281052558009,0.004025818176311695,1.1949992179870605,2019-06-20 16:46:38:633,0.0,0.0,0.0
-0.12059719860553741,0.03538960963487625,9.745158195495605,-9.283383109216743e-05,0.00018553447162054023,-0.0014349951993417342,1.2000088691711426,2019-06-20 16:46:38:638,0.0,0.0,0.0
-0.11101820319890976,-0.012505383230745792,9.819396018981934,0.0003067379009282828,-0.0016791336003051302,0.0024275314107763475,1.2050189971923828,2019-06-20 16:46:38:643,0.0,0.0,0.0
-0.11820244789123535,0.02820536121726036,9.814606666564941,-9.283383109216743e-05,-0.003676992187261477,-0.0007690423803686727,1.2100110054016113,2019-06-20 16:46:38:648,0.0,0.0,0.0
-0.08467595279216766,0.03538960963487625,9.812211036682129,0.0007063095923121196,-0.0035438016234668654,0.0012288162065876742,1.2158780097961426,2019-06-20 16:46:38:654,0.0,0.0,0.0
-0.15891319513320923,0.004257864784449339,9.838553428649902,-0.002223883071243676,-0.006607184590742948,0.0008292445152038374,1.2199974060058594,2019-06-20 16:46:38:658,0.0,0.0,0.0
-0.08467595279216766,0.04257386177778244,9.800237655639648,-0.0006255961106525846,0.0032489176502070124,0.0028271031021601845,1.2258877754211426,2019-06-20 16:46:38:664,0.0,0.0,0.0
-0.1349657028913498,0.030600111931562424,9.910396575927734,0.00043992846472289506,-0.0050088978252076,-0.0006358518165740604,1.229996681213379,2019-06-20 16:46:38:668,0.0,0.0,0.0
-0.09425495564937592,0.04257386177778244,9.814606666564941,-0.0006255961106525846,-0.008738234131605394,-0.0031664725286716937,1.2358756065368652,2019-06-20 16:46:38:674,0.0,0.0,0.0
-0.13257095217704773,0.04017911106348038,9.747552871704102,0.0011058812836959564,-0.0020787052916889674,0.005224533250463206,1.2400093078613281,2019-06-20 16:46:38:678,0.0,0.0,0.0
-0.09186020493507385,0.02102111279964447,9.776289939880371,0.0017718342327061804,-0.0018123241640997428,-0.005164331245665204,1.2450003623962402,2019-06-20 16:46:38:683,0.0,0.0,0.0
-0.08467595279216766,0.052152857184410095,9.790658950805664,-0.0014247395584388394,-0.005674850904254987,0.00016329164746684,1.2509541511535645,2019-06-20 16:46:38:689,0.0,0.0,0.0
-0.09425495564937592,0.025810612365603447,9.761921882629395,0.005501170148992487,-0.0012795617788841308,-0.0021009480183147955,1.255025863647461,2019-06-20 16:46:38:693,0.0,0.0,0.0
-0.12538670003414154,0.06412661075592041,9.819396018981934,-0.0016911206860280642,-0.004609325873749438,0.0025607219745709597,1.2600011825561523,2019-06-20 16:46:38:698,0.0,0.0,0.0
-0.11580769717693329,0.05694235861301422,9.747552871704102,0.0017718342327061804,-0.00021403725227258724,-0.0013018046355471218,1.2658796310424805,2019-06-20 16:46:38:704,0.0,0.0,0.0
-0.0559389591217041,0.03538960963487625,9.773895263671875,-0.0016911206860280642,-0.005408469776665762,0.0006960539514092252,1.270885944366455,2019-06-20 16:46:38:709,0.0,0.0,0.0
-0.12299194931983948,0.052152857184410095,9.836158752441406,-0.0007587866744471969,-0.0050088978252076,-0.0034328539163352434,1.2749953269958496,2019-06-20 16:46:38:713,0.0,0.0,0.0
-0.07030745595693588,-0.0005316344322636724,9.840948104858398,0.001372262411285181,-0.0032774204958776402,-0.0026337102734932446,1.2799978256225586,2019-06-20 16:46:38:718,0.0,0.0,0.0
-0.10383395105600357,-0.007715883664786816,9.800237655639648,-0.00035921498306336,-0.003144229932083028,-0.0015681857631363464,1.285879135131836,2019-06-20 16:46:38:724,0.0,0.0,0.0
-0.12538670003414154,0.04257386177778244,9.788264274597168,0.0008395001561067318,-0.0032774204958776402,0.00016329164746684,1.2908916473388672,2019-06-20 16:46:38:729,0.0,0.0,0.0
-0.12538670003414154,-0.005321133881807327,9.771500587463379,0.00043992846472289506,0.0025829648312339507,-0.0014349951993417342,1.294994831085205,2019-06-20 16:46:38:733,0.0,0.0,0.0
-0.13257095217704773,-0.010110633447766304,9.802632331848145,-0.0008919772382418092,-0.0035438016234668654,-0.0023673291459040203,1.3000354766845703,2019-06-20 16:46:38:738,0.0,0.0,0.0
-0.008043964393436909,0.052152857184410095,9.757132530212402,-0.0047545040434156345,-0.00993694894568258,0.0029602936659547966,1.3058795928955078,2019-06-20 16:46:38:744,0.0,0.0,0.0
-0.15891319513320923,0.018626363947987556,9.809816360473633,0.001372262411285181,-0.0052752789527968245,0.0033598653573386336,1.3099970817565918,2019-06-20 16:46:38:748,0.0,0.0,0.0
-0.058333706110715866,0.023415861651301384,9.766711235046387,-0.002090692377411901,-0.007273137669790334,0.001095625642793062,1.3150010108947754,2019-06-20 16:46:38:753,0.0,0.0,0.0
-0.1086234524846077,0.030600111931562424,9.831369400024414,-0.00422174152816286,-0.0014127523426787432,0.0006960539514092252,1.3208837509155273,2019-06-20 16:46:38:759,0.0,0.0,0.0
-0.09904444962739944,-0.02208438143134117,9.747552871704102,0.004169264511046364,-0.007139946845921397,0.0017615784617661236,1.3249950408935547,2019-06-20 16:46:38:763,0.0,0.0,0.0
-0.13975520431995392,0.10723210126161575,9.785869598388672,-0.001158358430849615,-0.001945514727894355,0.0012288162065876742,1.33089017868042,2019-06-20 16:46:38:769,0.0,0.0,0.0
-0.06551795452833176,0.03538960963487625,9.730790138244629,0.0003067379009282828,-0.00793909022868907,-0.004231997299102917,1.3349981307983398,2019-06-20 16:46:38:773,0.0,0.0,0.0
-0.13975520431995392,-0.017294881865382195,9.869685173034668,0.0032369305644840782,-0.003144229932083028,-0.002234138582109408,1.3408870697021484,2019-06-20 16:46:38:779,0.0,0.0,0.0
-0.0008597151609137654,0.08088985830545425,9.807421684265137,0.0003067379009282828,-0.0040765638786453146,-0.0013018046355471218,1.3450651168823242,2019-06-20 16:46:38:783,0.0,0.0,0.0
-0.11580769717693329,-0.031663380563259125,9.831369400024414,0.0011058812836959564,-0.0007467995237056817,0.00016329164746684,1.3508939743041992,2019-06-20 16:46:38:789,0.0,0.0,0.0
-0.07509695738554001,0.018626363947987556,9.836158752441406,0.004036073947251752,-0.000879990087500294,-0.004631568990486754,1.354992389678955,2019-06-20 16:46:38:793,0.0,0.0,0.0
-0.1086234524846077,0.06412661075592041,9.814606666564941,0.0037696928196625274,-0.005408469776665762,-0.0015681857631363464,1.360887050628662,2019-06-20 16:46:38:799,0.0,0.0,0.0
-0.07030745595693588,0.011442113667726517,9.781079292297363,0.0007063095923121196,-0.006074422335564498,0.004958152122873981,1.364999771118164,2019-06-20 16:46:38:803,0.0,0.0,0.0
-0.07988645136356354,0.04257386177778244,9.80502700805664,0.0021714059240900176,-0.003410611059672253,0.001628387897971511,1.369999885559082,2019-06-20 16:46:38:808,0.0,0.0,0.0
-0.022412462159991264,0.04257386177778244,9.82179069519043,-0.003422598145395187,-0.0038101827510560898,0.002027959589355348,1.375880241394043,2019-06-20 16:46:38:814,0.0,0.0,0.0
-0.13975520431995392,-0.002926384098827839,9.855317115783691,0.0037696928196625274,-0.0011463712150895187,-0.002234138582109408,1.3800091743469238,2019-06-20 16:46:38:818,0.0,0.0,0.0
-0.043965209275484085,0.08088985830545425,9.831369400024414,-0.003955360400573636,-0.0044761355700291515,0.0024275314107763475,1.3858866691589355,2019-06-20 16:46:38:824,0.0,0.0,0.0
-0.1732816994190216,-0.012505383230745792,9.809816360473633,0.0016386436689115682,-0.004609325873749438,-0.0013018046355471218,1.389997959136963,2019-06-20 16:46:38:828,0.0,0.0,0.0
-0.09664970636367798,0.06173185631632805,9.79305362701416,-0.001957501813617289,-0.0032774204958776402,-0.0013018046355471218,1.3959121704101562,2019-06-20 16:46:38:834,0.0,0.0,0.0
-0.13257095217704773,0.08088985830545425,9.8505277633667,-0.0008919772382418092,-0.0040765638786453146,0.0006960539514092252,1.399998664855957,2019-06-20 16:46:38:838,0.0,0.0,0.0
-0.10383395105600357,0.006652614567428827,9.74276351928711,0.002970549436894854,-0.003676992187261477,0.00016329164746684,1.4049959182739258,2019-06-20 16:46:38:843,0.0,0.0,0.0
-0.07988645136356354,0.044968608766794205,9.795448303222656,-0.0014247395584388394,-0.0011463712150895187,-0.00023628007642628753,1.4099979400634766,2019-06-20 16:46:38:848,0.0,0.0,0.0
-0.10622870177030563,0.06891610473394394,9.795448303222656,-0.0018243112498226766,5.234389563494396e-05,-0.000902232944163285,1.414999008178711,2019-06-20 16:46:38:853,0.0,0.0,0.0
-0.08467595279216766,-0.017294881865382195,9.783474922180176,0.0048352170699451,-0.0044761355700291515,0.0005628633876146128,1.4200000762939453,2019-06-20 16:46:38:858,0.0,0.0,0.0
-0.10383395105600357,0.037784360349178314,9.733184814453125,-0.00022602440301410239,-0.0020787052916889674,0.002027959589355348,1.4258975982666016,2019-06-20 16:46:38:864,0.0,0.0,0.0
-0.1277814507484436,0.009047363884747028,9.761921882629395,0.002970549436894854,-0.0038101827510560898,-0.0029000914010824694,1.4300127029418945,2019-06-20 16:46:38:868,0.0,0.0,0.0
-0.13017620146274567,-0.024479132145643234,9.759527206420898,-9.283383109216743e-05,-0.003676992187261477,-0.0010354235079578973,1.4350004196166992,2019-06-20 16:46:38:873,0.0,0.0,0.0
-0.09425495564937592,0.09286360442638397,9.824185371398926,-0.001957501813617289,-0.004209754442439926,-0.0019677574545201833,1.4400553703308105,2019-06-20 16:46:38:878,0.0,0.0,0.0
-0.11341295391321182,0.004257864784449339,9.80502700805664,0.001372262411285181,-0.00647399428702266,0.0037594370487224705,1.445892333984375,2019-06-20 16:46:38:884,0.0,0.0,0.0
-0.08946545422077179,0.04257386177778244,9.790658950805664,-0.0016911206860280642,-0.005142088649076538,0.005224533250463206,1.450887680053711,2019-06-20 16:46:38:889,0.0,0.0,0.0
-0.08467595279216766,0.011442113667726517,9.802632331848145,0.0043024550748409765,-0.004742516697618376,-0.0031664725286716937,1.4549908638000488,2019-06-20 16:46:38:893,0.0,0.0,0.0
-0.09664970636367798,0.04975811019539833,9.843342781066895,-0.002889835890216737,-0.003410611059672253,0.0017615784617661236,1.4608793258666992,2019-06-20 16:46:38:899,0.0,0.0,0.0
-0.07270220667123795,0.052152857184410095,9.807421684265137,-0.0023570736350382883,-0.002211895725446417,0.004558580691564469,1.464996337890625,2019-06-20 16:46:38:903,0.0,0.0,0.0
-0.1086234524846077,0.004257864784449339,9.754737854003906,0.0021714059240900176,-0.006607184590742948,0.0056241052019213676,1.4708795547485352,2019-06-20 16:46:38:909,0.0,0.0,0.0
-0.09904444962739944,0.04736335948109627,9.802632331848145,0.0005731190285175073,-0.0052752789527968245,0.00695601083986749,1.474992275238037,2019-06-20 16:46:38:913,0.0,0.0,0.0
-0.1086234524846077,0.02820536121726036,9.771500587463379,0.0005731190285175073,-0.0052752789527968245,-0.0005026612202701574,1.4808921813964844,2019-06-20 16:46:38:919,0.0,0.0,0.0
-0.09425495564937592,0.025810612365603447,9.814606666564941,-0.0007587866744471969,-0.009537376994224418,0.0033598653573386336,1.4850268363952637,2019-06-20 16:46:38:923,0.0,0.0,0.0
-0.10143920034170151,0.037784360349178314,9.814606666564941,-0.00022602440301410239,-0.003144229932083028,-0.0014349951993417342,1.4900245666503906,2019-06-20 16:46:38:928,0.0,0.0,0.0
-0.11101820319890976,0.025810612365603447,9.843342781066895,0.0015054529750797934,-0.003144229932083028,0.003226674793544021,1.4958744049072266,2019-06-20 16:46:38:934,0.0,0.0,0.0
-0.08707070350646973,0.013836863450706005,9.800237655639648,0.0017718342327061804,-0.006074422335564498,0.004558580691564469,1.5000085830688477,2019-06-20 16:46:38:938,0.0,0.0,0.0
-0.08946545422077179,0.025810612365603447,9.809816360473633,0.0012390718474905686,-0.0044761355700291515,0.0024275314107763475,1.5049972534179688,2019-06-20 16:46:38:943,0.0,0.0,0.0
-0.12299194931983948,0.044968608766794205,9.740368843078613,0.004169264511046364,-0.0020787052916889674,-0.0014349951993417342,1.5108842849731445,2019-06-20 16:46:38:949,0.0,0.0,0.0
-0.14454469084739685,0.04736335948109627,9.812211036682129,-0.0014247395584388394,-0.007805899924968783,0.006423248584689041,1.5158748626708984,2019-06-20 16:46:38:954,0.0,0.0,0.0
-0.12299194931983948,0.05694235861301422,9.824185371398926,-0.00448812291582641,-0.002744658240699191,0.0008292445152038374,1.5199999809265137,2019-06-20 16:46:38:958,0.0,0.0,0.0
-0.1277814507484436,0.030600111931562424,9.802632331848145,0.0017718342327061804,-0.005541660080386049,0.003493055921133246,1.5250320434570312,2019-06-20 16:46:38:963,0.0,0.0,0.0
-0.06791270524263382,0.052152857184410095,9.82179069519043,0.0007063095923121196,-0.0015459429064733554,0.00549091437805243,1.5300078392028809,2019-06-20 16:46:38:968,0.0,0.0,0.0
-0.11341295391321182,0.009047363884747028,9.828974723815918,0.0027041680492313038,-0.008338662180147232,0.0029602936659547966,1.536468505859375,2019-06-20 16:46:38:974,0.0,0.0,0.0
-0.11580769717693329,0.004257864784449339,9.800237655639648,-0.0035557887091897987,-0.0040765638786453146,-0.0005026612202701574,1.5415167808532715,2019-06-20 16:46:38:980,0.0,0.0,0.0
-0.12059719860553741,0.023415861651301384,9.812211036682129,-0.0016911206860280642,-0.0032774204958776402,0.0029602936659547966,1.5465307235717773,2019-06-20 16:46:38:985,0.0,0.0,0.0
-0.11820244789123535,0.004257864784449339,9.781079292297363,-0.0006255961106525846,-0.004742516697618376,0.00016329164746684,1.5514874458312988,2019-06-20 16:46:38:990,0.0,0.0,0.0
-0.09425495564937592,0.04736335948109627,9.74276351928711,-0.00022602440301410239,-0.003943373314850702,-0.00010308950450435256,1.5564804077148438,2019-06-20 16:46:38:994,0.0,0.0,0.0
-0.12299194931983948,0.025810612365603447,9.75234317779541,0.00017354732087902514,-0.004875707001338663,0.002693912538365572,1.5614919662475586,2019-06-20 16:46:39:000,0.0,0.0,0.0
-0.10143920034170151,0.04017911106348038,9.790658950805664,0.0027041680492313038,-0.00647399428702266,-0.0021009480183147955,1.5664701461791992,2019-06-20 16:46:39:004,0.0,0.0,0.0
-0.10143920034170151,0.025810612365603447,9.795448303222656,0.0015054529750797934,-0.004342945006234539,0.0008292445152038374,1.571479320526123,2019-06-20 16:46:39:009,0.0,0.0,0.0
-0.1421499401330948,0.013836863450706005,9.797842979431152,0.0024377869216420794,-0.0028778488044938037,-0.0034328539163352434,1.5764751434326172,2019-06-20 16:46:39:014,0.0,0.0,0.0
-0.07749170809984207,-0.010110633447766304,9.776289939880371,0.0008395001561067318,-0.0024782768530356414,0.0014951973341768988,1.5815539360046387,2019-06-20 16:46:39:020,0.0,0.0,0.0
-0.11101820319890976,0.011442113667726517,9.788264274597168,0.0008395001561067318,-0.004742516697618376,0.002027959589355348,1.5864877700805664,2019-06-20 16:46:39:025,0.0,0.0,0.0
-0.058333706110715866,-0.026873880997300148,9.790658950805664,-0.00022602440301410239,-0.0050088978252076,-0.0027669008372878568,1.591489315032959,2019-06-20 16:46:39:030,0.0,0.0,0.0
-0.12538670003414154,0.009047363884747028,9.83376407623291,-0.002223883071243676,-0.007006756542201109,0.0030934842297494092,1.5965461730957031,2019-06-20 16:46:39:035,0.0,0.0,0.0
-0.11820244789123535,0.04257386177778244,9.814606666564941,-0.00022602440301410239,-0.004875707001338663,0.0006960539514092252,1.6015005111694336,2019-06-20 16:46:39:040,0.0,0.0,0.0
-0.1277814507484436,0.006652614567428827,9.82179069519043,-0.0032894075816005744,-0.003410611059672253,0.0017615784617661236,1.606478214263916,2019-06-20 16:46:39:044,0.0,0.0,0.0
-0.09904444962739944,0.009047363884747028,9.817001342773438,0.0016386436689115682,-0.003943373314850702,-0.0019677574545201833,1.611490249633789,2019-06-20 16:46:39:050,0.0,0.0,0.0
-0.11820244789123535,0.04736335948109627,9.881659507751465,-0.0026234547626275127,-0.004209754442439926,-0.006096665452301814,1.6164731979370117,2019-06-20 16:46:39:054,0.0,0.0,0.0
-0.09425495564937592,-0.019689632579684258,9.790658950805664,-0.00035921498306336,-0.004875707001338663,-0.0026337102734932446,1.621488094329834,2019-06-20 16:46:39:060,0.0,0.0,0.0
-0.15172894299030304,0.04017911106348038,9.757132530212402,-9.283383109216743e-05,-0.0020787052916889674,-0.005297521549385491,1.6265692710876465,2019-06-20 16:46:39:065,0.0,0.0,0.0
-0.08707070350646973,0.04736335948109627,9.807421684265137,0.0015054529750797934,-0.003676992187261477,0.0018947690255607357,1.631497859954834,2019-06-20 16:46:39:070,0.0,0.0,0.0
-0.12059719860553741,0.023415861651301384,9.781079292297363,0.00043992846472289506,-0.0038101827510560898,-0.003566044480129856,1.6364789009094238,2019-06-20 16:46:39:074,0.0,0.0,0.0
-0.1277814507484436,0.04257386177778244,9.785869598388672,0.0012390718474905686,-0.0035438016234668654,-0.0010354235079578973,1.6411175727844238,2019-06-20 16:46:39:079,0.0,0.0,0.0
-0.0559389591217041,0.016231613233685493,9.783474922180176,0.0024377869216420794,-0.003410611059672253,-0.0036992350439244686,1.6459007263183594,2019-06-20 16:46:39:084,0.0,0.0,0.0
-0.09904444962739944,-0.019689632579684258,9.788264274597168,0.006033932404170936,-0.004742516697618376,0.0014951973341768988,1.649996280670166,2019-06-20 16:46:39:088,0.0,0.0,0.0
-0.10383395105600357,0.009047363884747028,9.771500587463379,0.0007063095923121196,-0.006074422335564498,-0.0038324256077190803,1.6549949645996094,2019-06-20 16:46:39:093,0.0,0.0,0.0
-0.11580769717693329,0.04017911106348038,9.785869598388672,-0.002223883071243676,-0.003943373314850702,0.0009624350789984497,1.6600022315979004,2019-06-20 16:46:39:098,0.0,0.0,0.0
0.0015350345056504011,-0.029268629848957062,9.766711235046387,-0.0018243112498226766,-0.005541660080386049,-0.00010308950450435256,1.6658859252929688,2019-06-20 16:46:39:104,0.0,0.0,0.0
-0.13017620146274567,0.06891610473394394,9.867290496826172,4.035674489342885e-05,-0.003144229932083028,-0.005164331245665204,1.669990062713623,2019-06-20 16:46:39:108,0.0,0.0,0.0
-0.06551795452833176,0.011442113667726517,9.75234317779541,-0.002889835890216737,-0.00647399428702266,0.002693912538365572,1.6750202178955078,2019-06-20 16:46:39:113,0.0,0.0,0.0
-0.1421499401330948,0.009047363884747028,9.826580047607422,0.00017354732087902514,-0.005142088649076538,0.0025607219745709597,1.6808886528015137,2019-06-20 16:46:39:119,0.0,0.0,0.0
-0.051149457693099976,0.02820536121726036,9.79305362701416,-0.004354932091957473,-0.004875707001338663,-0.0006358518165740604,1.6849889755249023,2019-06-20 16:46:39:123,0.0,0.0,0.0
-0.1876501888036728,0.0018631152343004942,9.766711235046387,-0.001957501813617289,-0.003676992187261477,3.010106944941304e-05,1.6899986267089844,2019-06-20 16:46:39:128,0.0,0.0,0.0
-0.02720196172595024,0.04017911106348038,9.807421684265137,-0.004621313219546697,-0.005408469776665762,-0.002234138582109408,1.6949982643127441,2019-06-20 16:46:39:133,0.0,0.0,0.0
-0.15172894299030304,-0.005321133881807327,9.845738410949707,-0.003156217017805962,-0.003011039368288416,-0.004365187862897529,1.6999945640563965,2019-06-20 16:46:39:138,0.0,0.0,0.0
-0.022412462159991264,0.02102111279964447,9.766711235046387,0.0011058812836959564,-0.003676992187261477,-0.004764759294207041,1.70501708984375,2019-06-20 16:46:39:143,0.0,0.0,0.0
-0.12059719860553741,0.009047363884747028,9.802632331848145,-0.001957501813617289,-0.0012795617788841308,-0.0010354235079578973,1.710890769958496,2019-06-20 16:46:39:149,0.0,0.0,0.0
-0.06072845682501793,0.04736335948109627,9.802632331848145,-0.002756645326422125,-0.007539518797379559,-0.0029000914010824694,1.7149848937988281,2019-06-20 16:46:39:153,0.0,0.0,0.0
-0.11101820319890976,0.004257864784449339,9.82179069519043,-0.0012915489946442272,-0.005142088649076538,-0.00010308950450435256,1.720015525817871,2019-06-20 16:46:39:158,0.0,0.0,0.0
-0.07749170809984207,0.04975811019539833,9.785869598388672,-0.002889835890216737,-0.005142088649076538,0.0022943408469817354,1.725912094116211,2019-06-20 16:46:39:164,0.0,0.0,0.0
-0.11820244789123535,0.04257386177778244,9.824185371398926,-0.0024902641988329005,-0.0023450862892410293,0.0012288162065876742,1.7299938201904297,2019-06-20 16:46:39:168,0.0,0.0,0.0
-0.10383395105600357,0.030600111931562424,9.802632331848145,0.0003067379009282828,-0.00647399428702266,-0.0005026612202701574,1.7349896430969238,2019-06-20 16:46:39:173,0.0,0.0,0.0
-0.08946545422077179,0.04975811019539833,9.831369400024414,-0.0012915489946442272,-0.0028778488044938037,0.0017615784617661236,1.7399992942810059,2019-06-20 16:46:39:178,0.0,0.0,0.0
-0.09186020493507385,-0.0005316344322636724,9.781079292297363,0.0025709774854366916,-0.006207613159433436,-0.001834566890725571,1.7458887100219727,2019-06-20 16:46:39:184,0.0,0.0,0.0
-0.10383395105600357,0.011442113667726517,9.754737854003906,0.0015054529750797934,-0.0032774204958776402,0.004824961819153694,1.7500152587890625,2019-06-20 16:46:39:188,0.0,0.0,0.0
-0.13257095217704773,0.052152857184410095,9.80502700805664,0.004568835942355876,-0.004609325873749438,-0.0026337102734932446,1.7559022903442383,2019-06-20 16:46:39:194,0.0,0.0,0.0
-0.12059719860553741,0.04736335948109627,9.800237655639648,-9.283383109216743e-05,-0.002744658240699191,-0.0029000914010824694,1.759993553161621,2019-06-20 16:46:39:198,0.0,0.0,0.0
-0.15651844441890717,0.04017911106348038,9.819396018981934,0.001372262411285181,-0.0032774204958776402,0.003226674793544021,1.765974521636963,2019-06-20 16:46:39:204,0.0,0.0,0.0
-0.09664970636367798,0.018626363947987556,9.800237655639648,-0.00422174152816286,-0.007406327973510622,-0.0007690423803686727,1.7700080871582031,2019-06-20 16:46:39:208,0.0,0.0,0.0
-0.19483444094657898,0.05454760789871216,9.790658950805664,0.00043992846472289506,-0.006607184590742948,-0.0025005197096986324,1.7749919891357422,2019-06-20 16:46:39:213,0.0,0.0,0.0
-0.09904444962739944,0.013836863450706005,9.788264274597168,0.003103740000689466,-0.0035438016234668654,-0.00010308950450435256,1.7800006866455078,2019-06-20 16:46:39:218,0.0,0.0,0.0
-0.11580769717693329,-0.005321133881807327,9.817001342773438,0.0039028833834571395,-0.0035438016234668654,3.010106944941304e-05,1.784998893737793,2019-06-20 16:46:39:223,0.0,0.0,0.0
-0.07988645136356354,0.025810612365603447,9.817001342773438,0.0024377869216420794,-0.007006756542201109,0.0008292445152038374,1.7899975776672363,2019-06-20 16:46:39:228,0.0,0.0,0.0
-0.09186020493507385,0.06412661075592041,9.845738410949707,-0.00035921498306336,-0.0015459429064733554,-0.0021009480183147955,1.794992446899414,2019-06-20 16:46:39:233,0.0,0.0,0.0
-0.10143920034170151,-0.005321133881807327,9.807421684265137,-0.0035557887091897987,-0.0011463712150895187,-0.0015681857631363464,1.8009109497070312,2019-06-20 16:46:39:239,0.0,0.0,0.0
-0.08467595279216766,0.037784360349178314,9.776289939880371,0.0025709774854366916,-0.0014127523426787432,0.001628387897971511,1.8049983978271484,2019-06-20 16:46:39:243,0.0,0.0,0.0
-0.1277814507484436,0.030600111931562424,9.785869598388672,-0.0023570736350382883,-0.006340803463153723,0.001628387897971511,1.80999755859375,2019-06-20 16:46:39:248,0.0,0.0,0.0
-0.07749170809984207,0.04975811019539833,9.754737854003906,-0.002756645326422125,-0.006207613159433436,3.010106944941304e-05,1.8159184455871582,2019-06-20 16:46:39:254,0.0,0.0,0.0
-0.1349657028913498,0.02820536121726036,9.812211036682129,-0.0010251678020364214,-0.008205471356278294,-0.002234138582109408,1.8199949264526367,2019-06-20 16:46:39:258,0.0,0.0,0.0
-0.1086234524846077,0.018626363947987556,9.776289939880371,0.0009726907199013442,-0.003943373314850702,0.0022943408469817354,1.8259010314941406,2019-06-20 16:46:39:264,0.0,0.0,0.0
-0.1349657028913498,0.06412661075592041,9.817001342773438,-0.0018243112498226766,-0.0023450862892410293,0.0033598653573386336,1.8308849334716797,2019-06-20 16:46:39:269,0.0,0.0,0.0
-0.13257095217704773,-0.010110633447766304,9.80502700805664,0.0024377869216420794,5.234389563494396e-05,-0.0010354235079578973,1.8349943161010742,2019-06-20 16:46:39:273,0.0,0.0,0.0
-0.11341295391321182,-0.017294881865382195,9.754737854003906,-9.283383109216743e-05,-0.0018123241640997428,-0.000902232944163285,1.8399953842163086,2019-06-20 16:46:39:278,0.0,0.0,0.0
-0.12538670003414154,0.04736335948109627,9.773895263671875,-0.002756645326422125,-0.0028778488044938037,-0.0011686140717525096,1.8459177017211914,2019-06-20 16:46:39:284,0.0,0.0,0.0
-0.13017620146274567,0.04736335948109627,9.845738410949707,0.0017718342327061804,-0.0026114674168302536,-0.00036947065647554515,1.8500151634216309,2019-06-20 16:46:39:288,0.0,0.0,0.0
-0.09425495564937592,0.04975811019539833,9.848133087158203,-0.003822169836779023,-0.005408469776665762,-0.0031664725286716937,1.854996681213379,2019-06-20 16:46:39:293,0.0,0.0,0.0
-0.08946545422077179,-0.002926384098827839,9.83376407623291,0.0003067379009282828,-0.003144229932083028,-0.001834566890725571,1.8600950241088867,2019-06-20 16:46:39:298,0.0,0.0,0.0
-0.12059719860553741,0.023415861651301384,9.826580047607422,-0.001557930122233452,-0.006207613159433436,-0.0011686140717525096,1.8658933639526367,2019-06-20 16:46:39:304,0.0,0.0,0.0
-0.11820244789123535,0.030600111931562424,9.848133087158203,-0.0014247395584388394,-0.0024782768530356414,0.0006960539514092252,1.8699946403503418,2019-06-20 16:46:39:308,0.0,0.0,0.0
-0.1086234524846077,0.009047363884747028,9.814606666564941,0.0016386436689115682,-0.004742516697618376,0.006290057760820104,1.8749947547912598,2019-06-20 16:46:39:313,0.0,0.0,0.0
-0.08467595279216766,0.02102111279964447,9.8505277633667,0.0008395001561067318,-0.0032774204958776402,-0.003566044480129856,1.8799982070922852,2019-06-20 16:46:39:318,0.0,0.0,0.0
-0.09425495564937592,0.04017911106348038,9.781079292297363,0.006300313531760161,-0.0032774204958776402,0.0014951973341768988,1.8849987983703613,2019-06-20 16:46:39:323,0.0,0.0,0.0
-0.11820244789123535,0.023415861651301384,9.721211433410645,0.00043992846472289506,-0.0038101827510560898,-0.0025005197096986324,1.8911080360412598,2019-06-20 16:46:39:329,0.0,0.0,0.0
-0.13257095217704773,0.0018631152343004942,9.802632331848145,0.0019050247965007928,-0.0020787052916889674,0.002027959589355348,1.8950142860412598,2019-06-20 16:46:39:333,0.0,0.0,0.0
-0.11820244789123535,0.02102111279964447,9.797842979431152,-0.0018243112498226766,-0.004742516697618376,0.0008292445152038374,1.9008851051330566,2019-06-20 16:46:39:339,0.0,0.0,0.0
-0.0822812020778656,0.03299486264586449,9.814606666564941,-0.0007587866744471969,-0.0044761355700291515,0.001095625642793062,1.9049911499023438,2019-06-20 16:46:39:343,0.0,0.0,0.0
-0.10622870177030563,0.03299486264586449,9.831369400024414,0.0011058812836959564,-0.007539518797379559,0.0005628633876146128,1.910904884338379,2019-06-20 16:46:39:349,0.0,0.0,0.0
-0.09186020493507385,0.0018631152343004942,9.819396018981934,-0.001557930122233452,-0.0023450862892410293,-0.0011686140717525096,1.9149909019470215,2019-06-20 16:46:39:353,0.0,0.0,0.0
-0.10383395105600357,0.018626363947987556,9.831369400024414,0.005501170148992487,-0.009670568338242006,3.010106944941304e-05,1.9200029373168945,2019-06-20 16:46:39:358,0.0,0.0,0.0
-0.09425495564937592,0.02820536121726036,9.781079292297363,0.0024377869216420794,-0.0032774204958776402,-0.005164331245665204,1.9249982833862305,2019-06-20 16:46:39:363,0.0,0.0,0.0
-0.1421499401330948,0.05454760789871216,9.754737854003906,0.0011058812836959564,-0.0040765638786453146,0.002693912538365572,1.9308834075927734,2019-06-20 16:46:39:369,0.0,0.0,0.0
-0.09904444962739944,0.023415861651301384,9.809816360473633,0.003370121128278691,-0.0015459429064733554,0.0024275314107763475,1.9349889755249023,2019-06-20 16:46:39:373,0.0,0.0,0.0
-0.09425495564937592,0.044968608766794205,9.83376407623291,0.0011058812836959564,-0.002211895725446417,0.0009624350789984497,1.9400053024291992,2019-06-20 16:46:39:378,0.0,0.0,0.0
-0.1086234524846077,0.025810612365603447,9.809816360473633,-0.0008919772382418092,-0.0028778488044938037,-0.0013018046355471218,1.945901870727539,2019-06-20 16:46:39:384,0.0,0.0,0.0
-0.07988645136356354,0.02820536121726036,9.781079292297363,-0.003156217017805962,-0.003943373314850702,0.00042967279131070986,1.9499931335449219,2019-06-20 16:46:39:388,0.0,0.0,0.0
-0.1086234524846077,0.037784360349178314,9.783474922180176,-0.0010251678020364214,-0.005541660080386049,0.0005628633876146128,1.9550037384033203,2019-06-20 16:46:39:393,0.0,0.0,0.0
-0.11341295391321182,0.004257864784449339,9.781079292297363,-0.0014247395584388394,-0.0020787052916889674,0.0018947690255607357,1.9608879089355469,2019-06-20 16:46:39:399,0.0,0.0,0.0
-0.10622870177030563,0.013836863450706005,9.759527206420898,0.003103740000689466,-0.001945514727894355,-0.0029000914010824694,1.9649887084960938,2019-06-20 16:46:39:403,0.0,0.0,0.0
-0.13257095217704773,0.02820536121726036,9.812211036682129,0.00043992846472289506,-0.003676992187261477,0.00016329164746684,1.9699983596801758,2019-06-20 16:46:39:408,0.0,0.0,0.0
-0.1277814507484436,0.013836863450706005,9.757132530212402,0.0024377869216420794,-0.009537376994224418,-0.0005026612202701574,1.9749994277954102,2019-06-20 16:46:39:413,0.0,0.0,0.0
-0.11341295391321182,0.016231613233685493,9.807421684265137,-0.001158358430849615,-0.004742516697618376,0.0014951973341768988,1.980879783630371,2019-06-20 16:46:39:419,0.0,0.0,0.0
-0.09425495564937592,0.009047363884747028,9.872079849243164,-0.0007587866744471969,-0.004609325873749438,-0.0026337102734932446,1.9849853515625,2019-06-20 16:46:39:423,0.0,0.0,0.0
-0.10383395105600357,0.004257864784449339,9.800237655639648,-0.0018243112498226766,-0.003011039368288416,-0.0006358518165740604,1.989999771118164,2019-06-20 16:46:39:428,0.0,0.0,0.0
-0.08707070350646973,0.04257386177778244,9.831369400024414,0.0007063095923121196,-0.0012795617788841308,0.0012288162065876742,1.9958868026733398,2019-06-20 16:46:39:434,0.0,0.0,0.0
-0.11341295391321182,0.03299486264586449,9.718815803527832,0.0020382153602954054,-0.003676992187261477,-0.002234138582109408,2.000120162963867,2019-06-20 16:46:39:438,0.0,0.0,0.0
-0.13257095217704773,0.04017911106348038,9.795448303222656,0.0007063095923121196,-0.005941232031844212,0.0012288162065876742,2.005904197692871,2019-06-20 16:46:39:444,0.0,0.0,0.0
-0.11101820319890976,0.023415861651301384,9.824185371398926,0.0012390718474905686,-0.000879990087500294,-0.0026337102734932446,2.0099945068359375,2019-06-20 16:46:39:448,0.0,0.0,0.0
-0.07270220667123795,0.03538960963487625,9.790658950805664,-0.001158358430849615,-0.0035438016234668654,0.0024275314107763475,2.0158796310424805,2019-06-20 16:46:39:454,0.0,0.0,0.0
-0.15172894299030304,0.05694235861301422,9.776289939880371,-0.0018243112498226766,-0.00647399428702266,3.010106944941304e-05,2.0199928283691406,2019-06-20 16:46:39:458,0.0,0.0,0.0
-0.11341295391321182,0.018626363947987556,9.781079292297363,-0.001158358430849615,-0.0010131806512949063,-0.007295380266379,2.025913715362549,2019-06-20 16:46:39:464,0.0,0.0,0.0
-0.11341295391321182,0.044968608766794205,9.817001342773438,0.003636502255867915,-0.005674850904254987,-0.004498378166617817,2.0308799743652344,2019-06-20 16:46:39:469,0.0,0.0,0.0
-0.12538670003414154,0.09525835514068604,9.771500587463379,-0.00035921498306336,-0.00793909022868907,-0.00010308950450435256,2.034986972808838,2019-06-20 16:46:39:473,0.0,0.0,0.0
-0.07988645136356354,-0.0005316344322636724,9.79305362701416,0.0021714059240900176,-0.0044761355700291515,-0.0010354235079578973,2.04000186920166,2019-06-20 16:46:39:478,0.0,0.0,0.0
-0.09186020493507385,0.044968608766794205,9.82179069519043,0.0037696928196625274,-0.003410611059672253,-0.003566044480129856,2.044999122619629,2019-06-20 16:46:39:483,0.0,0.0,0.0
-0.10622870177030563,0.06652135401964188,9.759527206420898,-0.002756645326422125,-0.0020787052916889674,0.001628387897971511,2.0509300231933594,2019-06-20 16:46:39:489,0.0,0.0,0.0
-0.08946545422077179,-0.007715883664786816,9.800237655639648,0.0016386436689115682,-0.005541660080386049,0.0028271031021601845,2.054999351501465,2019-06-20 16:46:39:493,0.0,0.0,0.0
-0.11580769717693329,0.03538960963487625,9.80502700805664,-0.0026234547626275127,-0.007139946845921397,-0.001834566890725571,2.060882568359375,2019-06-20 16:46:39:499,0.0,0.0,0.0
-0.10383395105600357,0.023415861651301384,9.788264274597168,-0.0012915489946442272,-0.003943373314850702,3.010106944941304e-05,2.0649890899658203,2019-06-20 16:46:39:503,0.0,0.0,0.0
-0.1541236937046051,0.006652614567428827,9.817001342773438,-0.001158358430849615,-0.0038101827510560898,0.004025818176311695,2.0700011253356934,2019-06-20 16:46:39:508,0.0,0.0,0.0
-0.1277814507484436,0.03538960963487625,9.776289939880371,0.0007063095923121196,-0.003144229932083028,0.0009624350789984497,2.0749988555908203,2019-06-20 16:46:39:513,0.0,0.0,0.0
-0.13975520431995392,0.06173185631632805,9.797842979431152,-9.283383109216743e-05,-0.007139946845921397,-0.002234138582109408,2.079996109008789,2019-06-20 16:46:39:518,0.0,0.0,0.0
-0.11341295391321182,0.04736335948109627,9.826580047607422,-0.00035921498306336,-0.0032774204958776402,-0.0031664725286716937,2.084994316101074,2019-06-20 16:46:39:523,0.0,0.0,0.0
-0.14933419227600098,0.013836863450706005,9.757132530212402,-0.001158358430849615,-0.0010131806512949063,-0.00036947065647554515,2.0900039672851562,2019-06-20 16:46:39:528,0.0,0.0,0.0
-0.08946545422077179,0.025810612365603447,9.828974723815918,0.0017718342327061804,-0.0023450862892410293,0.0012288162065876742,2.0958948135375977,2019-06-20 16:46:39:534,0.0,0.0,0.0
-0.08467595279216766,0.04257386177778244,9.795448303222656,-0.0012915489946442272,-0.0024782768530356414,-0.0006358518165740604,2.100001335144043,2019-06-20 16:46:39:538,0.0,0.0,0.0
-0.08707070350646973,0.03299486264586449,9.898422241210938,0.0032369305644840782,-0.004609325873749438,-0.001834566890725571,2.104994773864746,2019-06-20 16:46:39:543,0.0,0.0,0.0
-0.11341295391321182,0.052152857184410095,9.8505277633667,-0.005420456602314371,-0.0044761355700291515,-0.00023628007642628753,2.109999656677246,2019-06-20 16:46:39:548,0.0,0.0,0.0
-0.10143920034170151,0.04017911106348038,9.814606666564941,-0.0014247395584388394,-0.002211895725446417,-0.000902232944163285,2.1149983406066895,2019-06-20 16:46:39:553,0.0,0.0,0.0
-0.12059719860553741,0.016231613233685493,9.824185371398926,0.0024377869216420794,-0.0024782768530356414,-0.00023628007642628753,2.1199960708618164,2019-06-20 16:46:39:558,0.0,0.0,0.0
-0.10143920034170151,0.02102111279964447,9.840948104858398,-0.0018243112498226766,-0.007006756542201109,0.0005628633876146128,2.1249914169311523,2019-06-20 16:46:39:563,0.0,0.0,0.0
-0.12538670003414154,0.05694235861301422,9.757132530212402,0.00043992846472289506,-0.003011039368288416,-0.004764759294207041,2.1300058364868164,2019-06-20 16:46:39:568,0.0,0.0,0.0
-0.09186020493507385,0.030600111931562424,9.788264274597168,0.0023045963578474673,-0.005142088649076538,-0.0007690423803686727,2.135885715484619,2019-06-20 16:46:39:574,0.0,0.0,0.0
-0.1421499401330948,0.018626363947987556,9.766711235046387,0.0021714059240900176,-0.005941232031844212,-0.0007690423803686727,2.139997959136963,2019-06-20 16:46:39:578,0.0,0.0,0.0
-0.10143920034170151,0.03538960963487625,9.831369400024414,-0.002090692377411901,-0.004609325873749438,-0.0063630465798910395,2.1459059715270996,2019-06-20 16:46:39:584,0.0,0.0,0.0
-0.07988645136356354,-0.0005316344322636724,9.80502700805664,4.035674489342885e-05,-0.0038101827510560898,3.010106944941304e-05,2.1499948501586914,2019-06-20 16:46:39:588,0.0,0.0,0.0
-0.09904444962739944,0.04257386177778244,9.795448303222656,-0.002223883071243676,-0.0024782768530356414,-0.0025005197096986324,2.154994010925293,2019-06-20 16:46:39:593,0.0,0.0,0.0
-0.1349657028913498,0.03299486264586449,9.783474922180176,0.00017354732087902514,-0.0050088978252076,-0.0005026612202701574,2.1599998474121094,2019-06-20 16:46:39:598,0.0,0.0,0.0
-0.10383395105600357,0.06173185631632805,9.860106468200684,0.0008395001561067318,-0.0032774204958776402,-0.0021009480183147955,2.1649975776672363,2019-06-20 16:46:39:603,0.0,0.0,0.0
-0.15651844441890717,0.05454760789871216,9.857711791992188,-0.0030230264540113496,-0.005941232031844212,-0.0014349951993417342,2.170884132385254,2019-06-20 16:46:39:609,0.0,0.0,0.0
-0.12299194931983948,0.011442113667726517,9.809816360473633,0.0027041680492313038,-0.0050088978252076,-0.0019677574545201833,2.174990653991699,2019-06-20 16:46:39:613,0.0,0.0,0.0
-0.10383395105600357,0.018626363947987556,9.809816360473633,0.0015054529750797934,-0.005941232031844212,0.00042967279131070986,2.1800031661987305,2019-06-20 16:46:39:618,0.0,0.0,0.0
-0.10622870177030563,0.04975811019539833,9.819396018981934,-0.0007587866744471969,-0.004875707001338663,-0.0007690423803686727,2.1849966049194336,2019-06-20 16:46:39:623,0.0,0.0,0.0
-0.08467595279216766,0.05454760789871216,9.80502700805664,0.0012390718474905686,-0.00021403725227258724,-0.0019677574545201833,2.190913200378418,2019-06-20 16:46:39:629,0.0,0.0,0.0
-0.08707070350646973,0.02102111279964447,9.781079292297363,0.0024377869216420794,-0.004609325873749438,-0.003566044480129856,2.195894718170166,2019-06-20 16:46:39:634,0.0,0.0,0.0
-0.09186020493507385,0.044968608766794205,9.757132530212402,0.0015054529750797934,-0.0004804183961164572,0.0028271031021601845,2.1999940872192383,2019-06-20 16:46:39:638,0.0,0.0,0.0
-0.11101820319890976,0.04975811019539833,9.795448303222656,0.0012390718474905686,-0.0050088978252076,-0.0015681857631363464,2.2049922943115234,2019-06-20 16:46:39:643,0.0,0.0,0.0
-0.09186020493507385,-0.0005316344322636724,9.783474922180176,0.007099456914527835,-0.0067403754146118855,0.0008292445152038374,2.210879325866699,2019-06-20 16:46:39:649,0.0,0.0,0.0
-0.08707070350646973,0.037784360349178314,9.802632331848145,-0.00035921498306336,-0.003144229932083028,0.0005628633876146128,2.2149877548217773,2019-06-20 16:46:39:653,0.0,0.0,0.0
-0.11820244789123535,-0.01490013301372528,9.761921882629395,-0.0012915489946442272,0.0009846778706428594,-0.0006358518165740604,2.2199954986572266,2019-06-20 16:46:39:658,0.0,0.0,0.0
-0.1086234524846077,-0.017294881865382195,9.761921882629395,0.0032369305644840782,-0.003943373314850702,0.0017615784617661236,2.224991798400879,2019-06-20 16:46:39:663,0.0,0.0,0.0
-0.11820244789123535,0.02102111279964447,9.783474922180176,0.0015054529750797934,-0.0040765638786453146,-0.000902232944163285,2.2300028800964355,2019-06-20 16:46:39:668,0.0,0.0,0.0
-0.08946545422077179,0.044968608766794205,9.840948104858398,-0.0035557887091897987,-0.0014127523426787432,0.0017615784617661236,2.235030174255371,2019-06-20 16:46:39:673,0.0,0.0,0.0
-0.08467595279216766,0.0018631152343004942,9.83376407623291,0.0019050247965007928,-0.0024782768530356414,0.003626246484927858,2.2409000396728516,2019-06-20 16:46:39:679,0.0,0.0,0.0
-0.10622870177030563,0.025810612365603447,9.788264274597168,-0.0018243112498226766,-0.00793909022868907,-0.0007690423803686727,2.2449851036071777,2019-06-20 16:46:39:683,0.0,0.0,0.0
-0.12299194931983948,0.011442113667726517,9.771500587463379,0.001372262411285181,-0.007539518797379559,0.001628387897971511,2.2499990463256836,2019-06-20 16:46:39:688,0.0,0.0,0.0
-0.12299194931983948,0.013836863450706005,9.785869598388672,0.0021714059240900176,-0.003410611059672253,-0.0010354235079578973,2.2549991607666016,2019-06-20 16:46:39:693,0.0,0.0,0.0
-0.12538670003414154,0.0018631152343004942,9.845738410949707,-0.00022602440301410239,-0.0052752789527968245,-0.00010308950450435256,2.259998321533203,2019-06-20 16:46:39:698,0.0,0.0,0.0
-0.10143920034170151,0.02102111279964447,9.766711235046387,0.0007063095923121196,-0.003410611059672253,-0.001834566890725571,2.265876293182373,2019-06-20 16:46:39:704,0.0,0.0,0.0
-0.1421499401330948,-0.0005316344322636724,9.83376407623291,0.0017718342327061804,-0.005142088649076538,-0.00023628007642628753,2.2699995040893555,2019-06-20 16:46:39:708,0.0,0.0,0.0
-0.12538670003414154,0.04257386177778244,9.82179069519043,-0.0007587866744471969,-0.0032774204958776402,0.002693912538365572,2.274996280670166,2019-06-20 16:46:39:713,0.0,0.0,0.0
-0.11820244789123535,0.04017911106348038,9.737974166870117,0.0019050247965007928,-0.003676992187261477,0.0013620067703822866,2.2800045013427734,2019-06-20 16:46:39:718,0.0,0.0,0.0
-0.08467595279216766,0.04736335948109627,9.812211036682129,-0.0006255961106525846,-0.0020787052916889674,0.0005628633876146128,2.285914421081543,2019-06-20 16:46:39:724,0.0,0.0,0.0
-0.11101820319890976,-0.019689632579684258,9.783474922180176,0.002970549436894854,-0.001945514727894355,0.0018947690255607357,2.290884494781494,2019-06-20 16:46:39:729,0.0,0.0,0.0
-0.10383395105600357,0.025810612365603447,9.80502700805664,-0.002223883071243676,-0.005408469776665762,0.0013620067703822866,2.294984817504883,2019-06-20 16:46:39:733,0.0,0.0,0.0
-0.10383395105600357,-0.017294881865382195,9.773895263671875,0.00043992846472289506,-0.0024782768530356414,0.001628387897971511,2.299999237060547,2019-06-20 16:46:39:738,0.0,0.0,0.0
-0.07749170809984207,0.004257864784449339,9.814606666564941,0.0027041680492313038,-0.003144229932083028,-0.002234138582109408,2.3049964904785156,2019-06-20 16:46:39:743,0.0,0.0,0.0
-0.10383395105600357,0.03538960963487625,9.754737854003906,0.0048352170699451,-0.005408469776665762,0.0006960539514092252,2.309997081756592,2019-06-20 16:46:39:748,0.0,0.0,0.0
-0.1086234524846077,-0.0005316344322636724,9.747552871704102,-0.001557930122233452,-0.00647399428702266,0.0038926276125170823,2.314992904663086,2019-06-20 16:46:39:753,0.0,0.0,0.0
-0.09186020493507385,0.004257864784449339,9.795448303222656,0.0035033116920733026,-0.0028778488044938037,0.0022943408469817354,2.320887565612793,2019-06-20 16:46:39:759,0.0,0.0,0.0
-0.11101820319890976,0.011442113667726517,9.773895263671875,0.0005731190285175073,-0.0028778488044938037,0.00042967279131070986,2.3249969482421875,2019-06-20 16:46:39:763,0.0,0.0,0.0
-0.13017620146274567,0.05694235861301422,9.826580047607422,-0.00022602440301410239,-0.000879990087500294,-0.00023628007642628753,2.3309097290039062,2019-06-20 16:46:39:769,0.0,0.0,0.0
-0.06791270524263382,0.018626363947987556,9.800237655639648,4.035674489342885e-05,-0.0011463712150895187,-0.002234138582109408,2.3350067138671875,2019-06-20 16:46:39:773,0.0,0.0,0.0
-0.13257095217704773,0.016231613233685493,9.781079292297363,0.0019050247965007928,-0.006074422335564498,-0.0034328539163352434,2.340883255004883,2019-06-20 16:46:39:779,0.0,0.0,0.0
-0.09186020493507385,0.011442113667726517,9.75234317779541,-0.0023570736350382883,-0.0032774204958776402,0.004025818176311695,2.3449878692626953,2019-06-20 16:46:39:783,0.0,0.0,0.0
-0.11580769717693329,0.06891610473394394,9.771500587463379,0.0017718342327061804,-0.006340803463153723,-0.0017013763269309588,2.34999942779541,2019-06-20 16:46:39:788,0.0,0.0,0.0
-0.09904444962739944,0.03538960963487625,9.836158752441406,4.035674489342885e-05,-0.005941232031844212,-0.000902232944163285,2.3558855056762695,2019-06-20 16:46:39:794,0.0,0.0,0.0
-0.08946545422077179,-0.012505383230745792,9.807421684265137,0.0012390718474905686,-0.006340803463153723,-0.000902232944163285,2.359989643096924,2019-06-20 16:46:39:798,0.0,0.0,0.0
-0.12538670003414154,0.05694235861301422,9.8505277633667,-0.00022602440301410239,-0.008072281052558009,0.0013620067703822866,2.364993095397949,2019-06-20 16:46:39:803,0.0,0.0,0.0
-0.07030745595693588,0.05454760789871216,9.769105911254883,-0.00035921498306336,-0.0052752789527968245,-0.0011686140717525096,2.3700027465820312,2019-06-20 16:46:39:808,0.0,0.0,0.0
-0.11101820319890976,0.018626363947987556,9.79305362701416,-0.0014247395584388394,-0.00847185248386752,0.001095625642793062,2.3759169578552246,2019-06-20 16:46:39:814,0.0,0.0,0.0
-0.15651844441890717,-0.002926384098827839,9.781079292297363,0.0011058812836959564,-0.004742516697618376,0.0013620067703822866,2.3809022903442383,2019-06-20 16:46:39:819,0.0,0.0,0.0
-0.11341295391321182,0.030600111931562424,9.843342781066895,0.0016386436689115682,-0.005408469776665762,-0.0017013763269309588,2.3849878311157227,2019-06-20 16:46:39:823,0.0,0.0,0.0
-0.1421499401330948,0.02820536121726036,9.730790138244629,4.035674489342885e-05,-0.005941232031844212,-0.0021009480183147955,2.389998435974121,2019-06-20 16:46:39:828,0.0,0.0,0.0
-0.10383395105600357,0.011442113667726517,9.82179069519043,-0.0004924055468579722,-0.004875707001338663,0.0013620067703822866,2.395000457763672,2019-06-20 16:46:39:833,0.0,0.0,0.0
-0.09904444962739944,0.02820536121726036,9.785869598388672,0.0017718342327061804,-0.0026114674168302536,-0.0031664725286716937,2.4008798599243164,2019-06-20 16:46:39:839,0.0,0.0,0.0
-0.11341295391321182,0.03538960963487625,9.809816360473633,0.0028373588731002413,-0.0044761355700291515,0.0008292445152038374,2.404984474182129,2019-06-20 16:46:39:843,0.0,0.0,0.0
-0.1469394415616989,0.03299486264586449,9.867290496826172,0.001372262411285181,-0.0015459429064733554,0.001095625642793062,2.410891532897949,2019-06-20 16:46:39:849,0.0,0.0,0.0
-0.09186020493507385,-0.005321133881807327,9.826580047607422,-0.001158358430849615,-0.0040765638786453146,0.0013620067703822866,2.41499662399292,2019-06-20 16:46:39:853,0.0,0.0,0.0
-0.11820244789123535,0.009047363884747028,9.915185928344727,0.0009726907199013442,-0.0018123241640997428,0.003626246484927858,2.4200029373168945,2019-06-20 16:46:39:858,0.0,0.0,0.0
-0.1541236937046051,0.03299486264586449,9.771500587463379,0.0003067379009282828,-0.005674850904254987,0.0002964822275160976,2.4259772300720215,2019-06-20 16:46:39:864,0.0,0.0,0.0
-0.1421499401330948,0.011442113667726517,9.781079292297363,-0.0035557887091897987,0.00018553447162054023,0.00549091437805243,2.4308857917785645,2019-06-20 16:46:39:869,0.0,0.0,0.0
-0.10143920034170151,0.023415861651301384,9.826580047607422,-0.001957501813617289,-0.006207613159433436,-0.00010308950450435256,2.434988021850586,2019-06-20 16:46:39:873,0.0,0.0,0.0
-0.11580769717693329,0.025810612365603447,9.795448303222656,0.0005731190285175073,-0.004209754442439926,0.0033598653573386336,2.44000244140625,2019-06-20 16:46:39:878,0.0,0.0,0.0
-0.10143920034170151,0.004257864784449339,9.819396018981934,0.00043992846472289506,-0.005808041207975274,-0.0027669008372878568,2.4459266662597656,2019-06-20 16:46:39:884,0.0,0.0,0.0
-0.11820244789123535,0.023415861651301384,9.800237655639648,0.0008395001561067318,-0.007006756542201109,3.010106944941304e-05,2.4499988555908203,2019-06-20 16:46:39:888,0.0,0.0,0.0
-0.13257095217704773,0.013836863450706005,9.802632331848145,-0.0016911206860280642,-0.004209754442439926,-0.0026337102734932446,2.454996109008789,2019-06-20 16:46:39:893,0.0,0.0,0.0
-0.09425495564937592,0.03299486264586449,9.773895263671875,0.0003067379009282828,-0.003144229932083028,0.0024275314107763475,2.4599947929382324,2019-06-20 16:46:39:898,0.0,0.0,0.0
-0.08946545422077179,0.018626363947987556,9.838553428649902,0.0025709774854366916,-0.005541660080386049,0.001628387897971511,2.464991569519043,2019-06-20 16:46:39:903,0.0,0.0,0.0
-0.09425495564937592,0.025810612365603447,9.771500587463379,0.0017718342327061804,-0.005142088649076538,0.0014951973341768988,2.4700212478637695,2019-06-20 16:46:39:908,0.0,0.0,0.0
-0.08467595279216766,0.018626363947987556,9.82179069519043,0.0012390718474905686,-0.0035438016234668654,-0.004764759294207041,2.4759020805358887,2019-06-20 16:46:39:914,0.0,0.0,0.0
-0.11580769717693329,0.011442113667726517,9.819396018981934,0.0024377869216420794,-0.006340803463153723,0.0037594370487224705,2.4808826446533203,2019-06-20 16:46:39:919,0.0,0.0,0.0
-0.1277814507484436,0.03538960963487625,9.817001342773438,-0.0023570736350382883,-0.0007467995237056817,-0.0030332819648770815,2.4849891662597656,2019-06-20 16:46:39:923,0.0,0.0,0.0
-0.1277814507484436,-0.0005316344322636724,9.807421684265137,0.0032369305644840782,-0.0023450862892410293,0.002027959589355348,2.4899988174438477,2019-06-20 16:46:39:928,0.0,0.0,0.0
-0.1349657028913498,0.02820536121726036,9.809816360473633,0.00043992846472289506,-0.008605043307736458,0.0008292445152038374,2.4949960708618164,2019-06-20 16:46:39:933,0.0,0.0,0.0
-0.09904444962739944,-0.005321133881807327,9.809816360473633,0.0008395001561067318,-0.004609325873749438,-0.0025005197096986324,2.500880718231201,2019-06-20 16:46:39:939,0.0,0.0,0.0
-0.12538670003414154,0.05694235861301422,9.807421684265137,-0.001557930122233452,-0.002744658240699191,-0.0019677574545201833,2.5049877166748047,2019-06-20 16:46:39:943,0.0,0.0,0.0
-0.11341295391321182,0.023415861651301384,9.89123821258545,0.002970549436894854,-0.0018123241640997428,0.0025607219745709597,2.510003089904785,2019-06-20 16:46:39:948,0.0,0.0,0.0
-0.11580769717693329,-0.005321133881807327,9.80502700805664,-0.001158358430849615,-0.004742516697618376,0.0006960539514092252,2.5149993896484375,2019-06-20 16:46:39:953,0.0,0.0,0.0
-0.10383395105600357,0.009047363884747028,9.733184814453125,-0.001557930122233452,-0.0018123241640997428,-0.0030332819648770815,2.5209121704101562,2019-06-20 16:46:39:959,0.0,0.0,0.0
-0.08467595279216766,0.030600111931562424,9.797842979431152,0.00043992846472289506,-0.006074422335564498,-0.005963474628432877,2.5250043869018555,2019-06-20 16:46:39:963,0.0,0.0,0.0
-0.10143920034170151,-0.002926384098827839,9.745158195495605,-0.001158358430849615,-0.007006756542201109,-0.005697093500843653,2.5308823585510254,2019-06-20 16:46:39:969,0.0,0.0,0.0
-0.10383395105600357,0.011442113667726517,9.749947547912598,0.004435645638635589,-0.0067403754146118855,0.0022943408469817354,2.5349841117858887,2019-06-20 16:46:39:973,0.0,0.0,0.0
-0.07509695738554001,-0.010110633447766304,9.75234317779541,0.0028373588731002413,-0.002744658240699191,-0.0029000914010824694,2.5408897399902344,2019-06-20 16:46:39:979,0.0,0.0,0.0
-0.10383395105600357,0.02820536121726036,9.795448303222656,-0.0010251678020364214,-0.0024782768530356414,-0.0032996633525406317,2.5449938774108887,2019-06-20 16:46:39:983,0.0,0.0,0.0
-0.11341295391321182,0.044968608766794205,9.754737854003906,-0.0030230264540113496,-0.0050088978252076,-0.004365187862897529,2.549996852874756,2019-06-20 16:46:39:988,0.0,0.0,0.0
-0.09904444962739944,0.04017911106348038,9.771500587463379,0.0011058812836959564,-0.005142088649076538,-0.0023673291459040203,2.555877685546875,2019-06-20 16:46:39:994,0.0,0.0,0.0
-0.11341295391321182,0.04736335948109627,9.82179069519043,0.004169264511046364,-0.0026114674168302536,-0.0019677574545201833,2.5600242614746094,2019-06-20 16:46:39:998,0.0,0.0,0.0
-0.09425495564937592,0.037784360349178314,9.807421684265137,-0.0004924055468579722,-0.0018123241640997428,-0.0030332819648770815,2.5659732818603516,2019-06-20 16:46:40:004,0.0,0.0,0.0
-0.09664970636367798,0.02820536121726036,9.795448303222656,0.0019050247965007928,-0.0040765638786453146,-0.0015681857631363464,2.5708956718444824,2019-06-20 16:46:40:009,0.0,0.0,0.0
-0.11341295391321182,0.06412661075592041,9.824185371398926,-0.004088550964368248,-0.005541660080386049,-0.0034328539163352434,2.5749869346618652,2019-06-20 16:46:40:013,0.0,0.0,0.0
-0.09186020493507385,-0.002926384098827839,9.800237655639648,-0.001957501813617289,-0.0024782768530356414,-0.004098806735308305,2.5799989700317383,2019-06-20 16:46:40:018,0.0,0.0,0.0
-0.07030745595693588,0.02102111279964447,9.783474922180176,0.003370121128278691,-0.005674850904254987,3.010106944941304e-05,2.5858850479125977,2019-06-20 16:46:40:024,0.0,0.0,0.0
-0.13736045360565186,0.04975811019539833,9.735579490661621,0.004702026766224813,-0.0040765638786453146,0.00016329164746684,2.5899953842163086,2019-06-20 16:46:40:028,0.0,0.0,0.0
-0.11820244789123535,0.037784360349178314,9.843342781066895,-0.001158358430849615,-0.0015459429064733554,-0.0007690423803686727,2.595879554748535,2019-06-20 16:46:40:034,0.0,0.0,0.0
-0.0822812020778656,0.037784360349178314,9.852922439575195,0.0028373588731002413,-0.0024782768530356414,-0.00010308950450435256,2.5999984741210938,2019-06-20 16:46:40:038,0.0,0.0,0.0
-0.10383395105600357,0.011442113667726517,9.864895820617676,0.00017354732087902514,-0.0067403754146118855,0.0021611501531499603,2.6058883666992188,2019-06-20 16:46:40:044,0.0,0.0,0.0
-0.07749170809984207,0.037784360349178314,9.785869598388672,0.00043992846472289506,-0.003011039368288416,0.002027959589355348,2.610057830810547,2019-06-20 16:46:40:048,0.0,0.0,0.0
-0.10383395105600357,0.02102111279964447,9.855317115783691,-9.283383109216743e-05,-0.00847185248386752,-0.00010308950450435256,2.6158957481384277,2019-06-20 16:46:40:054,0.0,0.0,0.0
-0.12299194931983948,0.04257386177778244,9.797842979431152,-0.0018243112498226766,-0.003943373314850702,-0.00010308950450435256,2.619992256164551,2019-06-20 16:46:40:058,0.0,0.0,0.0
-0.12059719860553741,0.016231613233685493,9.802632331848145,-0.00035921498306336,-0.00647399428702266,-0.0011686140717525096,2.62587833404541,2019-06-20 16:46:40:064,0.0,0.0,0.0
-0.07749170809984207,0.03299486264586449,9.872079849243164,-0.0051540754747251465,-0.006340803463153723,0.0012288162065876742,2.629998207092285,2019-06-20 16:46:40:068,0.0,0.0,0.0
-0.08946545422077179,0.025810612365603447,9.82179069519043,-0.0007587866744471969,-0.006074422335564498,-0.000902232944163285,2.6349992752075195,2019-06-20 16:46:40:073,0.0,0.0,0.0
-0.11341295391321182,0.037784360349178314,9.824185371398926,-0.0026234547626275127,-0.0040765638786453146,-0.00023628007642628753,2.63999605178833,2019-06-20 16:46:40:078,0.0,0.0,0.0
-0.07988645136356354,0.044968608766794205,9.855317115783691,-0.0007587866744471969,-0.0032774204958776402,-0.0063630465798910395,2.6458797454833984,2019-06-20 16:46:40:084,0.0,0.0,0.0
-0.08467595279216766,0.018626363947987556,9.785869598388672,-0.0016911206860280642,-0.0040765638786453146,-0.0006358518165740604,2.6499972343444824,2019-06-20 16:46:40:088,0.0,0.0,0.0
-0.09186020493507385,0.006652614567428827,9.838553428649902,-0.0024902641988329005,-0.002211895725446417,-0.0034328539163352434,2.655003547668457,2019-06-20 16:46:40:093,0.0,0.0,0.0
-0.08946545422077179,0.0018631152343004942,9.807421684265137,-0.0030230264540113496,-0.000879990087500294,-0.000902232944163285,2.660946846008301,2019-06-20 16:46:40:099,0.0,0.0,0.0
-0.10383395105600357,0.04017911106348038,9.857711791992188,0.003370121128278691,-0.007139946845921397,0.0009624350789984497,2.6658992767333984,2019-06-20 16:46:40:104,0.0,0.0,0.0
-0.11341295391321182,0.030600111931562424,9.814606666564941,0.0016386436689115682,-0.004209754442439926,0.004292199303900919,2.6699934005737305,2019-06-20 16:46:40:108,0.0,0.0,0.0
-0.11101820319890976,0.08088985830545425,9.795448303222656,-0.0006255961106525846,-0.0050088978252076,-0.0015681857631363464,2.674992561340332,2019-06-20 16:46:40:113,0.0,0.0,0.0
-0.11580769717693329,-0.019689632579684258,9.773895263671875,0.0003067379009282828,-0.005941232031844212,-0.001834566890725571,2.6800003051757812,2019-06-20 16:46:40:118,0.0,0.0,0.0
-0.0822812020778656,0.013836863450706005,9.781079292297363,-0.0007587866744471969,-0.008205471356278294,-0.0011686140717525096,2.684997081756592,2019-06-20 16:46:40:123,0.0,0.0,0.0
-0.09904444962739944,0.044968608766794205,9.80502700805664,-9.283383109216743e-05,-0.0044761355700291515,0.0021611501531499603,2.6900110244750977,2019-06-20 16:46:40:128,0.0,0.0,0.0
-0.13017620146274567,0.02820536121726036,9.790658950805664,0.0009726907199013442,-0.005408469776665762,0.003226674793544021,2.695880889892578,2019-06-20 16:46:40:134,0.0,0.0,0.0
-0.11820244789123535,0.04975811019539833,9.840948104858398,-0.001957501813617289,-0.007139946845921397,-0.005164331245665204,2.69998836517334,2019-06-20 16:46:40:138,0.0,0.0,0.0
-0.11341295391321182,0.05694235861301422,9.771500587463379,0.00043992846472289506,-0.005541660080386049,0.0014951973341768988,2.7050089836120605,2019-06-20 16:46:40:143,0.0,0.0,0.0
-0.09904444962739944,0.03299486264586449,9.824185371398926,-0.0007587866744471969,-0.0040765638786453146,0.0018947690255607357,2.71089506149292,2019-06-20 16:46:40:149,0.0,0.0,0.0
-0.11820244789123535,0.025810612365603447,9.785869598388672,0.0017718342327061804,-0.004609325873749438,0.004691770995284756,2.7149887084960938,2019-06-20 16:46:40:153,0.0,0.0,0.0
-0.07270220667123795,0.06173185631632805,9.83376407623291,0.002970549436894854,-0.0007467995237056817,0.002693912538365572,2.7199954986572266,2019-06-20 16:46:40:158,0.0,0.0,0.0
-0.11341295391321182,0.009047363884747028,9.836158752441406,-0.0007587866744471969,-0.0014127523426787432,-0.0005026612202701574,2.7249903678894043,2019-06-20 16:46:40:163,0.0,0.0,0.0
-0.08946545422077179,0.0018631152343004942,9.826580047607422,0.00043992846472289506,-0.007006756542201109,0.003226674793544021,2.73000431060791,2019-06-20 16:46:40:168,0.0,0.0,0.0
-0.08707070350646973,0.03299486264586449,9.828974723815918,0.0032369305644840782,-0.004875707001338663,0.0009624350789984497,2.7349953651428223,2019-06-20 16:46:40:173,0.0,0.0,0.0
-0.10383395105600357,0.006652614567428827,9.831369400024414,-0.0023570736350382883,-0.006340803463153723,0.0030934842297494092,2.7400007247924805,2019-06-20 16:46:40:178,0.0,0.0,0.0
-0.09904444962739944,0.03299486264586449,9.75234317779541,0.0016386436689115682,-0.0050088978252076,0.004159008740106307,2.7449984550476074,2019-06-20 16:46:40:183,0.0,0.0,0.0
-0.09664970636367798,0.025810612365603447,9.749947547912598,-0.0008919772382418092,-0.007139946845921397,-0.0010354235079578973,2.750917434692383,2019-06-20 16:46:40:189,0.0,0.0,0.0
-0.1086234524846077,0.016231613233685493,9.795448303222656,4.035674489342885e-05,-0.005674850904254987,0.0006960539514092252,2.755904197692871,2019-06-20 16:46:40:194,0.0,0.0,0.0
-0.09664970636367798,0.02102111279964447,9.747552871704102,0.0009726907199013442,-0.0012795617788841308,3.010106944941304e-05,2.759993553161621,2019-06-20 16:46:40:198,0.0,0.0,0.0
-0.10143920034170151,0.013836863450706005,9.800237655639648,-0.0026234547626275127,-0.002211895725446417,-0.0025005197096986324,2.7649946212768555,2019-06-20 16:46:40:203,0.0,0.0,0.0
-0.1349657028913498,0.037784360349178314,9.867290496826172,4.035674489342885e-05,-0.004875707001338663,0.0006960539514092252,2.770885467529297,2019-06-20 16:46:40:209,0.0,0.0,0.0
-0.1421499401330948,0.025810612365603447,9.788264274597168,-0.002090692377411901,-0.003943373314850702,0.0024275314107763475,2.774996757507324,2019-06-20 16:46:40:213,0.0,0.0,0.0
-0.13257095217704773,0.016231613233685493,9.790658950805664,0.0019050247965007928,-0.0026114674168302536,0.0005628633876146128,2.779998779296875,2019-06-20 16:46:40:218,0.0,0.0,0.0
-0.09425495564937592,0.023415861651301384,9.795448303222656,-0.0007587866744471969,-0.005142088649076538,0.004159008740106307,2.784992218017578,2019-06-20 16:46:40:223,0.0,0.0,0.0
-0.09186020493507385,0.06652135401964188,9.83376407623291,0.003370121128278691,-0.0024782768530356414,-0.0011686140717525096,2.7900161743164062,2019-06-20 16:46:40:228,0.0,0.0,0.0
-0.08946545422077179,0.05454760789871216,9.735579490661621,0.00017354732087902514,-0.0026114674168302536,-0.0006358518165740604,2.7958998680114746,2019-06-20 16:46:40:234,0.0,0.0,0.0
-0.09425495564937592,0.023415861651301384,9.843342781066895,0.002970549436894854,-0.002744658240699191,-0.00036947065647554515,2.7999935150146484,2019-06-20 16:46:40:238,0.0,0.0,0.0
-0.1421499401330948,0.03299486264586449,9.747552871704102,-0.001957501813617289,-0.004609325873749438,0.0012288162065876742,2.8058791160583496,2019-06-20 16:46:40:244,0.0,0.0,0.0
-0.09904444962739944,0.03299486264586449,9.82179069519043,-0.0007587866744471969,0.00031872505166979784,0.002693912538365572,2.8099918365478516,2019-06-20 16:46:40:248,0.0,0.0,0.0
-0.1086234524846077,0.030600111931562424,9.79305362701416,0.0016386436689115682,-0.004609325873749438,0.0002964822275160976,2.814993381500244,2019-06-20 16:46:40:253,0.0,0.0,0.0
-0.1421499401330948,0.04257386177778244,9.74276351928711,-0.0008919772382418092,-0.008338662180147232,0.002027959589355348,2.819993495941162,2019-06-20 16:46:40:258,0.0,0.0,0.0
-0.11820244789123535,0.018626363947987556,9.747552871704102,0.005101598717682976,-0.0044761355700291515,0.0037594370487224705,2.824991226196289,2019-06-20 16:46:40:263,0.0,0.0,0.0
-0.13736045360565186,0.04257386177778244,9.773895263671875,0.003103740000689466,-0.004875707001338663,0.0030934842297494092,2.8300042152404785,2019-06-20 16:46:40:268,0.0,0.0,0.0
-0.13017620146274567,0.006652614567428827,9.757132530212402,-0.0018243112498226766,-0.009137805042766256,-0.00023628007642628753,2.835878372192383,2019-06-20 16:46:40:274,0.0,0.0,0.0
-0.11101820319890976,0.004257864784449339,9.797842979431152,0.0008395001561067318,-0.005408469776665762,0.0006960539514092252,2.8399996757507324,2019-06-20 16:46:40:278,0.0,0.0,0.0
-0.09904444962739944,0.018626363947987556,9.807421684265137,-0.00035921498306336,-0.0018123241640997428,0.0028271031021601845,2.845913887023926,2019-06-20 16:46:40:284,0.0,0.0,0.0
-0.12059719860553741,0.016231613233685493,9.769105911254883,0.0007063095923121196,-0.0003472278323218449,-0.0014349951993417342,2.8508987426757812,2019-06-20 16:46:40:289,0.0,0.0,0.0
-0.11580769717693329,0.07849510759115219,9.843342781066895,-0.0010251678020364214,-0.004609325873749438,0.0028271031021601845,2.854985237121582,2019-06-20 16:46:40:293,0.0,0.0,0.0
-0.09186020493507385,0.02820536121726036,9.819396018981934,0.0017718342327061804,-0.003410611059672253,0.0022943408469817354,2.8600006103515625,2019-06-20 16:46:40:298,0.0,0.0,0.0
-0.11341295391321182,-0.002926384098827839,9.781079292297363,0.0017718342327061804,-0.0028778488044938037,-0.003965616171513693,2.865889549255371,2019-06-20 16:46:40:304,0.0,0.0,0.0
-0.09664970636367798,0.016231613233685493,9.838553428649902,0.0008395001561067318,-0.007006756542201109,-0.0005026612202701574,2.869992256164551,2019-06-20 16:46:40:308,0.0,0.0,0.0
-0.11341295391321182,0.006652614567428827,9.855317115783691,-0.0018243112498226766,-0.004609325873749438,-0.0019677574545201833,2.874993324279785,2019-06-20 16:46:40:313,0.0,0.0,0.0
-0.07030745595693588,0.02820536121726036,9.79305362701416,0.003636502255867915,-0.005408469776665762,0.0006960539514092252,2.8808889389038086,2019-06-20 16:46:40:319,0.0,0.0,0.0
-0.13975520431995392,0.016231613233685493,9.831369400024414,-0.0030230264540113496,-0.005941232031844212,0.0005628633876146128,2.8849964141845703,2019-06-20 16:46:40:323,0.0,0.0,0.0
-0.11820244789123535,0.04736335948109627,9.802632331848145,0.0019050247965007928,-0.003943373314850702,0.0014951973341768988,2.890298843383789,2019-06-20 16:46:40:328,0.0,0.0,0.0
-0.10143920034170151,0.04257386177778244,9.766711235046387,-0.0008919772382418092,-0.0028778488044938037,0.001628387897971511,2.8959035873413086,2019-06-20 16:46:40:334,0.0,0.0,0.0
-0.12538670003414154,0.02102111279964447,9.840948104858398,0.0005731190285175073,-0.0023450862892410293,-0.0011686140717525096,2.9008827209472656,2019-06-20 16:46:40:339,0.0,0.0,0.0
-0.13975520431995392,0.0018631152343004942,9.809816360473633,-0.0008919772382418092,-0.0067403754146118855,0.0009624350789984497,2.9049854278564453,2019-06-20 16:46:40:343,0.0,0.0,0.0
-0.11580769717693329,0.0018631152343004942,9.788264274597168,-0.0035557887091897987,-0.006873565718332173,-0.0027669008372878568,2.910000801086426,2019-06-20 16:46:40:348,0.0,0.0,0.0
-0.12059719860553741,0.02820536121726036,9.79305362701416,0.0048352170699451,-0.004209754442439926,0.0017615784617661236,2.9149980545043945,2019-06-20 16:46:40:353,0.0,0.0,0.0
-0.12059719860553741,0.011442113667726517,9.817001342773438,-0.0012915489946442272,-0.0011463712150895187,-0.00036947065647554515,2.9199962615966797,2019-06-20 16:46:40:358,0.0,0.0,0.0
-0.12059719860553741,0.004257864784449339,9.771500587463379,0.0015054529750797934,-0.005541660080386049,-0.0014349951993417342,2.9258790016174316,2019-06-20 16:46:40:364,0.0,0.0,0.0
-0.07749170809984207,0.030600111931562424,9.800237655639648,-0.0004924055468579722,0.00018553447162054023,0.0024275314107763475,2.930021286010742,2019-06-20 16:46:40:368,0.0,0.0,0.0
-0.10383395105600357,0.025810612365603447,9.80502700805664,0.0008395001561067318,-0.005941232031844212,0.0006960539514092252,2.935000419616699,2019-06-20 16:46:40:373,0.0,0.0,0.0
-0.10622870177030563,0.009047363884747028,9.726000785827637,4.035674489342885e-05,-0.0026114674168302536,0.0017615784617661236,2.9409008026123047,2019-06-20 16:46:40:379,0.0,0.0,0.0
-0.13736045360565186,0.016231613233685493,9.831369400024414,-0.003156217017805962,-0.005408469776665762,-0.0029000914010824694,2.9459028244018555,2019-06-20 16:46:40:384,0.0,0.0,0.0
-0.13736045360565186,0.013836863450706005,9.749947547912598,-9.283383109216743e-05,-0.0028778488044938037,-0.0014349951993417342,2.949995994567871,2019-06-20 16:46:40:388,0.0,0.0,0.0
-0.10622870177030563,0.04975811019539833,9.759527206420898,-0.004088550964368248,-0.003144229932083028,0.0017615784617661236,2.9549922943115234,2019-06-20 16:46:40:393,0.0,0.0,0.0
-0.10383395105600357,0.025810612365603447,9.730790138244629,0.0008395001561067318,-0.0020787052916889674,0.00016329164746684,2.959991455078125,2019-06-20 16:46:40:398,0.0,0.0,0.0
-0.09664970636367798,0.030600111931562424,9.819396018981934,0.0003067379009282828,-0.008605043307736458,-0.0031664725286716937,2.9649906158447266,2019-06-20 16:46:40:403,0.0,0.0,0.0
-0.1349657028913498,0.023415861651301384,9.769105911254883,-0.001557930122233452,-0.0028778488044938037,0.0033598653573386336,2.969998359680176,2019-06-20 16:46:40:408,0.0,0.0,0.0
-0.12059719860553741,0.025810612365603447,9.82179069519043,-0.0008919772382418092,-0.005408469776665762,0.0025607219745709597,2.974991798400879,2019-06-20 16:46:40:413,0.0,0.0,0.0
-0.14933419227600098,0.013836863450706005,9.802632331848145,0.00017354732087902514,-0.002744658240699191,0.0018947690255607357,2.9799985885620117,2019-06-20 16:46:40:418,0.0,0.0,0.0
-0.13017620146274567,0.023415861651301384,9.809816360473633,-0.0008919772382418092,-0.0067403754146118855,-0.0019677574545201833,2.984996795654297,2019-06-20 16:46:40:423,0.0,0.0,0.0
-0.10383395105600357,0.044968608766794205,9.836158752441406,-0.0018243112498226766,-0.0050088978252076,-0.003566044480129856,2.990934371948242,2019-06-20 16:46:40:429,0.0,0.0,0.0
-0.10622870177030563,0.037784360349178314,9.797842979431152,0.0020382153602954054,-0.007539518797379559,-0.0014349951993417342,2.9950008392333984,2019-06-20 16:46:40:433,0.0,0.0,0.0
-0.12538670003414154,0.04257386177778244,9.790658950805664,0.002970549436894854,-0.002211895725446417,-0.004631568990486754,2.999995231628418,2019-06-20 16:46:40:438,0.0,0.0,0.0
-0.10143920034170151,-0.024479132145643234,9.800237655639648,0.0023045963578474673,-0.003410611059672253,-0.0031664725286716937,3.0049924850463867,2019-06-20 16:46:40:443,0.0,0.0,0.0
-0.13736045360565186,0.02102111279964447,9.795448303222656,0.003636502255867915,-0.0007467995237056817,0.0017615784617661236,3.009998321533203,2019-06-20 16:46:40:448,0.0,0.0,0.0
-0.12299194931983948,0.025810612365603447,9.817001342773438,0.0016386436689115682,-0.0050088978252076,-0.0011686140717525096,3.015897750854492,2019-06-20 16:46:40:454,0.0,0.0,0.0
-0.10622870177030563,-0.002926384098827839,9.740368843078613,0.00017354732087902514,-0.0014127523426787432,0.0017615784617661236,3.020887851715088,2019-06-20 16:46:40:459,0.0,0.0,0.0
-0.12059719860553741,0.02102111279964447,9.776289939880371,0.0017718342327061804,-0.004875707001338663,-0.0036992350439244686,3.0249876976013184,2019-06-20 16:46:40:463,0.0,0.0,0.0
-0.12059719860553741,0.013836863450706005,9.79305362701416,-0.0006255961106525846,-0.0052752789527968245,0.002693912538365572,3.0311975479125977,2019-06-20 16:46:40:469,0.0,0.0,0.0
-0.08467595279216766,-0.005321133881807327,9.807421684265137,-0.0032894075816005744,-0.007672709101099845,0.0018947690255607357,3.0350141525268555,2019-06-20 16:46:40:473,0.0,0.0,0.0
-0.08467595279216766,-0.0005316344322636724,9.754737854003906,0.0024377869216420794,-0.003011039368288416,0.0018947690255607357,3.040884017944336,2019-06-20 16:46:40:479,0.0,0.0,0.0
-0.12059719860553741,0.004257864784449339,9.809816360473633,-0.0010251678020364214,-0.0010131806512949063,-0.005697093500843653,3.0449881553649902,2019-06-20 16:46:40:483,0.0,0.0,0.0
-0.09186020493507385,-0.019689632579684258,9.814606666564941,0.004036073947251752,-0.00021403725227258724,0.0029602936659547966,3.0508856773376465,2019-06-20 16:46:40:489,0.0,0.0,0.0
-0.12059719860553741,0.04257386177778244,9.785869598388672,-0.0026234547626275127,-0.004742516697618376,0.0006960539514092252,3.054994583129883,2019-06-20 16:46:40:493,0.0,0.0,0.0
-0.12059719860553741,0.07370560616254807,9.807421684265137,0.00043992846472289506,-0.005541660080386049,0.0025607219745709597,3.059997081756592,2019-06-20 16:46:40:498,0.0,0.0,0.0
-0.13975520431995392,0.03299486264586449,9.759527206420898,-0.0010251678020364214,-0.006607184590742948,0.0009624350789984497,3.0659093856811523,2019-06-20 16:46:40:504,0.0,0.0,0.0
-0.12059719860553741,0.011442113667726517,9.828974723815918,-0.0004924055468579722,-0.003410611059672253,-0.00010308950450435256,3.0699949264526367,2019-06-20 16:46:40:508,0.0,0.0,0.0
-0.12299194931983948,0.018626363947987556,9.855317115783691,-0.002090692377411901,-0.003144229932083028,0.00042967279131070986,3.0749917030334473,2019-06-20 16:46:40:513,0.0,0.0,0.0
-0.07509695738554001,-0.0005316344322636724,9.757132530212402,0.0024377869216420794,-0.0044761355700291515,0.0025607219745709597,3.08089017868042,2019-06-20 16:46:40:519,0.0,0.0,0.0
-0.10622870177030563,0.013836863450706005,9.71402645111084,-0.0010251678020364214,-0.0016791336003051302,0.0024275314107763475,3.0849990844726562,2019-06-20 16:46:40:523,0.0,0.0,0.0
-0.1277814507484436,0.071310855448246,9.733184814453125,0.0012390718474905686,-0.005941232031844212,-0.0013018046355471218,3.0899930000305176,2019-06-20 16:46:40:528,0.0,0.0,0.0
-0.14454469084739685,0.03538960963487625,9.800237655639648,0.0027041680492313038,-0.006340803463153723,-0.00023628007642628753,3.0949907302856445,2019-06-20 16:46:40:533,0.0,0.0,0.0
-0.13975520431995392,0.052152857184410095,9.857711791992188,0.0023045963578474673,-0.0023450862892410293,-0.004098806735308305,3.10089111328125,2019-06-20 16:46:40:539,0.0,0.0,0.0
-0.07988645136356354,0.023415861651301384,9.802632331848145,0.0025709774854366916,-0.001945514727894355,-0.0017013763269309588,3.104994297027588,2019-06-20 16:46:40:543,0.0,0.0,0.0
-0.09664970636367798,0.05694235861301422,9.836158752441406,0.0011058812836959564,-0.0007467995237056817,0.003493055921133246,3.110177516937256,2019-06-20 16:46:40:548,0.0,0.0,0.0
-0.11341295391321182,0.07849510759115219,9.761921882629395,0.0011058812836959564,-0.003144229932083028,0.0002964822275160976,3.1159000396728516,2019-06-20 16:46:40:554,0.0,0.0,0.0
-0.10143920034170151,-0.002926384098827839,9.824185371398926,-0.002756645326422125,-0.004875707001338663,-0.0032996633525406317,3.1199941635131836,2019-06-20 16:46:40:558,0.0,0.0,0.0
-0.1277814507484436,0.013836863450706005,9.809816360473633,-0.002090692377411901,-0.0024782768530356414,-0.0021009480183147955,3.125899314880371,2019-06-20 16:46:40:564,0.0,0.0,0.0
-0.11101820319890976,0.018626363947987556,9.857711791992188,-0.0036889792729844113,-0.003410611059672253,0.0018947690255607357,3.130913734436035,2019-06-20 16:46:40:569,0.0,0.0,0.0
-0.1277814507484436,0.018626363947987556,9.800237655639648,0.00043992846472289506,-0.010336520897140742,0.0006960539514092252,3.134988784790039,2019-06-20 16:46:40:573,0.0,0.0,0.0
-0.07749170809984207,0.04257386177778244,9.783474922180176,0.0015054529750797934,-0.00647399428702266,0.0006960539514092252,3.140000820159912,2019-06-20 16:46:40:578,0.0,0.0,0.0
-0.11341295391321182,-0.002926384098827839,9.80502700805664,0.0012390718474905686,-0.001945514727894355,-0.0031664725286716937,3.145888328552246,2019-06-20 16:46:40:584,0.0,0.0,0.0
-0.14454469084739685,0.02102111279964447,9.800237655639648,-0.0023570736350382883,0.00031872505166979784,0.00016329164746684,3.1499924659729004,2019-06-20 16:46:40:588,0.0,0.0,0.0
-0.1086234524846077,0.03299486264586449,9.769105911254883,0.0024377869216420794,-0.006873565718332173,0.00042967279131070986,3.155912399291992,2019-06-20 16:46:40:594,0.0,0.0,0.0
-0.08467595279216766,0.006652614567428827,9.761921882629395,0.00043992846472289506,-0.0032774204958776402,0.0006960539514092252,3.1600093841552734,2019-06-20 16:46:40:598,0.0,0.0,0.0
-0.08946545422077179,0.018626363947987556,9.82179069519043,-0.0016911206860280642,-0.0035438016234668654,0.0013620067703822866,3.164992332458496,2019-06-20 16:46:40:603,0.0,0.0,0.0
-0.1349657028913498,0.004257864784449339,9.814606666564941,-0.001158358430849615,-0.0006136089599110694,-0.0013018046355471218,3.1711606979370117,2019-06-20 16:46:40:609,0.0,0.0,0.0
-0.09904444962739944,0.0018631152343004942,9.76431655883789,0.0009726907199013442,-0.007273137669790334,0.0033598653573386336,3.1750125885009766,2019-06-20 16:46:40:613,0.0,0.0,0.0
-0.17807118594646454,0.037784360349178314,9.778684616088867,0.002970549436894854,-0.007273137669790334,0.00042967279131070986,3.1808834075927734,2019-06-20 16:46:40:619,0.0,0.0,0.0
-0.14933419227600098,0.03538960963487625,9.795448303222656,-0.002889835890216737,-0.005142088649076538,0.001095625642793062,3.1849889755249023,2019-06-20 16:46:40:623,0.0,0.0,0.0
-0.12059719860553741,0.044968608766794205,9.783474922180176,0.005234789021403263,-0.0023450862892410293,0.006156867457099816,3.189999580383301,2019-06-20 16:46:40:628,0.0,0.0,0.0
-0.1086234524846077,0.03299486264586449,9.781079292297363,-0.00035921498306336,-0.004209754442439926,0.0005628633876146128,3.1958842277526855,2019-06-20 16:46:40:634,0.0,0.0,0.0
-0.09904444962739944,0.02102111279964447,9.795448303222656,-0.00035921498306336,-0.005674850904254987,-0.0015681857631363464,3.199991226196289,2019-06-20 16:46:40:638,0.0,0.0,0.0
-0.11820244789123535,0.052152857184410095,9.74276351928711,0.0024377869216420794,-0.005674850904254987,0.0008292445152038374,3.2058920860290527,2019-06-20 16:46:40:644,0.0,0.0,0.0
-0.09186020493507385,0.04017911106348038,9.790658950805664,0.004568835942355876,-0.004209754442439926,0.00016329164746684,3.2099971771240234,2019-06-20 16:46:40:648,0.0,0.0,0.0
-0.10622870177030563,0.02820536121726036,9.730790138244629,0.0024377869216420794,-0.003144229932083028,0.0033598653573386336,3.2149925231933594,2019-06-20 16:46:40:653,0.0,0.0,0.0
-0.08467595279216766,0.023415861651301384,9.75234317779541,-0.0012915489946442272,-0.005408469776665762,-0.000902232944163285,3.220888614654541,2019-06-20 16:46:40:659,0.0,0.0,0.0
-0.09904444962739944,0.03538960963487625,9.824185371398926,-0.0014247395584388394,-0.0018123241640997428,-0.00010308950450435256,3.224996566772461,2019-06-20 16:46:40:663,0.0,0.0,0.0
-0.12538670003414154,0.03299486264586449,9.898422241210938,0.0016386436689115682,-0.003943373314850702,0.002693912538365572,3.2300195693969727,2019-06-20 16:46:40:668,0.0,0.0,0.0
-0.10622870177030563,0.004257864784449339,9.848133087158203,-0.002090692377411901,-0.0014127523426787432,-0.0025005197096986324,3.2358808517456055,2019-06-20 16:46:40:674,0.0,0.0,0.0
-0.12059719860553741,0.018626363947987556,9.843342781066895,0.0011058812836959564,-0.007273137669790334,-0.003965616171513693,3.239994525909424,2019-06-20 16:46:40:678,0.0,0.0,0.0
-0.1277814507484436,-0.012505383230745792,9.800237655639648,0.0003067379009282828,-0.00847185248386752,0.0017615784617661236,3.2458858489990234,2019-06-20 16:46:40:684,0.0,0.0,0.0
-0.07509695738554001,0.03538960963487625,9.797842979431152,0.0007063095923121196,-0.003144229932083028,-0.0026337102734932446,3.2500381469726562,2019-06-20 16:46:40:688,0.0,0.0,0.0
-0.11101820319890976,0.009047363884747028,9.83376407623291,-0.0014247395584388394,-0.003676992187261477,0.0006960539514092252,3.2558979988098145,2019-06-20 16:46:40:694,0.0,0.0,0.0
-0.06072845682501793,0.05454760789871216,9.819396018981934,-0.0008919772382418092,-0.0020787052916889674,-0.002234138582109408,3.2599945068359375,2019-06-20 16:46:40:698,0.0,0.0,0.0
-0.07270220667123795,0.025810612365603447,9.809816360473633,0.006433504355629099,-0.003144229932083028,-0.006629427707480263,3.265230178833008,2019-06-20 16:46:40:703,0.0,0.0,0.0
-0.11341295391321182,0.04736335948109627,9.773895263671875,0.003370121128278691,-0.004209754442439926,-0.003965616171513693,3.27089786529541,2019-06-20 16:46:40:709,0.0,0.0,0.0
-0.1086234524846077,0.006652614567428827,9.785869598388672,0.0028373588731002413,-0.0050088978252076,-0.00023628007642628753,3.2749886512756348,2019-06-20 16:46:40:713,0.0,0.0,0.0
-0.11580769717693329,0.04257386177778244,9.790658950805664,-0.002223883071243676,-0.006074422335564498,-0.005963474628432877,3.280001163482666,2019-06-20 16:46:40:718,0.0,0.0,0.0
-0.11580769717693329,0.037784360349178314,9.72360610961914,0.0008395001561067318,-0.007006756542201109,-0.004231997299102917,3.2849960327148438,2019-06-20 16:46:40:723,0.0,0.0,0.0
-0.12059719860553741,0.02820536121726036,9.759527206420898,0.0012390718474905686,-0.004342945006234539,-0.004098806735308305,3.289994239807129,2019-06-20 16:46:40:728,0.0,0.0,0.0
