ACCELEROMETER X (m/s²),ACCELEROMETER Y (m/s²),ACCELEROMETER Z (m/s²),GYROSCOPE X (rad/s),GYROSCOPE Y (rad/s),GYROSCOPE Z (rad/s),Time since start in ms ,YYYY-MO-DD HH-MI-SS_SSS
0.13490822911262512,-0.029223131015896797,9.785576820373535,-0.002452304790623564,0.006593732506346145,0.0004633700039507468,0.0,2019-06-18 15:33:37:430
0.21872445940971375,-0.06753912568092346,9.809524536132812,0.0006110783717082625,0.007126494761524595,0.00499184943304189,0.005893230438232422,2019-06-18 15:33:37:436
0.16125047206878662,-0.07472337782382965,9.749655723571777,0.00021150663156048962,0.00632735137875692,-0.0016676791468002124,0.010903358459472656,2019-06-18 15:33:37:441
0.20675072073936462,-0.08669712394475937,9.740077018737793,-0.0021859236630343394,0.0031307775876119005,-0.00020258286378625062,0.015023231506347656,2019-06-18 15:33:37:445
0.17801371216773987,-0.07711812108755112,9.773603439331055,0.0012770312556999051,0.0002005850053293314,0.0008629416953345836,0.020890235900878906,2019-06-18 15:33:37:451
0.15167146921157837,-0.055565375834703445,9.77599811553955,0.0024757463298514157,0.006593732506346145,0.002860800412328093,0.025002479553222656,2019-06-18 15:33:37:455
0.19238221645355225,-0.07951287180185318,9.809524536132812,-0.0017863519716505025,0.0053950171721203095,0.0025944190246645436,0.030885696411132812,2019-06-18 15:33:37:461
0.2091454714536667,-0.055565375834703445,9.843050956726074,0.0014102218194945173,0.0008665378730663289,-0.0006021545714247328,0.035015106201171875,2019-06-18 15:33:37:465
0.19956646859645844,-0.08669712394475937,9.823892593383789,-0.0032514481733912377,0.0031307775876119005,-0.0020672508381840496,0.0408930778503418,2019-06-18 15:33:37:471
0.18040846288204193,-0.07472337782382965,9.802340507507324,-0.003917400992364299,0.0036635398427903496,-0.0027332037871942733,0.045888423919677734,2019-06-18 15:33:37:476
0.2211192101240158,-0.10585512220859528,9.8167085647583,-5.487451634704159e-05,0.008591591223339655,-0.0010017262628085697,0.050911903381347656,2019-06-18 15:33:37:481
0.2019612193107605,-0.012459882535040379,9.809524536132812,0.0032748897126190896,0.00979030655756549,0.0019284663357286445,0.05590057373046875,2019-06-18 15:33:37:486
0.17082947492599487,-0.07711812108755112,9.80473518371582,0.002209365202262191,0.008591591223339655,-0.0053970150630865184,0.060001373291015625,2019-06-18 15:33:37:490
0.1684347242116928,-0.07711812108755112,9.728102684020996,0.0030085085850298653,0.005261826868400022,0.0017952757719340324,0.06588554382324219,2019-06-18 15:33:37:496
0.16125047206878662,-0.05317062884569168,9.785576820373535,-0.0005876368324804107,0.008591591223339655,0.004192706050274216,0.07000350952148438,2019-06-18 15:33:37:500
0.182803213596344,-0.10346037149429321,9.76402473449707,0.0014102218194945173,0.008591591223339655,-0.0011349168916217633,0.07588911056518555,2019-06-18 15:33:37:506
0.16603997349739075,-0.03640738129615784,9.747261047363281,-0.0023191142268289516,0.0016656812558340024,0.005790992815809564,0.08000373840332031,2019-06-18 15:33:37:510
0.21632970869541168,-0.07951287180185318,9.819103240966797,0.0008774594992974871,0.006060970251167696,0.004592277481583728,0.08589553833007812,2019-06-18 15:33:37:516
0.2019612193107605,-0.1106446236371994,9.802340507507324,-0.005249306890384747,0.008058828968161205,0.002860800412328093,0.09088993072509766,2019-06-18 15:33:37:521
0.1684347242116928,-0.04598637670278549,9.823892593383789,0.001143840691905293,0.007259685065244881,-0.003399156606167335,0.09591007232666016,2019-06-18 15:33:37:526
0.17322422564029694,-0.07232862710952759,9.792760848999023,-0.0020527330992397273,0.00979030655756549,0.0003301794401561345,0.10001516342163086,2019-06-18 15:33:37:530
0.182803213596344,-0.06993387639522552,9.773603439331055,0.00021150663156048962,0.010456259116464226,0.003393562667506543,0.10588741302490234,2019-06-18 15:33:37:536
0.17801371216773987,-0.08669712394475937,9.795156478881836,-0.003917400992364299,0.008458400399470718,0.002461228460869931,0.10999917984008789,2019-06-18 15:33:37:540
0.20675072073936462,-0.04598637670278549,9.69697093963623,0.0026089368936460283,0.007259685065244881,0.003926324922684992,0.11591386795043945,2019-06-18 15:33:37:546
0.19956646859645844,-0.05077587813138962,9.756839752197266,0.0032748897126190896,0.002864396460022676,0.0031271815399173176,0.12089157104492188,2019-06-18 15:33:37:551
0.19238221645355225,-0.06753912568092346,9.77599811553955,0.004340414222975988,0.002864396460022676,0.0029939909761227054,0.1259021759033203,2019-06-18 15:33:37:556
0.16125047206878662,-0.04359162971377373,9.756839752197266,0.003141699148824477,0.0032639681514065122,-0.00020258286378625062,0.1308879852294922,2019-06-18 15:33:37:561
0.182803213596344,-0.07951287180185318,9.840656280517578,-5.487451634704159e-05,0.00486225491694186,-0.0004689640076301205,0.13588905334472656,2019-06-18 15:33:37:566
0.18040846288204193,-0.07711812108755112,9.76402473449707,0.002209365202262191,0.010189877468726351,0.0011293228229238084,0.14088821411132812,2019-06-18 15:33:37:571
0.18998746573925018,-0.06274962425231934,9.799945831298828,0.0032748897126190896,0.010855831067922388,-0.0035323471699619468,0.14591121673583984,2019-06-18 15:33:37:576
0.2091454714536667,-0.06035487726330757,9.77599811553955,-0.0005876368324804107,0.0049954457408107975,0.006590136198577237,0.15000677108764648,2019-06-18 15:33:37:580
0.21393495798110962,-0.08669712394475937,9.802340507507324,0.0007442689355028748,0.0032639681514065122,0.00645694589485695,0.15588808059692383,2019-06-18 15:33:37:586
0.15406621992588043,-0.06753912568092346,9.773603439331055,0.0006110783717082625,0.0031307775876119005,0.00499184943304189,0.160003662109375,2019-06-18 15:33:37:590
0.18998746573925018,-0.0843023732304573,9.838261604309082,0.0032748897126190896,0.00686011363393537,0.001528894514307645,0.1659097671508789,2019-06-18 15:33:37:596
0.20675072073936462,-0.09627611935138702,9.797551155090332,0.0023425557660568036,0.005927779427298759,0.00499184943304189,0.1700129508972168,2019-06-18 15:33:37:600
0.18759271502494812,-0.055565375834703445,9.795156478881836,-0.0008540179600696353,0.006593732506346145,0.000996132259129196,0.1758875846862793,2019-06-18 15:33:37:606
0.1564609706401825,-0.0651443749666214,9.77599811553955,-0.0013867802802666658,0.01125540197908325,-0.0003357734438355082,0.18088531494140625,2019-06-18 15:33:37:611
0.17082947492599487,-0.09388136863708496,9.807129859924316,0.005272748429612599,0.00486225491694186,0.007788851532803074,0.1849966049194336,2019-06-18 15:33:37:615
0.14448721706867218,-0.04598637670278549,9.792760848999023,-0.00018806509233263786,0.006460541682477208,0.0001969888601068769,0.19089889526367188,2019-06-18 15:33:37:621
0.18519796431064606,-0.05077587813138962,9.828682899475098,0.0023425557660568036,0.009390734606107327,0.002461228460869931,0.19589853286743164,2019-06-18 15:33:37:626
0.21393495798110962,-0.022038880735635757,9.823892593383789,0.0034080802764137014,0.007526066192834106,0.00326037210371193,0.19999980926513672,2019-06-18 15:33:37:630
0.20675072073936462,-0.06274962425231934,9.7352876663208,0.00021150663156048962,0.007526066192834106,0.002461228460869931,0.20589065551757812,2019-06-18 15:33:37:636
0.17801371216773987,-0.09867087006568909,9.7257080078125,-0.002452304790623564,0.0076592570167030435,0.000996132259129196,0.2100071907043457,2019-06-18 15:33:37:640
0.14448721706867218,-0.06035487726330757,9.783182144165039,-0.0009872085238642476,0.007126494761524595,-0.003931918861345784,0.2159252166748047,2019-06-18 15:33:37:646
0.13251347839832306,-0.07951287180185318,9.759234428405762,0.0019429840746729666,0.006460541682477208,0.003393562667506543,0.2208881378173828,2019-06-18 15:33:37:651
0.18040846288204193,-0.06753912568092346,9.80473518371582,0.0012770312556999051,0.004063111534174186,-0.0028663943509888855,0.22500085830688477,2019-06-18 15:33:37:655
0.1492767184972763,-0.09627611935138702,9.747261047363281,0.004606795350565213,0.006993303937655657,0.002461228460869931,0.23088455200195312,2019-06-18 15:33:37:661
0.182803213596344,-0.0651443749666214,9.7257080078125,0.003141699148824477,0.011388593323100838,0.0011293228229238084,0.2359161376953125,2019-06-18 15:33:37:666
0.15167146921157837,-0.07232862710952759,9.809524536132812,-0.00018806509233263786,0.005528207995989247,0.0031271815399173176,0.24001550674438477,2019-06-18 15:33:37:670
0.19717171788215637,-0.10106562077999115,9.783182144165039,0.00021150663156048962,0.004595873789352636,0.002860800412328093,0.24588871002197266,2019-06-18 15:33:37:676
0.16125047206878662,-0.041196878999471664,9.780787467956543,0.004207223659181376,0.0049954457408107975,0.003659943795095767,0.250002384185791,2019-06-18 15:33:37:680
0.21872445940971375,-0.06035487726330757,9.7257080078125,0.0034080802764137014,0.003530349278995737,-0.0004689640076301205,0.2558903694152832,2019-06-18 15:33:37:686
0.19238221645355225,-0.10585512220859528,9.795156478881836,0.0008774594992974871,0.0076592570167030435,0.0011293228229238084,0.2600069046020508,2019-06-18 15:33:37:690
0.17322422564029694,-0.06753912568092346,9.787971496582031,0.0010106500630920993,0.007259685065244881,0.0029939909761227054,0.26589107513427734,2019-06-18 15:33:37:696
0.18040846288204193,-0.10106562077999115,9.766419410705566,-0.00018806509233263786,0.004595873789352636,0.0021948473332807066,0.2708930969238281,2019-06-18 15:33:37:701
0.18759271502494812,-0.0651443749666214,9.80473518371582,0.00154341238328913,0.006460541682477208,-0.00020258286378625062,0.27500057220458984,2019-06-18 15:33:37:705
0.18759271502494812,-0.048381127417087555,9.785576820373535,0.00154341238328913,0.008058828968161205,0.002860800412328093,0.2808852195739746,2019-06-18 15:33:37:711
0.19238221645355225,-0.048381127417087555,9.795156478881836,0.0014102218194945173,0.010456259116464226,-0.0022004415320158242,0.2850055694580078,2019-06-18 15:33:37:715
0.20675072073936462,-0.06035487726330757,9.828682899475098,-0.0013867802802666658,0.00686011363393537,0.0008629416953345836,0.29088592529296875,2019-06-18 15:33:37:721
0.18998746573925018,-0.04359162971377373,9.773603439331055,0.0010106500630920993,0.006460541682477208,0.002328037897075319,0.2950019836425781,2019-06-18 15:33:37:725
0.16125047206878662,-0.06035487726330757,9.742471694946289,0.0003446972116097473,0.007126494761524595,0.0007297511315399715,0.3008871078491211,2019-06-18 15:33:37:731
0.2091454714536667,-0.06993387639522552,9.797551155090332,-0.00045444623617650777,0.006593732506346145,0.0029939909761227054,0.3050050735473633,2019-06-18 15:33:37:735
0.20435597002506256,-0.041196878999471664,9.783182144165039,0.0012770312556999051,0.006593732506346145,0.0005965605677453591,0.3108863830566406,2019-06-18 15:33:37:741
0.17322422564029694,-0.06035487726330757,9.706550598144531,-0.0016531614078558903,0.006993303937655657,-0.000735345135219345,0.31589221954345703,2019-06-18 15:33:37:746
0.228303462266922,-0.012459882535040379,9.761629104614258,-0.0028518764820074007,0.010189877468726351,0.002461228460869931,0.3200039863586426,2019-06-18 15:33:37:750
0.19717171788215637,-0.04359162971377373,9.787971496582031,-0.0023191142268289516,0.006993303937655657,0.004592277481583728,0.32590818405151367,2019-06-18 15:33:37:756
0.19238221645355225,-0.048381127417087555,9.785576820373535,0.004606795350565213,0.006993303937655657,-0.000735345135219345,0.3308897018432617,2019-06-18 15:33:37:761
0.18519796431064606,-0.06753912568092346,9.728102684020996,-0.0009872085238642476,0.008591591223339655,-0.001934060274389437,0.33500099182128906,2019-06-18 15:33:37:765
0.2019612193107605,-0.03161787986755371,9.77599811553955,-0.00018806509233263786,0.010056687165006064,-6.939229186431566e-05,0.34088706970214844,2019-06-18 15:33:37:771
0.19717171788215637,-0.05796012654900551,9.768814086914062,-0.0009872085238642476,0.00632735137875692,-0.0004689640076301205,0.3459048271179199,2019-06-18 15:33:37:776
0.20675072073936462,-0.055565375834703445,9.797551155090332,0.0010106500630920993,0.0024648247686388392,0.001528894514307645,0.35088539123535156,2019-06-18 15:33:37:781
0.19717171788215637,-0.07232862710952759,9.732892990112305,-0.0008540179600696353,0.0053950171721203095,-0.00020258286378625062,0.3549985885620117,2019-06-18 15:33:37:785
0.16364522278308868,-0.04598637670278549,9.77599811553955,-5.487451634704159e-05,0.003397158715201125,-0.000735345135219345,0.3608846664428711,2019-06-18 15:33:37:791
0.19956646859645844,-0.05796012654900551,9.720918655395508,0.001143840691905293,0.004462683485632349,0.0027276098485334807,0.36499786376953125,2019-06-18 15:33:37:795
0.1947769671678543,-0.03640738129615784,9.821497917175293,-0.0021859236630343394,0.00632735137875692,-0.005130633935497294,0.37089967727661133,2019-06-18 15:33:37:801
0.2019612193107605,-0.10106562077999115,9.792760848999023,0.0024757463298514157,0.007526066192834106,0.0013957039505130327,0.3758888244628906,2019-06-18 15:33:37:806
0.18759271502494812,-0.07472337782382965,9.747261047363281,0.0023425557660568036,0.004462683485632349,0.0003301794401561345,0.38000011444091797,2019-06-18 15:33:37:810
0.15167146921157837,-0.05796012654900551,9.732892990112305,-0.0003212556723818955,0.005927779427298759,6.379828412128062e-05,0.3859119415283203,2019-06-18 15:33:37:816
0.19956646859645844,-0.05796012654900551,9.787971496582031,7.831605963855469e-05,0.005261826868400022,0.0013957039505130327,0.3900136947631836,2019-06-18 15:33:37:820
0.19717171788215637,-0.03161787986755371,9.787971496582031,0.00154341238328913,0.002864396460022676,0.003926324922684992,0.3958864212036133,2019-06-18 15:33:37:826
0.24267196655273438,-0.10106562077999115,9.795156478881836,0.0038076519677975387,0.005927779427298759,0.003926324922684992,0.40088605880737305,2019-06-18 15:33:37:831
0.17082947492599487,-0.06753912568092346,9.855024337768555,-0.00045444623617650777,0.00832521009575043,0.004459087177863441,0.4049997329711914,2019-06-18 15:33:37:835
0.18998746573925018,-0.07711812108755112,9.859814643859863,0.0019429840746729666,0.0053950171721203095,0.0007297511315399715,0.41089868545532227,2019-06-18 15:33:37:841
0.2019612193107605,-0.10106562077999115,9.785576820373535,-0.0007208273962750229,0.008724781527059942,0.0027276098485334807,0.4159212112426758,2019-06-18 15:33:37:846
0.2618299722671509,-0.05796012654900551,9.752050399780273,0.001143840691905293,0.008591591223339655,0.002061656899523257,0.42089080810546875,2019-06-18 15:33:37:851
0.20675072073936462,-0.0651443749666214,9.823892593383789,-5.487451634704159e-05,0.008991162654649167,0.0027276098485334807,0.4258871078491211,2019-06-18 15:33:37:856
0.182803213596344,-0.07951287180185318,9.778392791748047,-0.0017863519716505025,0.007792447840571981,-0.003399156606167335,0.43089771270751953,2019-06-18 15:33:37:861
0.18519796431064606,-0.03161787986755371,9.799945831298828,0.005405938733332886,0.008458400399470718,0.0012625133867184206,0.4358997344970703,2019-06-18 15:33:37:866
0.1684347242116928,-0.07711812108755112,9.706550598144531,0.0027421274574406405,0.004063111534174186,0.005125040256910827,0.4400029182434082,2019-06-18 15:33:37:870
0.1947769671678543,-0.06753912568092346,9.823892593383789,0.0010106500630920993,0.005128636044531084,-6.939229186431566e-05,0.4458937644958496,2019-06-18 15:33:37:876
0.21393495798110962,-0.07472337782382965,9.792760848999023,0.0004778877754043595,0.008058828968161205,-0.0008685356990139574,0.45000314712524414,2019-06-18 15:33:37:880
0.1492767184972763,-0.05317062884569168,9.7352876663208,-0.0009872085238642476,0.008991162654649167,-6.939229186431566e-05,0.4558982849121094,2019-06-18 15:33:37:886
0.17322422564029694,-0.09627611935138702,9.747261047363281,-0.0027186859182127886,0.004729064613221573,-0.0011349168916217633,0.46089744567871094,2019-06-18 15:33:37:891
0.19238221645355225,-0.09867087006568909,9.792760848999023,0.002076174638467579,0.003397158715201125,-0.000735345135219345,0.4650001525878906,2019-06-18 15:33:37:895
0.182803213596344,-0.05317062884569168,9.795156478881836,0.0026089368936460283,0.004595873789352636,0.0040595154864796045,0.4708852767944336,2019-06-18 15:33:37:901
0.16125047206878662,-0.08669712394475937,9.75444507598877,-0.0003212556723818955,0.004063111534174186,-0.0010017262628085697,0.4758901596069336,2019-06-18 15:33:37:906
0.15167146921157837,-0.055565375834703445,9.802340507507324,-5.487451634704159e-05,0.005927779427298759,-0.0027332037871942733,0.4800076484680176,2019-06-18 15:33:37:910
0.16364522278308868,-0.07951287180185318,9.761629104614258,-0.0023191142268289516,0.0053950171721203095,-0.0060629681421339055,0.4858875274658203,2019-06-18 15:33:37:916
0.17322422564029694,-0.05796012654900551,9.80473518371582,-0.0015199708440612782,0.0008665378730663289,0.0040595154864796045,0.4908876419067383,2019-06-18 15:33:37:921
0.19717171788215637,-0.07472337782382965,9.766419410705566,-0.0037842104285696868,0.006460541682477208,-0.007394873780080028,0.49588584899902344,2019-06-18 15:33:37:926
0.16364522278308868,-0.08909187465906143,9.737682342529297,0.002076174638467579,0.0053950171721203095,0.000996132259129196,0.5000014305114746,2019-06-18 15:33:37:930
0.19238221645355225,-0.09388136863708496,9.799945831298828,0.001143840691905293,0.008458400399470718,0.0029939909761227054,0.5058927536010742,2019-06-18 15:33:37:936
0.16125047206878662,-0.07232862710952759,9.778392791748047,0.0007442689355028748,0.006993303937655657,0.0003301794401561345,0.5099992752075195,2019-06-18 15:33:37:940
0.14448721706867218,-0.05077587813138962,9.730497360229492,0.0030085085850298653,0.00632735137875692,-0.0041982999889350085,0.5158891677856445,2019-06-18 15:33:37:946
0.1756189614534378,-0.026828380301594734,9.76402473449707,-0.0020527330992397273,0.0053950171721203095,-6.939229186431566e-05,0.5209012031555176,2019-06-18 15:33:37:951
0.17322422564029694,0.004303365014493465,9.7257080078125,-0.0017863519716505025,0.00832521009575043,6.379828412128062e-05,0.5258913040161133,2019-06-18 15:33:37:956
0.15406621992588043,-0.07951287180185318,9.773603439331055,-0.0020527330992397273,0.00486225491694186,0.006856517326166462,0.5308856964111328,2019-06-18 15:33:37:961
0.18519796431064606,-0.0843023732304573,9.809524536132812,-5.487451634704159e-05,0.006060970251167696,-6.939229186431566e-05,0.5349998474121094,2019-06-18 15:33:37:965
0.1947769671678543,-0.0843023732304573,9.802340507507324,-0.003917400992364299,0.008991162654649167,-0.0006021545714247328,0.5408859252929688,2019-06-18 15:33:37:971
0.16125047206878662,-0.07232862710952759,9.766419410705566,-0.00045444623617650777,0.005261826868400022,0.0021948473332807066,0.5459060668945312,2019-06-18 15:33:37:976
0.16364522278308868,-0.05077587813138962,9.783182144165039,0.0010106500630920993,0.00686011363393537,-0.00020258286378625062,0.5500054359436035,2019-06-18 15:33:37:980
0.1947769671678543,-0.08669712394475937,9.773603439331055,0.00021150663156048962,0.01325326069607676,-0.004997443631777007,0.5558872222900391,2019-06-18 15:33:37:986
0.13969773054122925,-0.05317062884569168,9.821497917175293,-0.0015199708440612782,0.005528207995989247,0.0017952757719340324,0.5600032806396484,2019-06-18 15:33:37:990
0.1564609706401825,-0.08190762251615524,9.783182144165039,-0.0005876368324804107,0.009390734606107327,-0.0041982999889350085,0.5650186538696289,2019-06-18 15:33:37:995
0.1564609706401825,-0.07711812108755112,9.785576820373535,0.0034080802764137014,0.0039299209703795735,0.0017952757719340324,0.5708870887756348,2019-06-18 15:33:38:001
0.15406621992588043,-0.06753912568092346,9.80473518371582,0.0014102218194945173,0.004063111534174186,0.005657802512089276,0.5758886337280273,2019-06-18 15:33:38:006
0.1947769671678543,-0.08669712394475937,9.780787467956543,-0.0008540179600696353,0.002864396460022676,-0.0014012980192109879,0.5800023078918457,2019-06-18 15:33:38:010
0.18040846288204193,-0.07951287180185318,9.838261604309082,0.0008774594992974871,0.013120070392356473,-0.00020258286378625062,0.5858869552612305,2019-06-18 15:33:38:016
0.18519796431064606,-0.07472337782382965,9.80473518371582,0.005805510684791048,0.0031307775876119005,0.0019284663357286445,0.590904712677002,2019-06-18 15:33:38:021
0.21393495798110962,-0.048381127417087555,9.8167085647583,0.00154341238328913,0.005261826868400022,-0.00020258286378625062,0.5950002670288086,2019-06-18 15:33:38:025
0.17082947492599487,-0.029223131015896797,9.744866371154785,0.004873176478154437,0.007792447840571981,0.0001969888601068769,0.6008810997009277,2019-06-18 15:33:38:031
0.17801371216773987,-0.05796012654900551,9.787971496582031,0.00154341238328913,0.011122211675362963,0.0011293228229238084,0.6058883666992188,2019-06-18 15:33:38:036
0.1756189614534378,-0.06993387639522552,9.749655723571777,-0.0019195425354451149,0.007925638144292268,-0.000735345135219345,0.6109061241149902,2019-06-18 15:33:38:041
0.15406621992588043,-0.08190762251615524,9.7352876663208,-0.0008540179600696353,0.006993303937655657,-6.939229186431566e-05,0.6149992942810059,2019-06-18 15:33:38:045
0.18759271502494812,-0.08190762251615524,9.728102684020996,0.0030085085850298653,0.0021984436410496144,-0.00020258286378625062,0.6200122833251953,2019-06-18 15:33:38:050
0.18519796431064606,-0.06035487726330757,9.737682342529297,-0.0013867802802666658,0.007392875889113818,-0.0003357734438355082,0.6258883476257324,2019-06-18 15:33:38:056
0.18519796431064606,-0.07232862710952759,9.84544563293457,0.004606795350565213,0.007392875889113818,-0.002999584914783498,0.6300044059753418,2019-06-18 15:33:38:060
0.1947769671678543,-0.06753912568092346,9.847840309143066,0.0006110783717082625,0.00686011363393537,0.002061656899523257,0.6359114646911621,2019-06-18 15:33:38:066
0.17801371216773987,-0.08909187465906143,9.814313888549805,-0.0015199708440612782,0.0036635398427903496,0.004725468305452665,0.6408858299255371,2019-06-18 15:33:38:071
0.2019612193107605,-0.04359162971377373,9.831077575683594,0.0010106500630920993,0.010189877468726351,-0.0031327754785781103,0.6458873748779297,2019-06-18 15:33:38:076
0.1684347242116928,-0.07472337782382965,9.785576820373535,-0.0005876368324804107,0.0031307775876119005,0.005125040256910827,0.6500039100646973,2019-06-18 15:33:38:080
0.1684347242116928,-0.07472337782382965,9.744866371154785,-0.0007208273962750229,0.00686011363393537,-0.001934060274389437,0.6558980941772461,2019-06-18 15:33:38:086
0.15885572135448456,-0.06274962425231934,9.76402473449707,-0.0020527330992397273,0.004329492661763411,0.0025944190246645436,0.6608858108520508,2019-06-18 15:33:38:091
0.16125047206878662,-0.03640738129615784,9.768814086914062,0.001143840691905293,0.0024648247686388392,0.0017952757719340324,0.6650009155273438,2019-06-18 15:33:38:095
0.15167146921157837,-0.0843023732304573,9.819103240966797,-0.00018806509233263786,0.005128636044531084,-0.0008685356990139574,0.6708889007568359,2019-06-18 15:33:38:101
0.19238221645355225,-0.04359162971377373,9.799945831298828,-5.487451634704159e-05,0.005528207995989247,-0.0014012980192109879,0.6759071350097656,2019-06-18 15:33:38:106
0.21872445940971375,-0.08190762251615524,9.821497917175293,-0.0020527330992397273,0.009257544302387042,0.0003301794401561345,0.6800155639648438,2019-06-18 15:33:38:110
0.1947769671678543,-0.07232862710952759,9.823892593383789,-0.0005876368324804107,0.003530349278995737,0.0027276098485334807,0.6858887672424316,2019-06-18 15:33:38:116
0.17082947492599487,-0.117828868329525,9.742471694946289,-0.0009872085238642476,0.007392875889113818,0.0025944190246645436,0.6908836364746094,2019-06-18 15:33:38:121
0.1947769671678543,-0.034012630581855774,9.77599811553955,-0.0023191142268289516,0.002864396460022676,-0.0015344885830056003,0.6950006484985352,2019-06-18 15:33:38:125
0.16603997349739075,-0.055565375834703445,9.785576820373535,7.831605963855469e-05,0.008458400399470718,0.0027276098485334807,0.700901985168457,2019-06-18 15:33:38:131
0.182803213596344,-0.08909187465906143,9.732892990112305,-0.0005876368324804107,0.004729064613221573,0.0027276098485334807,0.7058877944946289,2019-06-18 15:33:38:136
0.16603997349739075,-0.06035487726330757,9.7352876663208,-0.0011203991526774412,0.007526066192834106,-0.0032659660423727224,0.7108850479125977,2019-06-18 15:33:38:141
0.19238221645355225,-0.09867087006568909,9.84544563293457,0.00473998617443415,0.0031307775876119005,0.0025944190246645436,0.715886116027832,2019-06-18 15:33:38:146
0.1947769671678543,-0.0843023732304573,9.835866928100586,-0.0025854953544181764,0.006060970251167696,0.0004633700039507468,0.7200250625610352,2019-06-18 15:33:38:150
0.15885572135448456,-0.06274962425231934,9.787971496582031,-0.0007208273962750229,0.007792447840571981,0.0019284663357286445,0.7258853912353516,2019-06-18 15:33:38:156
0.15406621992588043,-0.08909187465906143,9.737682342529297,0.00473998617443415,0.005528207995989247,0.004725468305452665,0.7309036254882812,2019-06-18 15:33:38:161
0.19238221645355225,-0.0388021282851696,9.766419410705566,0.0014102218194945173,0.0032639681514065122,0.005125040256910827,0.7349996566772461,2019-06-18 15:33:38:165
0.13490822911262512,-0.08190762251615524,9.768814086914062,-0.0007208273962750229,0.005661398299709534,0.0013957039505130327,0.740898609161377,2019-06-18 15:33:38:171
0.182803213596344,-0.048381127417087555,9.761629104614258,-0.00045444623617650777,0.0076592570167030435,0.003793134358890379,0.7458972930908203,2019-06-18 15:33:38:176
0.1684347242116928,-0.048381127417087555,9.773603439331055,0.006604654067558721,0.003796730406584962,0.009653519946076296,0.7499990463256836,2019-06-18 15:33:38:180
0.23309296369552612,-0.05317062884569168,9.787971496582031,0.0010106500630920993,0.006460541682477208,0.0017952757719340324,0.7558879852294922,2019-06-18 15:33:38:186
0.182803213596344,-0.05077587813138962,9.823892593383789,-0.0015199708440612782,0.00686011363393537,-0.0004689640076301205,0.7600035667419434,2019-06-18 15:33:38:190
0.1684347242116928,-0.07232862710952759,9.835866928100586,-0.003917400992364299,0.010056687165006064,0.0025944190246645436,0.7658867835998535,2019-06-18 15:33:38:196
0.21154020726680756,-0.0651443749666214,9.768814086914062,7.831605963855469e-05,0.00686011363393537,-0.0010017262628085697,0.7700014114379883,2019-06-18 15:33:38:200
0.23069821298122406,-0.07472337782382965,9.759234428405762,0.004873176478154437,0.00632735137875692,0.003793134358890379,0.7758998870849609,2019-06-18 15:33:38:206
0.1947769671678543,-0.07711812108755112,9.780787467956543,-0.0005876368324804107,0.011388593323100838,-0.0018008697105948246,0.7800130844116211,2019-06-18 15:33:38:210
0.1947769671678543,-0.05796012654900551,9.77599811553955,0.004873176478154437,0.0027312058962280636,-0.0003357734438355082,0.7858905792236328,2019-06-18 15:33:38:216
0.19717171788215637,-0.06274962425231934,9.787971496582031,0.0008774594992974871,0.00686011363393537,0.003793134358890379,0.7900047302246094,2019-06-18 15:33:38:220
0.18759271502494812,-0.03640738129615784,9.77599811553955,0.001676602947083742,0.005661398299709534,0.0011293228229238084,0.7958879470825195,2019-06-18 15:33:38:226
0.18519796431064606,-0.014854632318019867,9.761629104614258,0.005938700988511335,0.007259685065244881,0.002328037897075319,0.8008847236633301,2019-06-18 15:33:38:231
0.1756189614534378,-0.029223131015896797,9.737682342529297,-0.0012535897164720534,0.006993303937655657,0.0001969888601068769,0.8050017356872559,2019-06-18 15:33:38:235
0.1684347242116928,-0.07951287180185318,9.792760848999023,0.0019429840746729666,0.009124352958369454,0.003793134358890379,0.8108854293823242,2019-06-18 15:33:38:241
0.2211192101240158,-0.06753912568092346,9.802340507507324,-0.0011203991526774412,0.0061941605548879826,0.0008629416953345836,0.8158884048461914,2019-06-18 15:33:38:246
0.17801371216773987,-0.07232862710952759,9.814313888549805,7.831605963855469e-05,0.007792447840571981,-0.0010017262628085697,0.8200178146362305,2019-06-18 15:33:38:250
0.182803213596344,-0.03640738129615784,9.814313888549805,-0.0017863519716505025,0.00832521009575043,0.0025944190246645436,0.825901985168457,2019-06-18 15:33:38:256
0.1564609706401825,-0.05317062884569168,9.790366172790527,0.0030085085850298653,0.005261826868400022,0.0007297511315399715,0.8300113677978516,2019-06-18 15:33:38:260
0.2211192101240158,-0.029223131015896797,9.843050956726074,-0.0017863519716505025,0.005528207995989247,0.0025944190246645436,0.8350048065185547,2019-06-18 15:33:38:265
0.22351396083831787,-0.06993387639522552,9.749655723571777,-0.00045444623617650777,0.0053950171721203095,0.0013957039505130327,0.8408889770507812,2019-06-18 15:33:38:271
0.18519796431064606,-0.06274962425231934,9.80473518371582,0.00154341238328913,0.008991162654649167,0.002328037897075319,0.8458881378173828,2019-06-18 15:33:38:276
0.17082947492599487,-0.06274962425231934,9.843050956726074,0.0036744614040029266,0.01165497393054141,0.004192706050274216,0.8508872985839844,2019-06-18 15:33:38:281
0.18998746573925018,-0.08909187465906143,9.773603439331055,0.0038076519677975387,0.0036635398427903496,0.0040595154864796045,0.8558855056762695,2019-06-18 15:33:38:286
0.18519796431064606,-0.034012630581855774,9.790366172790527,-0.0020527330992397273,0.013519642343814635,0.0019284663357286445,0.8600015640258789,2019-06-18 15:33:38:290
0.18519796431064606,-0.09388136863708496,9.77599811553955,-0.0033846387371858503,0.0053950171721203095,0.0035267532313011545,0.8658905029296875,2019-06-18 15:33:38:296
0.18998746573925018,-0.07232862710952759,9.749655723571777,7.831605963855469e-05,0.005661398299709534,-0.0003357734438355082,0.8700065612792969,2019-06-18 15:33:38:300
0.19238221645355225,-0.03640738129615784,9.730497360229492,-0.0008540179600696353,0.004462683485632349,0.004858658609172953,0.8750209808349609,2019-06-18 15:33:38:305
0.1756189614534378,-0.08669712394475937,9.76402473449707,0.0003446972116097473,0.006993303937655657,0.002461228460869931,0.8808879852294922,2019-06-18 15:33:38:311
0.2019612193107605,-0.06993387639522552,9.80473518371582,0.0028753180212352527,0.005128636044531084,-0.0008685356990139574,0.8858861923217773,2019-06-18 15:33:38:316
0.18998746573925018,-0.05317062884569168,9.823892593383789,0.0004778877754043595,0.005528207995989247,-6.939229186431566e-05,0.8900046348571777,2019-06-18 15:33:38:320
0.2091454714536667,-0.1298026144504547,9.814313888549805,0.0024757463298514157,0.00486225491694186,0.00326037210371193,0.8958864212036133,2019-06-18 15:33:38:326
0.21632970869541168,-0.05077587813138962,9.835866928100586,-0.0025854953544181764,0.008458400399470718,-0.0035323471699619468,0.9000005722045898,2019-06-18 15:33:38:330
0.18759271502494812,-0.09627611935138702,9.850234985351562,0.0012770312556999051,0.005261826868400022,0.00166208520813942,0.9058904647827148,2019-06-18 15:33:38:336
0.19956646859645844,-0.0388021282851696,9.744866371154785,-0.0032514481733912377,0.009923496861285777,-0.0031327754785781103,0.9100236892700195,2019-06-18 15:33:38:340
0.18759271502494812,-0.08190762251615524,9.821497917175293,0.0036744614040029266,0.004729064613221573,-6.939229186431566e-05,0.9158897399902344,2019-06-18 15:33:38:346
0.14448721706867218,-0.0843023732304573,9.740077018737793,0.003141699148824477,0.003397158715201125,0.0027276098485334807,0.9209060668945312,2019-06-18 15:33:38:351
0.21154020726680756,-0.05796012654900551,9.749655723571777,-0.0037842104285696868,0.0023316342048442266,-0.0008685356990139574,0.9250030517578125,2019-06-18 15:33:38:355
0.16125047206878662,-0.07711812108755112,9.783182144165039,-0.0008540179600696353,0.007259685065244881,-0.0023336320958104364,0.9308843612670898,2019-06-18 15:33:38:361
0.16603997349739075,-0.10346037149429321,9.766419410705566,0.0032748897126190896,0.007925638144292268,0.003659943795095767,0.9349994659423828,2019-06-18 15:33:38:365
0.17322422564029694,-0.06753912568092346,9.790366172790527,0.0012770312556999051,0.003530349278995737,0.00326037210371193,0.9408864974975586,2019-06-18 15:33:38:371
0.20435597002506256,-0.09627611935138702,9.835866928100586,0.0006110783717082625,0.0053950171721203095,0.0008629416953345836,0.9458847045898438,2019-06-18 15:33:38:376
0.1564609706401825,-0.07711812108755112,9.76402473449707,0.0026089368936460283,0.0031307775876119005,-0.000735345135219345,0.9508838653564453,2019-06-18 15:33:38:381
0.19717171788215637,-0.06035487726330757,9.80473518371582,-0.00018806509233263786,0.010056687165006064,-0.0006021545714247328,0.9558939933776855,2019-06-18 15:33:38:386
0.1684347242116928,-0.03640738129615784,9.807129859924316,-0.0003212556723818955,0.007392875889113818,0.0005965605677453591,0.9608907699584961,2019-06-18 15:33:38:391
0.1756189614534378,-0.10585512220859528,9.780787467956543,0.0004778877754043595,0.0049954457408107975,-0.0004689640076301205,0.965019702911377,2019-06-18 15:33:38:395
0.1756189614534378,-0.08909187465906143,9.783182144165039,-0.0032514481733912377,0.006993303937655657,-0.0023336320958104364,0.9708876609802246,2019-06-18 15:33:38:401
0.1947769671678543,-0.08190762251615524,9.773603439331055,0.00021150663156048962,0.006460541682477208,0.004725468305452665,0.9750003814697266,2019-06-18 15:33:38:405
0.1756189614534378,-0.06753912568092346,9.802340507507324,0.0028753180212352527,0.004729064613221573,0.004858658609172953,0.9808874130249023,2019-06-18 15:33:38:411
0.17322422564029694,-0.055565375834703445,9.811919212341309,-0.0019195425354451149,0.006726922810066432,0.0001969888601068769,0.9858899116516113,2019-06-18 15:33:38:416
0.18040846288204193,-0.048381127417087555,9.814313888549805,-0.0015199708440612782,0.00686011363393537,0.0005965605677453591,0.9899997711181641,2019-06-18 15:33:38:420
0.19956646859645844,-0.05796012654900551,9.716129302978516,-0.0028518764820074007,0.010855831067922388,0.0027276098485334807,0.9958896636962891,2019-06-18 15:33:38:426
0.182803213596344,-0.08669712394475937,9.778392791748047,0.0026089368936460283,0.008058828968161205,-0.003399156606167335,1.0000057220458984,2019-06-18 15:33:38:430
0.18040846288204193,-0.09867087006568909,9.752050399780273,-5.487451634704159e-05,0.004462683485632349,-6.939229186431566e-05,1.0059175491333008,2019-06-18 15:33:38:436
0.23548771440982819,-0.05317062884569168,9.778392791748047,0.0008774594992974871,0.004329492661763411,0.0007297511315399715,1.010899543762207,2019-06-18 15:33:38:441
0.16125047206878662,-0.08190762251615524,9.756839752197266,0.00021150663156048962,0.003530349278995737,-0.00020258286378625062,1.0150012969970703,2019-06-18 15:33:38:445
0.20675072073936462,-0.05077587813138962,9.773603439331055,-0.0003212556723818955,0.010722639723904802,0.0035267532313011545,1.020914077758789,2019-06-18 15:33:38:451
0.17801371216773987,-0.04359162971377373,9.83347225189209,0.0030085085850298653,0.008192019271881493,-0.0011349168916217633,1.02500581741333,2019-06-18 15:33:38:455
0.16364522278308868,-0.05077587813138962,9.740077018737793,-0.0007208273962750229,0.006460541682477208,-0.0024668226596050486,1.0308866500854492,2019-06-18 15:33:38:461
0.17322422564029694,-0.06274962425231934,9.768814086914062,0.0024757463298514157,0.009923496861285777,-0.000735345135219345,1.035888671875,2019-06-18 15:33:38:466
0.18998746573925018,-0.07951287180185318,9.819103240966797,-0.0013867802802666658,0.005528207995989247,0.000996132259129196,1.0408868789672852,2019-06-18 15:33:38:471
0.18519796431064606,-0.08669712394475937,9.778392791748047,-0.0017863519716505025,0.009923496861285777,0.006323755070988013,1.0458908081054688,2019-06-18 15:33:38:476
0.18519796431064606,-0.07951287180185318,9.826288223266602,0.0032748897126190896,0.0076592570167030435,-0.0006021545714247328,1.050004005432129,2019-06-18 15:33:38:480
0.21632970869541168,-0.04359162971377373,9.814313888549805,0.0012770312556999051,0.006726922810066432,0.000996132259129196,1.0558881759643555,2019-06-18 15:33:38:486
0.1947769671678543,-0.08669712394475937,9.778392791748047,0.0004778877754043595,0.008192019271881493,-0.0012681074554163755,1.0608906745910645,2019-06-18 15:33:38:491
0.18759271502494812,-0.07711812108755112,9.80473518371582,-0.0009872085238642476,0.005927779427298759,0.0025944190246645436,1.065887451171875,2019-06-18 15:33:38:496
0.182803213596344,-0.07472337782382965,9.8167085647583,0.0024757463298514157,0.005528207995989247,-0.0010017262628085697,1.0708904266357422,2019-06-18 15:33:38:501
0.17082947492599487,-0.05317062884569168,9.8167085647583,-0.0003212556723818955,0.00632735137875692,-0.001934060274389437,1.0749988555908203,2019-06-18 15:33:38:505
0.18040846288204193,-0.03161787986755371,9.742471694946289,0.005938700988511335,0.006060970251167696,-0.0006021545714247328,1.0808920860290527,2019-06-18 15:33:38:511
0.19956646859645844,-0.0388021282851696,9.771208763122559,0.0019429840746729666,0.0015324906920393903,0.0012625133867184206,1.0859098434448242,2019-06-18 15:33:38:516
0.21393495798110962,-0.07711812108755112,9.787971496582031,0.002076174638467579,0.011388593323100838,-0.0014012980192109879,1.090017318725586,2019-06-18 15:33:38:520
0.22351396083831787,-0.07951287180185318,9.756839752197266,0.003141699148824477,0.007259685065244881,0.0001969888601068769,1.0958900451660156,2019-06-18 15:33:38:526
0.13969773054122925,-0.05317062884569168,9.756839752197266,0.006737844891427659,0.005528207995989247,0.002860800412328093,1.1009016036987305,2019-06-18 15:33:38:531
0.1947769671678543,-0.03640738129615784,9.826288223266602,0.0026089368936460283,0.006060970251167696,-0.002999584914783498,1.1049995422363281,2019-06-18 15:33:38:535
0.13969773054122925,-0.06993387639522552,9.766419410705566,0.005805510684791048,0.008724781527059942,0.0003301794401561345,1.110884666442871,2019-06-18 15:33:38:541
0.17082947492599487,-0.09867087006568909,9.80473518371582,0.003541270840208314,0.007792447840571981,0.0029939909761227054,1.1158857345581055,2019-06-18 15:33:38:546
0.16603997349739075,-0.07711812108755112,9.773603439331055,0.0032748897126190896,0.006993303937655657,0.00326037210371193,1.120004653930664,2019-06-18 15:33:38:550
0.228303462266922,-0.08190762251615524,9.792760848999023,-0.0021859236630343394,0.005794589123578471,-0.003399156606167335,1.1258902549743652,2019-06-18 15:33:38:556
0.16603997349739075,-0.05796012654900551,9.778392791748047,0.003141699148824477,0.004595873789352636,0.005391421384500052,1.130021095275879,2019-06-18 15:33:38:560
0.18998746573925018,-0.09627611935138702,9.795156478881836,0.0010106500630920993,0.0036635398427903496,0.003926324922684992,1.1358933448791504,2019-06-18 15:33:38:566
0.1947769671678543,-0.07232862710952759,9.71373462677002,0.002209365202262191,0.0039299209703795735,0.0003301794401561345,1.1399993896484375,2019-06-18 15:33:38:570
0.20435597002506256,-0.0914866253733635,9.780787467956543,0.0018097935108783545,0.00632735137875692,0.0007297511315399715,1.1459064483642578,2019-06-18 15:33:38:576
0.1947769671678543,-0.06753912568092346,9.83347225189209,-0.0028518764820074007,0.006060970251167696,0.0005965605677453591,1.150888442993164,2019-06-18 15:33:38:581
0.18040846288204193,-0.0843023732304573,9.749655723571777,-0.0017863519716505025,0.004196302097968799,0.00166208520813942,1.1550002098083496,2019-06-18 15:33:38:585
0.23548771440982819,-0.05796012654900551,9.807129859924316,-0.003917400992364299,0.005927779427298759,-6.939229186431566e-05,1.1608877182006836,2019-06-18 15:33:38:591
0.19238221645355225,-0.041196878999471664,9.7352876663208,0.0024757463298514157,0.0020652529472178394,0.0052582305606311145,1.1650009155273438,2019-06-18 15:33:38:595
0.16364522278308868,-0.11303936690092087,9.876577377319336,-0.0019195425354451149,0.007392875889113818,0.0005965605677453591,1.1708860397338867,2019-06-18 15:33:38:601
0.18040846288204193,-0.019644131883978844,9.795156478881836,0.0034080802764137014,0.007259685065244881,0.0001969888601068769,1.175004005432129,2019-06-18 15:33:38:605
0.19717171788215637,-0.029223131015896797,9.821497917175293,0.005938700988511335,0.006460541682477208,0.0011293228229238084,1.1808881759643555,2019-06-18 15:33:38:611
0.14688196778297424,-0.034012630581855774,9.75444507598877,-0.0005876368324804107,0.008591591223339655,0.001528894514307645,1.1858863830566406,2019-06-18 15:33:38:616
0.19956646859645844,-0.05077587813138962,9.720918655395508,0.0003446972116097473,0.00832521009575043,0.001528894514307645,1.190018653869629,2019-06-18 15:33:38:620
0.182803213596344,-0.10585512220859528,9.84544563293457,0.0014102218194945173,0.008991162654649167,0.002860800412328093,1.1958932876586914,2019-06-18 15:33:38:626
0.19717171788215637,-0.05317062884569168,9.838261604309082,7.831605963855469e-05,0.004729064613221573,0.001528894514307645,1.2000021934509277,2019-06-18 15:33:38:630
0.16603997349739075,-0.048381127417087555,9.797551155090332,0.002076174638467579,0.0076592570167030435,0.005524611688220339,1.2058897018432617,2019-06-18 15:33:38:636
0.16603997349739075,-0.041196878999471664,9.749655723571777,0.0014102218194945173,0.005927779427298759,0.0027276098485334807,1.2108869552612305,2019-06-18 15:33:38:641
0.17801371216773987,-0.07472337782382965,9.802340507507324,-0.0005876368324804107,0.0061941605548879826,-0.0035323471699619468,1.2158875465393066,2019-06-18 15:33:38:646
0.13730297982692719,-0.07232862710952759,9.771208763122559,0.0026089368936460283,0.0053950171721203095,0.004725468305452665,1.2209091186523438,2019-06-18 15:33:38:651
0.18759271502494812,-0.041196878999471664,9.809524536132812,-0.0005876368324804107,0.007392875889113818,0.0011293228229238084,1.2250070571899414,2019-06-18 15:33:38:655
0.15167146921157837,-0.0388021282851696,9.761629104614258,-0.00018806509233263786,0.008458400399470718,0.0025944190246645436,1.2308845520019531,2019-06-18 15:33:38:661
0.1756189614534378,-0.07472337782382965,9.802340507507324,0.0010106500630920993,0.006060970251167696,-0.003931918861345784,1.2358884811401367,2019-06-18 15:33:38:666
0.18040846288204193,-0.0651443749666214,9.792760848999023,-5.487451634704159e-05,0.005528207995989247,0.0025944190246645436,1.240889549255371,2019-06-18 15:33:38:671
0.1947769671678543,-0.07472337782382965,9.787971496582031,0.005405938733332886,0.008724781527059942,-0.0018008697105948246,1.2449994087219238,2019-06-18 15:33:38:675
0.23548771440982819,-0.048381127417087555,9.747261047363281,0.002076174638467579,0.006460541682477208,0.0007297511315399715,1.250889778137207,2019-06-18 15:33:38:681
0.17801371216773987,-0.04359162971377373,9.75444507598877,0.0034080802764137014,0.006460541682477208,0.008321613787981522,1.2550005912780762,2019-06-18 15:33:38:685
0.18040846288204193,-0.08190762251615524,9.783182144165039,0.003141699148824477,0.002997587023817288,0.0035267532313011545,1.2608861923217773,2019-06-18 15:33:38:691
0.21393495798110962,-0.06035487726330757,9.771208763122559,0.0027421274574406405,0.009657115213547902,-0.0015344885830056003,1.265000343322754,2019-06-18 15:33:38:695
0.21393495798110962,-0.06753912568092346,9.732892990112305,-0.00018806509233263786,0.010722639723904802,0.002860800412328093,1.2709007263183594,2019-06-18 15:33:38:701
0.17322422564029694,-0.0843023732304573,9.773603439331055,-0.0012535897164720534,0.004329492661763411,-0.0035323471699619468,1.2758889198303223,2019-06-18 15:33:38:706
0.19956646859645844,-0.04359162971377373,9.819103240966797,0.0026089368936460283,0.011122211675362963,-0.00020258286378625062,1.2809038162231445,2019-06-18 15:33:38:711
0.22351396083831787,-0.055565375834703445,9.785576820373535,0.002209365202262191,0.009923496861285777,-0.003399156606167335,1.2850017547607422,2019-06-18 15:33:38:715
0.18759271502494812,-0.0651443749666214,9.8167085647583,-0.002452304790623564,0.007126494761524595,0.004592277481583728,1.2908849716186523,2019-06-18 15:33:38:721
0.228303462266922,-0.07951287180185318,9.749655723571777,0.0018097935108783545,0.0076592570167030435,0.000996132259129196,1.2959818840026855,2019-06-18 15:33:38:726
0.18759271502494812,-0.07232862710952759,9.811919212341309,0.0019429840746729666,0.008458400399470718,0.0003301794401561345,1.3000116348266602,2019-06-18 15:33:38:730
0.182803213596344,-0.05077587813138962,9.752050399780273,0.004074033095386763,0.00632735137875692,0.0019284663357286445,1.3058977127075195,2019-06-18 15:33:38:736
0.18040846288204193,-0.055565375834703445,9.756839752197266,0.003141699148824477,0.0053950171721203095,0.00326037210371193,1.3100090026855469,2019-06-18 15:33:38:740
0.16364522278308868,-0.08669712394475937,9.761629104614258,-0.0005876368324804107,0.007792447840571981,0.0031271815399173176,1.3150067329406738,2019-06-18 15:33:38:745
0.17322422564029694,-0.05077587813138962,9.802340507507324,0.0034080802764137014,0.00686011363393537,-0.005130633935497294,1.3209123611450195,2019-06-18 15:33:38:751
0.20675072073936462,-0.03161787986755371,9.823892593383789,-0.0012535897164720534,0.00832521009575043,0.002328037897075319,1.3259105682373047,2019-06-18 15:33:38:756
0.19717171788215637,-0.055565375834703445,9.8167085647583,0.0036744614040029266,0.009257544302387042,0.0005965605677453591,1.3299989700317383,2019-06-18 15:33:38:760
0.19956646859645844,-0.07472337782382965,9.768814086914062,-0.00018806509233263786,0.005794589123578471,-0.006329349269723131,1.335888385772705,2019-06-18 15:33:38:766
0.16125047206878662,-0.07232862710952759,9.670629501342773,-0.0025854953544181764,0.005661398299709534,0.004459087177863441,1.3400030136108398,2019-06-18 15:33:38:770
0.1756189614534378,-0.07472337782382965,9.752050399780273,-0.0029850670458020133,0.006460541682477208,-0.0006021545714247328,1.3458876609802246,2019-06-18 15:33:38:776
0.19956646859645844,-0.0914866253733635,9.766419410705566,0.0019429840746729666,0.007526066192834106,0.0007297511315399715,1.350001335144043,2019-06-18 15:33:38:780
0.17322422564029694,-0.04359162971377373,9.771208763122559,0.003541270840208314,0.005261826868400022,-0.001934060274389437,1.3558917045593262,2019-06-18 15:33:38:786
0.17082947492599487,-0.03161787986755371,9.797551155090332,0.0038076519677975387,0.005661398299709534,6.379828412128062e-05,1.3608903884887695,2019-06-18 15:33:38:791
0.1947769671678543,-0.08669712394475937,9.823892593383789,0.00021150663156048962,0.01032306881274394,-0.0028663943509888855,1.364999771118164,2019-06-18 15:33:38:795
0.18519796431064606,-0.06993387639522552,9.831077575683594,0.0010106500630920993,0.009257544302387042,0.003393562667506543,1.3709039688110352,2019-06-18 15:33:38:801
0.19956646859645844,-0.08190762251615524,9.761629104614258,0.0003446972116097473,0.0076592570167030435,-0.005130633935497294,1.3750009536743164,2019-06-18 15:33:38:805
0.16603997349739075,-0.10346037149429321,9.7352876663208,0.0010106500630920993,0.00832521009575043,0.0040595154864796045,1.3808860778808594,2019-06-18 15:33:38:811
0.19238221645355225,-0.06993387639522552,9.732892990112305,0.0004778877754043595,0.005927779427298759,-0.0008685356990139574,1.3849997520446777,2019-06-18 15:33:38:815
0.17322422564029694,-0.05317062884569168,9.756839752197266,0.0019429840746729666,0.003530349278995737,0.00326037210371193,1.3908863067626953,2019-06-18 15:33:38:821
0.19238221645355225,-0.07232862710952759,9.811919212341309,-0.00045444623617650777,0.00486225491694186,0.0012625133867184206,1.395888328552246,2019-06-18 15:33:38:826
0.18998746573925018,-0.04598637670278549,9.740077018737793,-0.0027186859182127886,0.0023316342048442266,-0.0006021545714247328,1.4008855819702148,2019-06-18 15:33:38:831
0.18998746573925018,-0.06274962425231934,9.855024337768555,0.003940842531592151,0.006060970251167696,0.004725468305452665,1.4058876037597656,2019-06-18 15:33:38:836
0.19956646859645844,-0.034012630581855774,9.893341064453125,-0.0011203991526774412,0.008058828968161205,-0.001934060274389437,1.410024642944336,2019-06-18 15:33:38:840
0.17082947492599487,-0.0843023732304573,9.843050956726074,0.002076174638467579,0.005794589123578471,0.0007297511315399715,1.4159011840820312,2019-06-18 15:33:38:846
0.16364522278308868,-0.04598637670278549,9.768814086914062,-0.0036510198647750746,0.007126494761524595,0.0029939909761227054,1.4200005531311035,2019-06-18 15:33:38:850
0.15167146921157837,-0.06993387639522552,9.7257080078125,0.0018097935108783545,0.007259685065244881,0.0011293228229238084,1.425889015197754,2019-06-18 15:33:38:856
0.18759271502494812,-0.10824987292289734,9.802340507507324,0.0027421274574406405,0.006460541682477208,0.0001969888601068769,1.430887222290039,2019-06-18 15:33:38:861
0.1564609706401825,-0.09627611935138702,9.742471694946289,0.0008774594992974871,0.007259685065244881,0.0005965605677453591,1.435887336730957,2019-06-18 15:33:38:866
0.18759271502494812,-0.05317062884569168,9.814313888549805,0.0019429840746729666,0.004729064613221573,-0.0003357734438355082,1.4408864974975586,2019-06-18 15:33:38:871
0.1684347242116928,-0.08190762251615524,9.792760848999023,0.001676602947083742,0.007792447840571981,-0.0027332037871942733,1.444997787475586,2019-06-18 15:33:38:875
0.1947769671678543,-0.0651443749666214,9.802340507507324,0.0027421274574406405,0.005261826868400022,0.003393562667506543,1.4508867263793945,2019-06-18 15:33:38:881
0.2019612193107605,-0.06993387639522552,9.749655723571777,0.001676602947083742,0.0015324906920393903,0.002461228460869931,1.4558992385864258,2019-06-18 15:33:38:886
0.17322422564029694,-0.07711812108755112,9.761629104614258,-0.0040505915561589115,0.006060970251167696,0.003793134358890379,1.4600095748901367,2019-06-18 15:33:38:890
0.17801371216773987,-0.06993387639522552,9.831077575683594,0.0019429840746729666,0.008192019271881493,0.0031271815399173176,1.4658889770507812,2019-06-18 15:33:38:896
0.20675072073936462,-0.05796012654900551,9.761629104614258,0.0028753180212352527,0.002997587023817288,-0.0004689640076301205,1.4700031280517578,2019-06-18 15:33:38:900
0.17082947492599487,-0.05077587813138962,9.771208763122559,0.0032748897126190896,0.005528207995989247,0.003793134358890379,1.4758844375610352,2019-06-18 15:33:38:906
0.1756189614534378,-0.0843023732304573,9.77599811553955,-0.00045444623617650777,0.0049954457408107975,0.002860800412328093,1.480001449584961,2019-06-18 15:33:38:910
0.1684347242116928,-0.0914866253733635,9.797551155090332,0.001676602947083742,0.0020652529472178394,0.002860800412328093,1.485886573791504,2019-06-18 15:33:38:916
0.1947769671678543,-0.07232862710952759,9.75444507598877,0.0012770312556999051,0.0027312058962280636,0.0005965605677453591,1.4900035858154297,2019-06-18 15:33:38:920
0.19238221645355225,-0.06274962425231934,9.768814086914062,0.0019429840746729666,0.010056687165006064,-0.00020258286378625062,1.4958877563476562,2019-06-18 15:33:38:926
0.18998746573925018,-0.08190762251615524,9.80473518371582,-0.0016531614078558903,0.006993303937655657,-0.0027332037871942733,1.5009145736694336,2019-06-18 15:33:38:931
0.20435597002506256,-0.08669712394475937,9.759234428405762,0.0019429840746729666,0.00686011363393537,-0.0012681074554163755,1.5050010681152344,2019-06-18 15:33:38:935
0.16125047206878662,-0.048381127417087555,9.752050399780273,-0.0012535897164720534,0.008591591223339655,0.0035267532313011545,1.510885238647461,2019-06-18 15:33:38:941
0.18040846288204193,-0.10585512220859528,9.720918655395508,0.002209365202262191,0.00632735137875692,-0.004997443631777007,1.5149989128112793,2019-06-18 15:33:38:945
0.17801371216773987,-0.09867087006568909,9.737682342529297,0.0024757463298514157,0.006460541682477208,0.0029939909761227054,1.5209112167358398,2019-06-18 15:33:38:951
0.17322422564029694,-0.05077587813138962,9.821497917175293,0.0027421274574406405,0.010456259116464226,0.00326037210371193,1.5250024795532227,2019-06-18 15:33:38:955
0.17082947492599487,-0.05317062884569168,9.771208763122559,0.00021150663156048962,0.0023316342048442266,0.0025944190246645436,1.5308856964111328,2019-06-18 15:33:38:961
0.2019612193107605,-0.08909187465906143,9.77599811553955,0.0019429840746729666,0.0049954457408107975,0.0004633700039507468,1.535001277923584,2019-06-18 15:33:38:965
0.23069821298122406,-0.06035487726330757,9.838261604309082,0.001143840691905293,0.0053950171721203095,0.0003301794401561345,1.5408849716186523,2019-06-18 15:33:38:971
0.19717171788215637,-0.07711812108755112,9.855024337768555,0.0014102218194945173,0.006593732506346145,0.0004633700039507468,1.5458884239196777,2019-06-18 15:33:38:976
0.2019612193107605,-0.06274962425231934,9.76402473449707,0.0007442689355028748,0.0061941605548879826,-0.0027332037871942733,1.5509109497070312,2019-06-18 15:33:38:981
0.17082947492599487,-0.08669712394475937,9.799945831298828,0.0024757463298514157,0.004595873789352636,-0.005263824759366232,1.555887222290039,2019-06-18 15:33:38:986
0.20435597002506256,-0.08669712394475937,9.773603439331055,0.001143840691905293,0.0019320623834232272,-0.0022004415320158242,1.5600018501281738,2019-06-18 15:33:38:990
0.18998746573925018,-0.019644131883978844,9.742471694946289,0.0072706071466061084,0.0049954457408107975,-0.004065109425140397,1.5658864974975586,2019-06-18 15:33:38:996
0.18759271502494812,-0.06753912568092346,9.747261047363281,0.0012770312556999051,0.002997587023817288,0.002860800412328093,1.5700006484985352,2019-06-18 15:33:39:000
0.18040846288204193,-0.04598637670278549,9.730497360229492,0.004074033095386763,0.007392875889113818,0.004592277481583728,1.575887680053711,2019-06-18 15:33:39:006
0.14448721706867218,-0.055565375834703445,9.752050399780273,-5.487451634704159e-05,0.004462683485632349,0.0017952757719340324,1.5800018310546875,2019-06-18 15:33:39:010
0.19238221645355225,-0.048381127417087555,9.768814086914062,0.0034080802764137014,0.008724781527059942,0.0005965605677453591,1.585890293121338,2019-06-18 15:33:39:016
0.17322422564029694,-0.06993387639522552,9.76402473449707,0.002076174638467579,0.009124352958369454,0.002061656899523257,1.5900030136108398,2019-06-18 15:33:39:020
0.17801371216773987,-0.048381127417087555,9.76402473449707,0.00620508211610056,0.009657115213547902,0.00645694589485695,1.5959057807922363,2019-06-18 15:33:39:026
0.18759271502494812,-0.0388021282851696,9.749655723571777,0.0032748897126190896,0.008591591223339655,-6.939229186431566e-05,1.600008487701416,2019-06-18 15:33:39:030
0.19956646859645844,-0.06274962425231934,9.773603439331055,7.831605963855469e-05,0.0076592570167030435,0.0008629416953345836,1.6058859825134277,2019-06-18 15:33:39:036
0.16125047206878662,-0.05077587813138962,9.819103240966797,0.007137416322737172,0.007792447840571981,0.004325896614068829,1.6108884811401367,2019-06-18 15:33:39:041
0.16603997349739075,-0.06753912568092346,9.77599811553955,0.0034080802764137014,0.0053950171721203095,0.0007297511315399715,1.6158866882324219,2019-06-18 15:33:39:046
0.16603997349739075,-0.05077587813138962,9.75444507598877,0.0007442689355028748,0.004595873789352636,0.00166208520813942,1.619999885559082,2019-06-18 15:33:39:050
0.16603997349739075,-0.0651443749666214,9.8167085647583,0.0027421274574406405,0.007925638144292268,0.002860800412328093,1.6250104904174805,2019-06-18 15:33:39:055
0.17082947492599487,-0.06274962425231934,9.826288223266602,-0.0016531614078558903,0.008724781527059942,0.000996132259129196,1.6308860778808594,2019-06-18 15:33:39:061
0.14688196778297424,-0.04359162971377373,9.773603439331055,0.0006110783717082625,0.009657115213547902,-0.0031327754785781103,1.6358904838562012,2019-06-18 15:33:39:066
0.2019612193107605,-0.0651443749666214,9.783182144165039,0.0003446972116097473,0.005261826868400022,0.000996132259129196,1.6400065422058105,2019-06-18 15:33:39:070
0.20675072073936462,-0.02443363144993782,9.768814086914062,-0.004450163507617074,0.006460541682477208,0.0001969888601068769,1.6458935737609863,2019-06-18 15:33:39:076
0.17082947492599487,-0.06274962425231934,9.797551155090332,7.831605963855469e-05,0.008058828968161205,0.0003301794401561345,1.650001049041748,2019-06-18 15:33:39:080
0.16364522278308868,-0.0914866253733635,9.771208763122559,0.005938700988511335,0.00686011363393537,0.0005965605677453591,1.6558866500854492,2019-06-18 15:33:39:086
0.13490822911262512,-0.0914866253733635,9.785576820373535,0.0038076519677975387,0.011122211675362963,0.0031271815399173176,1.6608896255493164,2019-06-18 15:33:39:091
0.18519796431064606,-0.06993387639522552,9.77599811553955,0.003940842531592151,0.00486225491694186,0.004725468305452665,1.6650004386901855,2019-06-18 15:33:39:095
0.18998746573925018,-0.06035487726330757,9.785576820373535,0.005139557605743661,0.0076592570167030435,0.004725468305452665,1.6708850860595703,2019-06-18 15:33:39:101
0.19717171788215637,-0.048381127417087555,9.787971496582031,7.831605963855469e-05,0.004729064613221573,0.002860800412328093,1.675889015197754,2019-06-18 15:33:39:106
0.20675072073936462,-0.06035487726330757,9.811919212341309,0.0030085085850298653,0.01032306881274394,-0.0022004415320158242,1.6800098419189453,2019-06-18 15:33:39:110
0.21393495798110962,-0.029223131015896797,9.799945831298828,0.001143840691905293,0.009124352958369454,0.0052582305606311145,1.6859102249145508,2019-06-18 15:33:39:116
0.19238221645355225,-0.07472337782382965,9.737682342529297,0.0010106500630920993,0.008857972350928878,0.003926324922684992,1.6900053024291992,2019-06-18 15:33:39:120
0.17082947492599487,-0.03161787986755371,9.761629104614258,-0.0013867802802666658,0.0061941605548879826,0.0007297511315399715,1.6958894729614258,2019-06-18 15:33:39:126
0.1684347242116928,-0.04359162971377373,9.7257080078125,0.0012770312556999051,0.004329492661763411,-0.0011349168916217633,1.7000045776367188,2019-06-18 15:33:39:130
0.16125047206878662,-0.07951287180185318,9.814313888549805,0.005539129557201824,0.0032639681514065122,0.005657802512089276,1.7058868408203125,2019-06-18 15:33:39:136
0.20435597002506256,-0.07232862710952759,9.76402473449707,0.0024757463298514157,0.010056687165006064,0.0035267532313011545,1.7108850479125977,2019-06-18 15:33:39:141
0.2019612193107605,-0.07472337782382965,9.771208763122559,-0.0003212556723818955,0.004595873789352636,-0.00020258286378625062,1.7158875465393066,2019-06-18 15:33:39:146
0.1684347242116928,-0.10585512220859528,9.814313888549805,0.0024757463298514157,0.007126494761524595,0.0007297511315399715,1.7200078964233398,2019-06-18 15:33:39:150
0.17322422564029694,-0.048381127417087555,9.768814086914062,0.0036744614040029266,0.006460541682477208,-0.0010017262628085697,1.7250127792358398,2019-06-18 15:33:39:155
0.16125047206878662,-0.03161787986755371,9.756839752197266,0.00154341238328913,0.00686011363393537,0.000996132259129196,1.7309083938598633,2019-06-18 15:33:39:161
0.17082947492599487,-0.10346037149429321,9.737682342529297,0.0028753180212352527,0.008192019271881493,-0.002999584914783498,1.735002040863037,2019-06-18 15:33:39:165
0.16364522278308868,-0.09627611935138702,9.80473518371582,-0.0011203991526774412,0.008458400399470718,0.0027276098485334807,1.740884780883789,2019-06-18 15:33:39:171
0.16364522278308868,-0.06753912568092346,9.795156478881836,0.0027421274574406405,0.004063111534174186,0.0017952757719340324,1.7450008392333984,2019-06-18 15:33:39:175
0.17082947492599487,-0.06274962425231934,9.756839752197266,-0.0040505915561589115,0.005261826868400022,0.0029939909761227054,1.7508859634399414,2019-06-18 15:33:39:181
0.1037764772772789,-0.07472337782382965,9.75444507598877,0.001143840691905293,0.0036635398427903496,0.005657802512089276,1.7550010681152344,2019-06-18 15:33:39:185
0.18998746573925018,-0.09388136863708496,9.83347225189209,-0.005515688017973972,0.010989021371642677,-0.0037987282975511715,1.7608842849731445,2019-06-18 15:33:39:191
0.18759271502494812,-0.06274962425231934,9.826288223266602,0.005805510684791048,0.006993303937655657,0.004725468305452665,1.7658891677856445,2019-06-18 15:33:39:196
0.2019612193107605,-0.0843023732304573,9.756839752197266,0.0014102218194945173,0.005128636044531084,0.002860800412328093,1.770024299621582,2019-06-18 15:33:39:200
0.15406621992588043,-0.10346037149429321,9.773603439331055,-0.0009872085238642476,0.010456259116464226,0.0017952757719340324,1.7758984565734863,2019-06-18 15:33:39:206
0.19238221645355225,-0.05317062884569168,9.780787467956543,0.0004778877754043595,0.008192019271881493,0.004325896614068829,1.7808923721313477,2019-06-18 15:33:39:211
0.18040846288204193,-0.05077587813138962,9.826288223266602,0.001676602947083742,0.006060970251167696,0.0011293228229238084,1.784998893737793,2019-06-18 15:33:39:215
0.20435597002506256,-0.05317062884569168,9.838261604309082,0.001676602947083742,0.004329492661763411,0.002461228460869931,1.790884017944336,2019-06-18 15:33:39:221
0.16603997349739075,-0.0843023732304573,9.77599811553955,0.0014102218194945173,0.010722639723904802,0.0001969888601068769,1.7958874702453613,2019-06-18 15:33:39:226
0.18998746573925018,-0.041196878999471664,9.737682342529297,-0.0008540179600696353,0.00632735137875692,-0.0008685356990139574,1.8000011444091797,2019-06-18 15:33:39:230
0.18759271502494812,-0.06993387639522552,9.761629104614258,-0.0025854953544181764,0.0053950171721203095,0.0004633700039507468,1.805891990661621,2019-06-18 15:33:39:236
0.21154020726680756,-0.06035487726330757,9.766419410705566,0.0012770312556999051,0.00486225491694186,0.006323755070988013,1.8108887672424316,2019-06-18 15:33:39:241
0.2019612193107605,-0.07711812108755112,9.792760848999023,0.0007442689355028748,0.004196302097968799,0.0027276098485334807,1.8150205612182617,2019-06-18 15:33:39:245
0.20435597002506256,-0.048381127417087555,9.797551155090332,-0.00018806509233263786,0.009390734606107327,0.0029939909761227054,1.8208904266357422,2019-06-18 15:33:39:251
0.182803213596344,-0.07232862710952759,9.766419410705566,-0.0009872085238642476,0.009523924909827616,0.004592277481583728,1.8258991241455078,2019-06-18 15:33:39:256
0.20435597002506256,-0.10346037149429321,9.785576820373535,0.00620508211610056,0.0053950171721203095,0.002061656899523257,1.8300037384033203,2019-06-18 15:33:39:260
0.1947769671678543,-0.05317062884569168,9.802340507507324,0.0024757463298514157,0.008724781527059942,6.379828412128062e-05,1.8358855247497559,2019-06-18 15:33:39:266
0.1756189614534378,-0.06035487726330757,9.744866371154785,0.002209365202262191,0.007259685065244881,-0.0022004415320158242,1.8400006294250488,2019-06-18 15:33:39:270
0.18040846288204193,-0.04598637670278549,9.730497360229492,0.0008774594992974871,0.0024648247686388392,-0.004065109425140397,1.845888614654541,2019-06-18 15:33:39:276
0.17322422564029694,-0.10585512220859528,9.8167085647583,0.0019429840746729666,0.004462683485632349,0.0052582305606311145,1.8500041961669922,2019-06-18 15:33:39:280
0.18759271502494812,-0.06274962425231934,9.807129859924316,0.001143840691905293,0.005661398299709534,0.0040595154864796045,1.855886459350586,2019-06-18 15:33:39:286
0.19238221645355225,-0.041196878999471664,9.773603439331055,0.00021150663156048962,0.005661398299709534,0.0008629416953345836,1.8600244522094727,2019-06-18 15:33:39:290
0.20435597002506256,-0.06274962425231934,9.785576820373535,-0.0008540179600696353,0.005128636044531084,0.0021948473332807066,1.8658909797668457,2019-06-18 15:33:39:296
0.21632970869541168,-0.06035487726330757,9.797551155090332,-0.0008540179600696353,0.009523924909827616,0.0012625133867184206,1.869999885559082,2019-06-18 15:33:39:300
0.2019612193107605,-0.06993387639522552,9.799945831298828,-0.0009872085238642476,0.008857972350928878,0.002328037897075319,1.8750042915344238,2019-06-18 15:33:39:305
0.13969773054122925,-0.07232862710952759,9.835866928100586,-0.0029850670458020133,0.00486225491694186,0.0003301794401561345,1.8808846473693848,2019-06-18 15:33:39:311
0.13490822911262512,-0.0388021282851696,9.728102684020996,-0.00045444623617650777,0.00486225491694186,0.004725468305452665,1.8858904838562012,2019-06-18 15:33:39:316
0.1756189614534378,-0.07951287180185318,9.742471694946289,0.0024757463298514157,0.006060970251167696,0.0003301794401561345,1.890885353088379,2019-06-18 15:33:39:321
0.14448721706867218,-0.08190762251615524,9.732892990112305,-0.0007208273962750229,0.004729064613221573,0.0052582305606311145,1.8949975967407227,2019-06-18 15:33:39:325
0.18998746573925018,-0.09388136863708496,9.773603439331055,0.0028753180212352527,0.002864396460022676,0.0021948473332807066,1.9008865356445312,2019-06-18 15:33:39:331
0.16364522278308868,-0.08190762251615524,9.857419967651367,-0.0027186859182127886,0.0023316342048442266,0.00166208520813942,1.9050054550170898,2019-06-18 15:33:39:335
0.18998746573925018,-0.06274962425231934,9.83347225189209,-0.0005876368324804107,0.005128636044531084,0.005125040256910827,1.910905361175537,2019-06-18 15:33:39:341
0.18759271502494812,-0.08669712394475937,9.831077575683594,0.0004778877754043595,0.00686011363393537,0.003393562667506543,1.9158902168273926,2019-06-18 15:33:39:346
0.1947769671678543,-0.10346037149429321,9.773603439331055,0.006338272939969498,0.004196302097968799,0.002860800412328093,1.9199976921081543,2019-06-18 15:33:39:350
0.15406621992588043,-0.05077587813138962,9.807129859924316,0.003940842531592151,0.007392875889113818,0.0005965605677453591,1.9259099960327148,2019-06-18 15:33:39:356
0.1564609706401825,-0.05317062884569168,9.814313888549805,0.003541270840208314,0.009124352958369454,-0.001934060274389437,1.9308862686157227,2019-06-18 15:33:39:361
0.17322422564029694,-0.05796012654900551,9.792760848999023,0.001143840691905293,0.007526066192834106,0.0011293228229238084,1.9358839988708496,2019-06-18 15:33:39:366
0.15406621992588043,-0.06993387639522552,9.773603439331055,0.0034080802764137014,0.0061941605548879826,0.006057373943398788,1.940000057220459,2019-06-18 15:33:39:370
0.182803213596344,-0.05077587813138962,9.826288223266602,-0.0013867802802666658,0.002997587023817288,0.003393562667506543,1.9458932876586914,2019-06-18 15:33:39:376
0.11096072942018509,-0.06993387639522552,9.778392791748047,-5.487451634704159e-05,0.008058828968161205,-0.0031327754785781103,1.9509153366088867,2019-06-18 15:33:39:381
0.18998746573925018,-0.02443363144993782,9.778392791748047,-0.0007208273962750229,0.0076592570167030435,-0.0003357734438355082,1.955902099609375,2019-06-18 15:33:39:386
0.1492767184972763,-0.08909187465906143,9.857419967651367,0.0027421274574406405,0.005927779427298759,0.004459087177863441,1.960000991821289,2019-06-18 15:33:39:390
0.17082947492599487,-0.026828380301594734,9.8167085647583,-0.00018806509233263786,0.007392875889113818,0.005524611688220339,1.965888500213623,2019-06-18 15:33:39:396
0.12053972482681274,-0.048381127417087555,9.728102684020996,-0.00018806509233263786,0.0053950171721203095,0.006323755070988013,1.97088623046875,2019-06-18 15:33:39:401
0.15406621992588043,-0.0651443749666214,9.8167085647583,0.0018097935108783545,0.0021984436410496144,0.004459087177863441,1.9758849143981934,2019-06-18 15:33:39:406
0.17082947492599487,-0.0651443749666214,9.742471694946289,0.0014102218194945173,0.0025980153324334514,0.007389279581344911,1.980001449584961,2019-06-18 15:33:39:410
0.1564609706401825,-0.06993387639522552,9.80473518371582,0.0019429840746729666,-6.579614257819981e-05,0.005391421384500052,1.985891342163086,2019-06-18 15:33:39:416
0.16125047206878662,-0.06993387639522552,9.768814086914062,0.003940842531592151,0.008591591223339655,0.0013957039505130327,1.9900026321411133,2019-06-18 15:33:39:420
0.12532922625541687,-0.029223131015896797,9.778392791748047,0.004340414222975988,0.003796730406584962,0.006190564767267726,1.9959030151367188,2019-06-18 15:33:39:426
0.1492767184972763,-0.04598637670278549,9.768814086914062,0.0004778877754043595,0.006593732506346145,0.001528894514307645,2.0000076293945312,2019-06-18 15:33:39:430
0.1492767184972763,-0.03161787986755371,9.821497917175293,7.831605963855469e-05,0.007526066192834106,0.0031271815399173176,2.005889892578125,2019-06-18 15:33:39:436
0.182803213596344,-0.07472337782382965,9.737682342529297,-0.0037842104285696868,0.006993303937655657,-0.0026000132233996607,2.0100011825561523,2019-06-18 15:33:39:440
0.12772397696971893,-0.012459882535040379,9.797551155090332,0.0032748897126190896,0.004729064613221573,0.005790992815809564,2.0158910751342773,2019-06-18 15:33:39:446
0.14448721706867218,-0.04598637670278549,9.718523979187012,-0.0016531614078558903,-0.0024632263518361407,0.00898756634688026,2.020002841949463,2019-06-18 15:33:39:450
0.16364522278308868,-0.05317062884569168,9.732892990112305,0.0012770312556999051,0.0011329190006555533,0.005657802512089276,2.0259103775024414,2019-06-18 15:33:39:456
0.23069821298122406,-0.01724938116967678,9.723313331604004,-0.0013867802802666658,0.001798871819628615,0.004858658609172953,2.0300021171569824,2019-06-18 15:33:39:460
0.21872445940971375,-0.022038880735635757,9.819103240966797,-0.005382497194105034,0.006460541682477208,0.0017952757719340324,2.0358853340148926,2019-06-18 15:33:39:466
0.03432873636484146,-0.24714535474777222,9.699365615844727,0.009401655647171254,-0.023906907902991693,0.012716902133129402,2.040909767150879,2019-06-18 15:33:39:471
1.126334547996521,-0.09627611935138702,9.004888534545898,0.016593946612228967,0.020978314956610223,0.01671261956711642,2.045891761779785,2019-06-18 15:33:39:476
-0.6050694584846497,0.3922528028488159,11.303848266601562,-0.03814737744802561,-0.01245251889650639,-0.0022004415320158242,2.049999237060547,2019-06-18 15:33:39:480
-0.23388323187828064,-0.05796012654900551,9.428759574890137,-0.08183388861444224,-0.02110990632337916,0.01391561798750389,2.055887222290039,2019-06-18 15:33:39:486
1.4256782531738281,-0.0651443749666214,9.452707290649414,0.0003446972116097473,0.01232092752973745,-0.0008685356990139574,2.0608887672424316,2019-06-18 15:33:39:491
0.0008022411493584514,-0.022038880735635757,9.907709121704102,0.05468645253882594,0.04695047723722855,0.005924183639678501,2.0658864974975586,2019-06-18 15:33:39:496
-0.4254631996154785,0.1503830999135971,10.460896492004395,-0.08489726455971154,0.007259685065244881,0.018444096636372056,2.070882797241211,2019-06-18 15:33:39:501
1.27001953125,0.0593826100230217,9.541312217712402,-0.006181640576872708,-0.020044381813022264,-0.001934060274389437,2.07589054107666,2019-06-18 15:33:39:506
0.11814497411251068,-0.21122410893440247,9.411995887756348,0.011799086315622927,0.00686011363393537,-0.0015344885830056003,2.0800037384033203,2019-06-18 15:33:39:510
0.12053972482681274,0.01867186278104782,10.31481647491455,-0.038413760136060786,-0.0023300357880415286,0.012716902133129402,2.0850229263305664,2019-06-18 15:33:39:515
0.8030433654785156,0.06417210400104523,9.802340507507324,0.0027421274574406405,0.008058828968161205,-0.00486425280790807,2.090883255004883,2019-06-18 15:33:39:521
0.3528304398059845,-0.18009236454963684,9.728102684020996,0.004473605046844925,-0.008323611678947733,0.0004633700039507468,2.094999313354492,2019-06-18 15:33:39:525
0.16364522278308868,-0.16811861097812653,10.178316116333008,-0.018035601014667526,0.01218773618571986,0.015647095056759524,2.100884437561035,2019-06-18 15:33:39:531
0.7407798767089844,0.009092864580452442,9.699365615844727,0.016194375701068107,0.018181311296403088,-0.004731062504187783,2.1058874130249023,2019-06-18 15:33:39:536
0.2522509694099426,0.08811960369348526,9.742471694946289,0.006071891812380273,0.021377886908068387,-0.0036655377337565594,2.1108837127685547,2019-06-18 15:33:39:541
0.11814497411251068,-0.07472337782382965,9.852629661560059,-0.014306265228418382,0.009523924909827616,0.001528894514307645,2.114999771118164,2019-06-18 15:33:39:545
0.47256794571876526,-0.23038209974765778,9.620339393615723,0.01512885015041391,0.011921355578279287,-0.004597871680318845,2.1208877563476562,2019-06-18 15:33:39:551
0.14448721706867218,-0.05796012654900551,9.538917541503906,0.020722855390233576,0.005128636044531084,-0.0022004415320158242,2.125908851623535,2019-06-18 15:33:39:556
0.12293447554111481,0.01148761436343193,9.871788024902344,-0.0027186859182127886,-0.013917615358321448,-0.008060826338978765,2.1309103965759277,2019-06-18 15:33:39:561
0.3767779469490051,0.01867186278104782,9.811919212341309,0.0038076519677975387,0.0031307775876119005,-0.005263824759366232,2.135000228881836,2019-06-18 15:33:39:565
0.1756189614534378,-0.048381127417087555,9.811919212341309,0.013530563384878562,0.018847265935896425,-0.010458256487281785,2.140885829925537,2019-06-18 15:33:39:571
0.32169869542121887,-0.08669712394475937,9.926867485046387,0.0036744614040029266,0.011521783626821125,-0.00872677941802615,2.1458892822265625,2019-06-18 15:33:39:576
0.20675072073936462,-0.06753912568092346,9.984341621398926,0.00154341238328913,0.018447693984438265,-0.005530205886955456,2.1500015258789062,2019-06-18 15:33:39:580
0.15406621992588043,-0.04359162971377373,9.809524536132812,0.005272748429612599,0.022177028730390107,-0.014054401969810643,2.155885696411133,2019-06-18 15:33:39:586
0.2618299722671509,0.013882364146411419,9.7257080078125,-5.487451634704159e-05,0.012986880088636184,-0.010591447831299375,2.159998893737793,2019-06-18 15:33:39:590
0.04869723320007324,-0.0028808838687837124,9.785576820373535,0.004207223659181376,0.010456259116464226,-0.013921211666090358,2.1658902168273926,2019-06-18 15:33:39:596
0.024749737232923508,-0.10106562077999115,9.718523979187012,-0.0005876368324804107,0.005661398299709534,-0.012322924900555008,2.17000675201416,2019-06-18 15:33:39:600
0.16364522278308868,-0.12740786373615265,9.670629501342773,0.005539129557201824,-0.008589992806536956,-0.009525923320942476,2.1759119033813477,2019-06-18 15:33:39:606
0.09898697584867477,0.013882364146411419,9.86220932006836,0.01060037150154574,0.0019320623834232272,-0.01072463813501966,2.180002212524414,2019-06-18 15:33:39:610
0.1492767184972763,0.06656685471534729,9.84544563293457,-0.0003212556723818955,0.008724781527059942,-0.014187593313828233,2.1858906745910645,2019-06-18 15:33:39:616
0.16125047206878662,0.01148761436343193,9.823892593383789,-0.005515688017973972,0.00832521009575043,-0.013521639714632192,2.19000244140625,2019-06-18 15:33:39:620
0.12293447554111481,-0.029223131015896797,9.922078132629395,-0.0025854953544181764,0.019380027150777576,-0.00885996972174644,2.1958889961242676,2019-06-18 15:33:39:626
0.15885572135448456,-0.09867087006568909,9.771208763122559,0.0036744614040029266,0.015517501060808144,-0.009659113624662763,2.1999998092651367,2019-06-18 15:33:39:630
0.04151298478245735,-0.022038880735635757,9.632312774658203,0.004473605046844925,0.006726922810066432,-0.0103250661835615,2.20589542388916,2019-06-18 15:33:39:636
0.04151298478245735,0.042619358748197556,9.761629104614258,-0.003118257609596625,0.0032639681514065122,-0.011523780997638684,2.2100048065185547,2019-06-18 15:33:39:640
0.14688196778297424,-0.019644131883978844,9.694576263427734,-0.0007208273962750229,-0.0003321772986130537,-0.009925494232103337,2.2159080505371094,2019-06-18 15:33:39:646
0.11096072942018509,-0.08190762251615524,9.759234428405762,0.00620508211610056,-0.007391277472311121,-0.01525311782418513,2.2200093269348145,2019-06-18 15:33:39:650
0.13969773054122925,-0.1106446236371994,9.8167085647583,0.00021150663156048962,0.0020652529472178394,-0.00486425280790807,2.2259082794189453,2019-06-18 15:33:39:656
0.182803213596344,0.016277113929390907,9.881366729736328,0.004473605046844925,0.009523924909827616,-0.007661254907669253,2.230888843536377,2019-06-18 15:33:39:661
0.16125047206878662,0.0019086154643446207,9.881366729736328,-0.0027186859182127886,0.008192019271881493,-0.007661254907669253,2.2358884811401367,2019-06-18 15:33:39:666
0.16364522278308868,-0.026828380301594734,9.756839752197266,-0.0027186859182127886,0.010589449420184513,-0.014054401969810643,2.2408833503723145,2019-06-18 15:33:39:671
0.15167146921157837,-0.08190762251615524,9.75444507598877,0.002209365202262191,0.014451976550451245,-0.012322924900555008,2.244997024536133,2019-06-18 15:33:39:675
0.12053972482681274,-0.10585512220859528,9.742471694946289,-0.0015199708440612782,0.00632735137875692,-0.003399156606167335,2.250889301300049,2019-06-18 15:33:39:681
0.08222372829914093,-0.05317062884569168,9.742471694946289,0.003141699148824477,0.0031307775876119005,-0.0041982999889350085,2.255889892578125,2019-06-18 15:33:39:686
0.08940798044204712,0.004303365014493465,9.742471694946289,0.00473998617443415,0.0009997284368609412,-0.004731062504187783,2.260009765625,2019-06-18 15:33:39:690
0.12772397696971893,0.006698114797472954,9.771208763122559,0.0014102218194945173,-0.004993847324008099,0.0003301794401561345,2.2659034729003906,2019-06-18 15:33:39:696
0.16364522278308868,-0.06274962425231934,9.847840309143066,0.006338272939969498,0.00033377558537858905,-0.004464681376598559,2.2699995040893555,2019-06-18 15:33:39:700
0.2019612193107605,-0.08190762251615524,9.821497917175293,0.005272748429612599,0.012054545881999576,-0.0028663943509888855,2.275888442993164,2019-06-18 15:33:39:706
0.182803213596344,-0.041196878999471664,9.819103240966797,0.007403797450326395,0.014851547461612108,6.379828412128062e-05,2.2808895111083984,2019-06-18 15:33:39:711
0.14448721706867218,-0.04598637670278549,9.843050956726074,0.0008774594992974871,0.01418559490271337,0.004725468305452665,2.284998893737793,2019-06-18 15:33:39:715
0.11096072942018509,0.016277113929390907,9.759234428405762,-0.005782069145563197,0.010855831067922388,-0.005796587014544681,2.2908849716186523,2019-06-18 15:33:39:721
0.17082947492599487,-0.06274962425231934,9.730497360229492,-0.0035178293009804624,0.008058828968161205,-0.00872677941802615,2.2958908081054688,2019-06-18 15:33:39:726
0.10617122799158096,-0.12261836975812912,9.787971496582031,0.007803369401784558,0.01125540197908325,0.008188422964112586,2.3000025749206543,2019-06-18 15:33:39:730
0.13490822911262512,-0.10346037149429321,9.766419410705566,0.0050063673020233745,0.0053950171721203095,0.0011293228229238084,2.3059206008911133,2019-06-18 15:33:39:736
0.13969773054122925,-0.09388136863708496,9.77599811553955,0.005539129557201824,0.0016656812558340024,-0.0006021545714247328,2.310002326965332,2019-06-18 15:33:39:740
0.1756189614534378,-0.014854632318019867,9.886157035827637,-0.003917400992364299,0.0039299209703795735,0.00898756634688026,2.3158912658691406,2019-06-18 15:33:39:746
0.2091454714536667,-0.06035487726330757,9.811919212341309,0.001676602947083742,0.007392875889113818,0.004459087177863441,2.3208889961242676,2019-06-18 15:33:39:751
0.19956646859645844,-0.0914866253733635,9.847840309143066,0.003541270840208314,0.008724781527059942,0.00938713829833842,2.3259105682373047,2019-06-18 15:33:39:756
0.23069821298122406,-0.1298026144504547,9.840656280517578,0.0010106500630920993,0.013120070392356473,0.007122898453755686,2.3300018310546875,2019-06-18 15:33:39:760
0.14209246635437012,-0.10346037149429321,9.795156478881836,0.002076174638467579,0.011921355578279287,0.011784568966790091,2.3358898162841797,2019-06-18 15:33:39:766
0.15167146921157837,-0.07951287180185318,9.708945274353027,0.004207223659181376,0.012454117833457736,0.0035267532313011545,2.3400039672851562,2019-06-18 15:33:39:770
0.12293447554111481,-0.05077587813138962,9.747261047363281,0.003141699148824477,0.008458400399470718,0.006323755070988013,2.3458943367004395,2019-06-18 15:33:39:776
0.13251347839832306,-0.09867087006568909,9.723313331604004,0.006471463243689784,0.00832521009575043,0.01977600383476413,2.3500261306762695,2019-06-18 15:33:39:780
0.14209246635437012,-0.11543411761522293,9.773603439331055,0.008069750529373781,0.004462683485632349,0.012317331221968542,2.3558855056762695,2019-06-18 15:33:39:786
0.14448721706867218,-0.11303936690092087,9.747261047363281,0.004074033095386763,0.007392875889113818,0.006856517326166462,2.3600034713745117,2019-06-18 15:33:39:790
0.19956646859645844,-0.041196878999471664,9.866998672485352,0.00154341238328913,0.012720498440898311,0.008454804091701809,2.365886688232422,2019-06-18 15:33:39:796
0.15406621992588043,-0.05077587813138962,9.802340507507324,0.001143840691905293,0.014585166854171532,0.01138499701533193,2.370884895324707,2019-06-18 15:33:39:801
0.10138172656297684,-0.13459211587905884,9.749655723571777,0.0034080802764137014,0.0117881642342617,0.018710479324407232,2.375884532928467,2019-06-18 15:33:39:806
0.11096072942018509,-0.0914866253733635,9.730497360229492,0.0030085085850298653,0.013120070392356473,0.010585853112415606,2.380000114440918,2019-06-18 15:33:39:810
0.10856597870588303,-0.10346037149429321,9.76402473449707,-0.0013867802802666658,0.010189877468726351,0.012983283780867279,2.385890007019043,2019-06-18 15:33:39:816
0.06306573003530502,-0.06274962425231934,9.711339950561523,0.0036744614040029266,0.005128636044531084,0.011784568966790091,2.3900089263916016,2019-06-18 15:33:39:820
0.084618479013443,-0.08909187465906143,9.71373462677002,0.0018097935108783545,-0.0003321772986130537,0.007122898453755686,2.3959054946899414,2019-06-18 15:33:39:826
0.1492767184972763,-0.07472337782382965,9.759234428405762,0.0007442689355028748,-0.0020636546604523042,0.0069897081500354,2.40000057220459,2019-06-18 15:33:39:830
0.17801371216773987,-0.06753912568092346,9.819103240966797,0.005539129557201824,0.0011329190006555533,0.012450521525688828,2.405886650085449,2019-06-18 15:33:39:836
0.2091454714536667,-0.07951287180185318,9.823892593383789,0.0014102218194945173,0.003796730406584962,0.009120756650600545,2.4108848571777344,2019-06-18 15:33:39:841
0.21154020726680756,-0.06274962425231934,9.912498474121094,-0.0007208273962750229,0.007925638144292268,0.00326037210371193,2.415890693664551,2019-06-18 15:33:39:846
0.21632970869541168,-0.03161787986755371,9.795156478881836,-0.0027186859182127886,0.010056687165006064,0.010452662808695319,2.4199981689453125,2019-06-18 15:33:39:850
0.18040846288204193,-0.09867087006568909,9.768814086914062,0.0034080802764137014,0.01125540197908325,0.002328037897075319,2.425914764404297,2019-06-18 15:33:39:856
0.21393495798110962,-0.1298026144504547,9.766419410705566,-0.0005876368324804107,0.006060970251167696,0.004192706050274216,2.430004119873047,2019-06-18 15:33:39:860
0.2019612193107605,-0.08909187465906143,9.708945274353027,-0.00045444623617650777,0.005261826868400022,0.010452662808695319,2.4359073638916016,2019-06-18 15:33:39:866
0.17082947492599487,-0.048381127417087555,9.740077018737793,0.0034080802764137014,-0.0009981301500954058,0.005391421384500052,2.440007209777832,2019-06-18 15:33:39:870
0.2211192101240158,-0.034012630581855774,9.77599811553955,-5.487451634704159e-05,-0.004860656500139162,-0.0012681074554163755,2.445894241333008,2019-06-18 15:33:39:876
0.2594352066516876,-0.06753912568092346,9.7257080078125,-0.0015199708440612782,-0.0021968452242469164,-0.000735345135219345,2.4500012397766113,2019-06-18 15:33:39:880
0.2857774496078491,-0.09627611935138702,9.890946388244629,-0.0017863519716505025,-0.0016640829690684673,0.005391421384500052,2.4558873176574707,2019-06-18 15:33:39:886
0.25704047083854675,-0.08669712394475937,9.797551155090332,0.00021150663156048962,0.0015324906920393903,0.007655660708934136,2.460886001586914,2019-06-18 15:33:39:891
0.2666194438934326,-0.03640738129615784,9.802340507507324,0.0026089368936460283,0.00632735137875692,0.0067233270224461746,2.465890884399414,2019-06-18 15:33:39:896
0.20675072073936462,-0.05317062884569168,9.814313888549805,-0.0013867802802666658,0.011122211675362963,0.0012625133867184206,2.470004081726074,2019-06-18 15:33:39:900
0.24506671726703644,-0.02443363144993782,9.773603439331055,0.0024757463298514157,0.010722639723904802,-0.003931918861345784,2.475886344909668,2019-06-18 15:33:39:906
0.228303462266922,-0.07951287180185318,9.732892990112305,-5.487451634704159e-05,0.010589449420184513,0.004459087177863441,2.480010509490967,2019-06-18 15:33:39:910
0.21154020726680756,-0.05317062884569168,9.704155921936035,0.0014102218194945173,0.0036635398427903496,0.003926324922684992,2.4858999252319336,2019-06-18 15:33:39:916
0.24985620379447937,-0.055565375834703445,9.749655723571777,0.0024757463298514157,0.0032639681514065122,0.00166208520813942,2.4908838272094727,2019-06-18 15:33:39:921
0.2690142095088959,-0.048381127417087555,9.77599811553955,0.0006110783717082625,0.0021984436410496144,-0.0028663943509888855,2.4958887100219727,2019-06-18 15:33:39:926
0.24985620379447937,-0.06035487726330757,9.835866928100586,0.0018097935108783545,0.0015324906920393903,-0.001934060274389437,2.500886917114258,2019-06-18 15:33:39:931
0.2666194438934326,-0.10585512220859528,9.843050956726074,0.0019429840746729666,0.005128636044531084,-0.0031327754785781103,2.504998207092285,2019-06-18 15:33:39:935
0.2881722152233124,-0.08190762251615524,9.826288223266602,0.0004778877754043595,0.01325326069607676,-0.0014012980192109879,2.5108871459960938,2019-06-18 15:33:39:941
0.27140894532203674,-0.07472337782382965,9.756839752197266,0.001676602947083742,0.013386452040094348,-0.000735345135219345,2.5158920288085938,2019-06-18 15:33:39:946
0.228303462266922,-0.005275633651763201,9.771208763122559,0.0026089368936460283,0.01125540197908325,-6.939229186431566e-05,2.5200023651123047,2019-06-18 15:33:39:950
0.19956646859645844,-0.07472337782382965,9.732892990112305,-0.0013867802802666658,0.008192019271881493,-0.0035323471699619468,2.5250396728515625,2019-06-18 15:33:39:955
0.18519796431064606,-0.08669712394475937,9.744866371154785,-0.0005876368324804107,0.009257544302387042,-0.006329349269723131,2.530895233154297,2019-06-18 15:33:39:961
0.21632970869541168,-0.12261836975812912,9.756839752197266,0.0026089368936460283,0.005128636044531084,-0.006329349269723131,2.534998893737793,2019-06-18 15:33:39:965
0.24267196655273438,-0.0028808838687837124,9.749655723571777,0.0018097935108783545,0.006593732506346145,-0.005130633935497294,2.5408878326416016,2019-06-18 15:33:39:971
0.19956646859645844,-0.0651443749666214,9.778392791748047,0.0007442689355028748,0.007126494761524595,-0.003399156606167335,2.5450010299682617,2019-06-18 15:33:39:975
0.21154020726680756,-0.026828380301594734,9.780787467956543,-5.487451634704159e-05,0.011921355578279287,-0.007394873780080028,2.5508856773376465,2019-06-18 15:33:39:981
0.21872445940971375,-0.09388136863708496,9.881366729736328,0.0010106500630920993,0.005927779427298759,-0.008993161065764026,2.5558910369873047,2019-06-18 15:33:39:986
0.22590871155261993,-0.0651443749666214,9.869393348693848,-0.0029850670458020133,0.008991162654649167,-0.010191875879841212,2.5608882904052734,2019-06-18 15:33:39:991
0.19717171788215637,-0.029223131015896797,9.759234428405762,0.0007442689355028748,0.010855831067922388,-0.010591447831299375,2.565886974334717,2019-06-18 15:33:39:996
0.18759271502494812,-0.014854632318019867,9.742471694946289,-0.0017863519716505025,0.01378602295125521,-0.005929777318264968,2.570019245147705,2019-06-18 15:33:40:000
0.15167146921157837,-0.03640738129615784,9.792760848999023,-0.0032514481733912377,0.009923496861285777,-0.012988877459453745,2.5758981704711914,2019-06-18 15:33:40:006
0.13969773054122925,-0.05317062884569168,9.723313331604004,-0.004849734938926585,0.00832521009575043,-0.007128492652490805,2.580003261566162,2019-06-18 15:33:40:010
0.1947769671678543,-0.0651443749666214,9.708945274353027,0.0026089368936460283,0.00486225491694186,-0.00885996972174644,2.585890769958496,2019-06-18 15:33:40:016
0.17082947492599487,-0.0914866253733635,9.720918655395508,0.00021150663156048962,0.009657115213547902,-0.014054401969810643,2.59000301361084,2019-06-18 15:33:40:020
0.15885572135448456,-0.03161787986755371,9.795156478881836,0.0006110783717082625,0.008991162654649167,-0.007394873780080028,2.5958895683288574,2019-06-18 15:33:40:026
0.182803213596344,-0.01724938116967678,9.814313888549805,0.0010106500630920993,0.006726922810066432,-0.01272249685201317,2.600884437561035,2019-06-18 15:33:40:031
0.17801371216773987,-0.041196878999471664,9.823892593383789,0.0024757463298514157,0.010589449420184513,-0.005263824759366232,2.6050009727478027,2019-06-18 15:33:40:035
0.17322422564029694,-0.10824987292289734,9.809524536132812,0.0023425557660568036,0.01125540197908325,-0.00832720798671664,2.610912322998047,2019-06-18 15:33:40:041
0.11335548013448715,-0.034012630581855774,9.77599811553955,-0.0015199708440612782,0.010855831067922388,-0.008194017162847702,2.615907669067383,2019-06-18 15:33:40:046
0.13730297982692719,-0.041196878999471664,9.718523979187012,0.004473605046844925,0.009523924909827616,-0.00486425280790807,2.6200032234191895,2019-06-18 15:33:40:050
0.12053972482681274,-0.04359162971377373,9.771208763122559,0.0008774594992974871,0.010855831067922388,-0.004464681376598559,2.6258907318115234,2019-06-18 15:33:40:056
0.130118727684021,-0.06753912568092346,9.785576820373535,0.005805510684791048,0.008591591223339655,-0.005130633935497294,2.630887031555176,2019-06-18 15:33:40:061
0.14448721706867218,-0.0651443749666214,9.778392791748047,0.0019429840746729666,0.007126494761524595,0.003926324922684992,2.635885715484619,2019-06-18 15:33:40:066
0.11814497411251068,-0.029223131015896797,9.785576820373535,0.001676602947083742,0.010722639723904802,-0.000735345135219345,2.6408872604370117,2019-06-18 15:33:40:071
0.10138172656297684,-0.05077587813138962,9.86220932006836,0.0008774594992974871,0.01711578782634349,0.0007297511315399715,2.6458911895751953,2019-06-18 15:33:40:076
0.1037764772772789,-0.04598637670278549,9.828682899475098,0.00021150663156048962,0.018847265935896425,-0.004464681376598559,2.6500039100646973,2019-06-18 15:33:40:080
0.06546048074960709,-0.014854632318019867,9.80473518371582,0.0018097935108783545,0.012587308137178023,0.000996132259129196,2.655892848968506,2019-06-18 15:33:40:086
0.043907735496759415,-0.034012630581855774,9.723313331604004,0.002076174638467579,0.011521783626821125,0.004192706050274216,2.6600165367126465,2019-06-18 15:33:40:090
0.04151298478245735,-0.041196878999471664,9.740077018737793,0.003541270840208314,0.0002005850053293314,0.0019284663357286445,2.6658926010131836,2019-06-18 15:33:40:096
0.003196990815922618,-0.005275633651763201,9.749655723571777,0.0027421274574406405,0.0012661095644501657,-0.0004689640076301205,2.670001983642578,2019-06-18 15:33:40:100
0.12293447554111481,-0.022038880735635757,9.814313888549805,-0.0029850670458020133,0.0009997284368609412,0.003793134358890379,2.675889015197754,2019-06-18 15:33:40:106
0.13730297982692719,-0.0388021282851696,9.785576820373535,0.006338272939969498,0.0007333473092717165,0.003926324922684992,2.6808862686157227,2019-06-18 15:33:40:111
0.15885572135448456,-0.012459882535040379,9.75444507598877,0.004606795350565213,0.004063111534174186,0.009786710249796583,2.684999465942383,2019-06-18 15:33:40:115
0.15406621992588043,0.009092864580452442,9.790366172790527,0.0007442689355028748,0.0053950171721203095,0.00645694589485695,2.690882682800293,2019-06-18 15:33:40:121
0.12772397696971893,-0.029223131015896797,9.850234985351562,-0.002452304790623564,0.008591591223339655,0.014581570546402627,2.695890426635742,2019-06-18 15:33:40:126
0.2019612193107605,-0.05077587813138962,9.756839752197266,-0.0012535897164720534,0.011388593323100838,0.004325896614068829,2.7000069618225098,2019-06-18 15:33:40:130
0.1684347242116928,-0.09627611935138702,9.723313331604004,0.001143840691905293,0.0036635398427903496,0.012983283780867279,2.7050247192382812,2019-06-18 15:33:40:135
0.17082947492599487,-0.041196878999471664,9.756839752197266,0.005672319860922111,0.0021984436410496144,0.01977600383476413,2.7108898162841797,2019-06-18 15:33:40:141
0.1756189614534378,-0.019644131883978844,9.723313331604004,0.0034080802764137014,0.0019320623834232272,0.009253947994618133,2.7149996757507324,2019-06-18 15:33:40:145
0.16125047206878662,-0.041196878999471664,9.84544563293457,0.004207223659181376,6.739442934373515e-05,0.008854376043159971,2.7208847999572754,2019-06-18 15:33:40:151
0.23069821298122406,-0.10346037149429321,9.744866371154785,0.0004778877754043595,0.0008665378730663289,0.014048808291224176,2.7259106636047363,2019-06-18 15:33:40:156
0.2402772158384323,-0.14896062016487122,9.802340507507324,0.0006110783717082625,0.0036635398427903496,0.012450521525688828,2.7300028800964355,2019-06-18 15:33:40:160
0.24267196655273438,-0.05077587813138962,9.797551155090332,0.001143840691905293,0.008991162654649167,0.0137824276837836,2.735888957977295,2019-06-18 15:33:40:166
0.26422470808029175,0.004303365014493465,9.809524536132812,0.0028753180212352527,0.010722639723904802,0.009653519946076296,2.7408885955810547,2019-06-18 15:33:40:171
0.22351396083831787,-0.029223131015896797,9.826288223266602,-0.0019195425354451149,0.012454117833457736,0.008721185219291034,2.7450003623962402,2019-06-18 15:33:40:175
0.22351396083831787,-0.117828868329525,9.687392234802246,-0.0005876368324804107,0.009923496861285777,0.009786710249796583,2.750896453857422,2019-06-18 15:33:40:181
0.20435597002506256,-0.15853960812091827,9.730497360229492,0.008336131656963007,0.008591591223339655,0.011251806711611644,2.7558975219726562,2019-06-18 15:33:40:186
0.1947769671678543,-0.12740786373615265,9.761629104614258,0.009801227598629416,0.0039299209703795735,0.01191775927051038,2.7599997520446777,2019-06-18 15:33:40:190
0.25704047083854675,-0.03161787986755371,9.723313331604004,0.0032748897126190896,0.001399300128244778,0.0067233270224461746,2.76588773727417,2019-06-18 15:33:40:196
0.2474614530801773,-0.06993387639522552,9.802340507507324,0.0008774594992974871,0.009257544302387042,0.004858658609172953,2.7708892822265625,2019-06-18 15:33:40:201
0.28338271379470825,-0.1298026144504547,9.737682342529297,0.0003446972116097473,0.0117881642342617,0.005125040256910827,2.774998664855957,2019-06-18 15:33:40:205
0.280987948179245,-0.20403985679149628,9.840656280517578,0.004207223659181376,0.010989021371642677,0.008188422964112586,2.7808837890625,2019-06-18 15:33:40:211
0.319303959608078,-0.1633291095495224,9.756839752197266,0.007004226019016884,0.013386452040094348,0.008721185219291034,2.7858972549438477,2019-06-18 15:33:40:216
0.2857774496078491,-0.055565375834703445,9.740077018737793,0.001676602947083742,0.008724781527059942,0.005924183639678501,2.7900142669677734,2019-06-18 15:33:40:220
0.3001459538936615,-0.05796012654900551,9.749655723571777,0.00154341238328913,0.007526066192834106,0.002061656899523257,2.795940399169922,2019-06-18 15:33:40:226
0.23788246512413025,-0.09867087006568909,9.71373462677002,-0.004450163507617074,0.0049954457408107975,0.004459087177863441,2.800023078918457,2019-06-18 15:33:40:230
0.26422470808029175,-0.19446085393428802,9.7257080078125,0.002076174638467579,0.005128636044531084,0.003393562667506543,2.8058905601501465,2019-06-18 15:33:40:236
0.29775121808052063,-0.19446085393428802,9.737682342529297,0.007803369401784558,0.008458400399470718,0.004325896614068829,2.810880661010742,2019-06-18 15:33:40:241
0.29056695103645325,-0.09627611935138702,9.728102684020996,0.005672319860922111,0.011122211675362963,-6.939229186431566e-05,2.815887451171875,2019-06-18 15:33:40:246
0.2618299722671509,-0.014854632318019867,9.843050956726074,0.002076174638467579,0.010189877468726351,-0.0022004415320158242,2.820889472961426,2019-06-18 15:33:40:251
0.2881722152233124,-0.09867087006568909,9.778392791748047,0.0014102218194945173,0.014052404598993085,-0.0004689640076301205,2.8258914947509766,2019-06-18 15:33:40:256
0.24267196655273438,-0.18009236454963684,9.823892593383789,0.0008774594992974871,0.01565069136452843,0.0004633700039507468,2.8309125900268555,2019-06-18 15:33:40:261
0.24506671726703644,-0.21840836107730865,9.843050956726074,0.005272748429612599,0.01578388166824872,-0.004597871680318845,2.835007667541504,2019-06-18 15:33:40:265
0.25704047083854675,-0.0843023732304573,9.809524536132812,0.0019429840746729666,0.013519642343814635,-0.0031327754785781103,2.8408918380737305,2019-06-18 15:33:40:271
0.21154020726680756,-0.01006513275206089,9.766419410705566,-0.0005876368324804107,0.01618345361970688,-0.006329349269723131,2.8450050354003906,2019-06-18 15:33:40:275
0.16603997349739075,-0.03161787986755371,9.883761405944824,-0.0008540179600696353,0.01471835715789182,-0.0027332037871942733,2.8508810997009277,2019-06-18 15:33:40:281
0.18040846288204193,-0.09627611935138702,9.778392791748047,-0.004450163507617074,0.012720498440898311,-0.006329349269723131,2.8558835983276367,2019-06-18 15:33:40:286
0.17801371216773987,-0.14896062016487122,9.720918655395508,0.004340414222975988,0.008591591223339655,0.0005965605677453591,2.8608880043029785,2019-06-18 15:33:40:291
0.16603997349739075,-0.10824987292289734,9.826288223266602,0.007536988274195333,0.00686011363393537,-0.00486425280790807,2.8649983406066895,2019-06-18 15:33:40:295
0.11335548013448715,0.013882364146411419,9.792760848999023,0.0007442689355028748,0.012454117833457736,-6.939229186431566e-05,2.870882511138916,2019-06-18 15:33:40:301
0.130118727684021,0.004303365014493465,9.744866371154785,-5.487451634704159e-05,0.012054545881999576,-0.0060629681421339055,2.8750152587890625,2019-06-18 15:33:40:305
0.12532922625541687,-0.029223131015896797,9.766419410705566,7.831605963855469e-05,0.005528207995989247,-0.0064625395734434175,2.8808979988098145,2019-06-18 15:33:40:311
0.11575022339820862,-0.10585512220859528,9.838261604309082,0.004340414222975988,0.010056687165006064,-0.0035323471699619468,2.885003089904785,2019-06-18 15:33:40:315
0.11814497411251068,-0.0651443749666214,9.797551155090332,0.0036744614040029266,0.015384309716790555,0.0029939909761227054,2.890904426574707,2019-06-18 15:33:40:321
0.11335548013448715,-0.04598637670278549,9.747261047363281,0.005272748429612599,0.009523924909827616,-0.001934060274389437,2.8958873748779297,2019-06-18 15:33:40:326
0.06546048074960709,-0.041196878999471664,9.740077018737793,-0.00045444623617650777,0.009257544302387042,-0.005130633935497294,2.9008865356445312,2019-06-18 15:33:40:331
0.08701322972774506,-0.05796012654900551,9.819103240966797,-0.0015199708440612782,0.0007333473092717165,-6.939229186431566e-05,2.905000686645508,2019-06-18 15:33:40:335
0.13730297982692719,-0.0843023732304573,9.80473518371582,-0.00018806509233263786,0.003397158715201125,0.0003301794401561345,2.9108877182006836,2019-06-18 15:33:40:341
0.11096072942018509,-0.08190762251615524,9.787971496582031,0.005539129557201824,0.0061941605548879826,0.0007297511315399715,2.915886878967285,2019-06-18 15:33:40:346
0.13730297982692719,-0.034012630581855774,9.828682899475098,0.0018097935108783545,0.006060970251167696,0.0027276098485334807,2.9208850860595703,2019-06-18 15:33:40:351
0.15885572135448456,-0.022038880735635757,9.814313888549805,0.0032748897126190896,0.008857972350928878,0.006590136198577237,2.9250011444091797,2019-06-18 15:33:40:355
0.12293447554111481,-0.06993387639522552,9.890946388244629,0.0038076519677975387,0.007126494761524595,-0.0011349168916217633,2.930014133453369,2019-06-18 15:33:40:360
0.16364522278308868,-0.055565375834703445,9.790366172790527,0.0003446972116097473,0.009923496861285777,0.006190564767267726,2.9359006881713867,2019-06-18 15:33:40:366
0.10138172656297684,-0.022038880735635757,9.799945831298828,-0.0009872085238642476,0.004462683485632349,0.00938713829833842,2.940885543823242,2019-06-18 15:33:40:371
0.130118727684021,-0.019644131883978844,9.76402473449707,0.003541270840208314,0.008857972350928878,0.0040595154864796045,2.945889472961426,2019-06-18 15:33:40:376
0.13251347839832306,-0.0388021282851696,9.802340507507324,-0.00658121252833087,0.004729064613221573,-0.003931918861345784,2.950002670288086,2019-06-18 15:33:40:380
0.14688196778297424,-0.1106446236371994,9.708945274353027,-0.00018806509233263786,0.0011329190006555533,0.005391421384500052,2.9558868408203125,2019-06-18 15:33:40:386
0.11575022339820862,-0.08669712394475937,9.840656280517578,0.0032748897126190896,0.002864396460022676,0.009120756650600545,2.959998607635498,2019-06-18 15:33:40:390
0.13730297982692719,-0.012459882535040379,9.761629104614258,-0.0028518764820074007,0.004063111534174186,0.0035267532313011545,2.9658937454223633,2019-06-18 15:33:40:396
0.13730297982692719,-0.03161787986755371,9.840656280517578,-0.0028518764820074007,0.008192019271881493,0.007256089277624623,2.9700193405151367,2019-06-18 15:33:40:400
0.13730297982692719,-0.06274962425231934,9.8167085647583,-0.0005876368324804107,0.005528207995989247,0.002461228460869931,2.9758987426757812,2019-06-18 15:33:40:406
0.14688196778297424,-0.12022361904382706,9.787971496582031,0.0028753180212352527,0.008991162654649167,0.00645694589485695,2.980893135070801,2019-06-18 15:33:40:411
0.130118727684021,-0.07232862710952759,9.747261047363281,0.009668037294909131,0.0061941605548879826,0.0067233270224461746,2.9858899116516113,2019-06-18 15:33:40:416
0.07982897758483887,0.0019086154643446207,9.783182144165039,0.005672319860922111,0.002997587023817288,0.009520328602058708,2.990886688232422,2019-06-18 15:33:40:421
0.12772397696971893,0.021066613495349884,9.814313888549805,0.001143840691905293,-0.0027296074794253655,0.006856517326166462,2.994997024536133,2019-06-18 15:33:40:425
0.11096072942018509,-0.06035487726330757,9.75444507598877,0.0032748897126190896,-0.0008649395863007935,0.005524611688220339,3.000883102416992,2019-06-18 15:33:40:431
0.13730297982692719,-0.08669712394475937,9.783182144165039,0.005938700988511335,-0.005526609579186549,0.005524611688220339,3.0058908462524414,2019-06-18 15:33:40:436
0.12772397696971893,-0.06753912568092346,9.869393348693848,0.0023425557660568036,-0.006592134089543447,0.005524611688220339,3.0100040435791016,2019-06-18 15:33:40:440
0.19717171788215637,-0.05077587813138962,9.90291976928711,0.0018097935108783545,-0.00046536786240766596,0.00991990055351687,3.0159029960632324,2019-06-18 15:33:40:446
0.130118727684021,-0.007670383434742689,9.871788024902344,0.0007442689355028748,0.0049954457408107975,0.0001969888601068769,3.020890712738037,2019-06-18 15:33:40:451
0.1492767184972763,-0.0651443749666214,9.886157035827637,-0.0012535897164720534,0.005661398299709534,0.008721185219291034,3.0250024795532227,2019-06-18 15:33:40:455
0.182803213596344,-0.09867087006568909,9.759234428405762,-0.00045444623617650777,0.003397158715201125,0.010053090857237157,3.0308847427368164,2019-06-18 15:33:40:461
0.13490822911262512,-0.09627611935138702,9.768814086914062,-0.0005876368324804107,0.006060970251167696,0.015380714449318949,3.035001754760742,2019-06-18 15:33:40:465
0.13490822911262512,-0.012459882535040379,9.768814086914062,0.002209365202262191,-0.0023300357880415286,0.005524611688220339,3.0408854484558105,2019-06-18 15:33:40:471
0.09659223258495331,-0.00048613420221954584,9.71373462677002,0.001676602947083742,-0.0027296074794253655,0.007788851532803074,3.0449986457824707,2019-06-18 15:33:40:475
0.16125047206878662,0.021066613495349884,9.629918098449707,-0.0013867802802666658,-0.0077908494237692826,0.003659943795095767,3.0508832931518555,2019-06-18 15:33:40:481
0.18519796431064606,-0.08190762251615524,9.71373462677002,-0.005249306890384747,-0.008989564757995118,0.009253947994618133,3.055896282196045,2019-06-18 15:33:40:486
0.15406621992588043,-0.10585512220859528,9.677813529968262,0.0038076519677975387,-0.011520185730167078,0.014181998594944463,3.0600051879882812,2019-06-18 15:33:40:490
0.2738037109375,-0.04359162971377373,9.744866371154785,-0.0011203991526774412,-0.009122755061715405,0.009786710249796583,3.0659079551696777,2019-06-18 15:33:40:496
0.27140894532203674,-0.007670383434742689,9.730497360229492,-0.0036510198647750746,-0.004194703941240426,0.010053090857237157,3.070004463195801,2019-06-18 15:33:40:500
0.2953564524650574,-0.0388021282851696,9.771208763122559,-0.0077799278625567065,-0.0008649395863007935,0.010053090857237157,3.0758886337280273,2019-06-18 15:33:40:506
0.35522520542144775,-0.1369868665933609,9.716129302978516,-0.0011203991526774412,-0.004860656500139162,0.009120756650600545,3.0808868408203125,2019-06-18 15:33:40:511
0.35522520542144775,-0.1106446236371994,9.687392234802246,0.0003446972116097473,0.0011329190006555533,0.011784568966790091,3.0858874320983887,2019-06-18 15:33:40:516
0.38156744837760925,-0.11303936690092087,9.677813529968262,-0.0032514481733912377,-0.005526609579186549,0.01737857212601516,3.090883255004883,2019-06-18 15:33:40:521
0.4294624328613281,-0.1106446236371994,9.694576263427734,0.0003446972116097473,-0.0059261815306447104,0.005790992815809564,3.095889091491699,2019-06-18 15:33:40:526
0.477357417345047,-0.08190762251615524,9.699365615844727,-0.0017863519716505025,-0.000598558458711569,0.008188422964112586,3.1000118255615234,2019-06-18 15:33:40:530
0.4318571984767914,-0.07472337782382965,9.699365615844727,-0.0005876368324804107,0.001798871819628615,0.011118615367594054,3.1058902740478516,2019-06-18 15:33:40:536
0.4581994414329529,-0.05317062884569168,9.766419410705566,0.003940842531592151,0.006593732506346145,0.005924183639678501,3.110912322998047,2019-06-18 15:33:40:541
0.4653836786746979,-0.12261836975812912,9.75444507598877,-0.0035178293009804624,0.008192019271881493,0.0052582305606311145,3.1158981323242188,2019-06-18 15:33:40:546
0.48693642020225525,-0.117828868329525,9.740077018737793,0.00021150663156048962,0.009257544302387042,0.003926324922684992,3.120882987976074,2019-06-18 15:33:40:551
0.4294624328613281,-0.1896713674068451,9.811919212341309,0.0003446972116097473,0.01365283264753492,-0.0031327754785781103,3.125887870788574,2019-06-18 15:33:40:556
0.379172682762146,-0.1441711187362671,9.780787467956543,-0.003118257609596625,0.013386452040094348,0.0031271815399173176,3.1300010681152344,2019-06-18 15:33:40:560
0.3600147068500519,-0.05796012654900551,9.747261047363281,-0.0013867802802666658,0.008991162654649167,-0.0041982999889350085,3.135885715484619,2019-06-18 15:33:40:566
0.364804208278656,-0.08190762251615524,9.706550598144531,0.001676602947083742,0.0076592570167030435,-0.004331490552729621,3.140888214111328,2019-06-18 15:33:40:571
0.36240944266319275,-0.11543411761522293,9.790366172790527,7.831605963855469e-05,0.016449835267444757,-0.0020672508381840496,3.14591121673584,2019-06-18 15:33:40:576
0.34325143694877625,-0.14896062016487122,9.84544563293457,0.0010106500630920993,0.016449835267444757,-0.01179016264537656,3.1500062942504883,2019-06-18 15:33:40:580
0.32888296246528625,-0.0843023732304573,9.819103240966797,0.0030085085850298653,0.018847265935896425,-0.0003357734438355082,3.155900001525879,2019-06-18 15:33:40:586
0.23788246512413025,-0.04598637670278549,9.86220932006836,-0.0007208273962750229,0.018314502640420675,-0.012056543252817133,3.1608939170837402,2019-06-18 15:33:40:591
0.1947769671678543,-0.03640738129615784,9.87418270111084,0.0012770312556999051,0.023508935928782185,-0.015386308127905417,3.1658878326416016,2019-06-18 15:33:40:596
0.182803213596344,-0.07232862710952759,9.869393348693848,0.001676602947083742,0.02257660068184827,-0.016451832638262314,3.170001983642578,2019-06-18 15:33:40:600
0.1492767184972763,-0.10346037149429321,9.814313888549805,0.008336131656963007,0.024174888487680915,-0.011923352949096848,3.1758852005004883,2019-06-18 15:33:40:606
0.08222372829914093,-0.06274962425231934,9.864603996276855,0.002209365202262191,0.01764855008152194,-0.012189734596834723,3.180887222290039,2019-06-18 15:33:40:611
0.036723487079143524,-0.03161787986755371,9.936446189880371,0.002209365202262191,0.01964640775821815,-0.02271178939668342,3.1858863830566406,2019-06-18 15:33:40:616
-0.006382008083164692,-0.041196878999471664,9.80473518371582,0.0019429840746729666,0.01924683580675999,-0.019382024521595136,3.1909055709838867,2019-06-18 15:33:40:621
-0.04230325296521187,-0.04359162971377373,9.871788024902344,-0.0033846387371858503,0.018847265935896425,-0.019781596473053296,3.195000648498535,2019-06-18 15:33:40:625
-0.027934754267334938,-0.05077587813138962,9.759234428405762,0.0010106500630920993,0.015117929109349983,-0.013788021362370069,3.200009822845459,2019-06-18 15:33:40:630
-0.06864549964666367,-0.05077587813138962,9.7257080078125,0.0023425557660568036,0.014052404598993085,-0.020980312327427784,3.205890655517578,2019-06-18 15:33:40:636
-0.07343500107526779,-0.03640738129615784,9.752050399780273,0.002209365202262191,0.01032306881274394,-0.021246692934868357,3.210000991821289,2019-06-18 15:33:40:640
-0.0925929993391037,-0.04359162971377373,9.737682342529297,-0.0007208273962750229,0.004196302097968799,-0.017384166844898925,3.2158899307250977,2019-06-18 15:33:40:646
-0.08301399648189545,-0.07951287180185318,9.7352876663208,7.831605963855469e-05,0.001798871819628615,-0.021246692934868357,3.2208871841430664,2019-06-18 15:33:40:651
-0.06864549964666367,-0.1369868665933609,9.795156478881836,0.0014102218194945173,0.0036635398427903496,-0.011523780997638684,3.2258925437927246,2019-06-18 15:33:40:656
-0.06864549964666367,-0.041196878999471664,9.706550598144531,0.0018097935108783545,-0.003395560558472752,-0.015386308127905417,3.230025291442871,2019-06-18 15:33:40:660
-0.047092754393815994,0.030645612627267838,9.761629104614258,-0.004450163507617074,0.0002005850053293314,-0.016984594893440765,3.235901355743408,2019-06-18 15:33:40:666
-0.032724253833293915,0.056987859308719635,9.773603439331055,-0.0009872085238642476,-0.0017972735328630795,-0.016318642334542027,3.240889549255371,2019-06-18 15:33:40:671
0.07024998217821121,-0.0914866253733635,9.752050399780273,-0.005382497194105034,-0.0031291791708092024,-0.01525311782418513,3.245894432067871,2019-06-18 15:33:40:676
0.10856597870588303,-0.1705133616924286,9.687392234802246,0.0007442689355028748,-0.008323611678947733,-0.013122068803471332,3.250006675720215,2019-06-18 15:33:40:680
0.0774342343211174,-0.07951287180185318,9.744866371154785,0.0026089368936460283,-0.010721041827250753,-0.006329349269723131,3.2558860778808594,2019-06-18 15:33:40:686
0.12532922625541687,-0.05077587813138962,9.761629104614258,-0.0025854953544181764,-0.008323611678947733,-0.0031327754785781103,3.2599992752075195,2019-06-18 15:33:40:690
0.1684347242116928,-0.012459882535040379,9.752050399780273,-0.0063148314007416455,-0.015515902123856796,-0.012189734596834723,3.2658863067626953,2019-06-18 15:33:40:696
0.21632970869541168,-0.07951287180185318,9.787971496582031,-0.00511611606651581,-0.0123193285927861,-0.005130633935497294,3.2708845138549805,2019-06-18 15:33:40:701
0.24985620379447937,-0.1633291095495224,9.766419410705566,-0.0040505915561589115,-0.015649093467874384,-0.005263824759366232,3.275022506713867,2019-06-18 15:33:40:705
0.31690919399261475,-0.14656586945056915,9.878972053527832,-0.0007208273962750229,-0.01431718730977961,0.0029939909761227054,3.2808918952941895,2019-06-18 15:33:40:711
0.3121196925640106,0.009092864580452442,9.792760848999023,-0.002452304790623564,-0.009655517316893856,-0.0011349168916217633,3.2858943939208984,2019-06-18 15:33:40:716
0.30254068970680237,0.01148761436343193,9.855024337768555,-0.00951140493181234,-0.006458943785823161,-0.004997443631777007,3.290907859802246,2019-06-18 15:33:40:721
0.30254068970680237,-0.019644131883978844,9.809524536132812,-0.0017863519716505025,0.0023316342048442266,-0.001934060274389437,3.2958922386169434,2019-06-18 15:33:40:726
0.3073301911354065,-0.08190762251615524,9.778392791748047,-0.007247165607378258,0.0008665378730663289,-0.008194017162847702,3.3000006675720215,2019-06-18 15:33:40:730
0.32888296246528625,-0.1633291095495224,9.756839752197266,-0.0011203991526774412,0.0004669661491732013,-0.0003357734438355082,3.305889129638672,2019-06-18 15:33:40:736
0.2929617166519165,-0.10585512220859528,9.847840309143066,-0.0008540179600696353,0.004462683485632349,-0.0006021545714247328,3.310889720916748,2019-06-18 15:33:40:741
0.24985620379447937,-0.055565375834703445,9.847840309143066,-0.00045444623617650777,0.0032639681514065122,-0.004731062504187783,3.315885543823242,2019-06-18 15:33:40:746
0.2690142095088959,-0.005275633651763201,9.75444507598877,-0.0017863519716505025,0.0006001567454771042,-0.00979230392838305,3.3208866119384766,2019-06-18 15:33:40:751
0.28338271379470825,-0.07232862710952759,9.744866371154785,0.0026089368936460283,0.0004669661491732013,-6.939229186431566e-05,3.3250041007995605,2019-06-18 15:33:40:755
0.27140894532203674,-0.15135537087917328,9.80473518371582,0.0076701785779156205,-0.00019898671856379607,0.0012625133867184206,3.33099365234375,2019-06-18 15:33:40:761
0.31690919399261475,-0.1106446236371994,9.80473518371582,0.0023425557660568036,0.005528207995989247,-0.0004689640076301205,3.3350143432617188,2019-06-18 15:33:40:765
0.2881722152233124,-0.029223131015896797,9.838261604309082,0.0012770312556999051,0.010989021371642677,0.003926324922684992,3.340878486633301,2019-06-18 15:33:40:771
0.2546457052230835,0.06177735701203346,9.799945831298828,-0.0003212556723818955,0.011521783626821125,-0.0012681074554163755,3.345883369445801,2019-06-18 15:33:40:776
0.2211192101240158,-0.03161787986755371,9.797551155090332,0.003940842531592151,0.012054545881999576,0.0004633700039507468,3.3499984741210938,2019-06-18 15:33:40:780
0.21632970869541168,-0.08909187465906143,9.723313331604004,-0.0009872085238642476,0.011122211675362963,-0.0027332037871942733,3.355881690979004,2019-06-18 15:33:40:786
0.23069821298122406,-0.117828868329525,9.80473518371582,0.004074033095386763,0.01325326069607676,0.0005965605677453591,3.3608827590942383,2019-06-18 15:33:40:791
0.19956646859645844,-0.07951287180185318,9.740077018737793,0.006737844891427659,0.011122211675362963,0.006323755070988013,3.365902900695801,2019-06-18 15:33:40:796
0.16125047206878662,0.021066613495349884,9.766419410705566,-0.0015199708440612782,0.013519642343814635,0.005391421384500052,3.3708858489990234,2019-06-18 15:33:40:801
0.19717171788215637,0.06896160542964935,9.76402473449707,-5.487451634704159e-05,0.008192019271881493,0.01191775927051038,3.3750247955322266,2019-06-18 15:33:40:805
0.22590871155261993,-0.05317062884569168,9.80473518371582,0.0030085085850298653,0.006993303937655657,0.008188422964112586,3.380887031555176,2019-06-18 15:33:40:811
0.20675072073936462,-0.09388136863708496,9.828682899475098,0.003141699148824477,0.017248978130063777,0.01391561798750389,3.384998321533203,2019-06-18 15:33:40:815
0.22590871155261993,-0.07711812108755112,9.740077018737793,0.005272748429612599,0.015917071971969007,0.011251806711611644,3.390885353088379,2019-06-18 15:33:40:821
0.19956646859645844,-0.005275633651763201,9.75444507598877,0.004340414222975988,0.009390734606107327,0.014981142497860787,3.3958864212036133,2019-06-18 15:33:40:826
0.17082947492599487,0.04740886017680168,9.766419410705566,-0.004583353811337361,0.019513218494795162,0.010452662808695319,3.4000000953674316,2019-06-18 15:33:40:830
0.18040846288204193,-0.02443363144993782,9.766419410705566,0.00021150663156048962,0.012587308137178023,0.012850093477146989,3.405910015106201,2019-06-18 15:33:40:836
0.18759271502494812,-0.07232862710952759,9.71373462677002,0.004207223659181376,0.013386452040094348,0.014847952194140498,3.41001033782959,2019-06-18 15:33:40:840
0.15406621992588043,-0.014854632318019867,9.706550598144531,0.006471463243689784,0.013519642343814635,0.01737857212601516,3.4158849716186523,2019-06-18 15:33:40:846
0.13251347839832306,-0.00048613420221954584,9.807129859924316,0.005805510684791048,0.0117881642342617,0.021507480904019764,3.420001983642578,2019-06-18 15:33:40:850
0.12053972482681274,0.07135635614395142,9.740077018737793,0.005672319860922111,0.010989021371642677,0.015114332801581074,3.425884246826172,2019-06-18 15:33:40:856
0.16125047206878662,-0.0028808838687837124,9.819103240966797,0.004606795350565213,0.006060970251167696,0.009253947994618133,3.430879592895508,2019-06-18 15:33:40:861
0.17801371216773987,-0.1106446236371994,9.742471694946289,0.003541270840208314,0.010589449420184513,0.008854376043159971,3.4350013732910156,2019-06-18 15:33:40:865
0.1564609706401825,-0.07951287180185318,9.783182144165039,0.0050063673020233745,0.01165497393054141,0.01617985731193797,3.440878391265869,2019-06-18 15:33:40:871
0.15167146921157837,-0.03640738129615784,9.76402473449707,0.0027421274574406405,0.010722639723904802,0.0137824276837836,3.4458866119384766,2019-06-18 15:33:40:876
0.1684347242116928,0.028250861912965775,9.785576820373535,0.0007442689355028748,0.010056687165006064,0.012450521525688828,3.4500131607055664,2019-06-18 15:33:40:880
0.15885572135448456,-0.019644131883978844,9.720918655395508,0.00021150663156048962,0.010589449420184513,0.012184139877950953,3.4550094604492188,2019-06-18 15:33:40:885
0.13969773054122925,-0.12501311302185059,9.744866371154785,0.0019429840746729666,0.01165497393054141,0.010585853112415606,3.460878849029541,2019-06-18 15:33:40:891
0.13969773054122925,-0.1369868665933609,9.843050956726074,0.003141699148824477,0.009523924909827616,0.012583711829409117,3.465890884399414,2019-06-18 15:33:40:896
0.1492767184972763,-0.05077587813138962,9.783182144165039,0.008336131656963007,0.01165497393054141,0.005125040256910827,3.4700021743774414,2019-06-18 15:33:40:900
0.11335548013448715,-0.007670383434742689,9.76402473449707,0.001676602947083742,0.007526066192834106,0.004459087177863441,3.475883960723877,2019-06-18 15:33:40:906
0.13730297982692719,-0.07232862710952759,9.8167085647583,0.0012770312556999051,0.010589449420184513,0.005391421384500052,3.4808878898620605,2019-06-18 15:33:40:911
0.12293447554111481,-0.0843023732304573,9.819103240966797,0.0024757463298514157,0.009124352958369454,0.000996132259129196,3.485884666442871,2019-06-18 15:33:40:916
0.09898697584867477,-0.1441711187362671,9.811919212341309,0.005672319860922111,0.010056687165006064,-0.00020258286378625062,3.4899978637695312,2019-06-18 15:33:40:920
0.12532922625541687,-0.0651443749666214,9.86220932006836,0.0024757463298514157,0.009257544302387042,0.0004633700039507468,3.495882034301758,2019-06-18 15:33:40:926
0.13251347839832306,0.013882364146411419,9.783182144165039,0.00154341238328913,0.01032306881274394,0.0040595154864796045,3.5009031295776367,2019-06-18 15:33:40:931
0.09180273115634918,-0.012459882535040379,9.8167085647583,0.0028753180212352527,0.009523924909827616,-0.005796587014544681,3.505000114440918,2019-06-18 15:33:40:935
0.11096072942018509,-0.10346037149429321,9.807129859924316,0.0008774594992974871,0.014585166854171532,-0.004997443631777007,3.510883331298828,2019-06-18 15:33:40:941
0.09898697584867477,-0.117828868329525,9.802340507507324,0.007137416322737172,0.013919214295272795,-0.0032659660423727224,3.5150022506713867,2019-06-18 15:33:40:945
0.10138172656297684,-0.06035487726330757,9.699365615844727,0.007403797450326395,0.010456259116464226,0.0003301794401561345,3.520878314971924,2019-06-18 15:33:40:951
0.09659223258495331,-0.01724938116967678,9.756839752197266,-5.487451634704159e-05,0.009923496861285777,-0.006196158445854193,3.52500057220459,2019-06-18 15:33:40:955
0.07503948360681534,-0.04359162971377373,9.766419410705566,-0.0015199708440612782,0.005927779427298759,-0.007528064083800316,3.5309033393859863,2019-06-18 15:33:40:961
0.11096072942018509,-0.055565375834703445,9.756839752197266,-0.0008540179600696353,0.0061941605548879826,-0.007661254907669253,3.535001754760742,2019-06-18 15:33:40:965
0.12772397696971893,-0.14656586945056915,9.773603439331055,0.004074033095386763,0.0027312058962280636,-0.005796587014544681,3.5409016609191895,2019-06-18 15:33:40:971
0.13730297982692719,-0.09388136863708496,9.787971496582031,0.005139557605743661,0.003796730406584962,-0.007528064083800316,3.545010566711426,2019-06-18 15:33:40:975
0.1564609706401825,-0.048381127417087555,9.843050956726074,0.0003446972116097473,0.0039299209703795735,-0.0103250661835615,3.550882339477539,2019-06-18 15:33:40:981
0.13251347839832306,-0.034012630581855774,9.855024337768555,0.0023425557660568036,0.0008665378730663289,-0.006995301828621867,3.5550060272216797,2019-06-18 15:33:40:985
0.12293447554111481,-0.10824987292289734,9.768814086914062,-0.00018806509233263786,0.004462683485632349,-0.012189734596834723,3.5608835220336914,2019-06-18 15:33:40:991
0.1492767184972763,-0.12261836975812912,9.821497917175293,0.004473605046844925,0.00686011363393537,-0.009392731976924888,3.5649986267089844,2019-06-18 15:33:40:995
0.12053972482681274,-0.12022361904382706,9.783182144165039,0.006604654067558721,0.005261826868400022,-0.004464681376598559,3.5708799362182617,2019-06-18 15:33:41:001
0.11096072942018509,-0.10106562077999115,9.749655723571777,-0.0013867802802666658,-0.0007317490225061812,-0.014187593313828233,3.575885772705078,2019-06-18 15:33:41:006
