ACCELEROMETER X (m/s²),ACCELEROMETER Y (m/s²),ACCELEROMETER Z (m/s²),GYROSCOPE X (rad/s),GYROSCOPE Y (rad/s),GYROSCOPE Z (rad/s),Time since start in ms ,YYYY-MO-DD HH-MI-SS_SSS
0.12293447554111481,-0.07711812108755112,9.795156478881836,0.0032748897126190896,0.0012661095644501657,-0.0037987282975511715,0.0,2019-06-18 15:59:08:534
0.11096072942018509,-0.005275633651763201,9.807129859924316,0.003940842531592151,0.004063111534174186,0.0005965605677453591,0.005878448486328125,2019-06-18 15:59:08:540
0.14448721706867218,-0.01006513275206089,9.83347225189209,0.004207223659181376,0.006726922810066432,0.001528894514307645,0.009996414184570312,2019-06-18 15:59:08:544
0.09659223258495331,-0.06035487726330757,9.843050956726074,0.0038076519677975387,0.011122211675362963,0.0069897081500354,0.015890121459960938,2019-06-18 15:59:08:550
0.05588148534297943,-0.055565375834703445,9.783182144165039,0.0028753180212352527,0.008724781527059942,0.0011293228229238084,0.01999950408935547,2019-06-18 15:59:08:554
0.0774342343211174,-0.0028808838687837124,9.7352876663208,0.0014102218194945173,0.007526066192834106,0.004459087177863441,0.025897979736328125,2019-06-18 15:59:08:560
0.06785523146390915,0.021066613495349884,9.718523979187012,0.004473605046844925,0.0020652529472178394,-6.939229186431566e-05,0.030030250549316406,2019-06-18 15:59:08:564
0.06546048074960709,0.01148761436343193,9.792760848999023,0.0014102218194945173,0.0008665378730663289,0.004459087177863441,0.03590869903564453,2019-06-18 15:59:08:570
0.09419748187065125,-0.06274962425231934,9.787971496582031,0.004074033095386763,0.006060970251167696,-0.003399156606167335,0.040007591247558594,2019-06-18 15:59:08:574
0.09898697584867477,-0.1106446236371994,9.809524536132812,0.006737844891427659,0.005794589123578471,0.0011293228229238084,0.04588127136230469,2019-06-18 15:59:08:580
0.10617122799158096,-0.0388021282851696,9.811919212341309,-0.0023191142268289516,0.00686011363393537,0.003926324922684992,0.049999237060546875,2019-06-18 15:59:08:584
0.084618479013443,-0.01724938116967678,9.749655723571777,0.0006110783717082625,0.00979030655756549,-0.001934060274389437,0.05589008331298828,2019-06-18 15:59:08:590
0.029539236798882484,0.05219835788011551,9.771208763122559,-0.0037842104285696868,0.010456259116464226,-0.006196158445854193,0.060894012451171875,2019-06-18 15:59:08:595
0.084618479013443,0.006698114797472954,9.838261604309082,-0.0016531614078558903,0.010056687165006064,-0.000735345135219345,0.06500053405761719,2019-06-18 15:59:08:599
0.08222372829914093,-0.034012630581855774,9.756839752197266,-0.00018806509233263786,0.011122211675362963,0.0008629416953345836,0.06999683380126953,2019-06-18 15:59:08:604
0.02714448794722557,-0.06993387639522552,9.747261047363281,0.004473605046844925,0.0036635398427903496,-0.0010017262628085697,0.07592105865478516,2019-06-18 15:59:08:610
0.043907735496759415,-0.10824987292289734,9.790366172790527,0.001143840691905293,0.0039299209703795735,-0.0012681074554163755,0.08002090454101562,2019-06-18 15:59:08:614
0.06306573003530502,-0.0388021282851696,9.778392791748047,0.0038076519677975387,0.0023316342048442266,-0.0031327754785781103,0.08588504791259766,2019-06-18 15:59:08:620
0.04630248621106148,-0.014854632318019867,9.799945831298828,0.0008774594992974871,0.006593732506346145,-0.009392731976924888,0.09089183807373047,2019-06-18 15:59:08:625
0.05588148534297943,-0.04598637670278549,9.795156478881836,0.0036744614040029266,0.007126494761524595,-0.0037987282975511715,0.09589195251464844,2019-06-18 15:59:08:630
0.084618479013443,-0.06753912568092346,9.799945831298828,0.0024757463298514157,0.01365283264753492,-0.0015344885830056003,0.100006103515625,2019-06-18 15:59:08:634
0.07503948360681534,-0.019644131883978844,9.7257080078125,0.002209365202262191,0.0016656812558340024,0.0005965605677453591,0.10589218139648438,2019-06-18 15:59:08:640
-0.157251238822937,-0.019644131883978844,10.0106840133667,-0.0017863519716505025,0.02550679360547839,-0.0006021545714247328,0.1100149154663086,2019-06-18 15:59:08:644
0.4510151743888855,-0.0028808838687837124,9.479048728942871,0.003940842531592151,-0.00046536786240766596,-0.010857828438739949,0.11590719223022461,2019-06-18 15:59:08:650
-0.030329504981637,-0.029223131015896797,9.871788024902344,0.0008774594992974871,0.007925638144292268,-0.014320783617548518,0.12092018127441406,2019-06-18 15:59:08:655
0.2546457052230835,-0.012459882535040379,9.75444507598877,-0.005382497194105034,0.01232092752973745,-0.010058685576120925,0.12500476837158203,2019-06-18 15:59:08:659
0.2091454714536667,-0.06274962425231934,9.69697093963623,7.831605963855469e-05,0.00686011363393537,-0.016318642334542027,0.13088703155517578,2019-06-18 15:59:08:665
0.22351396083831787,-0.12501311302185059,9.84544563293457,0.0006110783717082625,0.023375744584764595,-0.018582882699273412,0.13500642776489258,2019-06-18 15:59:08:669
0.35043570399284363,-0.05077587813138962,9.658655166625977,-0.0019195425354451149,0.013519642343814635,-0.020314359768529047,0.14088964462280273,2019-06-18 15:59:08:675
0.18040846288204193,-0.07951287180185318,9.773603439331055,-0.0028518764820074007,0.018714074591878842,-0.026174743535194687,0.14499998092651367,2019-06-18 15:59:08:679
0.2929617166519165,-0.04359162971377373,9.687392234802246,-0.0003212556723818955,0.01232092752973745,-0.03203512938245493,0.1508932113647461,2019-06-18 15:59:08:685
0.30972495675086975,-0.029223131015896797,9.711339950561523,-0.004982925762795523,0.010855831067922388,-0.0344325590106093,0.15500736236572266,2019-06-18 15:59:08:689
0.47496268153190613,-0.01724938116967678,9.625128746032715,0.0010106500630920993,0.0009997284368609412,-0.0480179970378084,0.16089963912963867,2019-06-18 15:59:08:695
-0.08780349791049957,-0.09388136863708496,10.065762519836426,-0.005648878321694259,0.03003527225434656,-0.04868394959670714,0.16591453552246094,2019-06-18 15:59:08:700
0.11335548013448715,-0.12740786373615265,9.895735740661621,-0.0032514481733912377,0.01365283264753492,-0.04788480569379082,0.17000961303710938,2019-06-18 15:59:08:704
0.27140894532203674,-0.08669712394475937,9.596391677856445,0.007137416322737172,0.0021984436410496144,-0.04921671497277749,0.17588043212890625,2019-06-18 15:59:08:710
-0.16683024168014526,0.035435110330581665,9.886157035827637,-0.0009872085238642476,0.0024648247686388392,-0.052013716552390024,0.18000030517578125,2019-06-18 15:59:08:714
0.2211192101240158,0.0785406082868576,9.742471694946289,-0.0027186859182127886,-0.008323611678947733,-0.05108138130545611,0.18588542938232422,2019-06-18 15:59:08:720
0.15167146921157837,0.05219835788011551,9.7352876663208,0.00473998617443415,0.0009997284368609412,-0.058140480926496235,0.1908893585205078,2019-06-18 15:59:08:725
0.10138172656297684,-0.0028808838687837124,9.895735740661621,-5.487451634704159e-05,0.004063111534174186,-0.05294604763813473,0.19500064849853516,2019-06-18 15:59:08:729
0.2402772158384323,-0.06993387639522552,9.752050399780273,0.003141699148824477,0.0036635398427903496,-0.04881714094072472,0.20089149475097656,2019-06-18 15:59:08:735
0.14688196778297424,0.0330403633415699,9.76402473449707,0.0014102218194945173,0.004063111534174186,-0.04895033228474232,0.20501136779785156,2019-06-18 15:59:08:739
-0.025540005415678024,0.04501410946249962,9.898130416870117,-0.008179499293866218,0.00832521009575043,-0.0449546169313499,0.21091127395629883,2019-06-18 15:59:08:745
0.24267196655273438,-0.005275633651763201,9.627523422241211,-0.0025854953544181764,-0.0017972735328630795,-0.04575375667307702,0.21500110626220703,2019-06-18 15:59:08:749
0.058276232331991196,-0.06274962425231934,9.77599811553955,0.0024757463298514157,0.003796730406584962,-0.040958897416768274,0.2208881378173828,2019-06-18 15:59:08:755
0.16125047206878662,-0.055565375834703445,9.828682899475098,0.0050063673020233745,-0.000598558458711569,-0.03256789267793068,0.2258920669555664,2019-06-18 15:59:08:760
0.13490822911262512,-0.01006513275206089,9.740077018737793,0.0050063673020233745,-0.0071248963447218955,-0.036430416687305504,0.23000717163085938,2019-06-18 15:59:08:764
0.11575022339820862,0.09290910512208939,9.799945831298828,0.0023425557660568036,-0.0031291791708092024,-0.03243470133391309,0.23588323593139648,2019-06-18 15:59:08:770
0.13251347839832306,0.05219835788011551,9.792760848999023,-0.002452304790623564,-0.0017972735328630795,-0.028705364507366646,0.23999786376953125,2019-06-18 15:59:08:774
0.14448721706867218,-0.06274962425231934,9.761629104614258,0.0004778877754043595,0.0031307775876119005,-0.02897174719540182,0.2458944320678711,2019-06-18 15:59:08:780
0.08940798044204712,-0.07472337782382965,9.7352876663208,0.0034080802764137014,0.004329492661763411,-0.0249760297614148,0.2509441375732422,2019-06-18 15:59:08:785
0.07982897758483887,-0.03640738129615784,9.773603439331055,0.005139557605743661,0.004063111534174186,-0.018982452570136973,0.25502490997314453,2019-06-18 15:59:08:789
0.15167146921157837,0.028250861912965775,9.687392234802246,-0.0003212556723818955,-0.006059371834364998,-0.02657431548665285,0.2608919143676758,2019-06-18 15:59:08:795
0.05588148534297943,0.0330403633415699,9.718523979187012,-0.0016531614078558903,-0.0021968452242469164,-0.027639839997009745,0.26502132415771484,2019-06-18 15:59:08:799
0.16125047206878662,-0.06035487726330757,9.71373462677002,0.0030085085850298653,-0.006325752961954223,-0.023510933299599742,0.2708883285522461,2019-06-18 15:59:08:805
0.11575022339820862,-0.06035487726330757,9.843050956726074,0.007803369401784558,-0.003928322813651202,-0.022844980740701005,0.2758917808532715,2019-06-18 15:59:08:810
0.12053972482681274,-0.00048613420221954584,9.869393348693848,0.001676602947083742,-0.0019304640966576916,-0.02444326646593905,0.28089237213134766,2019-06-18 15:59:08:815
0.11335548013448715,0.02585611306130886,9.811919212341309,-0.0003212556723818955,0.0016656812558340024,-0.028172603292485495,0.28499603271484375,2019-06-18 15:59:08:819
0.051091983914375305,0.0019086154643446207,9.876577377319336,-0.006181640576872708,0.002864396460022676,-0.025641982320313537,0.2909207344055176,2019-06-18 15:59:08:825
0.08940798044204712,-0.06753912568092346,9.797551155090332,0.0030085085850298653,0.0006001567454771042,-0.028305792555908482,0.2950401306152344,2019-06-18 15:59:08:829
0.05348673462867737,-0.07472337782382965,9.730497360229492,0.005272748429612599,-0.008456801982668018,-0.027639839997009745,0.3008995056152344,2019-06-18 15:59:08:835
-0.3272784650325775,-0.1369868665933609,10.032236099243164,0.005139557605743661,0.004595873789352636,-0.03003727170575872,0.30588245391845703,2019-06-18 15:59:08:840
-0.07582975178956985,-0.10824987292289734,9.802340507507324,-0.0003212556723818955,-0.0024632263518361407,-0.021779456230344107,0.3099980354309082,2019-06-18 15:59:08:844
0.12293447554111481,0.035435110330581665,9.610760688781738,0.005938700988511335,-0.023240955344092956,-0.0260415542717717,0.3158903121948242,2019-06-18 15:59:08:850
-0.308120459318161,0.05219835788011551,10.015473365783691,0.0008774594992974871,-0.01524952151641622,-0.028305792555908482,0.3200078010559082,2019-06-18 15:59:08:854
0.04869723320007324,-0.0843023732304573,9.888551712036133,-0.008712261549044666,0.0049954457408107975,-0.024176885858498476,0.3258838653564453,2019-06-18 15:59:08:860
0.09898697584867477,-0.21122410893440247,9.7257080078125,0.011799086315622927,0.004196302097968799,-0.018582882699273412,0.33089351654052734,2019-06-18 15:59:08:865
0.04869723320007324,-0.06993387639522552,9.716129302978516,0.002076174638467579,0.00486225491694186,-0.010857828438739949,0.33591556549072266,2019-06-18 15:59:08:870
-0.09977724403142929,0.1048828512430191,9.7257080078125,-0.0011203991526774412,-0.005260228451597324,-0.0176505474523395,0.3400430679321289,2019-06-18 15:59:08:874
-0.23867273330688477,0.05459310859441757,9.778392791748047,-0.003917400992364299,-0.005260228451597324,-0.020314359768529047,0.3458871841430664,2019-06-18 15:59:08:880
-0.025540005415678024,-0.1106446236371994,9.692181587219238,-0.0019195425354451149,-0.01045466121981018,-0.02004797708049387,0.35000133514404297,2019-06-18 15:59:08:884
0.024749737232923508,-0.17530286312103271,9.701761245727539,0.006071891812380273,-0.01245251889650639,-0.012456115204275295,0.35589122772216797,2019-06-18 15:59:08:890
0.007986490614712238,-0.12022361904382706,9.878972053527832,0.010333989853807866,-0.005659800403055486,-0.011656972341656273,0.36000537872314453,2019-06-18 15:59:08:894
-0.2362779825925827,0.04740886017680168,10.116052627563477,-0.007247165607378258,0.020312360317116886,-0.00979230392838305,0.3659038543701172,2019-06-18 15:59:08:900
0.084618479013443,0.09769860655069351,9.649076461791992,0.00021150663156048962,-0.005659800403055486,-0.014054401969810643,0.3699989318847656,2019-06-18 15:59:08:904
-0.17880398035049438,-0.04598637670278549,9.752050399780273,-0.00045444623617650777,-0.0013977018414792427,-0.010857828438739949,0.37589502334594727,2019-06-18 15:59:08:910
-0.16683024168014526,-0.15135537087917328,9.778392791748047,0.005139557605743661,0.005128636044531084,-0.009525923320942476,0.38001537322998047,2019-06-18 15:59:08:914
-0.03751375526189804,-0.11303936690092087,9.627523422241211,0.01060037150154574,0.0020652529472178394,-0.005530205886955456,0.38590431213378906,2019-06-18 15:59:08:920
-0.00877675786614418,0.006698114797472954,9.584418296813965,0.007137416322737172,-0.0025964169156307533,-0.00020258286378625062,0.3908967971801758,2019-06-18 15:59:08:925
-0.20275148749351501,0.1048828512430191,9.871788024902344,-0.0035178293009804624,-0.010321469875792591,-0.006196158445854193,0.3950004577636719,2019-06-18 15:59:08:929
-0.23867273330688477,-0.026828380301594734,9.90291976928711,-0.005515688017973972,0.005927779427298759,-0.009259541673204601,0.40088891983032227,2019-06-18 15:59:08:935
-0.0015925085172057152,-0.23996110260486603,9.752050399780273,0.008735703088272519,-0.004594275372549937,-0.0004689640076301205,0.40589046478271484,2019-06-18 15:59:08:940
-0.020750505849719048,-0.1824871152639389,9.797551155090332,0.011266324060444477,0.005528207995989247,0.006190564767267726,0.4100041389465332,2019-06-18 15:59:08:944
-0.14767223596572876,0.030645612627267838,9.96518325805664,0.0050063673020233745,0.006460541682477208,0.004858658609172953,0.41588306427001953,2019-06-18 15:59:08:950
-0.3679892122745514,0.10009334981441498,10.0106840133667,-0.0063148314007416455,0.017781741425539527,-0.0032659660423727224,0.42089366912841797,2019-06-18 15:59:08:955
-0.027934754267334938,-0.1298026144504547,9.682602882385254,-0.0013867802802666658,0.0016656812558340024,0.002328037897075319,0.42591094970703125,2019-06-18 15:59:08:960
-0.10217199474573135,-0.22559259831905365,9.682602882385254,0.008868893391992805,0.0025980153324334514,0.007788851532803074,0.43002796173095703,2019-06-18 15:59:08:964
-0.17880398035049438,-0.1298026144504547,9.744866371154785,0.012065467963360802,0.0039299209703795735,0.00792204183652336,0.43587684631347656,2019-06-18 15:59:08:970
-0.2817782163619995,-0.012459882535040379,10.017868041992188,-0.0033846387371858503,0.01125540197908325,0.009520328602058708,0.43999528884887695,2019-06-18 15:59:08:974
0.036723487079143524,0.01148761436343193,9.646681785583496,-0.0019195425354451149,-0.00299598860701459,0.00499184943304189,0.4458904266357422,2019-06-18 15:59:08:980
-0.18119873106479645,-0.05077587813138962,9.869393348693848,0.0036744614040029266,0.0039299209703795735,0.004592277481583728,0.45000600814819336,2019-06-18 15:59:08:984
-0.2506464719772339,-0.12740786373615265,9.960393905639648,0.0026089368936460283,0.01165497393054141,0.004459087177863441,0.45588111877441406,2019-06-18 15:59:08:990
-0.12372474372386932,-0.21361885964870453,9.756839752197266,0.0023425557660568036,0.02737146201875161,0.009520328602058708,0.45999956130981445,2019-06-18 15:59:08:994
0.05588148534297943,0.0019086154643446207,9.574838638305664,0.005405938733332886,0.0015324906920393903,0.009120756650600545,0.46591663360595703,2019-06-18 15:59:09:000
-0.38475245237350464,0.04501410946249962,9.936446189880371,0.004606795350565213,0.002864396460022676,0.00792204183652336,0.4709434509277344,2019-06-18 15:59:09:005
-0.16922499239444733,-0.06993387639522552,9.811919212341309,-0.004450163507617074,0.009923496861285777,0.010319472504975032,0.47501373291015625,2019-06-18 15:59:09:009
0.007986490614712238,-0.1968556046485901,9.637102127075195,0.008069750529373781,-0.0017972735328630795,0.00898756634688026,0.48088836669921875,2019-06-18 15:59:09:015
-0.09498775005340576,-0.14896062016487122,9.752050399780273,0.0072706071466061084,0.010189877468726351,0.018710479324407232,0.48589134216308594,2019-06-18 15:59:09:020
-0.17640922963619232,-0.022038880735635757,9.802340507507324,0.0014102218194945173,0.009390734606107327,0.009520328602058708,0.4908924102783203,2019-06-18 15:59:09:025
-0.32967323064804077,-0.055565375834703445,9.96518325805664,-0.004183782119953524,0.020978314956610223,0.010053090857237157,0.4949979782104492,2019-06-18 15:59:09:029
0.058276232331991196,-0.10106562077999115,9.5532865524292,0.004606795350565213,-0.002862798043219978,0.012850093477146989,0.5008935928344727,2019-06-18 15:59:09:035
-0.09498775005340576,-0.08669712394475937,9.737682342529297,0.0024757463298514157,0.01525111941307027,0.0137824276837836,0.505894660949707,2019-06-18 15:59:09:040
-0.07582975178956985,-0.01006513275206089,9.823892593383789,-0.0015199708440612782,0.005128636044531084,0.015513904753039235,0.5102710723876953,2019-06-18 15:59:09:044
-0.1117509976029396,-0.06035487726330757,9.878972053527832,0.0014102218194945173,0.02843698652910851,0.01977600383476413,0.5159492492675781,2019-06-18 15:59:09:050
0.13730297982692719,-0.02443363144993782,9.620339393615723,0.007004226019016884,0.01032306881274394,0.02310576662925781,0.5209035873413086,2019-06-18 15:59:09:055
-0.18119873106479645,-0.0651443749666214,9.979552268981934,0.0008774594992974871,0.017914930688962515,0.015513904753039235,0.524998664855957,2019-06-18 15:59:09:059
-0.15485648810863495,-0.04598637670278549,9.926867485046387,-0.005515688017973972,0.02004597970967631,0.024437673827649886,0.5308876037597656,2019-06-18 15:59:09:065
-0.03751375526189804,-0.11543411761522293,9.780787467956543,-0.0017863519716505025,0.018847265935896425,0.023372149317292985,0.5350079536437988,2019-06-18 15:59:09:069
0.003196990815922618,-0.07472337782382965,9.773603439331055,0.00473998617443415,0.01325326069607676,0.02243981407035907,0.5408906936645508,2019-06-18 15:59:09:075
-0.18119873106479645,-0.022038880735635757,9.948420524597168,0.0008774594992974871,0.015517501060808144,0.02243981407035907,0.5449972152709961,2019-06-18 15:59:09:079
-0.21233047544956207,-0.14896062016487122,9.948420524597168,-0.0012535897164720534,0.033231845785417255,0.030431248938333117,0.5508913993835449,2019-06-18 15:59:09:085
0.13251347839832306,-0.10824987292289734,9.44552230834961,7.831605963855469e-05,0.0025980153324334514,0.027634247358720578,0.5559091567993164,2019-06-18 15:59:09:090
-0.05667174980044365,-0.10824987292289734,9.756839752197266,0.010467180157528153,0.019513218494795162,0.028300199917619315,0.5600686073303223,2019-06-18 15:59:09:094
-0.09738249331712723,-0.007670383434742689,9.807129859924316,-0.0027186859182127886,0.01565069136452843,0.031097201497231847,0.5658869743347168,2019-06-18 15:59:09:100
-0.15485648810863495,-0.0651443749666214,9.98194694519043,-0.0023191142268289516,0.029236130432024835,0.03202953466357116,0.5699977874755859,2019-06-18 15:59:09:104
0.18040846288204193,-0.11303936690092087,9.591602325439453,0.007536988274195333,0.009923496861285777,0.02816700857360173,0.5758914947509766,2019-06-18 15:59:09:110
-0.04230325296521187,-0.07951287180185318,9.855024337768555,-0.0007208273962750229,0.01711578782634349,0.032295917351606335,0.5800056457519531,2019-06-18 15:59:09:114
-0.12132999300956726,-0.0388021282851696,9.838261604309082,0.001143840691905293,0.01565069136452843,0.03469334697976071,0.5858821868896484,2019-06-18 15:59:09:120
-0.032724253833293915,-0.05317062884569168,9.840656280517578,-0.0017863519716505025,0.02563998494949598,0.029898485642857367,0.5899982452392578,2019-06-18 15:59:09:124
0.10138172656297684,-0.05317062884569168,9.71373462677002,0.004873176478154437,0.014984738805629694,0.033361441861963236,0.5958948135375977,2019-06-18 15:59:09:130
-0.047092754393815994,-0.07472337782382965,9.835866928100586,0.006737844891427659,0.019380027150777576,0.035758871490117604,0.6000909805297852,2019-06-18 15:59:09:134
-0.061461251229047775,-0.04598637670278549,9.831077575683594,-0.0036510198647750746,0.026971890067293454,0.035758871490117604,0.6059112548828125,2019-06-18 15:59:09:140
0.10856597870588303,-0.029223131015896797,9.622734069824219,0.0026089368936460283,0.018181311296403088,0.031230392841249437,0.6108951568603516,2019-06-18 15:59:09:145
0.10138172656297684,-0.03161787986755371,9.637102127075195,0.004873176478154437,0.007792447840571981,0.033361441861963236,0.6149983406066895,2019-06-18 15:59:09:149
-0.13569849729537964,0.006698114797472954,9.919683456420898,0.0006110783717082625,0.015384309716790555,0.03016486833089254,0.6208915710449219,2019-06-18 15:59:09:155
0.05348673462867737,-0.026828380301594734,9.80473518371582,-0.007380355911098544,0.021244695564050797,0.02696829479982184,0.6250057220458984,2019-06-18 15:59:09:159
0.18759271502494812,-0.17769761383533478,9.7352876663208,7.831605963855469e-05,0.012587308137178023,0.035625680146100014,0.6308927536010742,2019-06-18 15:59:09:165
0.058276232331991196,-0.1298026144504547,9.864603996276855,0.0003446972116097473,0.020445551661134473,0.03522611027523646,0.6358823776245117,2019-06-18 15:59:09:170
0.051091983914375305,-0.07472337782382965,9.80473518371582,0.0006110783717082625,0.019513218494795162,0.03535930161925405,0.6399993896484375,2019-06-18 15:59:09:174
0.08701322972774506,-0.01006513275206089,9.790366172790527,-0.0023191142268289516,0.018447693984438265,0.030298057594315524,0.6459016799926758,2019-06-18 15:59:09:180
0.07503948360681534,-0.012459882535040379,9.704155921936035,7.831605963855469e-05,0.022177028730390107,0.028033819310178742,0.6500272750854492,2019-06-18 15:59:09:184
0.08940798044204712,-0.1298026144504547,9.730497360229492,0.00021150663156048962,0.019912790446253326,0.030697629545773687,0.6558876037597656,2019-06-18 15:59:09:190
0.07503948360681534,-0.0843023732304573,9.80473518371582,0.0026089368936460283,0.018580883247861252,0.02643553150434609,0.659998893737793,2019-06-18 15:59:09:194
0.12772397696971893,-0.019644131883978844,9.728102684020996,0.00473998617443415,0.01565069136452843,0.02616915089690552,0.6659107208251953,2019-06-18 15:59:09:200
0.09180273115634918,0.013882364146411419,9.756839752197266,-0.0019195425354451149,0.01578388166824872,0.026701912111786668,0.6700057983398438,2019-06-18 15:59:09:204
0.10138172656297684,-0.019644131883978844,9.814313888549805,-0.0035178293009804624,0.01658302557116504,0.027234675407262418,0.6758804321289062,2019-06-18 15:59:09:210
0.1756189614534378,-0.04598637670278549,9.826288223266602,-0.0008540179600696353,0.014451976550451245,0.026035959552887934,0.6799983978271484,2019-06-18 15:59:09:214
0.11096072942018509,-0.04598637670278549,9.795156478881836,0.0006110783717082625,0.015517501060808144,0.026701912111786668,0.6858863830566406,2019-06-18 15:59:09:220
0.14209246635437012,-0.014854632318019867,9.86220932006836,0.0038076519677975387,0.021377886908068387,0.026835103455804254,0.690028190612793,2019-06-18 15:59:09:224
0.14688196778297424,-0.014854632318019867,9.737682342529297,0.0023425557660568036,0.017781741425539527,0.022839386021817235,0.6959152221679688,2019-06-18 15:59:09:230
0.1564609706401825,0.021066613495349884,9.77599811553955,0.001143840691905293,0.01378602295125521,0.01831090737294907,0.7000079154968262,2019-06-18 15:59:09:234
0.12772397696971893,-0.04598637670278549,9.797551155090332,-0.003118257609596625,0.014052404598993085,0.024570863091072873,0.7058825492858887,2019-06-18 15:59:09:240
0.20675072073936462,-0.08669712394475937,9.792760848999023,0.0014102218194945173,0.01378602295125521,0.021374289560002178,0.7108907699584961,2019-06-18 15:59:09:245
0.1492767184972763,0.021066613495349884,9.780787467956543,0.0004778877754043595,0.017781741425539527,0.014981142497860787,0.7158889770507812,2019-06-18 15:59:09:250
0.17322422564029694,-0.005275633651763201,9.792760848999023,-0.0040505915561589115,0.018181311296403088,0.023505338580715972,0.7200069427490234,2019-06-18 15:59:09:254
0.16603997349739075,0.0019086154643446207,9.80473518371582,-0.003118257609596625,0.01924683580675999,0.015380714449318949,0.7258825302124023,2019-06-18 15:59:09:260
0.1684347242116928,-0.048381127417087555,9.80473518371582,-0.0012535897164720534,0.01618345361970688,0.019509621146728953,0.7311697006225586,2019-06-18 15:59:09:265
0.1684347242116928,-0.0651443749666214,9.761629104614258,0.001143840691905293,0.010589449420184513,0.02164067016744275,0.7359409332275391,2019-06-18 15:59:09:270
0.17801371216773987,-0.005275633651763201,9.7257080078125,0.0034080802764137014,0.0117881642342617,0.02070833700110344,0.7409100532531738,2019-06-18 15:59:09:275
0.13730297982692719,0.01867186278104782,9.768814086914062,0.0023425557660568036,0.009657115213547902,0.020042384442204703,0.744999885559082,2019-06-18 15:59:09:279
0.14688196778297424,-0.026828380301594734,9.759234428405762,0.001676602947083742,0.01325326069607676,0.013516046036045726,0.750889778137207,2019-06-18 15:59:09:285
0.18759271502494812,-0.041196878999471664,9.76402473449707,0.0007442689355028748,0.009390734606107327,0.012983283780867279,0.755889892578125,2019-06-18 15:59:09:290
0.1564609706401825,-0.03640738129615784,9.807129859924316,0.0030085085850298653,0.016050263315986593,0.014448380242682338,0.7600030899047852,2019-06-18 15:59:09:294
0.18759271502494812,-0.02443363144993782,9.783182144165039,0.0034080802764137014,0.01658302557116504,0.014981142497860787,0.7659077644348145,2019-06-18 15:59:09:300
0.15167146921157837,0.013882364146411419,9.76402473449707,0.0038076519677975387,0.014585166854171532,0.01524752310530136,0.7700023651123047,2019-06-18 15:59:09:304
0.13490822911262512,0.030645612627267838,9.77599811553955,0.0008774594992974871,0.014585166854171532,0.008587994915570746,0.7759280204772949,2019-06-18 15:59:09:310
0.11575022339820862,-0.029223131015896797,9.7257080078125,-0.0011203991526774412,0.012986880088636184,0.004725468305452665,0.7800464630126953,2019-06-18 15:59:09:314
0.15885572135448456,-0.04598637670278549,9.75444507598877,0.0006110783717082625,0.0117881642342617,0.01324966438830785,0.7858896255493164,2019-06-18 15:59:09:320
0.19717171788215637,-0.05317062884569168,9.819103240966797,0.0050063673020233745,0.005927779427298759,0.01098542506387377,0.7908926010131836,2019-06-18 15:59:09:325
0.17322422564029694,-0.022038880735635757,9.859814643859863,-0.0007208273962750229,0.008857972350928878,0.004459087177863441,0.7950072288513184,2019-06-18 15:59:09:329
0.20435597002506256,0.0019086154643446207,9.761629104614258,0.0014102218194945173,0.01578388166824872,0.010585853112415606,0.8008928298950195,2019-06-18 15:59:09:335
0.22351396083831787,0.021066613495349884,9.778392791748047,-0.0003212556723818955,0.017382168433784064,0.0137824276837836,0.8050003051757812,2019-06-18 15:59:09:339
0.16364522278308868,-0.06035487726330757,9.761629104614258,0.0019429840746729666,0.01165497393054141,0.006590136198577237,0.8108921051025391,2019-06-18 15:59:09:345
0.18759271502494812,0.021066613495349884,9.708945274353027,-0.0021859236630343394,0.011921355578279287,0.008454804091701809,0.815007209777832,2019-06-18 15:59:09:349
0.14448721706867218,0.0019086154643446207,9.756839752197266,-0.0011203991526774412,0.009923496861285777,0.005391421384500052,0.8209071159362793,2019-06-18 15:59:09:355
0.17082947492599487,-0.02443363144993782,9.65626049041748,-0.00045444623617650777,0.008724781527059942,0.0035267532313011545,0.8250112533569336,2019-06-18 15:59:09:359
0.130118727684021,-0.055565375834703445,9.761629104614258,-0.002452304790623564,0.007526066192834106,0.0004633700039507468,0.8308982849121094,2019-06-18 15:59:09:365
0.16364522278308868,-0.01724938116967678,9.797551155090332,-0.0023191142268289516,0.009124352958369454,-0.0003357734438355082,0.8358845710754395,2019-06-18 15:59:09:370
0.14688196778297424,-0.00048613420221954584,9.778392791748047,0.004606795350565213,0.008991162654649167,0.00166208520813942,0.8399972915649414,2019-06-18 15:59:09:374
0.17801371216773987,-0.022038880735635757,9.855024337768555,-0.004183782119953524,0.013120070392356473,-0.0006021545714247328,0.845890998840332,2019-06-18 15:59:09:380
0.182803213596344,-0.029223131015896797,9.821497917175293,-0.0005876368324804107,0.010189877468726351,-0.0004689640076301205,0.8500080108642578,2019-06-18 15:59:09:384
0.15406621992588043,-0.05077587813138962,9.835866928100586,0.003141699148824477,0.010989021371642677,-0.000735345135219345,0.8558850288391113,2019-06-18 15:59:09:390
0.1564609706401825,-0.07951287180185318,9.807129859924316,0.0024757463298514157,0.006726922810066432,-0.0024668226596050486,0.8599996566772461,2019-06-18 15:59:09:394
0.12053972482681274,0.009092864580452442,9.76402473449707,0.0010106500630920993,0.005528207995989247,-0.0015344885830056003,0.8659200668334961,2019-06-18 15:59:09:400
0.08701322972774506,-0.03161787986755371,9.778392791748047,0.0008774594992974871,0.009523924909827616,0.0035267532313011545,0.8700294494628906,2019-06-18 15:59:09:404
0.084618479013443,-0.029223131015896797,9.814313888549805,0.0026089368936460283,0.006593732506346145,-0.003399156606167335,0.8758893013000488,2019-06-18 15:59:09:410
0.11575022339820862,-0.03161787986755371,9.811919212341309,0.0004778877754043595,0.007259685065244881,-0.0023336320958104364,0.8808870315551758,2019-06-18 15:59:09:415
0.15885572135448456,-0.022038880735635757,9.759234428405762,0.0010106500630920993,0.005128636044531084,-0.0024668226596050486,0.8858904838562012,2019-06-18 15:59:09:420
0.06067098304629326,-0.03161787986755371,9.783182144165039,-0.00045444623617650777,0.0049954457408107975,-0.004065109425140397,0.8900032043457031,2019-06-18 15:59:09:424
0.1037764772772789,-0.0843023732304573,9.807129859924316,0.001676602947083742,0.010722639723904802,-0.0037987282975511715,0.8958826065063477,2019-06-18 15:59:09:430
0.04630248621106148,-0.034012630581855774,9.766419410705566,0.0014102218194945173,0.01032306881274394,-0.004065109425140397,0.8999977111816406,2019-06-18 15:59:09:434
0.04630248621106148,-0.07711812108755112,9.785576820373535,0.00154341238328913,0.008192019271881493,-0.005929777318264968,0.9058914184570312,2019-06-18 15:59:09:440
0.08701322972774506,-0.029223131015896797,9.795156478881836,0.00154341238328913,0.007259685065244881,-0.0027332037871942733,0.910919189453125,2019-06-18 15:59:09:445
0.03911823779344559,0.004303365014493465,9.787971496582031,0.002209365202262191,0.0009997284368609412,-0.0022004415320158242,0.9159154891967773,2019-06-18 15:59:09:450
0.08701322972774506,-0.019644131883978844,9.77599811553955,-0.002452304790623564,0.005927779427298759,-0.005530205886955456,0.9208931922912598,2019-06-18 15:59:09:455
0.08701322972774506,-0.04598637670278549,9.785576820373535,0.0027421274574406405,0.0025980153324334514,-0.005130633935497294,0.9249982833862305,2019-06-18 15:59:09:459
0.058276232331991196,-0.04359162971377373,9.773603439331055,0.0018097935108783545,0.008991162654649167,-0.0031327754785781103,0.9308891296386719,2019-06-18 15:59:09:465
0.04869723320007324,-0.04598637670278549,9.773603439331055,0.002209365202262191,0.008991162654649167,0.00166208520813942,0.9350032806396484,2019-06-18 15:59:09:469
0.02714448794722557,-0.022038880735635757,9.718523979187012,0.0006110783717082625,0.008458400399470718,-0.0072616829562110905,0.9408855438232422,2019-06-18 15:59:09:475
0.0774342343211174,-0.00048613420221954584,9.7352876663208,0.00154341238328913,0.00832521009575043,-0.0060629681421339055,0.9450016021728516,2019-06-18 15:59:09:479
0.022354988381266594,-0.055565375834703445,9.744866371154785,0.0032748897126190896,0.007925638144292268,-0.004597871680318845,0.9511771202087402,2019-06-18 15:59:09:485
0.043907735496759415,-0.10106562077999115,9.744866371154785,-0.0003212556723818955,0.008591591223339655,-0.005796587014544681,0.9551448822021484,2019-06-18 15:59:09:489
0.03432873636484146,-0.05317062884569168,9.732892990112305,-5.487451634704159e-05,0.0036635398427903496,0.0007297511315399715,0.9609060287475586,2019-06-18 15:59:09:495
0.05348673462867737,-0.01724938116967678,9.828682899475098,0.0014102218194945173,0.004462683485632349,-0.00486425280790807,0.9650001525878906,2019-06-18 15:59:09:499
0.051091983914375305,-0.022038880735635757,9.771208763122559,-0.00018806509233263786,0.009390734606107327,-0.004065109425140397,0.9708890914916992,2019-06-18 15:59:09:505
0.02714448794722557,-0.014854632318019867,9.778392791748047,0.001143840691905293,0.006593732506346145,-0.004597871680318845,0.97589111328125,2019-06-18 15:59:09:510
0.03432873636484146,-0.06753912568092346,9.795156478881836,-0.002452304790623564,0.008991162654649167,-0.0023336320958104364,0.9800052642822266,2019-06-18 15:59:09:514
0.01996023952960968,-0.0843023732304573,9.790366172790527,0.0027421274574406405,0.009390734606107327,-0.0028663943509888855,0.9858837127685547,2019-06-18 15:59:09:520
0.003196990815922618,-0.08190762251615524,9.780787467956543,-0.0020527330992397273,0.007526066192834106,-0.0018008697105948246,0.9899988174438477,2019-06-18 15:59:09:524
0.010381239466369152,-0.029223131015896797,9.747261047363281,7.831605963855469e-05,-0.0007317490225061812,0.0011293228229238084,0.9959421157836914,2019-06-18 15:59:09:530
0.003196990815922618,-0.05077587813138962,9.811919212341309,0.0014102218194945173,0.0061941605548879826,-0.0006021545714247328,1.0009231567382812,2019-06-18 15:59:09:535
0.04869723320007324,-0.06035487726330757,9.790366172790527,0.001143840691905293,0.005261826868400022,0.003926324922684992,1.0050058364868164,2019-06-18 15:59:09:539
0.04151298478245735,-0.06035487726330757,9.792760848999023,0.001143840691905293,0.01032306881274394,-0.0015344885830056003,1.0108890533447266,2019-06-18 15:59:09:545
-0.00877675786614418,-0.02443363144993782,9.742471694946289,0.005272748429612599,0.006993303937655657,6.379828412128062e-05,1.015005111694336,2019-06-18 15:59:09:549
0.007986490614712238,-0.014854632318019867,9.80473518371582,0.002209365202262191,0.008724781527059942,0.0025944190246645436,1.0208930969238281,2019-06-18 15:59:09:555
-0.018355756998062134,-0.019644131883978844,9.809524536132812,-0.003917400992364299,0.008591591223339655,0.0019284663357286445,1.0251083374023438,2019-06-18 15:59:09:559
0.0008022411493584514,-0.06035487726330757,9.819103240966797,-0.0009872085238642476,0.007526066192834106,-0.0023336320958104364,1.0300321578979492,2019-06-18 15:59:09:564
-0.013566257432103157,-0.04359162971377373,9.799945831298828,0.0028753180212352527,0.009657115213547902,0.003659943795095767,1.0358924865722656,2019-06-18 15:59:09:570
0.036723487079143524,-0.06753912568092346,9.795156478881836,0.0030085085850298653,0.01232092752973745,-0.003931918861345784,1.0400257110595703,2019-06-18 15:59:09:574
0.04151298478245735,-0.02443363144993782,9.759234428405762,-0.0037842104285696868,0.005128636044531084,0.002328037897075319,1.0458927154541016,2019-06-18 15:59:09:580
0.0008022411493584514,-0.005275633651763201,9.742471694946289,0.005139557605743661,0.011521783626821125,-0.006329349269723131,1.0500068664550781,2019-06-18 15:59:09:584
0.0008022411493584514,-0.007670383434742689,9.838261604309082,-0.0033846387371858503,0.009657115213547902,-0.0008685356990139574,1.0558891296386719,2019-06-18 15:59:09:590
-0.011171507649123669,-0.06993387639522552,9.797551155090332,-0.0007208273962750229,0.008857972350928878,-0.00020258286378625062,1.0599985122680664,2019-06-18 15:59:09:594
0.05588148534297943,-0.04359162971377373,9.76402473449707,0.00154341238328913,0.007925638144292268,0.0027276098485334807,1.0658931732177734,2019-06-18 15:59:09:600
0.015170739032328129,-0.08669712394475937,9.75444507598877,0.0010106500630920993,0.006060970251167696,0.0025944190246645436,1.0709009170532227,2019-06-18 15:59:09:605
0.01996023952960968,-0.04359162971377373,9.799945831298828,0.003940842531592151,0.007126494761524595,-0.0004689640076301205,1.0749988555908203,2019-06-18 15:59:09:609
0.05348673462867737,-0.05317062884569168,9.75444507598877,0.0004778877754043595,0.007526066192834106,-0.000735345135219345,1.0808906555175781,2019-06-18 15:59:09:615
0.058276232331991196,-0.04359162971377373,9.785576820373535,0.0010106500630920993,0.005927779427298759,0.008188422964112586,1.0850095748901367,2019-06-18 15:59:09:619
0.0319339856505394,-0.07472337782382965,9.768814086914062,0.0023425557660568036,0.007792447840571981,0.004858658609172953,1.0900325775146484,2019-06-18 15:59:09:624
0.043907735496759415,-0.048381127417087555,9.761629104614258,0.0018097935108783545,0.010589449420184513,0.003926324922684992,1.0958833694458008,2019-06-18 15:59:09:630
0.09180273115634918,-0.029223131015896797,9.783182144165039,-0.0008540179600696353,0.007259685065244881,-0.0006021545714247328,1.0999994277954102,2019-06-18 15:59:09:634
0.0319339856505394,-0.01006513275206089,9.7352876663208,0.0004778877754043595,0.01218773618571986,-0.0003357734438355082,1.1058921813964844,2019-06-18 15:59:09:640
0.04630248621106148,-0.03640738129615784,9.752050399780273,0.003541270840208314,0.00832521009575043,0.001528894514307645,1.1100072860717773,2019-06-18 15:59:09:644
0.06067098304629326,-0.00048613420221954584,9.847840309143066,0.0014102218194945173,0.012054545881999576,0.0013957039505130327,1.1158828735351562,2019-06-18 15:59:09:650
0.04869723320007324,-0.055565375834703445,9.747261047363281,0.005272748429612599,0.01218773618571986,0.002328037897075319,1.119997501373291,2019-06-18 15:59:09:654
0.01996023952960968,-0.00048613420221954584,9.759234428405762,0.005139557605743661,0.01218773618571986,-0.002999584914783498,1.1258931159973145,2019-06-18 15:59:09:660
0.022354988381266594,-0.014854632318019867,9.77599811553955,0.0027421274574406405,0.007925638144292268,-0.0010017262628085697,1.1300067901611328,2019-06-18 15:59:09:664
0.0774342343211174,-0.04359162971377373,9.75444507598877,0.0008774594992974871,0.008724781527059942,0.005391421384500052,1.1359148025512695,2019-06-18 15:59:09:670
0.01277598924934864,-0.0388021282851696,9.807129859924316,-0.0003212556723818955,0.008857972350928878,-0.00020258286378625062,1.1408958435058594,2019-06-18 15:59:09:675
0.05348673462867737,-0.0388021282851696,9.802340507507324,0.00154341238328913,0.006726922810066432,0.0052582305606311145,1.144998550415039,2019-06-18 15:59:09:679
0.07982897758483887,-0.03161787986755371,9.761629104614258,0.0012770312556999051,0.01165497393054141,-0.0011349168916217633,1.1508913040161133,2019-06-18 15:59:09:685
0.0319339856505394,-0.019644131883978844,9.80473518371582,0.0036744614040029266,0.014318785206433657,-0.0023336320958104364,1.1558904647827148,2019-06-18 15:59:09:690
0.0774342343211174,-0.014854632318019867,9.744866371154785,-0.0012535897164720534,0.009523924909827616,0.003659943795095767,1.1600065231323242,2019-06-18 15:59:09:694
0.04869723320007324,-0.034012630581855774,9.76402473449707,-0.0013867802802666658,0.009390734606107327,0.004592277481583728,1.1658835411071777,2019-06-18 15:59:09:700
0.043907735496759415,-0.0388021282851696,9.773603439331055,0.004074033095386763,0.010056687165006064,0.0011293228229238084,1.1708965301513672,2019-06-18 15:59:09:705
0.05588148534297943,-0.034012630581855774,9.785576820373535,0.004873176478154437,0.009257544302387042,0.0031271815399173176,1.175943374633789,2019-06-18 15:59:09:710
0.09659223258495331,-0.0388021282851696,9.823892593383789,0.0003446972116097473,0.008591591223339655,0.00499184943304189,1.180027961730957,2019-06-18 15:59:09:714
0.06067098304629326,-0.041196878999471664,9.790366172790527,0.0004778877754043595,0.009257544302387042,0.0005965605677453591,1.185877799987793,2019-06-18 15:59:09:720
0.07024998217821121,-0.022038880735635757,9.811919212341309,0.0006110783717082625,0.014052404598993085,0.003926324922684992,1.1899962425231934,2019-06-18 15:59:09:724
0.08701322972774506,-0.041196878999471664,9.80473518371582,0.002209365202262191,0.010855831067922388,0.0017952757719340324,1.195892333984375,2019-06-18 15:59:09:730
0.051091983914375305,-0.007670383434742689,9.771208763122559,0.0004778877754043595,0.008991162654649167,0.005524611688220339,1.2008934020996094,2019-06-18 15:59:09:735
0.07264473289251328,-0.029223131015896797,9.728102684020996,0.0026089368936460283,0.010189877468726351,0.002461228460869931,1.2049970626831055,2019-06-18 15:59:09:739
0.084618479013443,-0.029223131015896797,9.76402473449707,0.00154341238328913,0.009124352958369454,0.0013957039505130327,1.2108936309814453,2019-06-18 15:59:09:745
0.10617122799158096,-0.026828380301594734,9.75444507598877,0.0030085085850298653,0.005528207995989247,0.003926324922684992,1.2150087356567383,2019-06-18 15:59:09:749
0.08701322972774506,-0.04598637670278549,9.826288223266602,0.0008774594992974871,0.011521783626821125,0.004725468305452665,1.2209348678588867,2019-06-18 15:59:09:755
0.06067098304629326,-0.06035487726330757,9.8167085647583,0.003940842531592151,0.00979030655756549,0.000996132259129196,1.225008487701416,2019-06-18 15:59:09:759
0.0774342343211174,-0.055565375834703445,9.761629104614258,0.004873176478154437,0.009523924909827616,0.002328037897075319,1.2308883666992188,2019-06-18 15:59:09:765
0.0319339856505394,-0.05796012654900551,9.783182144165039,0.0003446972116097473,0.0053950171721203095,-0.0011349168916217633,1.2358927726745605,2019-06-18 15:59:09:770
0.07024998217821121,-0.05077587813138962,9.747261047363281,0.0023425557660568036,0.0053950171721203095,0.0035267532313011545,1.2400074005126953,2019-06-18 15:59:09:774
0.04630248621106148,-0.019644131883978844,9.773603439331055,-0.0013867802802666658,0.006593732506346145,0.0007297511315399715,1.2458829879760742,2019-06-18 15:59:09:780
0.09180273115634918,-0.055565375834703445,9.759234428405762,0.004606795350565213,0.007792447840571981,0.002061656899523257,1.2508935928344727,2019-06-18 15:59:09:785
0.084618479013443,-0.0028808838687837124,9.785576820373535,0.0007442689355028748,0.008591591223339655,-0.0003357734438355082,1.255892276763916,2019-06-18 15:59:09:790
0.06306573003530502,-0.005275633651763201,9.752050399780273,-5.487451634704159e-05,0.01032306881274394,-0.0014012980192109879,1.2600059509277344,2019-06-18 15:59:09:794
0.06785523146390915,-0.019644131883978844,9.766419410705566,0.0027421274574406405,0.010855831067922388,0.006190564767267726,1.2658967971801758,2019-06-18 15:59:09:800
0.06306573003530502,-0.041196878999471664,9.80473518371582,0.0023425557660568036,0.012720498440898311,0.0029939909761227054,1.2709064483642578,2019-06-18 15:59:09:805
0.08222372829914093,-0.048381127417087555,9.766419410705566,-0.0007208273962750229,0.008991162654649167,-6.939229186431566e-05,1.274998664855957,2019-06-18 15:59:09:809
0.08701322972774506,-0.05317062884569168,9.8167085647583,7.831605963855469e-05,0.012720498440898311,0.0011293228229238084,1.2808876037597656,2019-06-18 15:59:09:815
0.1037764772772789,-0.06753912568092346,9.797551155090332,0.004340414222975988,0.0076592570167030435,0.0012625133867184206,1.285893440246582,2019-06-18 15:59:09:820
0.09180273115634918,-0.06753912568092346,9.826288223266602,0.001676602947083742,0.004196302097968799,0.0004633700039507468,1.2900066375732422,2019-06-18 15:59:09:824
0.08701322972774506,-0.01006513275206089,9.730497360229492,0.004473605046844925,0.008458400399470718,-0.0008685356990139574,1.2958803176879883,2019-06-18 15:59:09:830
0.084618479013443,-0.01724938116967678,9.840656280517578,-0.0025854953544181764,0.012587308137178023,0.0013957039505130327,1.3000001907348633,2019-06-18 15:59:09:834
0.12053972482681274,-0.026828380301594734,9.802340507507324,0.002076174638467579,0.010589449420184513,0.002860800412328093,1.3058924674987793,2019-06-18 15:59:09:840
0.11096072942018509,-0.01724938116967678,9.799945831298828,0.0024757463298514157,0.007792447840571981,0.0004633700039507468,1.31005859375,2019-06-18 15:59:09:844
0.06306573003530502,-0.0028808838687837124,9.790366172790527,0.0014102218194945173,0.006726922810066432,0.0021948473332807066,1.3158926963806152,2019-06-18 15:59:09:850
0.06546048074960709,-0.07472337782382965,9.795156478881836,0.0008774594992974871,0.0117881642342617,-0.0020672508381840496,1.3200011253356934,2019-06-18 15:59:09:854
0.051091983914375305,-0.0388021282851696,9.790366172790527,0.003541270840208314,0.003397158715201125,0.0013957039505130327,1.325892448425293,2019-06-18 15:59:09:860
0.07982897758483887,-0.012459882535040379,9.840656280517578,0.0038076519677975387,0.01218773618571986,-0.002999584914783498,1.3300065994262695,2019-06-18 15:59:09:864
0.0774342343211174,-0.026828380301594734,9.752050399780273,0.003940842531592151,0.007925638144292268,-0.003399156606167335,1.3358807563781738,2019-06-18 15:59:09:870
0.10617122799158096,-0.041196878999471664,9.809524536132812,0.004074033095386763,0.008991162654649167,-0.000735345135219345,1.3399972915649414,2019-06-18 15:59:09:874
0.05588148534297943,-0.041196878999471664,9.778392791748047,0.001143840691905293,0.0061941605548879826,0.0012625133867184206,1.3458929061889648,2019-06-18 15:59:09:880
0.058276232331991196,-0.06274962425231934,9.797551155090332,0.004873176478154437,0.010456259116464226,-0.0010017262628085697,1.3509283065795898,2019-06-18 15:59:09:885
0.04630248621106148,-0.0388021282851696,9.783182144165039,0.005272748429612599,0.010456259116464226,0.0013957039505130327,1.3550395965576172,2019-06-18 15:59:09:889
0.04630248621106148,-0.06993387639522552,9.742471694946289,-0.0015199708440612782,0.007259685065244881,-0.0022004415320158242,1.3609046936035156,2019-06-18 15:59:09:895
0.029539236798882484,-0.041196878999471664,9.76402473449707,0.00021150663156048962,0.008724781527059942,0.004725468305452665,1.3658828735351562,2019-06-18 15:59:09:900
0.04869723320007324,-0.04359162971377373,9.83347225189209,0.002209365202262191,0.0036635398427903496,-0.0031327754785781103,1.3700218200683594,2019-06-18 15:59:09:904
0.06067098304629326,-0.041196878999471664,9.76402473449707,-0.0008540179600696353,0.004196302097968799,-0.0016676791468002124,1.3758916854858398,2019-06-18 15:59:09:910
0.07503948360681534,-0.012459882535040379,9.826288223266602,0.004074033095386763,0.010855831067922388,0.0001969888601068769,1.3808917999267578,2019-06-18 15:59:09:915
0.08940798044204712,-0.06035487726330757,9.737682342529297,0.0034080802764137014,0.00832521009575043,0.0040595154864796045,1.3858819007873535,2019-06-18 15:59:09:920
0.06306573003530502,-0.07472337782382965,9.823892593383789,0.0010106500630920993,0.007526066192834106,0.0040595154864796045,1.3899989128112793,2019-06-18 15:59:09:924
0.0319339856505394,-0.055565375834703445,9.790366172790527,0.0014102218194945173,0.011921355578279287,0.0035267532313011545,1.3959150314331055,2019-06-18 15:59:09:930
0.04630248621106148,-0.07472337782382965,9.783182144165039,0.0036744614040029266,0.007259685065244881,-0.004331490552729621,1.4000263214111328,2019-06-18 15:59:09:934
0.04630248621106148,-0.01724938116967678,9.811919212341309,0.003141699148824477,0.007392875889113818,-0.0006021545714247328,1.4059066772460938,2019-06-18 15:59:09:940
0.05348673462867737,-0.048381127417087555,9.847840309143066,-0.00045444623617650777,0.007126494761524595,0.0031271815399173176,1.4100093841552734,2019-06-18 15:59:09:944
0.036723487079143524,-0.007670383434742689,9.819103240966797,0.0028753180212352527,0.009657115213547902,0.0004633700039507468,1.4158830642700195,2019-06-18 15:59:09:950
0.06785523146390915,-0.03161787986755371,9.75444507598877,-0.0021859236630343394,0.006060970251167696,-0.0006021545714247328,1.4200019836425781,2019-06-18 15:59:09:954
0.058276232331991196,-0.019644131883978844,9.77599811553955,7.831605963855469e-05,0.012720498440898311,-0.0006021545714247328,1.4258909225463867,2019-06-18 15:59:09:960
0.02714448794722557,-0.00048613420221954584,9.790366172790527,0.00154341238328913,0.00979030655756549,-0.0024668226596050486,1.4300055503845215,2019-06-18 15:59:09:964
0.007986490614712238,-0.05317062884569168,9.723313331604004,-0.0011203991526774412,0.00832521009575043,6.379828412128062e-05,1.435877799987793,2019-06-18 15:59:09:970
-0.0015925085172057152,-0.0388021282851696,9.799945831298828,0.00154341238328913,0.009923496861285777,0.002328037897075319,1.4400157928466797,2019-06-18 15:59:09:974
0.07024998217821121,-0.04359162971377373,9.720918655395508,-0.0021859236630343394,0.010589449420184513,-0.0018008697105948246,1.4458951950073242,2019-06-18 15:59:09:980
0.03432873636484146,-0.03161787986755371,9.826288223266602,0.0018097935108783545,0.0049954457408107975,0.003393562667506543,1.4500064849853516,2019-06-18 15:59:09:984
0.051091983914375305,-0.06274962425231934,9.768814086914062,0.0032748897126190896,0.010456259116464226,-0.0011349168916217633,1.4558825492858887,2019-06-18 15:59:09:990
-0.0039872583001852036,-0.04359162971377373,9.835866928100586,0.0036744614040029266,0.009257544302387042,-0.000735345135219345,1.4600028991699219,2019-06-18 15:59:09:994
0.051091983914375305,-0.01724938116967678,9.840656280517578,0.002209365202262191,0.008991162654649167,-0.0006021545714247328,1.4658913612365723,2019-06-18 15:59:10:000
0.051091983914375305,-0.07711812108755112,9.766419410705566,0.0030085085850298653,0.007126494761524595,-0.0015344885830056003,1.4700045585632324,2019-06-18 15:59:10:004
-0.0015925085172057152,-0.03161787986755371,9.752050399780273,0.004606795350565213,0.006726922810066432,0.0029939909761227054,1.475881576538086,2019-06-18 15:59:10:010
0.051091983914375305,-0.07711812108755112,9.71373462677002,0.003141699148824477,0.009390734606107327,0.00326037210371193,1.4808921813964844,2019-06-18 15:59:10:015
0.036723487079143524,-0.029223131015896797,9.785576820373535,0.0019429840746729666,0.005661398299709534,0.0005965605677453591,1.4850282669067383,2019-06-18 15:59:10:019
0.0008022411493584514,-0.04359162971377373,9.752050399780273,0.0007442689355028748,0.01418559490271337,-0.0032659660423727224,1.4909353256225586,2019-06-18 15:59:10:025
0.07503948360681534,-0.05796012654900551,9.80473518371582,0.004473605046844925,0.0061941605548879826,0.0021948473332807066,1.4950151443481445,2019-06-18 15:59:10:029
0.058276232331991196,-0.05796012654900551,9.802340507507324,0.002076174638467579,0.010056687165006064,0.003793134358890379,1.500889778137207,2019-06-18 15:59:10:035
0.01996023952960968,-0.0028808838687837124,9.766419410705566,0.0004778877754043595,0.010722639723904802,-0.0008685356990139574,1.5050091743469238,2019-06-18 15:59:10:039
0.07982897758483887,-0.06753912568092346,9.742471694946289,-0.0016531614078558903,0.006993303937655657,0.0008629416953345836,1.5108890533447266,2019-06-18 15:59:10:045
0.03432873636484146,-0.05796012654900551,9.67302417755127,0.0026089368936460283,0.009523924909827616,0.00499184943304189,1.5149989128112793,2019-06-18 15:59:10:049
0.043907735496759415,-0.0651443749666214,9.759234428405762,0.0006110783717082625,0.0076592570167030435,-0.0041982999889350085,1.520890235900879,2019-06-18 15:59:10:055
0.017565488815307617,-0.06035487726330757,9.809524536132812,0.0030085085850298653,0.0049954457408107975,0.0011293228229238084,1.5260820388793945,2019-06-18 15:59:10:060
0.084618479013443,-0.07472337782382965,9.8167085647583,-0.00018806509233263786,0.007526066192834106,-0.004065109425140397,1.5309104919433594,2019-06-18 15:59:10:065
0.08701322972774506,-0.06993387639522552,9.780787467956543,0.0028753180212352527,0.003796730406584962,0.003393562667506543,1.5349998474121094,2019-06-18 15:59:10:069
0.029539236798882484,-0.05317062884569168,9.752050399780273,0.0010106500630920993,0.011388593323100838,0.0025944190246645436,1.540888786315918,2019-06-18 15:59:10:075
0.08701322972774506,-0.03161787986755371,9.792760848999023,0.001676602947083742,0.015517501060808144,0.0011293228229238084,1.545912742614746,2019-06-18 15:59:10:080
0.0774342343211174,-0.08190762251615524,9.732892990112305,0.0027421274574406405,0.010589449420184513,0.0011293228229238084,1.550008773803711,2019-06-18 15:59:10:084
0.029539236798882484,-0.05317062884569168,9.720918655395508,0.001143840691905293,0.009124352958369454,0.001528894514307645,1.5558805465698242,2019-06-18 15:59:10:090
0.06067098304629326,-0.034012630581855774,9.728102684020996,0.002209365202262191,0.009923496861285777,0.0013957039505130327,1.5600013732910156,2019-06-18 15:59:10:094
0.04869723320007324,-0.012459882535040379,9.744866371154785,0.00473998617443415,0.006460541682477208,-0.000735345135219345,1.5658907890319824,2019-06-18 15:59:10:100
0.043907735496759415,-0.034012630581855774,9.773603439331055,0.0023425557660568036,0.005927779427298759,0.003793134358890379,1.5700483322143555,2019-06-18 15:59:10:104
0.03432873636484146,-0.034012630581855774,9.823892593383789,0.005139557605743661,0.01165497393054141,0.0003301794401561345,1.5758938789367676,2019-06-18 15:59:10:110
0.07982897758483887,-0.05796012654900551,9.785576820373535,0.001676602947083742,0.004196302097968799,0.004459087177863441,1.579996109008789,2019-06-18 15:59:10:114
0.07982897758483887,-0.06035487726330757,9.720918655395508,-5.487451634704159e-05,0.013386452040094348,0.002860800412328093,1.586071491241455,2019-06-18 15:59:10:120
0.03911823779344559,-0.03640738129615784,9.773603439331055,0.00154341238328913,0.01032306881274394,-0.000735345135219345,1.5900235176086426,2019-06-18 15:59:10:124
0.029539236798882484,-0.03640738129615784,9.783182144165039,0.002076174638467579,0.01471835715789182,-0.00020258286378625062,1.5958852767944336,2019-06-18 15:59:10:130
0.03432873636484146,-0.07232862710952759,9.7257080078125,0.0032748897126190896,0.006593732506346145,0.0029939909761227054,1.5999975204467773,2019-06-18 15:59:10:134
0.02714448794722557,-0.04598637670278549,9.704155921936035,0.004340414222975988,0.006460541682477208,0.0017952757719340324,1.6058917045593262,2019-06-18 15:59:10:140
0.07024998217821121,-0.06035487726330757,9.77599811553955,0.00021150663156048962,0.007792447840571981,-0.003399156606167335,1.6100077629089355,2019-06-18 15:59:10:144
0.043907735496759415,-0.06993387639522552,9.749655723571777,0.00021150663156048962,0.010989021371642677,-0.0018008697105948246,1.6158971786499023,2019-06-18 15:59:10:150
0.07982897758483887,-0.029223131015896797,9.77599811553955,0.0012770312556999051,0.006460541682477208,0.003393562667506543,1.6200108528137207,2019-06-18 15:59:10:154
0.07264473289251328,-0.06035487726330757,9.790366172790527,0.0024757463298514157,0.010989021371642677,-0.0011349168916217633,1.6258831024169922,2019-06-18 15:59:10:160
0.06785523146390915,-0.029223131015896797,9.759234428405762,-0.0027186859182127886,0.009923496861285777,0.0001969888601068769,1.6300005912780762,2019-06-18 15:59:10:164
0.058276232331991196,0.035435110330581665,9.785576820373535,-0.0005876368324804107,0.010722639723904802,-0.00020258286378625062,1.6358919143676758,2019-06-18 15:59:10:170
0.07264473289251328,-0.06753912568092346,9.752050399780273,0.004074033095386763,0.0117881642342617,-0.0011349168916217633,1.6408982276916504,2019-06-18 15:59:10:175
0.04630248621106148,-0.04598637670278549,9.7352876663208,0.0034080802764137014,0.009523924909827616,-0.0028663943509888855,1.6450023651123047,2019-06-18 15:59:10:179
0.036723487079143524,-0.041196878999471664,9.773603439331055,0.0010106500630920993,0.007392875889113818,0.0027276098485334807,1.6508903503417969,2019-06-18 15:59:10:185
0.043907735496759415,-0.06035487726330757,9.864603996276855,0.002209365202262191,0.004462683485632349,-0.0011349168916217633,1.6550073623657227,2019-06-18 15:59:10:189
0.08222372829914093,-0.019644131883978844,9.840656280517578,-0.00018806509233263786,0.004729064613221573,0.0017952757719340324,1.660898208618164,2019-06-18 15:59:10:195
0.07024998217821121,-0.03640738129615784,9.8167085647583,-0.004849734938926585,0.011921355578279287,-6.939229186431566e-05,1.6650009155273438,2019-06-18 15:59:10:199
0.09898697584867477,-0.048381127417087555,9.835866928100586,0.0007442689355028748,0.009523924909827616,-0.002999584914783498,1.670912742614746,2019-06-18 15:59:10:205
0.051091983914375305,-0.012459882535040379,9.76402473449707,0.0003446972116097473,0.011921355578279287,-0.004731062504187783,1.6750078201293945,2019-06-18 15:59:10:209
0.09659223258495331,-0.055565375834703445,9.759234428405762,0.0026089368936460283,0.00632735137875692,0.002860800412328093,1.6800060272216797,2019-06-18 15:59:10:214
0.04630248621106148,-0.01724938116967678,9.730497360229492,0.0004778877754043595,0.008591591223339655,-0.0011349168916217633,1.685903549194336,2019-06-18 15:59:10:220
0.03432873636484146,-0.06274962425231934,9.802340507507324,0.0014102218194945173,0.00686011363393537,0.0029939909761227054,1.6900033950805664,2019-06-18 15:59:10:224
0.05588148534297943,-0.048381127417087555,9.711339950561523,0.0023425557660568036,0.0076592570167030435,-0.004597871680318845,1.695887565612793,2019-06-18 15:59:10:230
0.06785523146390915,-0.01006513275206089,9.75444507598877,0.0034080802764137014,0.005927779427298759,0.000996132259129196,1.7000007629394531,2019-06-18 15:59:10:234
0.07024998217821121,-0.0651443749666214,9.802340507507324,0.0010106500630920993,0.011921355578279287,-0.0012681074554163755,1.7059125900268555,2019-06-18 15:59:10:240
0.08222372829914093,-0.029223131015896797,9.787971496582031,-0.0011203991526774412,0.0117881642342617,-0.0020672508381840496,1.710892677307129,2019-06-18 15:59:10:245
0.0774342343211174,-0.014854632318019867,9.761629104614258,0.0007442689355028748,0.011122211675362963,0.0003301794401561345,1.7149982452392578,2019-06-18 15:59:10:249
0.06067098304629326,-0.03161787986755371,9.768814086914062,0.0018097935108783545,0.009124352958369454,0.00166208520813942,1.720888614654541,2019-06-18 15:59:10:255
0.06785523146390915,-0.014854632318019867,9.716129302978516,0.009002084736010394,0.010722639723904802,0.0025944190246645436,1.7250056266784668,2019-06-18 15:59:10:259
0.08940798044204712,-0.014854632318019867,9.797551155090332,0.0028753180212352527,0.007526066192834106,0.002860800412328093,1.7309160232543945,2019-06-18 15:59:10:265
0.05348673462867737,-0.04359162971377373,9.680208206176758,0.0036744614040029266,0.0031307775876119005,6.379828412128062e-05,1.7350006103515625,2019-06-18 15:59:10:269
0.08940798044204712,-0.07472337782382965,9.814313888549805,0.002076174638467579,0.006460541682477208,0.0007297511315399715,1.7408876419067383,2019-06-18 15:59:10:275
0.03911823779344559,-0.034012630581855774,9.773603439331055,0.002209365202262191,0.009523924909827616,0.0040595154864796045,1.7450056076049805,2019-06-18 15:59:10:279
0.051091983914375305,-0.01006513275206089,9.761629104614258,0.0012770312556999051,0.009523924909827616,0.0004633700039507468,1.7509050369262695,2019-06-18 15:59:10:285
0.04869723320007324,-0.03640738129615784,9.756839752197266,-0.0032514481733912377,0.009923496861285777,-0.001934060274389437,1.755000114440918,2019-06-18 15:59:10:289
0.07503948360681534,-0.0388021282851696,9.756839752197266,-0.0015199708440612782,0.008591591223339655,0.0004633700039507468,1.7608904838562012,2019-06-18 15:59:10:295
0.017565488815307617,-0.05317062884569168,9.711339950561523,0.001676602947083742,0.012720498440898311,-0.0008685356990139574,1.7650046348571777,2019-06-18 15:59:10:299
0.051091983914375305,-0.07232862710952759,9.716129302978516,0.0024757463298514157,0.0036635398427903496,-0.0016676791468002124,1.770911693572998,2019-06-18 15:59:10:305
0.084618479013443,-0.026828380301594734,9.785576820373535,0.003141699148824477,0.00632735137875692,-0.0036655377337565594,1.7758979797363281,2019-06-18 15:59:10:310
0.0774342343211174,-0.034012630581855774,9.77599811553955,0.0026089368936460283,0.010589449420184513,-0.0003357734438355082,1.7799997329711914,2019-06-18 15:59:10:314
0.08701322972774506,-0.05796012654900551,9.80473518371582,-0.004583353811337361,0.008458400399470718,0.0005965605677453591,1.7858920097351074,2019-06-18 15:59:10:320
0.084618479013443,-0.06753912568092346,9.799945831298828,0.0023425557660568036,0.010456259116464226,-0.0011349168916217633,1.7900233268737793,2019-06-18 15:59:10:324
0.06067098304629326,-0.026828380301594734,9.761629104614258,0.004606795350565213,0.010189877468726351,-0.000735345135219345,1.7958955764770508,2019-06-18 15:59:10:330
0.084618479013443,-0.04359162971377373,9.756839752197266,-0.0005876368324804107,0.006593732506346145,-6.939229186431566e-05,1.800889015197754,2019-06-18 15:59:10:335
0.029539236798882484,0.009092864580452442,9.75444507598877,0.002209365202262191,0.005528207995989247,0.004325896614068829,1.8050050735473633,2019-06-18 15:59:10:339
0.058276232331991196,-0.09867087006568909,9.802340507507324,0.0028753180212352527,0.007392875889113818,0.000996132259129196,1.810892105102539,2019-06-18 15:59:10:345
0.06067098304629326,-0.07232862710952759,9.799945831298828,-0.0023191142268289516,0.006593732506346145,-0.0015344885830056003,1.8150134086608887,2019-06-18 15:59:10:349
0.06306573003530502,-0.055565375834703445,9.761629104614258,-0.0007208273962750229,0.01165497393054141,0.000996132259129196,1.8208966255187988,2019-06-18 15:59:10:355
0.07264473289251328,-0.048381127417087555,9.792760848999023,7.831605963855469e-05,0.00979030655756549,0.002328037897075319,1.8249998092651367,2019-06-18 15:59:10:359
0.04869723320007324,-0.022038880735635757,9.785576820373535,-0.0003212556723818955,0.00832521009575043,0.0029939909761227054,1.830887794494629,2019-06-18 15:59:10:365
0.03911823779344559,-0.05317062884569168,9.766419410705566,0.0019429840746729666,0.007792447840571981,0.002328037897075319,1.8350191116333008,2019-06-18 15:59:10:369
0.07503948360681534,0.013882364146411419,9.807129859924316,0.001143840691905293,0.007526066192834106,-0.0026000132233996607,1.840893268585205,2019-06-18 15:59:10:375
0.04630248621106148,-0.048381127417087555,9.752050399780273,-0.0019195425354451149,0.005128636044531084,-0.004464681376598559,1.8458824157714844,2019-06-18 15:59:10:380
0.036723487079143524,-0.0388021282851696,9.76402473449707,0.0014102218194945173,0.006993303937655657,0.00326037210371193,1.849996566772461,2019-06-18 15:59:10:384
0.04151298478245735,-0.06753912568092346,9.821497917175293,0.0030085085850298653,0.006726922810066432,0.0007297511315399715,1.8558883666992188,2019-06-18 15:59:10:390
0.03911823779344559,-0.012459882535040379,9.809524536132812,-0.0012535897164720534,0.00832521009575043,0.003926324922684992,1.8608999252319336,2019-06-18 15:59:10:395
0.09180273115634918,-0.029223131015896797,9.771208763122559,0.002076174638467579,0.011921355578279287,0.00166208520813942,1.865884780883789,2019-06-18 15:59:10:400
0.051091983914375305,0.0019086154643446207,9.77599811553955,-0.006181640576872708,0.01125540197908325,-0.0024668226596050486,1.870020866394043,2019-06-18 15:59:10:404
0.036723487079143524,-0.07232862710952759,9.744866371154785,-0.0036510198647750746,0.010855831067922388,6.379828412128062e-05,1.875892162322998,2019-06-18 15:59:10:410
0.08222372829914093,0.0019086154643446207,9.759234428405762,0.003541270840208314,0.013919214295272795,0.001528894514307645,1.8809056282043457,2019-06-18 15:59:10:415
0.09659223258495331,-0.05796012654900551,9.792760848999023,0.0010106500630920993,0.008591591223339655,0.0003301794401561345,1.8850078582763672,2019-06-18 15:59:10:419
0.03432873636484146,-0.0388021282851696,9.778392791748047,0.0023425557660568036,0.0008665378730663289,0.003659943795095767,1.890890121459961,2019-06-18 15:59:10:425
0.06306573003530502,-0.04598637670278549,9.761629104614258,0.0026089368936460283,0.008058828968161205,0.00645694589485695,1.8958911895751953,2019-06-18 15:59:10:430
0.051091983914375305,-0.05077587813138962,9.802340507507324,0.0034080802764137014,0.008591591223339655,0.0019284663357286445,1.9000029563903809,2019-06-18 15:59:10:434
0.05348673462867737,-0.04598637670278549,9.7352876663208,0.0018097935108783545,0.012054545881999576,0.0017952757719340324,1.9050235748291016,2019-06-18 15:59:10:439
0.036723487079143524,-0.034012630581855774,9.87418270111084,-0.0035178293009804624,0.007925638144292268,0.0025944190246645436,1.910891056060791,2019-06-18 15:59:10:445
0.058276232331991196,-0.029223131015896797,9.790366172790527,0.0024757463298514157,0.01032306881274394,0.003393562667506543,1.9149994850158691,2019-06-18 15:59:10:449
-0.01596100628376007,-0.06274962425231934,9.783182144165039,-0.00045444623617650777,0.006993303937655657,-0.0024668226596050486,1.9199986457824707,2019-06-18 15:59:10:454
0.06306573003530502,-0.048381127417087555,9.742471694946289,0.0036744614040029266,0.004462683485632349,0.0004633700039507468,1.9259052276611328,2019-06-18 15:59:10:460
0.0319339856505394,-0.03640738129615784,9.790366172790527,0.0050063673020233745,0.004329492661763411,0.002860800412328093,1.930002212524414,2019-06-18 15:59:10:464
0.03432873636484146,0.016277113929390907,9.783182144165039,0.0018097935108783545,0.008591591223339655,0.004459087177863441,1.9358763694763184,2019-06-18 15:59:10:470
0.051091983914375305,-0.0028808838687837124,9.737682342529297,0.003940842531592151,0.004595873789352636,-0.0024668226596050486,1.9399938583374023,2019-06-18 15:59:10:474
0.03911823779344559,-0.07711812108755112,9.847840309143066,0.001676602947083742,0.007259685065244881,0.0035267532313011545,1.9459171295166016,2019-06-18 15:59:10:480
0.03432873636484146,-0.07232862710952759,9.807129859924316,-0.0021859236630343394,0.007792447840571981,0.0003301794401561345,1.9509096145629883,2019-06-18 15:59:10:485
0.05588148534297943,-0.05317062884569168,9.826288223266602,-0.0016531614078558903,0.009523924909827616,-0.0004689640076301205,1.9549989700317383,2019-06-18 15:59:10:489
0.07024998217821121,-0.005275633651763201,9.720918655395508,-0.00045444623617650777,0.009257544302387042,0.0007297511315399715,1.960888385772705,2019-06-18 15:59:10:495
0.02714448794722557,-0.029223131015896797,9.7352876663208,-0.0008540179600696353,0.00979030655756549,-0.0011349168916217633,1.965003490447998,2019-06-18 15:59:10:499
0.03911823779344559,-0.05077587813138962,9.761629104614258,0.0024757463298514157,0.00632735137875692,-0.0018008697105948246,1.9709272384643555,2019-06-18 15:59:10:505
-0.0039872583001852036,-0.04359162971377373,9.799945831298828,0.004074033095386763,0.00486225491694186,0.004858658609172953,1.974998950958252,2019-06-18 15:59:10:509
0.04151298478245735,-0.029223131015896797,9.821497917175293,0.0008774594992974871,0.005661398299709534,0.003393562667506543,1.9808893203735352,2019-06-18 15:59:10:515
0.07264473289251328,-0.0651443749666214,9.778392791748047,0.0036744614040029266,0.009124352958369454,-0.0024668226596050486,1.985006332397461,2019-06-18 15:59:10:519
0.05588148534297943,-0.029223131015896797,9.843050956726074,0.002076174638467579,0.007792447840571981,0.0052582305606311145,1.9908881187438965,2019-06-18 15:59:10:525
0.084618479013443,-0.06274962425231934,9.826288223266602,0.0027421274574406405,0.010589449420184513,0.005391421384500052,1.995016098022461,2019-06-18 15:59:10:529
0.036723487079143524,-0.041196878999471664,9.783182144165039,7.831605963855469e-05,0.014585166854171532,-0.0012681074554163755,2.0008959770202637,2019-06-18 15:59:10:535
0.058276232331991196,-0.05317062884569168,9.778392791748047,0.0018097935108783545,0.010056687165006064,0.0008629416953345836,2.0049991607666016,2019-06-18 15:59:10:539
0.084618479013443,-0.019644131883978844,9.704155921936035,0.0014102218194945173,0.007392875889113818,-0.002999584914783498,2.0109076499938965,2019-06-18 15:59:10:545
0.051091983914375305,-0.05077587813138962,9.742471694946289,0.002209365202262191,0.009124352958369454,0.002061656899523257,2.0150179862976074,2019-06-18 15:59:10:549
0.09180273115634918,-0.041196878999471664,9.737682342529297,0.003940842531592151,0.007392875889113818,0.0005965605677453591,2.0208916664123535,2019-06-18 15:59:10:555
0.029539236798882484,-0.05796012654900551,9.759234428405762,0.00473998617443415,0.0020652529472178394,0.004858658609172953,2.0250048637390137,2019-06-18 15:59:10:559
0.07024998217821121,-0.048381127417087555,9.823892593383789,0.0010106500630920993,0.0024648247686388392,0.00166208520813942,2.0308923721313477,2019-06-18 15:59:10:565
0.07264473289251328,-0.05077587813138962,9.809524536132812,-0.0019195425354451149,0.009657115213547902,-0.001934060274389437,2.0350022315979004,2019-06-18 15:59:10:569
0.07264473289251328,-0.019644131883978844,9.785576820373535,-0.003917400992364299,0.01325326069607676,-0.0012681074554163755,2.0409059524536133,2019-06-18 15:59:10:575
0.09180273115634918,-0.012459882535040379,9.76402473449707,0.0036744614040029266,0.008857972350928878,-0.0035323471699619468,2.045886516571045,2019-06-18 15:59:10:580
0.07503948360681534,-0.04598637670278549,9.787971496582031,0.0018097935108783545,0.009523924909827616,-6.939229186431566e-05,2.049999237060547,2019-06-18 15:59:10:584
0.07264473289251328,-0.09388136863708496,9.759234428405762,0.0007442689355028748,0.007925638144292268,0.0040595154864796045,2.055915355682373,2019-06-18 15:59:10:590
0.07982897758483887,-0.026828380301594734,9.728102684020996,0.004473605046844925,0.008724781527059942,0.004192706050274216,2.060896873474121,2019-06-18 15:59:10:595
0.0774342343211174,-0.02443363144993782,9.771208763122559,-0.0007208273962750229,0.009390734606107327,-0.0008685356990139574,2.0649986267089844,2019-06-18 15:59:10:599
0.09180273115634918,-0.034012630581855774,9.77599811553955,0.001143840691905293,0.007259685065244881,-0.0031327754785781103,2.0708913803100586,2019-06-18 15:59:10:605
0.024749737232923508,-0.01006513275206089,9.785576820373535,0.0012770312556999051,0.008591591223339655,0.003926324922684992,2.075005531311035,2019-06-18 15:59:10:609
0.07503948360681534,-0.06274962425231934,9.766419410705566,-0.0007208273962750229,0.008458400399470718,0.00326037210371193,2.0811843872070312,2019-06-18 15:59:10:615
0.03911823779344559,-0.029223131015896797,9.749655723571777,-0.0025854953544181764,0.011388593323100838,-6.939229186431566e-05,2.085905075073242,2019-06-18 15:59:10:620
0.07503948360681534,-0.048381127417087555,9.795156478881836,-0.0003212556723818955,0.0076592570167030435,0.005657802512089276,2.090001106262207,2019-06-18 15:59:10:624
0.051091983914375305,-0.04598637670278549,9.84544563293457,0.0036744614040029266,0.006060970251167696,0.0011293228229238084,2.0958900451660156,2019-06-18 15:59:10:630
0.05588148534297943,-0.0388021282851696,9.76402473449707,0.0012770312556999051,0.008192019271881493,-0.0014012980192109879,2.1009297370910645,2019-06-18 15:59:10:635
0.0319339856505394,-0.07711812108755112,9.732892990112305,-0.00018806509233263786,0.010189877468726351,0.0001969888601068769,2.104999542236328,2019-06-18 15:59:10:639
0.06067098304629326,-0.00048613420221954584,9.838261604309082,0.0036744614040029266,0.015117929109349983,0.0017952757719340324,2.1108880043029785,2019-06-18 15:59:10:645
0.04869723320007324,-0.029223131015896797,9.802340507507324,-0.00045444623617650777,0.008857972350928878,-0.0011349168916217633,2.1150054931640625,2019-06-18 15:59:10:649
0.04869723320007324,-0.03161787986755371,9.737682342529297,-0.00018806509233263786,0.008991162654649167,-0.004331490552729621,2.1208887100219727,2019-06-18 15:59:10:655
0.06546048074960709,-0.01724938116967678,9.75444507598877,0.0023425557660568036,0.005794589123578471,-0.004331490552729621,2.1259098052978516,2019-06-18 15:59:10:660
0.07024998217821121,-0.05317062884569168,9.742471694946289,0.0034080802764137014,0.011521783626821125,0.002061656899523257,2.130023956298828,2019-06-18 15:59:10:664
0.06306573003530502,-0.02443363144993782,9.737682342529297,-0.0012535897164720534,0.009523924909827616,0.0008629416953345836,2.1358814239501953,2019-06-18 15:59:10:670
0.0319339856505394,-0.029223131015896797,9.809524536132812,0.0007442689355028748,0.007792447840571981,-0.0027332037871942733,2.1399993896484375,2019-06-18 15:59:10:674
0.024749737232923508,-0.019644131883978844,9.730497360229492,0.004340414222975988,0.009124352958369454,0.0011293228229238084,2.1459054946899414,2019-06-18 15:59:10:680
0.058276232331991196,-0.029223131015896797,9.840656280517578,0.0023425557660568036,0.008724781527059942,0.0004633700039507468,2.1508946418762207,2019-06-18 15:59:10:685
0.0774342343211174,-0.03161787986755371,9.8167085647583,0.005405938733332886,0.009523924909827616,0.00326037210371193,2.154998302459717,2019-06-18 15:59:10:689
0.07503948360681534,-0.05077587813138962,9.797551155090332,-5.487451634704159e-05,0.011122211675362963,-0.0024668226596050486,2.160888671875,2019-06-18 15:59:10:695
0.03432873636484146,-0.048381127417087555,9.771208763122559,0.0007442689355028748,0.008058828968161205,0.002061656899523257,2.165005683898926,2019-06-18 15:59:10:699
0.08701322972774506,-0.03161787986755371,9.752050399780273,0.0030085085850298653,0.008724781527059942,-0.000735345135219345,2.170933723449707,2019-06-18 15:59:10:705
0.024749737232923508,-0.048381127417087555,9.838261604309082,0.001143840691905293,0.0061941605548879826,0.001528894514307645,2.175018310546875,2019-06-18 15:59:10:709
0.05348673462867737,-0.034012630581855774,9.783182144165039,0.0026089368936460283,0.010989021371642677,0.0004633700039507468,2.1808881759643555,2019-06-18 15:59:10:715
0.043907735496759415,-0.055565375834703445,9.752050399780273,0.0036744614040029266,0.00832521009575043,-0.004065109425140397,2.1851234436035156,2019-06-18 15:59:10:719
0.06306573003530502,-0.06274962425231934,9.802340507507324,0.0027421274574406405,0.006060970251167696,0.004459087177863441,2.1908984184265137,2019-06-18 15:59:10:725
0.03911823779344559,-0.048381127417087555,9.797551155090332,0.0019429840746729666,0.011921355578279287,-0.0006021545714247328,2.195000648498535,2019-06-18 15:59:10:729
0.058276232331991196,-0.014854632318019867,9.737682342529297,-0.0027186859182127886,0.012454117833457736,0.0031271815399173176,2.200888156890869,2019-06-18 15:59:10:735
0.058276232331991196,-0.03161787986755371,9.759234428405762,-0.0021859236630343394,0.005661398299709534,-0.0003357734438355082,2.2050037384033203,2019-06-18 15:59:10:739
0.084618479013443,-0.05077587813138962,9.823892593383789,-0.0032514481733912377,0.008192019271881493,-0.0010017262628085697,2.210996627807617,2019-06-18 15:59:10:745
0.09898697584867477,-0.048381127417087555,9.828682899475098,0.005672319860922111,0.008458400399470718,-0.0014012980192109879,2.215150833129883,2019-06-18 15:59:10:749
0.051091983914375305,-0.012459882535040379,9.740077018737793,0.0018097935108783545,0.006726922810066432,0.0031271815399173176,2.22091007232666,2019-06-18 15:59:10:755
0.06546048074960709,-0.01006513275206089,9.747261047363281,0.0018097935108783545,0.0076592570167030435,-0.000735345135219345,2.2250003814697266,2019-06-18 15:59:10:759
0.051091983914375305,-0.03640738129615784,9.730497360229492,0.0019429840746729666,0.009124352958369454,0.0005965605677453591,2.230897903442383,2019-06-18 15:59:10:765
0.07264473289251328,-0.055565375834703445,9.771208763122559,-0.0012535897164720534,0.005528207995989247,0.0027276098485334807,2.2350053787231445,2019-06-18 15:59:10:769
0.06546048074960709,-0.019644131883978844,9.8167085647583,0.0012770312556999051,0.010189877468726351,0.00792204183652336,2.2408933639526367,2019-06-18 15:59:10:775
0.06306573003530502,-0.05077587813138962,9.787971496582031,-5.487451634704159e-05,0.009923496861285777,-0.0027332037871942733,2.2450084686279297,2019-06-18 15:59:10:779
0.05348673462867737,-0.041196878999471664,9.759234428405762,-0.0017863519716505025,0.01125540197908325,0.0005965605677453591,2.250896453857422,2019-06-18 15:59:10:785
0.043907735496759415,-0.04359162971377373,9.668233871459961,0.0027421274574406405,0.011521783626821125,0.0025944190246645436,2.2550010681152344,2019-06-18 15:59:10:789
0.04869723320007324,-0.06993387639522552,9.740077018737793,-0.0015199708440612782,0.010189877468726351,0.0005965605677453591,2.260897636413574,2019-06-18 15:59:10:795
0.08701322972774506,-0.05317062884569168,9.699365615844727,0.00154341238328913,0.003530349278995737,0.004325896614068829,2.265003204345703,2019-06-18 15:59:10:799
0.07503948360681534,-0.019644131883978844,9.790366172790527,-5.487451634704159e-05,0.008192019271881493,0.0005965605677453591,2.270887851715088,2019-06-18 15:59:10:805
0.03432873636484146,-0.055565375834703445,9.814313888549805,0.0019429840746729666,0.006726922810066432,-0.0015344885830056003,2.275041103363037,2019-06-18 15:59:10:809
0.10617122799158096,-0.06035487726330757,9.797551155090332,0.00021150663156048962,0.009923496861285777,-0.004464681376598559,2.280902862548828,2019-06-18 15:59:10:815
0.084618479013443,-0.05317062884569168,9.821497917175293,-0.002452304790623564,0.014851547461612108,-0.0018008697105948246,2.285000801086426,2019-06-18 15:59:10:819
0.029539236798882484,-0.022038880735635757,9.742471694946289,0.0010106500630920993,0.005927779427298759,0.0005965605677453591,2.290890693664551,2019-06-18 15:59:10:825
0.084618479013443,-0.02443363144993782,9.65626049041748,0.00473998617443415,0.0076592570167030435,-0.0037987282975511715,2.2958922386169434,2019-06-18 15:59:10:830
0.017565488815307617,-0.048381127417087555,9.728102684020996,0.0006110783717082625,0.009257544302387042,-0.0003357734438355082,2.3000049591064453,2019-06-18 15:59:10:834
0.043907735496759415,-0.06274962425231934,9.795156478881836,0.0010106500630920993,0.0016656812558340024,0.0021948473332807066,2.3058948516845703,2019-06-18 15:59:10:840
0.07264473289251328,-0.06753912568092346,9.802340507507324,-0.0003212556723818955,0.004462683485632349,-0.0011349168916217633,2.3100109100341797,2019-06-18 15:59:10:844
0.06785523146390915,-0.06274962425231934,9.787971496582031,0.0023425557660568036,0.0019320623834232272,-0.0010017262628085697,2.315884590148926,2019-06-18 15:59:10:850
0.08701322972774506,-0.0388021282851696,9.780787467956543,0.0027421274574406405,0.007259685065244881,-0.0008685356990139574,2.320009231567383,2019-06-18 15:59:10:854
0.08222372829914093,-0.012459882535040379,9.823892593383789,-0.0003212556723818955,0.010989021371642677,0.0004633700039507468,2.325885772705078,2019-06-18 15:59:10:860
0.07024998217821121,-0.012459882535040379,9.75444507598877,-0.0009872085238642476,0.011388593323100838,-0.0008685356990139574,2.32999849319458,2019-06-18 15:59:10:864
0.0319339856505394,-0.06993387639522552,9.787971496582031,0.004873176478154437,0.00979030655756549,-0.0006021545714247328,2.3358893394470215,2019-06-18 15:59:10:870
0.043907735496759415,-0.01006513275206089,9.687392234802246,0.005938700988511335,0.006460541682477208,-6.939229186431566e-05,2.3408942222595215,2019-06-18 15:59:10:875
0.007986490614712238,-0.019644131883978844,9.720918655395508,-0.0023191142268289516,0.003530349278995737,-0.0008685356990139574,2.3449974060058594,2019-06-18 15:59:10:879
0.06306573003530502,-0.014854632318019867,9.819103240966797,0.00473998617443415,0.006593732506346145,0.002860800412328093,2.3509140014648438,2019-06-18 15:59:10:885
0.084618479013443,-0.0388021282851696,9.809524536132812,-0.0003212556723818955,0.008591591223339655,0.000996132259129196,2.355001449584961,2019-06-18 15:59:10:889
0.084618479013443,-0.04598637670278549,9.773603439331055,0.0003446972116097473,0.005661398299709534,0.0008629416953345836,2.3608875274658203,2019-06-18 15:59:10:895
0.09659223258495331,-0.04359162971377373,9.792760848999023,0.0032748897126190896,0.008458400399470718,0.0011293228229238084,2.365910530090332,2019-06-18 15:59:10:900
0.051091983914375305,-0.055565375834703445,9.752050399780273,0.0010106500630920993,0.0076592570167030435,-0.0023336320958104364,2.3708953857421875,2019-06-18 15:59:10:905
0.08701322972774506,-0.041196878999471664,9.723313331604004,0.002209365202262191,0.010989021371642677,-0.000735345135219345,2.375887870788574,2019-06-18 15:59:10:910
0.04869723320007324,-0.09867087006568909,9.783182144165039,0.004873176478154437,0.006060970251167696,-0.0003357734438355082,2.3799996376037598,2019-06-18 15:59:10:914
0.03432873636484146,-0.05077587813138962,9.783182144165039,0.006471463243689784,0.006993303937655657,0.0027276098485334807,2.385892868041992,2019-06-18 15:59:10:920
0.04151298478245735,-0.029223131015896797,9.847840309143066,0.0008774594992974871,0.0061941605548879826,0.0019284663357286445,2.3900060653686523,2019-06-18 15:59:10:924
0.0774342343211174,-0.00048613420221954584,9.76402473449707,0.003541270840208314,0.009657115213547902,-0.0022004415320158242,2.395895004272461,2019-06-18 15:59:10:930
0.036723487079143524,-0.029223131015896797,9.766419410705566,0.004606795350565213,0.013519642343814635,0.0011293228229238084,2.4000110626220703,2019-06-18 15:59:10:934
0.051091983914375305,-0.014854632318019867,9.771208763122559,0.003940842531592151,0.007925638144292268,-0.0020672508381840496,2.4059295654296875,2019-06-18 15:59:10:940
0.058276232331991196,-0.055565375834703445,9.809524536132812,-0.0011203991526774412,0.007259685065244881,-0.0026000132233996607,2.4100217819213867,2019-06-18 15:59:10:944
0.058276232331991196,-0.034012630581855774,9.744866371154785,0.00620508211610056,0.008857972350928878,-0.0016676791468002124,2.415884017944336,2019-06-18 15:59:10:950
0.01996023952960968,-0.06274962425231934,9.75444507598877,-0.0003212556723818955,0.010056687165006064,0.0017952757719340324,2.419996738433838,2019-06-18 15:59:10:954
0.084618479013443,-0.007670383434742689,9.823892593383789,0.001676602947083742,0.009523924909827616,0.0017952757719340324,2.4258899688720703,2019-06-18 15:59:10:960
0.06306573003530502,0.013882364146411419,9.807129859924316,0.0012770312556999051,0.01525111941307027,-0.0006021545714247328,2.4300026893615723,2019-06-18 15:59:10:964
0.09659223258495331,-0.007670383434742689,9.759234428405762,0.0007442689355028748,0.01165497393054141,-6.939229186431566e-05,2.4358720779418945,2019-06-18 15:59:10:970
0.058276232331991196,-0.007670383434742689,9.823892593383789,0.0019429840746729666,0.012587308137178023,-0.0006021545714247328,2.44000244140625,2019-06-18 15:59:10:974
0.06067098304629326,-0.0388021282851696,9.749655723571777,0.0036744614040029266,0.005661398299709534,-0.00020258286378625062,2.4458885192871094,2019-06-18 15:59:10:980
0.04630248621106148,-0.029223131015896797,9.76402473449707,0.005672319860922111,0.009923496861285777,-0.0018008697105948246,2.4509153366088867,2019-06-18 15:59:10:985
0.06546048074960709,-0.055565375834703445,9.807129859924316,0.0018097935108783545,0.010456259116464226,-0.000735345135219345,2.455921173095703,2019-06-18 15:59:10:990
0.04630248621106148,-0.06035487726330757,9.785576820373535,-0.0003212556723818955,0.009257544302387042,0.0005965605677453591,2.460007667541504,2019-06-18 15:59:10:994
0.04869723320007324,-0.019644131883978844,9.778392791748047,0.006871035195147947,0.008724781527059942,-0.0014012980192109879,2.46588134765625,2019-06-18 15:59:11:000
0.04630248621106148,-0.05317062884569168,9.768814086914062,0.0032748897126190896,0.00686011363393537,0.004858658609172953,2.4699978828430176,2019-06-18 15:59:11:004
0.0319339856505394,-0.09867087006568909,9.75444507598877,0.0003446972116097473,0.010189877468726351,-0.0008685356990139574,2.475912094116211,2019-06-18 15:59:11:010
0.04630248621106148,-0.06035487726330757,9.792760848999023,0.002209365202262191,0.011921355578279287,-6.939229186431566e-05,2.48000431060791,2019-06-18 15:59:11:014
0.06785523146390915,-0.04598637670278549,9.701761245727539,0.005539129557201824,0.00686011363393537,0.0003301794401561345,2.4850268363952637,2019-06-18 15:59:11:019
0.058276232331991196,-0.05317062884569168,9.857419967651367,-0.00018806509233263786,0.007792447840571981,0.0001969888601068769,2.4908924102783203,2019-06-18 15:59:11:025
0.04630248621106148,-0.0843023732304573,9.787971496582031,0.0030085085850298653,0.008857972350928878,0.0007297511315399715,2.4950218200683594,2019-06-18 15:59:11:029
0.07503948360681534,-0.01724938116967678,9.759234428405762,0.0032748897126190896,0.005661398299709534,0.0017952757719340324,2.5000171661376953,2019-06-18 15:59:11:034
0.07024998217821121,-0.04359162971377373,9.792760848999023,0.005139557605743661,0.008058828968161205,-0.004331490552729621,2.505880355834961,2019-06-18 15:59:11:040
0.04151298478245735,-0.08190762251615524,9.752050399780273,0.004606795350565213,0.01125540197908325,0.0011293228229238084,2.5100011825561523,2019-06-18 15:59:11:044
0.04630248621106148,-0.05796012654900551,9.797551155090332,-0.00018806509233263786,0.00979030655756549,0.005125040256910827,2.5158944129943848,2019-06-18 15:59:11:050
0.06785523146390915,-0.06274962425231934,9.761629104614258,-0.0003212556723818955,0.009923496861285777,-6.939229186431566e-05,2.520005702972412,2019-06-18 15:59:11:054
0.07024998217821121,-0.04598637670278549,9.749655723571777,-0.0007208273962750229,0.009523924909827616,0.0029939909761227054,2.525996208190918,2019-06-18 15:59:11:060
0.05588148534297943,-0.07232862710952759,9.749655723571777,0.0006110783717082625,0.012054545881999576,0.0011293228229238084,2.530050277709961,2019-06-18 15:59:11:064
0.043907735496759415,-0.06035487726330757,9.720918655395508,-0.0007208273962750229,0.009257544302387042,-0.0003357734438355082,2.535886764526367,2019-06-18 15:59:11:070
0.06546048074960709,-0.0388021282851696,9.8167085647583,0.0008774594992974871,0.009923496861285777,0.0005965605677453591,2.5408973693847656,2019-06-18 15:59:11:075
0.06306573003530502,-0.04598637670278549,9.795156478881836,-0.0016531614078558903,0.007925638144292268,-0.0023336320958104364,2.545003890991211,2019-06-18 15:59:11:079
0.06067098304629326,-0.0651443749666214,9.84544563293457,0.0003446972116097473,0.009124352958369454,-0.0008685356990139574,2.5508880615234375,2019-06-18 15:59:11:085
0.003196990815922618,-0.019644131883978844,9.761629104614258,0.0008774594992974871,0.005794589123578471,0.004325896614068829,2.5558900833129883,2019-06-18 15:59:11:090
0.036723487079143524,-0.07951287180185318,9.75444507598877,-0.0003212556723818955,0.00632735137875692,0.0012625133867184206,2.5600028038024902,2019-06-18 15:59:11:094
0.04151298478245735,-0.026828380301594734,9.749655723571777,0.00154341238328913,0.0076592570167030435,6.379828412128062e-05,2.5658817291259766,2019-06-18 15:59:11:100
0.036723487079143524,-0.007670383434742689,9.75444507598877,0.002076174638467579,0.014585166854171532,0.0017952757719340324,2.5709118843078613,2019-06-18 15:59:11:105
0.11575022339820862,-0.05077587813138962,9.761629104614258,-0.0013867802802666658,0.01032306881274394,0.003659943795095767,2.57503604888916,2019-06-18 15:59:11:109
0.08222372829914093,-0.0388021282851696,9.826288223266602,0.0028753180212352527,0.008724781527059942,-0.0011349168916217633,2.5808897018432617,2019-06-18 15:59:11:115
0.07503948360681534,-0.034012630581855774,9.768814086914062,-0.0012535897164720534,0.01165497393054141,0.0040595154864796045,2.5850305557250977,2019-06-18 15:59:11:119
0.06306573003530502,-0.022038880735635757,9.77599811553955,0.00021150663156048962,0.01365283264753492,0.006057373943398788,2.5908946990966797,2019-06-18 15:59:11:125
0.003196990815922618,-0.02443363144993782,9.749655723571777,0.001676602947083742,0.012853689784915898,0.001528894514307645,2.594999313354492,2019-06-18 15:59:11:129
0.03911823779344559,-0.03640738129615784,9.704155921936035,0.001676602947083742,0.011122211675362963,0.0031271815399173176,2.600889205932617,2019-06-18 15:59:11:135
0.05348673462867737,-0.02443363144993782,9.783182144165039,0.001143840691905293,0.006993303937655657,0.0012625133867184206,2.605006217956543,2019-06-18 15:59:11:139
0.04630248621106148,-0.06035487726330757,9.773603439331055,0.0010106500630920993,0.007526066192834106,0.004325896614068829,2.6108932495117188,2019-06-18 15:59:11:145
0.1037764772772789,-0.029223131015896797,9.756839752197266,0.002076174638467579,0.008058828968161205,0.004725468305452665,2.6150360107421875,2019-06-18 15:59:11:149
0.084618479013443,-0.041196878999471664,9.8167085647583,-0.0003212556723818955,0.013120070392356473,0.005924183639678501,2.620901107788086,2019-06-18 15:59:11:155
0.10856597870588303,-0.029223131015896797,9.80473518371582,0.0003446972116097473,0.010989021371642677,0.006057373943398788,2.624998092651367,2019-06-18 15:59:11:159
0.07024998217821121,-0.005275633651763201,9.771208763122559,0.0012770312556999051,0.01365283264753492,0.0035267532313011545,2.630906105041504,2019-06-18 15:59:11:165
0.029539236798882484,-0.055565375834703445,9.807129859924316,-0.003917400992364299,0.005927779427298759,0.004192706050274216,2.635000228881836,2019-06-18 15:59:11:169
0.06546048074960709,-0.07472337782382965,9.768814086914062,0.0032748897126190896,0.008192019271881493,0.00326037210371193,2.6408886909484863,2019-06-18 15:59:11:175
0.08222372829914093,-0.048381127417087555,9.792760848999023,-0.0012535897164720534,0.008458400399470718,0.004459087177863441,2.6450061798095703,2019-06-18 15:59:11:179
0.03911823779344559,-0.0388021282851696,9.742471694946289,0.00154341238328913,0.0053950171721203095,0.0012625133867184206,2.650890350341797,2019-06-18 15:59:11:185
0.043907735496759415,0.01148761436343193,9.797551155090332,0.0026089368936460283,0.009390734606107327,0.001528894514307645,2.6549978256225586,2019-06-18 15:59:11:189
0.07982897758483887,-0.055565375834703445,9.831077575683594,0.00473998617443415,0.011122211675362963,0.003393562667506543,2.6609039306640625,2019-06-18 15:59:11:195
0.01996023952960968,-0.05317062884569168,9.852629661560059,0.00473998617443415,0.00832521009575043,-0.0018008697105948246,2.6658859252929688,2019-06-18 15:59:11:200
0.043907735496759415,-0.04359162971377373,9.811919212341309,0.0012770312556999051,0.008991162654649167,0.0035267532313011545,2.6702237129211426,2019-06-18 15:59:11:204
0.03432873636484146,-0.03161787986755371,9.795156478881836,0.002209365202262191,0.010989021371642677,0.0031271815399173176,2.675037384033203,2019-06-18 15:59:11:209
0.07024998217821121,-0.029223131015896797,9.76402473449707,0.0014102218194945173,0.007526066192834106,-0.0022004415320158242,2.680889129638672,2019-06-18 15:59:11:215
0.007986490614712238,-0.04598637670278549,9.711339950561523,0.002209365202262191,0.003397158715201125,0.003659943795095767,2.6858887672424316,2019-06-18 15:59:11:220
0.06546048074960709,-0.041196878999471664,9.768814086914062,0.0038076519677975387,0.005794589123578471,0.00166208520813942,2.690890312194824,2019-06-18 15:59:11:225
0.058276232331991196,-0.04359162971377373,9.752050399780273,0.0019429840746729666,0.008192019271881493,0.00326037210371193,2.6949992179870605,2019-06-18 15:59:11:229
0.051091983914375305,-0.0028808838687837124,9.783182144165039,0.0019429840746729666,0.006993303937655657,0.003926324922684992,2.7008919715881348,2019-06-18 15:59:11:235
0.08222372829914093,0.0019086154643446207,9.838261604309082,0.0004778877754043595,0.010855831067922388,0.0027276098485334807,2.705028533935547,2019-06-18 15:59:11:239
0.05348673462867737,-0.04359162971377373,9.790366172790527,0.0010106500630920993,0.01218773618571986,-0.0008685356990139574,2.7108941078186035,2019-06-18 15:59:11:245
0.058276232331991196,-0.03640738129615784,9.787971496582031,-0.0027186859182127886,0.01218773618571986,0.002461228460869931,2.7150402069091797,2019-06-18 15:59:11:249
0.07264473289251328,-0.019644131883978844,9.723313331604004,-0.0016531614078558903,0.007526066192834106,-6.939229186431566e-05,2.720895290374756,2019-06-18 15:59:11:255
0.04151298478245735,-0.041196878999471664,9.716129302978516,0.0036744614040029266,0.006593732506346145,0.004192706050274216,2.72499942779541,2019-06-18 15:59:11:259
0.03432873636484146,-0.041196878999471664,9.773603439331055,0.0028753180212352527,0.005128636044531084,0.00326037210371193,2.7308897972106934,2019-06-18 15:59:11:265
0.051091983914375305,-0.05077587813138962,9.80473518371582,0.001143840691905293,0.007526066192834106,0.00499184943304189,2.7358903884887695,2019-06-18 15:59:11:270
0.07503948360681534,-0.04598637670278549,9.807129859924316,-5.487451634704159e-05,0.006060970251167696,0.0011293228229238084,2.740004539489746,2019-06-18 15:59:11:274
0.010381239466369152,-0.012459882535040379,9.759234428405762,-5.487451634704159e-05,0.009124352958369454,0.004858658609172953,2.745880603790283,2019-06-18 15:59:11:280
0.07264473289251328,-0.04359162971377373,9.773603439331055,-0.0023191142268289516,0.011521783626821125,-6.939229186431566e-05,2.750028610229492,2019-06-18 15:59:11:284
0.06067098304629326,-0.034012630581855774,9.77599811553955,0.001676602947083742,0.010456259116464226,-0.0016676791468002124,2.7558860778808594,2019-06-18 15:59:11:290
0.05588148534297943,-0.03161787986755371,9.768814086914062,-0.0025854953544181764,0.008058828968161205,-0.0024668226596050486,2.7600603103637695,2019-06-18 15:59:11:294
0.06067098304629326,-0.034012630581855774,9.720918655395508,-0.0011203991526774412,0.00632735137875692,0.0031271815399173176,2.76588773727417,2019-06-18 15:59:11:300
0.08701322972774506,-0.01724938116967678,9.747261047363281,0.005272748429612599,0.006460541682477208,0.005524611688220339,2.7699975967407227,2019-06-18 15:59:11:304
0.05588148534297943,-0.01724938116967678,9.75444507598877,0.004606795350565213,0.0049954457408107975,-0.0015344885830056003,2.775912284851074,2019-06-18 15:59:11:310
0.09180273115634918,-0.03161787986755371,9.83347225189209,0.0026089368936460283,0.010456259116464226,0.0012625133867184206,2.780895233154297,2019-06-18 15:59:11:315
0.08940798044204712,-0.029223131015896797,9.80473518371582,0.0007442689355028748,0.008058828968161205,-0.000735345135219345,2.785001754760742,2019-06-18 15:59:11:319
0.084618479013443,-0.01724938116967678,9.828682899475098,0.0004778877754043595,0.014318785206433657,0.002328037897075319,2.7909202575683594,2019-06-18 15:59:11:325
0.051091983914375305,-0.03640738129615784,9.780787467956543,0.004074033095386763,0.008058828968161205,0.0029939909761227054,2.7950172424316406,2019-06-18 15:59:11:329
0.07264473289251328,-0.03640738129615784,9.790366172790527,0.0004778877754043595,0.01125540197908325,-0.0032659660423727224,2.8008928298950195,2019-06-18 15:59:11:335
0.08222372829914093,-0.03640738129615784,9.785576820373535,-0.0003212556723818955,0.010189877468726351,0.0003301794401561345,2.8059139251708984,2019-06-18 15:59:11:340
0.08701322972774506,-0.03161787986755371,9.708945274353027,0.0008774594992974871,0.005261826868400022,0.001528894514307645,2.8100051879882812,2019-06-18 15:59:11:344
0.08701322972774506,-0.03640738129615784,9.759234428405762,0.0032748897126190896,0.008058828968161205,-0.0012681074554163755,2.815884590148926,2019-06-18 15:59:11:350
0.058276232331991196,-0.06993387639522552,9.792760848999023,0.0024757463298514157,0.006593732506346145,0.0001969888601068769,2.8199996948242188,2019-06-18 15:59:11:354
0.07982897758483887,-0.05317062884569168,9.819103240966797,-0.0016531614078558903,0.012720498440898311,-0.0037987282975511715,2.825892925262451,2019-06-18 15:59:11:360
0.06546048074960709,-0.04359162971377373,9.768814086914062,0.0038076519677975387,0.007526066192834106,0.005391421384500052,2.830005168914795,2019-06-18 15:59:11:364
0.07982897758483887,-0.02443363144993782,9.799945831298828,0.0006110783717082625,0.012454117833457736,0.0011293228229238084,2.8358941078186035,2019-06-18 15:59:11:370
0.07264473289251328,-0.0388021282851696,9.76402473449707,0.002209365202262191,0.015517501060808144,0.0035267532313011545,2.8400115966796875,2019-06-18 15:59:11:374
0.04869723320007324,-0.00048613420221954584,9.69697093963623,-0.0008540179600696353,0.014052404598993085,0.001528894514307645,2.8460607528686523,2019-06-18 15:59:11:380
0.07982897758483887,-0.01724938116967678,9.759234428405762,-0.0017863519716505025,0.009124352958369454,0.000996132259129196,2.850910186767578,2019-06-18 15:59:11:385
0.11575022339820862,-0.02443363144993782,9.821497917175293,0.0026089368936460283,0.007259685065244881,-0.0004689640076301205,2.8550004959106445,2019-06-18 15:59:11:389
0.07503948360681534,-0.05317062884569168,9.771208763122559,0.0004778877754043595,0.007792447840571981,6.379828412128062e-05,2.860888957977295,2019-06-18 15:59:11:395
0.084618479013443,-0.026828380301594734,9.850234985351562,0.0003446972116097473,0.007392875889113818,-6.939229186431566e-05,2.8650078773498535,2019-06-18 15:59:11:399
0.09419748187065125,-0.0388021282851696,9.730497360229492,0.0028753180212352527,0.011521783626821125,0.0019284663357286445,2.870889663696289,2019-06-18 15:59:11:405
0.04869723320007324,-0.03161787986755371,9.761629104614258,-0.0009872085238642476,0.008458400399470718,0.002328037897075319,2.8759093284606934,2019-06-18 15:59:11:410
0.07503948360681534,-0.012459882535040379,9.761629104614258,-0.0008540179600696353,0.007126494761524595,-0.004731062504187783,2.8808975219726562,2019-06-18 15:59:11:415
0.04869723320007324,-0.04359162971377373,9.7352876663208,-0.0009872085238642476,0.010989021371642677,0.0019284663357286445,2.885005474090576,2019-06-18 15:59:11:419
0.02714448794722557,-0.019644131883978844,9.730497360229492,0.003541270840208314,0.01125540197908325,-0.0003357734438355082,2.8908891677856445,2019-06-18 15:59:11:425
0.043907735496759415,-0.05317062884569168,9.787971496582031,0.0027421274574406405,0.008991162654649167,0.0013957039505130327,2.8959121704101562,2019-06-18 15:59:11:430
0.06546048074960709,-0.01724938116967678,9.8167085647583,0.006071891812380273,0.0011329190006555533,-0.0027332037871942733,2.9000062942504883,2019-06-18 15:59:11:434
0.024749737232923508,0.004303365014493465,9.8167085647583,0.0014102218194945173,0.007259685065244881,0.0052582305606311145,2.905881404876709,2019-06-18 15:59:11:440
0.08701322972774506,-0.06993387639522552,9.857419967651367,0.003940842531592151,0.012454117833457736,0.0005965605677453591,2.910000801086426,2019-06-18 15:59:11:444
0.05588148534297943,-0.041196878999471664,9.8167085647583,0.005139557605743661,0.01165497393054141,-0.0014012980192109879,2.9158902168273926,2019-06-18 15:59:11:450
0.06785523146390915,-0.04598637670278549,9.773603439331055,0.005805510684791048,0.00632735137875692,-0.0004689640076301205,2.9200057983398438,2019-06-18 15:59:11:454
0.07982897758483887,-0.029223131015896797,9.75444507598877,0.0038076519677975387,0.012587308137178023,-0.005796587014544681,2.925910472869873,2019-06-18 15:59:11:460
0.02714448794722557,-0.014854632318019867,9.787971496582031,0.0030085085850298653,0.007392875889113818,-0.0015344885830056003,2.9300060272216797,2019-06-18 15:59:11:464
0.003196990815922618,-0.0651443749666214,9.773603439331055,-0.0027186859182127886,0.0053950171721203095,0.0003301794401561345,2.935887336730957,2019-06-18 15:59:11:470
0.007986490614712238,-0.04359162971377373,9.778392791748047,0.0038076519677975387,0.003530349278995737,-0.0023336320958104364,2.940005302429199,2019-06-18 15:59:11:474
0.09180273115634918,-0.022038880735635757,9.821497917175293,-0.00018806509233263786,0.003530349278995737,-0.0003357734438355082,2.9458866119384766,2019-06-18 15:59:11:480
0.09180273115634918,-0.01724938116967678,9.850234985351562,-0.0027186859182127886,0.010722639723904802,0.004725468305452665,2.9499988555908203,2019-06-18 15:59:11:484
0.051091983914375305,-0.019644131883978844,9.76402473449707,-0.0008540179600696353,0.009923496861285777,0.0021948473332807066,2.9558911323547363,2019-06-18 15:59:11:490
0.06785523146390915,-0.07472337782382965,9.747261047363281,-0.0011203991526774412,0.01218773618571986,-0.004065109425140397,2.9600048065185547,2019-06-18 15:59:11:494
0.017565488815307617,-0.04359162971377373,9.768814086914062,-0.00045444623617650777,0.01218773618571986,0.0005965605677453591,2.965923309326172,2019-06-18 15:59:11:500
0.029539236798882484,-0.07951287180185318,9.75444507598877,0.001676602947083742,0.009257544302387042,0.00166208520813942,2.9700212478637695,2019-06-18 15:59:11:504
0.0319339856505394,-0.02443363144993782,9.795156478881836,0.0032748897126190896,0.005128636044531084,0.002860800412328093,2.9758858680725098,2019-06-18 15:59:11:510
0.03432873636484146,-0.014854632318019867,9.730497360229492,0.001143840691905293,0.005794589123578471,0.005391421384500052,2.9800662994384766,2019-06-18 15:59:11:514
0.04151298478245735,-0.022038880735635757,9.761629104614258,0.0030085085850298653,0.008058828968161205,-0.004597871680318845,2.985887050628662,2019-06-18 15:59:11:520
0.09419748187065125,-0.06035487726330757,9.811919212341309,0.00021150663156048962,0.0117881642342617,0.0007297511315399715,2.9899988174438477,2019-06-18 15:59:11:524
0.11096072942018509,-0.01724938116967678,9.756839752197266,0.001676602947083742,0.012054545881999576,0.005790992815809564,2.995896339416504,2019-06-18 15:59:11:530
0.08940798044204712,-0.00048613420221954584,9.752050399780273,0.0030085085850298653,0.013919214295272795,-0.0023336320958104364,3.0000085830688477,2019-06-18 15:59:11:534
0.03911823779344559,0.023461362347006798,9.80473518371582,-0.00018806509233263786,0.014851547461612108,-0.0014012980192109879,3.005880832672119,2019-06-18 15:59:11:540
0.10138172656297684,-0.0028808838687837124,9.811919212341309,-0.004716544635206299,0.011521783626821125,-0.0037987282975511715,3.010021209716797,2019-06-18 15:59:11:544
0.010381239466369152,-0.029223131015896797,9.740077018737793,0.004473605046844925,0.01165497393054141,0.00326037210371193,3.015897750854492,2019-06-18 15:59:11:550
0.024749737232923508,-0.03640738129615784,9.797551155090332,0.0004778877754043595,0.008192019271881493,-0.0018008697105948246,3.0200014114379883,2019-06-18 15:59:11:554
0.06306573003530502,0.013882364146411419,9.75444507598877,0.0034080802764137014,0.010989021371642677,0.0040595154864796045,3.025027275085449,2019-06-18 15:59:11:559
0.03432873636484146,0.042619358748197556,9.7352876663208,0.0018097935108783545,0.006993303937655657,0.002328037897075319,3.030893325805664,2019-06-18 15:59:11:565
0.005591740366071463,-0.034012630581855774,9.802340507507324,0.0027421274574406405,0.012587308137178023,0.0003301794401561345,3.034998893737793,2019-06-18 15:59:11:569
0.09419748187065125,-0.1106446236371994,9.723313331604004,0.003940842531592151,0.008192019271881493,0.00499184943304189,3.040888786315918,2019-06-18 15:59:11:575
0.06306573003530502,-0.04598637670278549,9.732892990112305,0.0076701785779156205,0.008724781527059942,0.006590136198577237,3.045888900756836,2019-06-18 15:59:11:580
0.05588148534297943,-0.03640738129615784,9.790366172790527,0.0019429840746729666,0.0053950171721203095,0.003793134358890379,3.0500049591064453,2019-06-18 15:59:11:584
0.09419748187065125,0.01867186278104782,9.773603439331055,-0.00045444623617650777,0.0049954457408107975,0.006057373943398788,3.0559425354003906,2019-06-18 15:59:11:590
0.09659223258495331,-0.007670383434742689,9.7257080078125,0.0008774594992974871,0.0049954457408107975,0.004192706050274216,3.0615549087524414,2019-06-18 15:59:11:596
0.07264473289251328,-0.029223131015896797,9.821497917175293,-0.0013867802802666658,0.011521783626821125,0.0052582305606311145,3.066502571105957,2019-06-18 15:59:11:601
0.05588148534297943,-0.034012630581855774,9.77599811553955,-0.00045444623617650777,0.013120070392356473,0.00499184943304189,3.0715508460998535,2019-06-18 15:59:11:606
0.036723487079143524,-0.04598637670278549,9.761629104614258,0.0018097935108783545,0.007259685065244881,0.006057373943398788,3.0764989852905273,2019-06-18 15:59:11:611
0.01277598924934864,-0.05317062884569168,9.732892990112305,0.00473998617443415,0.006993303937655657,0.0075224704052138484,3.0813941955566406,2019-06-18 15:59:11:616
-0.02314525656402111,-0.0388021282851696,9.756839752197266,-0.0005876368324804107,0.007392875889113818,0.00938713829833842,3.086477756500244,2019-06-18 15:59:11:621
0.017565488815307617,-0.10346037149429321,9.740077018737793,0.0007442689355028748,0.0036635398427903496,0.004325896614068829,3.091503143310547,2019-06-18 15:59:11:626
0.017565488815307617,-0.12022361904382706,9.759234428405762,0.0032748897126190896,0.007259685065244881,0.005790992815809564,3.0964736938476562,2019-06-18 15:59:11:631
0.007986490614712238,-0.08669712394475937,9.768814086914062,0.00620508211610056,0.00686011363393537,0.009786710249796583,3.1015920639038086,2019-06-18 15:59:11:636
0.036723487079143524,-0.09627611935138702,9.835866928100586,0.003141699148824477,0.009657115213547902,0.0029939909761227054,3.1064815521240234,2019-06-18 15:59:11:641
0.022354988381266594,-0.02443363144993782,9.811919212341309,-0.0025854953544181764,0.008857972350928878,0.006190564767267726,3.111111640930176,2019-06-18 15:59:11:645
0.043907735496759415,-0.10585512220859528,9.778392791748047,0.002076174638467579,0.01418559490271337,0.003393562667506543,3.116497039794922,2019-06-18 15:59:11:651
-0.00877675786614418,-0.07951287180185318,9.752050399780273,0.0028753180212352527,0.008991162654649167,0.0025944190246645436,3.1215057373046875,2019-06-18 15:59:11:656
-0.020750505849719048,-0.055565375834703445,9.752050399780273,0.003940842531592151,0.009923496861285777,0.0075224704052138484,3.1264724731445312,2019-06-18 15:59:11:661
0.03432873636484146,-0.05317062884569168,9.68499755859375,0.003141699148824477,0.005261826868400022,0.0025944190246645436,3.1314468383789062,2019-06-18 15:59:11:666
-0.013566257432103157,-0.11543411761522293,9.737682342529297,0.00154341238328913,0.00632735137875692,0.003659943795095767,3.1364850997924805,2019-06-18 15:59:11:671
0.015170739032328129,-0.08669712394475937,9.780787467956543,-0.006714403352199807,0.009124352958369454,-0.0011349168916217633,3.14150333404541,2019-06-18 15:59:11:676
0.05588148534297943,-0.10346037149429321,9.8167085647583,0.004340414222975988,0.00979030655756549,0.0007297511315399715,3.1465516090393066,2019-06-18 15:59:11:681
0.043907735496759415,-0.06035487726330757,9.850234985351562,0.0032748897126190896,0.012454117833457736,-0.0016676791468002124,3.151516914367676,2019-06-18 15:59:11:686
0.05588148534297943,-0.0651443749666214,9.80473518371582,0.0018097935108783545,0.009923496861285777,-0.0003357734438355082,3.156527042388916,2019-06-18 15:59:11:691
0.04630248621106148,-0.07232862710952759,9.766419410705566,0.002076174638467579,0.00486225491694186,-0.00486425280790807,3.161522388458252,2019-06-18 15:59:11:696
0.084618479013443,-0.07472337782382965,9.720918655395508,-0.0029850670458020133,0.0117881642342617,-0.0018008697105948246,3.1664719581604004,2019-06-18 15:59:11:701
0.05588148534297943,-0.029223131015896797,9.797551155090332,-0.00045444623617650777,0.008058828968161205,-0.0037987282975511715,3.1713857650756836,2019-06-18 15:59:11:706
0.06067098304629326,-0.05796012654900551,9.768814086914062,-5.487451634704159e-05,0.01032306881274394,-0.005263824759366232,3.175018310546875,2019-06-18 15:59:11:709
0.058276232331991196,-0.06993387639522552,9.80473518371582,0.0003446972116097473,0.011122211675362963,-0.002999584914783498,3.180018424987793,2019-06-18 15:59:11:714
0.04151298478245735,-0.10824987292289734,9.778392791748047,0.0007442689355028748,0.010189877468726351,-0.006862111524901579,3.1858859062194824,2019-06-18 15:59:11:720
0.043907735496759415,-0.10824987292289734,9.799945831298828,-0.0011203991526774412,0.008458400399470718,-0.0060629681421339055,3.1909141540527344,2019-06-18 15:59:11:725
0.06546048074960709,-0.0843023732304573,9.71373462677002,-0.0013867802802666658,0.00632735137875692,-0.0041982999889350085,3.195009231567383,2019-06-18 15:59:11:729
0.05348673462867737,-0.04359162971377373,9.819103240966797,-0.0015199708440612782,0.01125540197908325,-0.008060826338978765,3.200899124145508,2019-06-18 15:59:11:735
0.12293447554111481,-0.0914866253733635,9.744866371154785,-0.004183782119953524,0.010589449420184513,-0.008993161065764026,3.205010414123535,2019-06-18 15:59:11:739
0.1037764772772789,-0.10346037149429321,9.752050399780273,0.0023425557660568036,0.01125540197908325,-0.012456115204275295,3.210895538330078,2019-06-18 15:59:11:745
0.06306573003530502,-0.13938161730766296,9.792760848999023,0.0024757463298514157,0.01032306881274394,-0.0064625395734434175,3.2150096893310547,2019-06-18 15:59:11:749
0.08701322972774506,-0.03640738129615784,9.756839752197266,-0.0005876368324804107,0.007259685065244881,-0.007528064083800316,3.2208938598632812,2019-06-18 15:59:11:755
0.07982897758483887,0.016277113929390907,9.864603996276855,-0.0027186859182127886,0.009657115213547902,-0.006862111524901579,3.225893020629883,2019-06-18 15:59:11:760
0.08940798044204712,-0.014854632318019867,9.783182144165039,-0.0020527330992397273,0.016050263315986593,-0.00779444521138954,3.2309255599975586,2019-06-18 15:59:11:765
0.08222372829914093,-0.0388021282851696,9.838261604309082,-0.0037842104285696868,0.014984738805629694,-0.009392731976924888,3.2350234985351562,2019-06-18 15:59:11:769
-0.0039872583001852036,-0.06035487726330757,9.819103240966797,-0.0033846387371858503,0.02164426751550896,-0.00885996972174644,3.2408957481384277,2019-06-18 15:59:11:775
0.024749737232923508,-0.07472337782382965,9.716129302978516,-0.0005876368324804107,0.0117881642342617,-0.010591447831299375,3.245028495788574,2019-06-18 15:59:11:779
-0.030329504981637,-0.05796012654900551,9.716129302978516,0.001143840691905293,0.008058828968161205,-0.012056543252817133,3.2508978843688965,2019-06-18 15:59:11:785
0.0008022411493584514,0.021066613495349884,9.749655723571777,0.002209365202262191,0.002864396460022676,-0.0024668226596050486,3.255894660949707,2019-06-18 15:59:11:790
-0.03511900454759598,0.042619358748197556,9.768814086914062,-0.0007208273962750229,0.010456259116464226,-0.005929777318264968,3.2600059509277344,2019-06-18 15:59:11:794
-0.06864549964666367,0.09051435440778732,9.864603996276855,-0.006980784479789033,0.014318785206433657,-0.008993161065764026,3.265894889831543,2019-06-18 15:59:11:800
-0.061461251229047775,-0.034012630581855774,9.795156478881836,-0.005382497194105034,0.016316643923427167,-0.010191875879841212,3.270008087158203,2019-06-18 15:59:11:804
-0.1117509976029396,-0.13459211587905884,9.747261047363281,0.0006110783717082625,0.015917071971969007,-0.012056543252817133,3.275899887084961,2019-06-18 15:59:11:810
-0.12372474372386932,-0.06993387639522552,9.778392791748047,0.003141699148824477,0.012986880088636184,-0.00486425280790807,3.28090763092041,2019-06-18 15:59:11:815
-0.039908502250909805,-0.00048613420221954584,9.716129302978516,0.004473605046844925,0.006726922810066432,-0.009525923320942476,3.285005569458008,2019-06-18 15:59:11:819
-0.0015925085172057152,0.09290910512208939,9.730497360229492,0.0028753180212352527,0.005128636044531084,-0.012988877459453745,3.2909164428710938,2019-06-18 15:59:11:825
0.04630248621106148,0.04022461175918579,9.787971496582031,-0.0013867802802666658,-0.000598558458711569,-0.013521639714632192,3.295896053314209,2019-06-18 15:59:11:830
0.1492767184972763,-0.05077587813138962,9.76402473449707,-0.0011203991526774412,0.008991162654649167,-0.005263824759366232,3.3008971214294434,2019-06-18 15:59:11:835
0.015170739032328129,-0.041196878999471664,9.905314445495605,0.004473605046844925,0.016982597522623204,-0.0014012980192109879,3.3058948516845703,2019-06-18 15:59:11:840
0.005591740366071463,0.049803610891103745,9.912498474121094,-5.487451634704159e-05,0.02737146201875161,0.000996132259129196,3.310898780822754,2019-06-18 15:59:11:845
0.13969773054122925,0.11446185410022736,9.823892593383789,-0.0019195425354451149,0.02683869872327586,-0.00020258286378625062,3.3150081634521484,2019-06-18 15:59:11:849
-0.027934754267334938,0.06177735701203346,9.71373462677002,-0.0008540179600696353,0.02111150422003321,-0.004065109425140397,3.3208980560302734,2019-06-18 15:59:11:855
-0.07104025036096573,0.028250861912965775,9.778392791748047,-0.00045444623617650777,0.008058828968161205,0.012450521525688828,3.325900077819824,2019-06-18 15:59:11:860
-0.0925929993391037,0.04740886017680168,9.646681785583496,0.011665896011902639,-0.006192562658233936,0.012983283780867279,3.330911159515381,2019-06-18 15:59:11:865
0.3528304398059845,0.1839095950126648,9.689786911010742,-0.00045444623617650777,-0.008057230551358508,0.025902768208870348,3.3359031677246094,2019-06-18 15:59:11:870
0.9060176014900208,0.13361984491348267,9.476654052734375,-0.013640312669519646,-0.023773718639568706,0.029099343820535643,3.340005874633789,2019-06-18 15:59:11:874
0.0774342343211174,0.25814682245254517,10.712345123291016,-0.03108827782698548,0.047616429796127284,0.0389554471017829,3.3458919525146484,2019-06-18 15:59:11:880
0.477357417345047,0.06417210400104523,9.7352876663208,0.008602512784552232,0.01471835715789182,0.04747964318463809,3.350895404815674,2019-06-18 15:59:11:885
0.6617531776428223,0.1839095950126648,9.922078132629395,0.01060037150154574,0.05427595538511465,0.05120897584999533,3.3558902740478516,2019-06-18 15:59:11:890
-0.18119873106479645,0.10248810052871704,9.716129302978516,-0.0266929884415403,0.0998271287230207,0.05427236011764303,3.360903739929199,2019-06-18 15:59:11:895
-0.5571744441986084,-0.029223131015896797,9.488628387451172,0.0008774594992974871,-0.005393418755317611,0.049610692205351886,3.3659095764160156,2019-06-18 15:59:11:900
0.03432873636484146,-0.275882363319397,9.127020835876465,-0.013640312669519646,-0.011919756641327939,0.04161925733737785,3.370009422302246,2019-06-18 15:59:11:904
0.1037764772772789,-0.6255158185958862,9.438338279724121,0.011799086315622927,-0.015515902123856796,0.052807263655827975,3.3758983612060547,2019-06-18 15:59:11:910
-0.06864549964666367,-0.32377734780311584,9.864603996276855,0.011665896011902639,-0.04361911238489161,0.05800169694418948,3.3800153732299805,2019-06-18 15:59:11:914
0.5731474161148071,-0.1968556046485901,9.931656837463379,0.007803369401784558,-0.016315046026773118,0.05174174122606568,3.385892391204834,2019-06-18 15:59:11:920
0.16603997349739075,-0.2926456034183502,10.199869155883789,-0.006980784479789033,-0.0009981301500954058,0.04574816403478785,3.390897274017334,2019-06-18 15:59:11:925
0.47256794571876526,-0.39561983942985535,10.130420684814453,0.014862469542973334,0.02603955690095414,0.04934430951731671,3.395895004272461,2019-06-18 15:59:11:930
0.17322422564029694,-0.12740786373615265,10.46329116821289,0.0003446972116097473,0.07119115620680742,0.049877070732197853,3.40000581741333,2019-06-18 15:59:11:934
0.2546457052230835,0.3012523353099823,9.577234268188477,-0.011642453952526137,0.03789351577830301,0.045481781346752674,3.4059195518493652,2019-06-18 15:59:11:940
0.13251347839832306,0.24138358235359192,9.349732398986816,-0.005382497194105034,0.03469694224723231,0.03296186991050507,3.4100208282470703,2019-06-18 15:59:11:944
-0.16204074025154114,0.09051435440778732,9.342548370361328,-0.0033846387371858503,-0.014983139868678346,0.0221734334629185,3.4158902168273926,2019-06-18 15:59:11:950
0.06785523146390915,-0.3453300893306732,9.203653335571289,0.010067609246367291,-0.04868035432923553,0.037889920510831405,3.420012950897217,2019-06-18 15:59:11:954
0.379172682762146,-0.10585512220859528,9.582023620605469,0.024185809528744842,-0.05494031004735934,0.043217545143210495,3.4258956909179688,2019-06-18 15:59:11:960
0.48693642020225525,0.3850685656070709,10.151973724365234,0.008069750529373781,-0.019911190469004678,0.03096401015321426,3.430891990661621,2019-06-18 15:59:11:965
0.47496268153190613,0.4904375672340393,10.298053741455078,-0.012441597855442462,0.016449835267444757,0.010452662808695319,3.4350013732910156,2019-06-18 15:59:11:969
0.5013049244880676,0.08333010226488113,10.130420684814453,-0.01843517296612569,0.05081300124660337,0.0137824276837836,3.4408926963806152,2019-06-18 15:59:11:975
0.31690919399261475,-0.275882363319397,9.857419967651367,0.0026089368936460283,0.04988067016085867,0.02417129113961471,3.4458980560302734,2019-06-18 15:59:11:980
0.043907735496759415,-0.21840836107730865,9.541312217712402,0.009268465343450967,0.03895904236925451,0.03016486833089254,3.4508962631225586,2019-06-18 15:59:11:985
0.0008022411493584514,0.0857248529791832,9.349732398986816,0.008336131656963007,0.0008665378730663289,0.023771719188156546,3.455911636352539,2019-06-18 15:59:11:990
0.07264473289251328,0.20546233654022217,9.170125961303711,0.0006110783717082625,-0.021509478274837325,0.012450521525688828,3.4600095748901367,2019-06-18 15:59:11:994
0.024749737232923508,-0.00048613420221954584,9.56525993347168,0.0050063673020233745,-0.03429577239912011,0.005924183639678501,3.465911388397217,2019-06-18 15:59:12:000
0.27140894532203674,-0.22559259831905365,9.881366729736328,0.006338272939969498,-0.03163196216352516,0.011118615367594054,3.4709014892578125,2019-06-18 15:59:12:005
0.3839621841907501,-0.22559259831905365,10.18310546875,0.014063325640057009,-0.0016640829690684673,0.016979001214854298,3.475893497467041,2019-06-18 15:59:12:010
0.31690919399261475,0.009092864580452442,10.266921997070312,0.003141699148824477,0.03349822847345243,0.015647095056759524,3.4808950424194336,2019-06-18 15:59:12:015
0.2594352066516876,0.22701509296894073,10.168737411499023,-0.008978642676633891,0.05067980990258579,0.009120756650600545,3.48500919342041,2019-06-18 15:59:12:019
0.04151298478245735,0.042619358748197556,9.814313888549805,-0.012175216207704587,0.043887092969580835,-0.0035323471699619468,3.4900097846984863,2019-06-18 15:59:12:024
-0.1979619860649109,-0.2806718349456787,9.488628387451172,-0.0011203991526774412,0.020445551661134473,0.004725468305452665,3.4958925247192383,2019-06-18 15:59:12:030
-0.10935624688863754,-0.3477248251438141,9.263521194458008,0.014995659846693621,-0.011653376033887363,0.007389279581344911,3.500006675720215,2019-06-18 15:59:12:034
-0.14288273453712463,-0.06753912568092346,9.474259376525879,0.015395231798151783,-0.029767293750251937,-0.0022004415320158242,3.5059194564819336,2019-06-18 15:59:12:040
-0.039908502250909805,0.16235683858394623,9.77599811553955,0.003940842531592151,-0.029900485094269527,-0.016052260686804154,3.510915756225586,2019-06-18 15:59:12:045
0.17322422564029694,0.08811960369348526,9.991525650024414,-0.0011203991526774412,-0.011386994386149488,-0.017250976541178638,3.51589298248291,2019-06-18 15:59:12:050
0.2091454714536667,-0.20403985679149628,10.087315559387207,-0.0029850670458020133,0.01325326069607676,-0.012988877459453745,3.5200085639953613,2019-06-18 15:59:12:054
0.1947769671678543,-0.32377734780311584,10.037025451660156,0.002209365202262191,0.04082370870193313,-0.010058685576120925,3.5258941650390625,2019-06-18 15:59:12:060
0.024749737232923508,-0.06274962425231934,9.694576263427734,0.005272748429612599,0.04148966126083187,-0.016718213245702888,3.5308971405029297,2019-06-18 15:59:12:065
-0.20514623820781708,0.17433059215545654,9.591602325439453,-0.0036510198647750746,0.02404169714366333,-0.02164626488632652,3.53501033782959,2019-06-18 15:59:12:069
-0.22669897973537445,0.01867186278104782,9.421575546264648,-0.0021859236630343394,-0.010321469875792591,-0.030170460969181707,3.540896415710449,2019-06-18 15:59:12:075
-0.14288273453712463,-0.21361885964870453,9.48383903503418,0.004207223659181376,-0.03243110606644148,-0.030436843657216883,3.5458993911743164,2019-06-18 15:59:12:080
-0.04948750138282776,-0.28546133637428284,9.80473518371582,0.012331848570801374,-0.03256429532986447,-0.02444326646593905,3.550029754638672,2019-06-18 15:59:12:084
0.1564609706401825,-0.10106562077999115,10.06336784362793,0.012864610825979825,-0.010721041827250753,-0.0260415542717717,3.5559072494506836,2019-06-18 15:59:12:090
0.23069821298122406,0.14319884777069092,10.161552429199219,0.00021150663156048962,0.003796730406584962,-0.032168320726472514,3.560007095336914,2019-06-18 15:59:12:094
0.12053972482681274,0.10248810052871704,10.288474082946777,-0.009245024324371767,0.03562927541357162,-0.040958897416768274,3.5658926963806152,2019-06-18 15:59:12:100
