ACCELEROMETER X (m/s²),ACCELEROMETER Y (m/s²),ACCELEROMETER Z (m/s²),GYROSCOPE X (rad/s),GYROSCOPE Y (rad/s),GYROSCOPE Z (rad/s),Time since start in ms ,YYYY-MO-DD HH-MI-SS_SSS
0.4318571984767914,-0.30461934208869934,9.790366172790527,0.003141699148824477,0.008857972350928878,0.00166208520813942,0.0,2019-06-18 15:38:44:503
0.4031201899051666,-0.32856684923171997,9.8167085647583,0.00473998617443415,0.006593732506346145,-0.0014012980192109879,0.004140377044677734,2019-06-18 15:38:44:507
0.3935411870479584,-0.25911909341812134,9.744866371154785,0.0008774594992974871,0.0049954457408107975,-0.0003357734438355082,0.010014057159423828,2019-06-18 15:38:44:513
0.4198834300041199,-0.31659308075904846,9.797551155090332,-0.0015199708440612782,0.0061941605548879826,-0.0032659660423727224,0.014118671417236328,2019-06-18 15:38:44:517
0.371988445520401,-0.33575108647346497,9.807129859924316,0.0027421274574406405,0.009523924909827616,0.0027276098485334807,0.019145488739013672,2019-06-18 15:38:44:522
0.4390414357185364,-0.31659308075904846,9.797551155090332,-0.0013867802802666658,0.007792447840571981,0.0001969888601068769,0.025008678436279297,2019-06-18 15:38:44:528
0.424672931432724,-0.3141983449459076,9.740077018737793,0.0006110783717082625,0.010989021371642677,-0.005530205886955456,0.02911996841430664,2019-06-18 15:38:44:532
0.41509392857551575,-0.3118036091327667,9.823892593383789,0.0014102218194945173,0.005261826868400022,0.00326037210371193,0.035006046295166016,2019-06-18 15:38:44:538
0.42227819561958313,-0.30461934208869934,9.823892593383789,0.0007442689355028748,0.013386452040094348,-0.0023336320958104364,0.03912830352783203,2019-06-18 15:38:44:542
0.3767779469490051,-0.3477248251438141,9.742471694946289,0.0010106500630920993,0.01165497393054141,0.0021948473332807066,0.04501008987426758,2019-06-18 15:38:44:548
0.3839621841907501,-0.3118036091327667,9.790366172790527,0.0007442689355028748,0.009923496861285777,0.0017952757719340324,0.04927873611450195,2019-06-18 15:38:44:552
0.417488694190979,-0.28546133637428284,9.730497360229492,0.003541270840208314,0.0025980153324334514,0.002461228460869931,0.05501222610473633,2019-06-18 15:38:44:558
0.38875168561935425,-0.2926456034183502,9.716129302978516,-0.003118257609596625,0.009257544302387042,0.0069897081500354,0.05912065505981445,2019-06-18 15:38:44:562
0.364804208278656,-0.3405405879020691,9.761629104614258,0.0028753180212352527,0.00632735137875692,-0.0022004415320158242,0.06502676010131836,2019-06-18 15:38:44:568
0.3911464512348175,-0.3405405879020691,9.809524536132812,0.0030085085850298653,0.006726922810066432,0.0004633700039507468,0.06912040710449219,2019-06-18 15:38:44:572
0.4438309371471405,-0.36209332942962646,9.831077575683594,0.0023425557660568036,0.00686011363393537,0.0029939909761227054,0.07500600814819336,2019-06-18 15:38:44:578
0.371988445520401,-0.3525143265724182,9.811919212341309,0.0023425557660568036,0.010989021371642677,0.0031271815399173176,0.08000993728637695,2019-06-18 15:38:44:583
0.4198834300041199,-0.3596985936164856,9.814313888549805,0.006471463243689784,0.010056687165006064,0.00645694589485695,0.08412313461303711,2019-06-18 15:38:44:587
0.4126991927623749,-0.2878561019897461,9.756839752197266,0.0019429840746729666,0.005794589123578471,0.005125040256910827,0.08999967575073242,2019-06-18 15:38:44:593
0.43425193428993225,-0.31659308075904846,9.730497360229492,-0.0005876368324804107,0.006460541682477208,0.002860800412328093,0.09504365921020508,2019-06-18 15:38:44:598
0.4031201899051666,-0.31659308075904846,9.790366172790527,-5.487451634704159e-05,0.009390734606107327,0.004325896614068829,0.09912252426147461,2019-06-18 15:38:44:602
0.3935411870479584,-0.31659308075904846,9.773603439331055,0.0003446972116097473,0.006460541682477208,0.008721185219291034,0.10505247116088867,2019-06-18 15:38:44:608
0.3983306884765625,-0.275882363319397,9.826288223266602,-0.00045444623617650777,0.009923496861285777,-0.00020258286378625062,0.10913276672363281,2019-06-18 15:38:44:612
0.4510151743888855,-0.29025083780288696,9.821497917175293,7.831605963855469e-05,0.009390734606107327,0.008188422964112586,0.11501073837280273,2019-06-18 15:38:44:618
0.42706769704818726,-0.3333563506603241,9.819103240966797,0.0026089368936460283,0.009124352958369454,0.006323755070988013,0.12000703811645508,2019-06-18 15:38:44:623
0.44622567296028137,-0.3932250738143921,9.823892593383789,0.0027421274574406405,0.008991162654649167,0.006856517326166462,0.12411975860595703,2019-06-18 15:38:44:627
0.4126991927623749,-0.3118036091327667,9.783182144165039,0.005139557605743661,0.00632735137875692,0.0017952757719340324,0.1300044059753418,2019-06-18 15:38:44:633
0.417488694190979,-0.2663033604621887,9.785576820373535,0.0024757463298514157,0.009657115213547902,0.004725468305452665,0.13501501083374023,2019-06-18 15:38:44:638
0.4126991927623749,-0.2423558533191681,9.80473518371582,0.001143840691905293,0.008058828968161205,0.005391421384500052,0.1400294303894043,2019-06-18 15:38:44:643
0.4031201899051666,-0.3596985936164856,9.756839752197266,7.831605963855469e-05,0.007259685065244881,-0.005796587014544681,0.14412450790405273,2019-06-18 15:38:44:647
0.40790969133377075,-0.3980145752429962,9.790366172790527,0.0012770312556999051,0.007925638144292268,0.0013957039505130327,0.15000581741333008,2019-06-18 15:38:44:653
0.4390414357185364,-0.3333563506603241,9.759234428405762,0.0026089368936460283,0.010989021371642677,0.0029939909761227054,0.15412473678588867,2019-06-18 15:38:44:657
0.4366466999053955,-0.30940884351730347,9.811919212341309,0.0010106500630920993,0.005927779427298759,6.379828412128062e-05,0.1600031852722168,2019-06-18 15:38:44:663
0.4055149257183075,-0.2615138590335846,9.76402473449707,-0.0021859236630343394,0.003796730406584962,-0.0035323471699619468,0.16412115097045898,2019-06-18 15:38:44:667
0.3983306884765625,-0.3596985936164856,9.730497360229492,-0.0013867802802666658,0.005794589123578471,-0.0035323471699619468,0.17000675201416016,2019-06-18 15:38:44:673
0.4318571984767914,-0.4315410852432251,9.7352876663208,0.001143840691905293,0.008991162654649167,0.0008629416953345836,0.17412328720092773,2019-06-18 15:38:44:677
0.4198834300041199,-0.37646183371543884,9.80473518371582,0.0050063673020233745,0.006060970251167696,0.002461228460869931,0.18003177642822266,2019-06-18 15:38:44:683
0.4438309371471405,-0.2686980962753296,9.75444507598877,0.0014102218194945173,0.008058828968161205,-0.0024668226596050486,0.18502235412597656,2019-06-18 15:38:44:688
0.43425193428993225,-0.2806718349456787,9.756839752197266,0.0036744614040029266,0.0076592570167030435,-0.005263824759366232,0.18912458419799805,2019-06-18 15:38:44:692
0.40072545409202576,-0.2806718349456787,9.799945831298828,-0.00045444623617650777,0.006593732506346145,-0.0012681074554163755,0.1950068473815918,2019-06-18 15:38:44:698
0.4198834300041199,-0.3716723322868347,9.756839752197266,0.0014102218194945173,0.010855831067922388,-0.0003357734438355082,0.1991276741027832,2019-06-18 15:38:44:702
0.47256794571876526,-0.3453300893306732,9.77599811553955,0.004873176478154437,0.006060970251167696,-0.0031327754785781103,0.20412349700927734,2019-06-18 15:38:44:707
0.4438309371471405,-0.2734875977039337,9.814313888549805,0.0023425557660568036,0.00686011363393537,-0.0026000132233996607,0.20999670028686523,2019-06-18 15:38:44:713
0.40072545409202576,-0.2806718349456787,9.771208763122559,-0.0011203991526774412,0.007792447840571981,-0.0036655377337565594,0.21411371231079102,2019-06-18 15:38:44:717
0.4510151743888855,-0.30461934208869934,9.742471694946289,-0.0029850670458020133,0.010589449420184513,-0.004464681376598559,0.22000932693481445,2019-06-18 15:38:44:723
0.417488694190979,-0.3860408365726471,9.828682899475098,-0.0012535897164720534,0.008991162654649167,0.0008629416953345836,0.22415447235107422,2019-06-18 15:38:44:727
0.41509392857551575,-0.35490909218788147,9.77599811553955,0.0014102218194945173,0.005927779427298759,-0.0004689640076301205,0.2300095558166504,2019-06-18 15:38:44:733
0.3863569498062134,-0.32856684923171997,9.761629104614258,0.004473605046844925,0.005661398299709534,-0.0026000132233996607,0.23411893844604492,2019-06-18 15:38:44:737
0.3767779469490051,-0.28306660056114197,9.747261047363281,0.0027421274574406405,0.007259685065244881,-0.004331490552729621,0.23914098739624023,2019-06-18 15:38:44:742
0.424672931432724,-0.30461934208869934,9.785576820373535,-0.00018806509233263786,0.009257544302387042,-0.005530205886955456,0.24500608444213867,2019-06-18 15:38:44:748
0.39593595266342163,-0.32856684923171997,9.8167085647583,0.003541270840208314,0.004196302097968799,0.0052582305606311145,0.24912214279174805,2019-06-18 15:38:44:752
0.424672931432724,-0.35490909218788147,9.768814086914062,0.004207223659181376,0.008591591223339655,-0.002999584914783498,0.255007266998291,2019-06-18 15:38:44:758
0.41509392857551575,-0.2806718349456787,9.787971496582031,0.0030085085850298653,0.006593732506346145,-0.0012681074554163755,0.2600088119506836,2019-06-18 15:38:44:763
0.41509392857551575,-0.26390859484672546,9.835866928100586,0.0026089368936460283,0.006460541682477208,-0.0006021545714247328,0.26412153244018555,2019-06-18 15:38:44:767
0.417488694190979,-0.2663033604621887,9.77599811553955,0.0010106500630920993,0.005261826868400022,0.003793134358890379,0.2700228691101074,2019-06-18 15:38:44:773
0.4510151743888855,-0.3381458520889282,9.807129859924316,0.0019429840746729666,0.00686011363393537,-0.0015344885830056003,0.2741241455078125,2019-06-18 15:38:44:777
0.424672931432724,-0.3453300893306732,9.799945831298828,0.0004778877754043595,0.008192019271881493,0.002061656899523257,0.280031681060791,2019-06-18 15:38:44:783
0.417488694190979,-0.30222460627555847,9.752050399780273,0.004074033095386763,0.005794589123578471,0.008454804091701809,0.2841343879699707,2019-06-18 15:38:44:787
0.4438309371471405,-0.23277685046195984,9.706550598144531,0.0003446972116097473,0.008724781527059942,0.0004633700039507468,0.29000329971313477,2019-06-18 15:38:44:793
0.4438309371471405,-0.2998298406600952,9.759234428405762,0.002209365202262191,0.007392875889113818,0.0012625133867184206,0.29412317276000977,2019-06-18 15:38:44:797
0.43425193428993225,-0.33575108647346497,9.747261047363281,0.0026089368936460283,0.01125540197908325,0.003793134358890379,0.3000068664550781,2019-06-18 15:38:44:803
0.4366466999053955,-0.35011959075927734,9.720918655395508,0.0018097935108783545,0.007259685065244881,0.002061656899523257,0.3050112724304199,2019-06-18 15:38:44:808
0.42227819561958313,-0.30940884351730347,9.792760848999023,-0.0021859236630343394,0.0032639681514065122,0.0031271815399173176,0.3100123405456543,2019-06-18 15:38:44:813
0.4055149257183075,-0.2734875977039337,9.75444507598877,0.004207223659181376,0.01218773618571986,0.004459087177863441,0.3141298294067383,2019-06-18 15:38:44:817
0.41509392857551575,-0.28546133637428284,9.766419410705566,-0.0007208273962750229,0.007126494761524595,0.006856517326166462,0.320004940032959,2019-06-18 15:38:44:823
0.4318571984767914,-0.31659308075904846,9.740077018737793,0.001143840691905293,0.0061941605548879826,0.0027276098485334807,0.32413768768310547,2019-06-18 15:38:44:827
0.4318571984767914,-0.3333563506603241,9.77599811553955,0.002076174638467579,0.003397158715201125,0.006190564767267726,0.3291306495666504,2019-06-18 15:38:44:832
0.40790969133377075,-0.29025083780288696,9.768814086914062,-0.00018806509233263786,0.002864396460022676,0.0031271815399173176,0.3350081443786621,2019-06-18 15:38:44:838
0.4126991927623749,-0.28306660056114197,9.819103240966797,0.0010106500630920993,0.0039299209703795735,0.0031271815399173176,0.34001779556274414,2019-06-18 15:38:44:843
0.417488694190979,-0.2998298406600952,9.811919212341309,0.0012770312556999051,0.006593732506346145,-0.0026000132233996607,0.3441200256347656,2019-06-18 15:38:44:847
0.462988942861557,-0.32377734780311584,9.807129859924316,0.0030085085850298653,0.009124352958369454,0.004459087177863441,0.35087060928344727,2019-06-18 15:38:44:853
0.41509392857551575,-0.3477248251438141,9.76402473449707,-0.0020527330992397273,0.008058828968161205,-0.0010017262628085697,0.35430479049682617,2019-06-18 15:38:44:857
0.44143617153167725,-0.34293535351753235,9.773603439331055,0.0036744614040029266,0.0049954457408107975,0.0031271815399173176,0.3600344657897949,2019-06-18 15:38:44:863
0.42706769704818726,-0.29025083780288696,9.828682899475098,0.0024757463298514157,0.007526066192834106,0.0029939909761227054,0.3641228675842285,2019-06-18 15:38:44:867
0.4126991927623749,-0.3381458520889282,9.807129859924316,0.0030085085850298653,0.009657115213547902,0.004725468305452665,0.3700065612792969,2019-06-18 15:38:44:873
0.43425193428993225,-0.3118036091327667,9.835866928100586,-0.0015199708440612782,0.010456259116464226,0.002328037897075319,0.37412309646606445,2019-06-18 15:38:44:877
0.4294624328613281,-0.3261720836162567,9.809524536132812,-0.0005876368324804107,0.0039299209703795735,0.00326037210371193,0.3800086975097656,2019-06-18 15:38:44:883
0.3935411870479584,-0.31659308075904846,9.814313888549805,0.006338272939969498,0.009390734606107327,0.0031271815399173176,0.3841214179992676,2019-06-18 15:38:44:887
0.40790969133377075,-0.28546133637428284,9.773603439331055,0.0003446972116097473,0.008724781527059942,0.004192706050274216,0.3900027275085449,2019-06-18 15:38:44:893
0.4390414357185364,-0.29025083780288696,9.792760848999023,0.0019429840746729666,0.006060970251167696,0.0003301794401561345,0.3941178321838379,2019-06-18 15:38:44:897
0.3767779469490051,-0.30461934208869934,9.742471694946289,0.0006110783717082625,0.0076592570167030435,-0.0014012980192109879,0.40003299713134766,2019-06-18 15:38:44:903
0.40790969133377075,-0.30940884351730347,9.819103240966797,0.0032748897126190896,0.008591591223339655,0.0029939909761227054,0.4041323661804199,2019-06-18 15:38:44:907
0.3767779469490051,-0.3070141077041626,9.749655723571777,0.002076174638467579,0.008058828968161205,0.0004633700039507468,0.4100050926208496,2019-06-18 15:38:44:913
0.424672931432724,-0.2734875977039337,9.783182144165039,-0.0005876368324804107,0.007126494761524595,0.0031271815399173176,0.4141392707824707,2019-06-18 15:38:44:917
0.41509392857551575,-0.28306660056114197,9.802340507507324,0.001143840691905293,0.006593732506346145,0.0012625133867184206,0.42000532150268555,2019-06-18 15:38:44:923
0.3911464512348175,-0.31659308075904846,9.773603439331055,7.831605963855469e-05,0.005927779427298759,-0.003931918861345784,0.42412281036376953,2019-06-18 15:38:44:927
0.40072545409202576,-0.3381458520889282,9.80473518371582,0.004473605046844925,0.006060970251167696,0.0001969888601068769,0.4300045967102051,2019-06-18 15:38:44:933
0.3911464512348175,-0.34293535351753235,9.747261047363281,0.00021150663156048962,0.009523924909827616,0.003659943795095767,0.43412017822265625,2019-06-18 15:38:44:937
0.38875168561935425,-0.3525143265724182,9.787971496582031,0.0010106500630920993,0.008991162654649167,0.0007297511315399715,0.4400029182434082,2019-06-18 15:38:44:943
0.4055149257183075,-0.2950403392314911,9.75444507598877,0.0023425557660568036,0.01165497393054141,0.0013957039505130327,0.4441370964050293,2019-06-18 15:38:44:947
0.3839621841907501,-0.34293535351753235,9.7352876663208,0.0004778877754043595,0.008058828968161205,-0.0026000132233996607,0.450014591217041,2019-06-18 15:38:44:953
0.424672931432724,-0.3381458520889282,9.790366172790527,0.005672319860922111,0.007259685065244881,-0.0036655377337565594,0.45412254333496094,2019-06-18 15:38:44:957
0.4581994414329529,-0.33096158504486084,9.756839752197266,0.003141699148824477,0.0061941605548879826,-0.0011349168916217633,0.459139347076416,2019-06-18 15:38:44:962
0.417488694190979,-0.34293535351753235,9.783182144165039,0.002076174638467579,0.008192019271881493,0.0001969888601068769,0.4650082588195801,2019-06-18 15:38:44:968
0.3935411870479584,-0.3070141077041626,9.77599811553955,0.004074033095386763,0.008991162654649167,-0.00020258286378625062,0.46912431716918945,2019-06-18 15:38:44:972
0.3767779469490051,-0.3381458520889282,9.76402473449707,0.0014102218194945173,0.005261826868400022,-0.003931918861345784,0.4750065803527832,2019-06-18 15:38:44:978
0.40790969133377075,-0.2926456034183502,9.749655723571777,0.001676602947083742,0.004595873789352636,0.0001969888601068769,0.47912073135375977,2019-06-18 15:38:44:982
0.4126991927623749,-0.3189878463745117,9.838261604309082,0.0050063673020233745,0.012587308137178023,-0.0003357734438355082,0.48500537872314453,2019-06-18 15:38:44:988
0.4055149257183075,-0.2926456034183502,9.84544563293457,0.0027421274574406405,0.008724781527059942,0.0011293228229238084,0.49001073837280273,2019-06-18 15:38:44:993
0.3983306884765625,-0.33575108647346497,9.823892593383789,0.00154341238328913,0.011122211675362963,-0.0032659660423727224,0.4941258430480957,2019-06-18 15:38:44:997
0.40072545409202576,-0.3213825821876526,9.802340507507324,-0.0023191142268289516,0.00832521009575043,-0.00020258286378625062,0.500007152557373,2019-06-18 15:38:45:003
0.4126991927623749,-0.30940884351730347,9.819103240966797,0.0030085085850298653,0.008058828968161205,0.00166208520813942,0.5050115585327148,2019-06-18 15:38:45:008
0.44143617153167725,-0.2998298406600952,9.742471694946289,0.0006110783717082625,0.004329492661763411,-0.005530205886955456,0.5091238021850586,2019-06-18 15:38:45:012
0.4031201899051666,-0.2878561019897461,9.828682899475098,0.00021150663156048962,0.0061941605548879826,0.0029939909761227054,0.5150089263916016,2019-06-18 15:38:45:018
0.44143617153167725,-0.30222460627555847,9.7352876663208,-0.0020527330992397273,0.008058828968161205,-0.0023336320958104364,0.5200057029724121,2019-06-18 15:38:45:023
0.4366466999053955,-0.3141983449459076,9.799945831298828,-0.0013867802802666658,0.005927779427298759,-0.0041982999889350085,0.5241236686706543,2019-06-18 15:38:45:027
0.40790969133377075,-0.33096158504486084,9.77599811553955,-0.0033846387371858503,0.00832521009575043,-0.0003357734438355082,0.5300021171569824,2019-06-18 15:38:45:033
0.38875168561935425,-0.3477248251438141,9.790366172790527,0.0036744614040029266,0.004196302097968799,-0.0016676791468002124,0.5350222587585449,2019-06-18 15:38:45:038
0.39593595266342163,-0.35490909218788147,9.747261047363281,-5.487451634704159e-05,0.005661398299709534,0.0005965605677453591,0.5391240119934082,2019-06-18 15:38:45:042
0.40790969133377075,-0.3261720836162567,9.83347225189209,0.0004778877754043595,0.00832521009575043,0.00166208520813942,0.5450081825256348,2019-06-18 15:38:45:048
0.4366466999053955,-0.3189878463745117,9.740077018737793,0.004473605046844925,0.008591591223339655,-0.0023336320958104364,0.5491242408752441,2019-06-18 15:38:45:052
0.4366466999053955,-0.30940884351730347,9.752050399780273,0.0008774594992974871,0.009124352958369454,-0.0023336320958104364,0.5550084114074707,2019-06-18 15:38:45:058
0.4055149257183075,-0.34293535351753235,9.787971496582031,0.0034080802764137014,0.006993303937655657,0.0007297511315399715,0.5591187477111816,2019-06-18 15:38:45:062
0.4126991927623749,-0.3189878463745117,9.797551155090332,0.002209365202262191,0.005927779427298759,-0.004464681376598559,0.5650105476379395,2019-06-18 15:38:45:068
0.3935411870479584,-0.3477248251438141,9.768814086914062,0.0003446972116097473,0.0023316342048442266,0.002328037897075319,0.5691208839416504,2019-06-18 15:38:45:072
0.3983306884765625,-0.3261720836162567,9.809524536132812,0.005672319860922111,0.008192019271881493,-0.0012681074554163755,0.575005054473877,2019-06-18 15:38:45:078
0.4103044271469116,-0.35730382800102234,9.77599811553955,0.0027421274574406405,0.004729064613221573,-0.0006021545714247328,0.5800275802612305,2019-06-18 15:38:45:083
0.417488694190979,-0.32856684923171997,9.749655723571777,-0.0011203991526774412,0.0049954457408107975,-0.000735345135219345,0.5841212272644043,2019-06-18 15:38:45:087
0.4510151743888855,-0.36209332942962646,9.795156478881836,0.0026089368936460283,0.009257544302387042,6.379828412128062e-05,0.5900053977966309,2019-06-18 15:38:45:093
0.4438309371471405,-0.3261720836162567,9.773603439331055,0.002076174638467579,0.00686011363393537,-0.0010017262628085697,0.5941348075866699,2019-06-18 15:38:45:097
0.4366466999053955,-0.2998298406600952,9.785576820373535,0.0004778877754043595,0.008458400399470718,0.002461228460869931,0.6000094413757324,2019-06-18 15:38:45:103
0.3983306884765625,-0.3141983449459076,9.819103240966797,0.0007442689355028748,0.01032306881274394,-0.001934060274389437,0.604118824005127,2019-06-18 15:38:45:107
0.4366466999053955,-0.3118036091327667,9.792760848999023,0.0032748897126190896,0.007792447840571981,0.0027276098485334807,0.6100249290466309,2019-06-18 15:38:45:113
0.4294624328613281,-0.3118036091327667,9.752050399780273,0.002076174638467579,0.00832521009575043,0.00326037210371193,0.6141233444213867,2019-06-18 15:38:45:117
0.40072545409202576,-0.32856684923171997,9.785576820373535,-0.00018806509233263786,0.008991162654649167,0.00326037210371193,0.6200284957885742,2019-06-18 15:38:45:123
0.4198834300041199,-0.275882363319397,9.732892990112305,0.0028753180212352527,0.007392875889113818,-0.004065109425140397,0.6250219345092773,2019-06-18 15:38:45:128
0.3983306884765625,-0.2663033604621887,9.792760848999023,0.003541270840208314,0.003530349278995737,-0.0011349168916217633,0.6300044059753418,2019-06-18 15:38:45:133
0.4126991927623749,-0.32856684923171997,9.76402473449707,0.0007442689355028748,0.009390734606107327,0.0008629416953345836,0.6350083351135254,2019-06-18 15:38:45:138
0.4390414357185364,-0.2998298406600952,9.76402473449707,0.00154341238328913,0.009124352958369454,0.005524611688220339,0.6400265693664551,2019-06-18 15:38:45:143
0.38875168561935425,-0.34293535351753235,9.809524536132812,0.0012770312556999051,0.007925638144292268,0.0027276098485334807,0.6441206932067871,2019-06-18 15:38:45:147
0.40790969133377075,-0.28306660056114197,9.792760848999023,0.0030085085850298653,0.007526066192834106,0.008587994915570746,0.6500043869018555,2019-06-18 15:38:45:153
0.4103044271469116,-0.2878561019897461,9.766419410705566,0.002209365202262191,0.006726922810066432,-0.00020258286378625062,0.6550121307373047,2019-06-18 15:38:45:158
0.424672931432724,-0.3477248251438141,9.857419967651367,0.002076174638467579,0.006060970251167696,-0.0003357734438355082,0.659121036529541,2019-06-18 15:38:45:162
0.4198834300041199,-0.3333563506603241,9.778392791748047,-0.0003212556723818955,0.002864396460022676,-0.001934060274389437,0.665015697479248,2019-06-18 15:38:45:168
0.4126991927623749,-0.32377734780311584,9.718523979187012,0.00021150663156048962,0.006460541682477208,0.002061656899523257,0.669130802154541,2019-06-18 15:38:45:172
0.4103044271469116,-0.29743510484695435,9.752050399780273,0.0034080802764137014,0.0053950171721203095,-0.000735345135219345,0.6750087738037109,2019-06-18 15:38:45:178
0.42706769704818726,-0.30461934208869934,9.773603439331055,-0.00045444623617650777,0.010456259116464226,0.0017952757719340324,0.6791272163391113,2019-06-18 15:38:45:182
0.46059417724609375,-0.32856684923171997,9.821497917175293,0.0036744614040029266,0.006460541682477208,0.0027276098485334807,0.6841397285461426,2019-06-18 15:38:45:187
0.4653836786746979,-0.3213825821876526,9.732892990112305,0.005805510684791048,0.008058828968161205,0.00166208520813942,0.6900033950805664,2019-06-18 15:38:45:193
0.42227819561958313,-0.30940884351730347,9.773603439331055,-0.0003212556723818955,0.0076592570167030435,-0.003399156606167335,0.6941227912902832,2019-06-18 15:38:45:197
0.4390414357185364,-0.3118036091327667,9.814313888549805,0.0014102218194945173,0.008857972350928878,0.003393562667506543,0.7000041007995605,2019-06-18 15:38:45:203
0.44862043857574463,-0.32377734780311584,9.723313331604004,0.005405938733332886,0.006726922810066432,-0.0004689640076301205,0.7050080299377441,2019-06-18 15:38:45:208
0.43425193428993225,-0.32377734780311584,9.756839752197266,-0.0003212556723818955,0.007259685065244881,-0.0004689640076301205,0.7091221809387207,2019-06-18 15:38:45:212
0.3911464512348175,-0.31659308075904846,9.792760848999023,-0.0005876368324804107,0.009124352958369454,0.001528894514307645,0.7150130271911621,2019-06-18 15:38:45:218
0.417488694190979,-0.2950403392314911,9.799945831298828,0.005672319860922111,0.0011329190006555533,0.0011293228229238084,0.719123363494873,2019-06-18 15:38:45:222
0.3767779469490051,-0.29743510484695435,9.878972053527832,-0.00018806509233263786,0.0061941605548879826,-0.0023336320958104364,0.7250094413757324,2019-06-18 15:38:45:228
0.3839621841907501,-0.30222460627555847,9.809524536132812,0.0030085085850298653,0.009257544302387042,0.0001969888601068769,0.7300105094909668,2019-06-18 15:38:45:233
0.4126991927623749,-0.27827709913253784,9.795156478881836,0.0023425557660568036,0.010056687165006064,-0.0016676791468002124,0.7341256141662598,2019-06-18 15:38:45:237
0.4438309371471405,-0.30940884351730347,9.771208763122559,-5.487451634704159e-05,0.008058828968161205,-0.0011349168916217633,0.7400069236755371,2019-06-18 15:38:45:243
0.38875168561935425,-0.3213825821876526,9.759234428405762,0.0024757463298514157,0.003796730406584962,0.0027276098485334807,0.7441229820251465,2019-06-18 15:38:45:247
0.41509392857551575,-0.3333563506603241,9.785576820373535,0.005672319860922111,0.007925638144292268,0.0029939909761227054,0.7500061988830566,2019-06-18 15:38:45:253
0.3983306884765625,-0.3118036091327667,9.838261604309082,-0.0009872085238642476,0.005528207995989247,0.00166208520813942,0.7541403770446777,2019-06-18 15:38:45:257
0.4031201899051666,-0.3453300893306732,9.819103240966797,-0.0021859236630343394,0.008857972350928878,-0.000735345135219345,0.7600064277648926,2019-06-18 15:38:45:263
0.41509392857551575,-0.3118036091327667,9.792760848999023,0.002076174638467579,0.0039299209703795735,0.0027276098485334807,0.7650103569030762,2019-06-18 15:38:45:268
0.4581994414329529,-0.32377734780311584,9.799945831298828,0.0036744614040029266,0.005927779427298759,0.003659943795095767,0.7700047492980957,2019-06-18 15:38:45:273
0.379172682762146,-0.3261720836162567,9.828682899475098,-0.00045444623617650777,0.00832521009575043,0.002860800412328093,0.7741246223449707,2019-06-18 15:38:45:277
0.42227819561958313,-0.3333563506603241,9.778392791748047,0.0006110783717082625,0.01325326069607676,-0.0006021545714247328,0.7800068855285645,2019-06-18 15:38:45:283
0.44143617153167725,-0.2926456034183502,9.792760848999023,0.0004778877754043595,0.01032306881274394,0.002461228460869931,0.784123420715332,2019-06-18 15:38:45:287
0.42227819561958313,-0.3213825821876526,9.780787467956543,-0.0007208273962750229,0.005261826868400022,0.004592277481583728,0.7900042533874512,2019-06-18 15:38:45:293
0.4055149257183075,-0.2998298406600952,9.80473518371582,-0.0012535897164720534,0.005261826868400022,6.379828412128062e-05,0.7941184043884277,2019-06-18 15:38:45:297
0.40790969133377075,-0.2998298406600952,9.759234428405762,0.0014102218194945173,0.004462683485632349,0.0004633700039507468,0.8000273704528809,2019-06-18 15:38:45:303
0.4390414357185364,-0.27109286189079285,9.785576820373535,-0.0005876368324804107,0.0049954457408107975,0.005657802512089276,0.8041229248046875,2019-06-18 15:38:45:307
0.4126991927623749,-0.29025083780288696,9.847840309143066,0.0038076519677975387,0.010056687165006064,0.00499184943304189,0.810025691986084,2019-06-18 15:38:45:313
0.4126991927623749,-0.3118036091327667,9.843050956726074,0.002209365202262191,0.009523924909827616,0.004192706050274216,0.8141241073608398,2019-06-18 15:38:45:317
0.45340994000434875,-0.2950403392314911,9.80473518371582,0.0010106500630920993,0.0053950171721203095,0.0021948473332807066,0.8200216293334961,2019-06-18 15:38:45:323
0.39593595266342163,-0.30461934208869934,9.77599811553955,0.0014102218194945173,0.00832521009575043,0.0027276098485334807,0.8241209983825684,2019-06-18 15:38:45:327
0.40072545409202576,-0.34293535351753235,9.8167085647583,0.0030085085850298653,0.011122211675362963,0.00326037210371193,0.8300042152404785,2019-06-18 15:38:45:333
0.379172682762146,-0.29743510484695435,9.787971496582031,0.0012770312556999051,0.004329492661763411,0.005125040256910827,0.8350081443786621,2019-06-18 15:38:45:338
0.3983306884765625,-0.3261720836162567,9.811919212341309,0.005405938733332886,0.004196302097968799,0.007122898453755686,0.8400278091430664,2019-06-18 15:38:45:343
0.34325143694877625,-0.2998298406600952,9.780787467956543,-0.0016531614078558903,0.0053950171721203095,0.0019284663357286445,0.8441376686096191,2019-06-18 15:38:45:347
0.35043570399284363,-0.3525143265724182,9.747261047363281,-5.487451634704159e-05,0.0076592570167030435,0.007655660708934136,0.8500051498413086,2019-06-18 15:38:45:353
0.4318571984767914,-0.2878561019897461,9.740077018737793,0.005938700988511335,0.007392875889113818,0.0035267532313011545,0.8541197776794434,2019-06-18 15:38:45:357
0.41509392857551575,-0.31659308075904846,9.766419410705566,-0.00045444623617650777,0.008724781527059942,-0.006728920701032642,0.8600296974182129,2019-06-18 15:38:45:363
0.40072545409202576,-0.30461934208869934,9.807129859924316,-0.00018806509233263786,0.00832521009575043,0.004459087177863441,0.8641376495361328,2019-06-18 15:38:45:367
0.41509392857551575,-0.27827709913253784,9.840656280517578,0.001143840691905293,0.008058828968161205,0.005924183639678501,0.8700060844421387,2019-06-18 15:38:45:373
0.40072545409202576,-0.3453300893306732,9.761629104614258,0.0024757463298514157,0.006993303937655657,0.003926324922684992,0.8750095367431641,2019-06-18 15:38:45:378
0.4294624328613281,-0.32856684923171997,9.773603439331055,0.00021150663156048962,0.0076592570167030435,0.0008629416953345836,0.8800053596496582,2019-06-18 15:38:45:383
0.3911464512348175,-0.3477248251438141,9.773603439331055,0.001676602947083742,0.005528207995989247,0.003793134358890379,0.8841366767883301,2019-06-18 15:38:45:387
0.417488694190979,-0.3405405879020691,9.77599811553955,0.003541270840208314,0.012054545881999576,-0.000735345135219345,0.8891315460205078,2019-06-18 15:38:45:392
0.3935411870479584,-0.35011959075927734,9.716129302978516,0.0024757463298514157,0.004063111534174186,0.0067233270224461746,0.8950085639953613,2019-06-18 15:38:45:398
0.379172682762146,-0.3261720836162567,9.718523979187012,-0.00018806509233263786,0.00632735137875692,-0.0011349168916217633,0.9000039100646973,2019-06-18 15:38:45:403
0.3911464512348175,-0.3477248251438141,9.792760848999023,0.0024757463298514157,0.009923496861285777,0.0008629416953345836,0.9041352272033691,2019-06-18 15:38:45:407
0.417488694190979,-0.3525143265724182,9.819103240966797,0.0003446972116097473,0.007392875889113818,-0.0016676791468002124,0.9100384712219238,2019-06-18 15:38:45:413
0.4031201899051666,-0.3405405879020691,9.780787467956543,0.0027421274574406405,0.006593732506346145,-0.000735345135219345,0.9141216278076172,2019-06-18 15:38:45:417
0.4198834300041199,-0.3525143265724182,9.773603439331055,-0.0019195425354451149,0.00979030655756549,-0.001934060274389437,0.9200034141540527,2019-06-18 15:38:45:423
0.417488694190979,-0.33575108647346497,9.75444507598877,0.004074033095386763,0.007526066192834106,-0.0015344885830056003,0.9250082969665527,2019-06-18 15:38:45:428
0.43425193428993225,-0.32856684923171997,9.787971496582031,0.006338272939969498,0.005528207995989247,-0.0027332037871942733,0.9291214942932129,2019-06-18 15:38:45:432
0.46059417724609375,-0.33575108647346497,9.71373462677002,-0.004183782119953524,0.008458400399470718,-0.002999584914783498,0.9350085258483887,2019-06-18 15:38:45:438
0.42227819561958313,-0.2926456034183502,9.780787467956543,0.0024757463298514157,0.0032639681514065122,-0.004997443631777007,0.939124584197998,2019-06-18 15:38:45:442
0.417488694190979,-0.29743510484695435,9.792760848999023,0.0003446972116097473,0.007925638144292268,-0.0031327754785781103,0.9450058937072754,2019-06-18 15:38:45:448
0.4390414357185364,-0.32377734780311584,9.77599811553955,0.0036744614040029266,0.006460541682477208,-0.01072463813501966,0.9491486549377441,2019-06-18 15:38:45:452
0.44622567296028137,-0.32856684923171997,9.783182144165039,7.831605963855469e-05,0.009257544302387042,-0.004731062504187783,0.9550199508666992,2019-06-18 15:38:45:458
0.4318571984767914,-0.30940884351730347,9.716129302978516,0.0004778877754043595,0.010589449420184513,-0.000735345135219345,0.9600062370300293,2019-06-18 15:38:45:463
0.4390414357185364,-0.3333563506603241,9.744866371154785,7.831605963855469e-05,0.011521783626821125,-0.0041982999889350085,0.9641199111938477,2019-06-18 15:38:45:467
0.4031201899051666,-0.3141983449459076,9.802340507507324,0.0036744614040029266,0.00832521009575043,-0.0011349168916217633,0.970008373260498,2019-06-18 15:38:45:473
0.4366466999053955,-0.30222460627555847,9.71373462677002,0.006338272939969498,0.008192019271881493,-0.0015344885830056003,0.9750080108642578,2019-06-18 15:38:45:478
0.3863569498062134,-0.3141983449459076,9.728102684020996,0.0038076519677975387,0.0053950171721203095,-0.0003357734438355082,0.9791231155395508,2019-06-18 15:38:45:482
0.417488694190979,-0.2998298406600952,9.771208763122559,0.00021150663156048962,0.0016656812558340024,-0.004464681376598559,0.9850106239318848,2019-06-18 15:38:45:488
0.424672931432724,-0.3261720836162567,9.744866371154785,0.001676602947083742,0.006993303937655657,-0.00020258286378625062,0.9891209602355957,2019-06-18 15:38:45:492
0.43425193428993225,-0.28306660056114197,9.787971496582031,0.0028753180212352527,0.007526066192834106,0.003659943795095767,0.9950098991394043,2019-06-18 15:38:45:498
0.4031201899051666,-0.2998298406600952,9.8167085647583,-0.0003212556723818955,0.007126494761524595,0.0003301794401561345,0.9991250038146973,2019-06-18 15:38:45:502
0.3767779469490051,-0.30461934208869934,9.785576820373535,0.0026089368936460283,0.00979030655756549,0.0004633700039507468,1.0050063133239746,2019-06-18 15:38:45:508
0.40072545409202576,-0.3333563506603241,9.766419410705566,-0.0012535897164720534,0.0076592570167030435,0.0035267532313011545,1.010007381439209,2019-06-18 15:38:45:513
0.41509392857551575,-0.32856684923171997,9.792760848999023,0.0038076519677975387,0.007259685065244881,0.0001969888601068769,1.0141239166259766,2019-06-18 15:38:45:517
0.3839621841907501,-0.30940884351730347,9.76402473449707,0.0007442689355028748,0.00486225491694186,0.003659943795095767,1.020031452178955,2019-06-18 15:38:45:523
0.4103044271469116,-0.2998298406600952,9.790366172790527,-0.00045444623617650777,0.005261826868400022,-0.0011349168916217633,1.0241246223449707,2019-06-18 15:38:45:527
0.4318571984767914,-0.2734875977039337,9.840656280517578,0.0010106500630920993,0.00632735137875692,0.005391421384500052,1.0300030708312988,2019-06-18 15:38:45:533
0.3863569498062134,-0.3070141077041626,9.773603439331055,0.003141699148824477,0.00486225491694186,0.00326037210371193,1.03411865234375,2019-06-18 15:38:45:537
0.42706769704818726,-0.2926456034183502,9.792760848999023,0.0018097935108783545,0.007526066192834106,0.004725468305452665,1.0400094985961914,2019-06-18 15:38:45:543
0.4294624328613281,-0.3381458520889282,9.80473518371582,0.0012770312556999051,0.00686011363393537,0.0031271815399173176,1.0450072288513184,2019-06-18 15:38:45:548
0.424672931432724,-0.3118036091327667,9.881366729736328,0.0027421274574406405,0.007925638144292268,0.002061656899523257,1.05000638961792,2019-06-18 15:38:45:553
0.42227819561958313,-0.3261720836162567,9.802340507507324,0.0012770312556999051,0.012587308137178023,0.0031271815399173176,1.0550103187561035,2019-06-18 15:38:45:558
0.4653836786746979,-0.30940884351730347,9.780787467956543,0.003541270840208314,0.007792447840571981,0.000996132259129196,1.0600056648254395,2019-06-18 15:38:45:563
0.4438309371471405,-0.29743510484695435,9.802340507507324,0.005405938733332886,0.001399300128244778,0.0019284663357286445,1.0641217231750488,2019-06-18 15:38:45:567
0.3911464512348175,-0.3596985936164856,9.797551155090332,0.0030085085850298653,0.005528207995989247,-0.000735345135219345,1.070004940032959,2019-06-18 15:38:45:573
0.40790969133377075,-0.3141983449459076,9.80473518371582,0.0014102218194945173,0.00979030655756549,-0.002999584914783498,1.0741205215454102,2019-06-18 15:38:45:577
0.4366466999053955,-0.30461934208869934,9.761629104614258,0.0006110783717082625,0.012587308137178023,-0.0016676791468002124,1.080003261566162,2019-06-18 15:38:45:583
0.424672931432724,-0.3141983449459076,9.799945831298828,0.001676602947083742,0.010855831067922388,-0.00020258286378625062,1.0841221809387207,2019-06-18 15:38:45:587
0.4581994414329529,-0.3213825821876526,9.787971496582031,0.0010106500630920993,0.009124352958369454,-0.004997443631777007,1.090003490447998,2019-06-18 15:38:45:593
0.42227819561958313,-0.3213825821876526,9.787971496582031,-0.0013867802802666658,0.009124352958369454,0.0027276098485334807,1.0941214561462402,2019-06-18 15:38:45:597
0.40072545409202576,-0.28306660056114197,9.780787467956543,0.0030085085850298653,0.01325326069607676,0.0013957039505130327,1.1000027656555176,2019-06-18 15:38:45:603
0.3911464512348175,-0.3141983449459076,9.773603439331055,0.0032748897126190896,0.008192019271881493,-0.0004689640076301205,1.1041207313537598,2019-06-18 15:38:45:607
0.43425193428993225,-0.3118036091327667,9.677813529968262,-0.0023191142268289516,0.009124352958369454,-0.0010017262628085697,1.1100249290466309,2019-06-18 15:38:45:613
0.3983306884765625,-0.3118036091327667,9.761629104614258,-0.0017863519716505025,0.006593732506346145,-0.0026000132233996607,1.1150097846984863,2019-06-18 15:38:45:618
0.4031201899051666,-0.33575108647346497,9.83347225189209,0.004074033095386763,0.005794589123578471,-0.0015344885830056003,1.1191201210021973,2019-06-18 15:38:45:622
0.4294624328613281,-0.25911909341812134,9.890946388244629,0.0018097935108783545,0.008458400399470718,-0.0024668226596050486,1.1250338554382324,2019-06-18 15:38:45:628
0.4294624328613281,-0.3261720836162567,9.77599811553955,0.005405938733332886,0.005528207995989247,0.0040595154864796045,1.130007266998291,2019-06-18 15:38:45:633
0.41509392857551575,-0.33096158504486084,9.855024337768555,0.0023425557660568036,0.008991162654649167,-0.0003357734438355082,1.1341195106506348,2019-06-18 15:38:45:637
0.4558046758174896,-0.3381458520889282,9.749655723571777,0.0028753180212352527,0.011388593323100838,-0.0016676791468002124,1.1400046348571777,2019-06-18 15:38:45:643
0.43425193428993225,-0.31659308075904846,9.847840309143066,0.0008774594992974871,0.007259685065244881,0.0012625133867184206,1.1441216468811035,2019-06-18 15:38:45:647
0.424672931432724,-0.30222460627555847,9.785576820373535,0.0032748897126190896,0.006726922810066432,6.379828412128062e-05,1.1500043869018555,2019-06-18 15:38:45:653
0.424672931432724,-0.3381458520889282,9.780787467956543,0.001143840691905293,0.008991162654649167,0.0005965605677453591,1.1541237831115723,2019-06-18 15:38:45:657
0.4390414357185364,-0.32377734780311584,9.797551155090332,0.0038076519677975387,0.006593732506346145,0.0025944190246645436,1.1600074768066406,2019-06-18 15:38:45:663
0.4103044271469116,-0.3141983449459076,9.716129302978516,-5.487451634704159e-05,0.008058828968161205,0.0029939909761227054,1.1641201972961426,2019-06-18 15:38:45:667
0.44143617153167725,-0.35730382800102234,9.780787467956543,-0.00018806509233263786,0.006593732506346145,0.002461228460869931,1.1700005531311035,2019-06-18 15:38:45:673
0.40072545409202576,-0.2926456034183502,9.761629104614258,-0.0016531614078558903,0.008058828968161205,-0.0016676791468002124,1.1741228103637695,2019-06-18 15:38:45:677
0.44143617153167725,-0.3118036091327667,9.795156478881836,-0.00045444623617650777,0.007792447840571981,-0.0008685356990139574,1.1800036430358887,2019-06-18 15:38:45:683
0.4103044271469116,-0.2950403392314911,9.766419410705566,0.0003446972116097473,0.006060970251167696,0.0012625133867184206,1.184119701385498,2019-06-18 15:38:45:687
0.4294624328613281,-0.2998298406600952,9.792760848999023,-0.0007208273962750229,0.00686011363393537,0.0021948473332807066,1.190004825592041,2019-06-18 15:38:45:693
0.40790969133377075,-0.2926456034183502,9.814313888549805,0.00154341238328913,0.006993303937655657,0.0017952757719340324,1.1941266059875488,2019-06-18 15:38:45:697
0.42706769704818726,-0.31659308075904846,9.761629104614258,0.005139557605743661,0.007925638144292268,0.005790992815809564,1.2000069618225098,2019-06-18 15:38:45:703
0.417488694190979,-0.29743510484695435,9.831077575683594,7.831605963855469e-05,0.01165497393054141,0.0027276098485334807,1.2041220664978027,2019-06-18 15:38:45:707
0.424672931432724,-0.2686980962753296,9.807129859924316,0.0018097935108783545,0.0076592570167030435,0.0025944190246645436,1.2100296020507812,2019-06-18 15:38:45:713
0.44622567296028137,-0.3070141077041626,9.768814086914062,0.0014102218194945173,0.0031307775876119005,0.0003301794401561345,1.2141242027282715,2019-06-18 15:38:45:717
0.4390414357185364,-0.30461934208869934,9.728102684020996,0.004207223659181376,0.00832521009575043,0.002860800412328093,1.2200074195861816,2019-06-18 15:38:45:723
0.424672931432724,-0.28546133637428284,9.790366172790527,0.0010106500630920993,0.008058828968161205,6.379828412128062e-05,1.2241201400756836,2019-06-18 15:38:45:727
0.38875168561935425,-0.2950403392314911,9.814313888549805,0.0038076519677975387,0.007126494761524595,0.004858658609172953,1.2300071716308594,2019-06-18 15:38:45:733
0.4318571984767914,-0.33096158504486084,9.797551155090332,0.0007442689355028748,0.0036635398427903496,0.0004633700039507468,1.2341217994689941,2019-06-18 15:38:45:737
0.3863569498062134,-0.30940884351730347,9.819103240966797,-0.0020527330992397273,0.008458400399470718,0.005391421384500052,1.2400007247924805,2019-06-18 15:38:45:743
0.379172682762146,-0.3381458520889282,9.795156478881836,0.006338272939969498,0.009124352958369454,0.0007297511315399715,1.2441201210021973,2019-06-18 15:38:45:747
0.3935411870479584,-0.3261720836162567,9.831077575683594,0.006871035195147947,0.007925638144292268,0.0029939909761227054,1.2500009536743164,2019-06-18 15:38:45:753
0.37438318133354187,-0.33575108647346497,9.771208763122559,0.0006110783717082625,0.0039299209703795735,0.002061656899523257,1.2541227340698242,2019-06-18 15:38:45:757
0.40072545409202576,-0.32856684923171997,9.799945831298828,-0.0023191142268289516,0.007259685065244881,0.0008629416953345836,1.2600054740905762,2019-06-18 15:38:45:763
0.4055149257183075,-0.30940884351730347,9.847840309143066,0.0006110783717082625,0.00486225491694186,0.0011293228229238084,1.2641215324401855,2019-06-18 15:38:45:767
0.424672931432724,-0.3477248251438141,9.83347225189209,-0.0003212556723818955,0.008058828968161205,-0.0003357734438355082,1.2700042724609375,2019-06-18 15:38:45:773
0.42227819561958313,-0.3189878463745117,9.831077575683594,0.0007442689355028748,0.009523924909827616,-0.0006021545714247328,1.274120807647705,2019-06-18 15:38:45:777
0.40790969133377075,-0.3453300893306732,9.792760848999023,0.00154341238328913,0.009523924909827616,0.0003301794401561345,1.2800068855285645,2019-06-18 15:38:45:783
0.4318571984767914,-0.30461934208869934,9.869393348693848,-0.0009872085238642476,0.007392875889113818,-0.000735345135219345,1.2841238975524902,2019-06-18 15:38:45:787
0.4103044271469116,-0.2926456034183502,9.778392791748047,-0.0011203991526774412,0.007792447840571981,0.0007297511315399715,1.2900023460388184,2019-06-18 15:38:45:793
0.42227819561958313,-0.3118036091327667,9.77599811553955,0.0030085085850298653,0.006726922810066432,-0.0016676791468002124,1.2941346168518066,2019-06-18 15:38:45:797
0.4055149257183075,-0.33096158504486084,9.759234428405762,0.0024757463298514157,0.008458400399470718,0.006190564767267726,1.3000149726867676,2019-06-18 15:38:45:803
0.4126991927623749,-0.3644880950450897,9.761629104614258,0.003940842531592151,0.00686011363393537,0.0011293228229238084,1.3050103187561035,2019-06-18 15:38:45:808
0.42706769704818726,-0.28306660056114197,9.771208763122559,-0.004450163507617074,0.008591591223339655,0.00499184943304189,1.3100066184997559,2019-06-18 15:38:45:813
0.40072545409202576,-0.3213825821876526,9.780787467956543,0.003940842531592151,0.009923496861285777,0.002061656899523257,1.315004825592041,2019-06-18 15:38:45:818
0.4390414357185364,-0.32377734780311584,9.766419410705566,-0.0020527330992397273,0.0076592570167030435,0.005125040256910827,1.3191194534301758,2019-06-18 15:38:45:822
0.4103044271469116,-0.32377734780311584,9.759234428405762,-5.487451634704159e-05,0.007925638144292268,0.003926324922684992,1.3250102996826172,2019-06-18 15:38:45:828
0.41509392857551575,-0.2878561019897461,9.744866371154785,7.831605963855469e-05,0.010722639723904802,0.0025944190246645436,1.3300070762634277,2019-06-18 15:38:45:833
0.3935411870479584,-0.33575108647346497,9.787971496582031,0.003940842531592151,0.007925638144292268,-0.000735345135219345,1.3341193199157715,2019-06-18 15:38:45:837
0.4103044271469116,-0.2686980962753296,9.77599811553955,-0.0012535897164720534,0.006060970251167696,6.379828412128062e-05,1.3400044441223145,2019-06-18 15:38:45:843
0.4318571984767914,-0.33096158504486084,9.759234428405762,0.004873176478154437,0.00686011363393537,0.0027276098485334807,1.3441228866577148,2019-06-18 15:38:45:847
0.4510151743888855,-0.3189878463745117,9.8167085647583,0.0012770312556999051,0.00979030655756549,0.004725468305452665,1.3500046730041504,2019-06-18 15:38:45:853
0.4438309371471405,-0.34293535351753235,9.790366172790527,0.004473605046844925,0.005661398299709534,-0.000735345135219345,1.3541216850280762,2019-06-18 15:38:45:857
0.40072545409202576,-0.2926456034183502,9.783182144165039,0.0014102218194945173,0.009257544302387042,0.0001969888601068769,1.3600068092346191,2019-06-18 15:38:45:863
0.4438309371471405,-0.35490909218788147,9.795156478881836,0.004340414222975988,0.008591591223339655,0.004325896614068829,1.3641228675842285,2019-06-18 15:38:45:867
0.4366466999053955,-0.2998298406600952,9.819103240966797,0.0018097935108783545,0.008591591223339655,-0.0006021545714247328,1.370002269744873,2019-06-18 15:38:45:873
0.42227819561958313,-0.33096158504486084,9.783182144165039,-0.0027186859182127886,0.007392875889113818,-0.00020258286378625062,1.3741192817687988,2019-06-18 15:38:45:877
0.40072545409202576,-0.3405405879020691,9.835866928100586,-0.0005876368324804107,0.009390734606107327,0.005524611688220339,1.3800048828125,2019-06-18 15:38:45:883
0.4390414357185364,-0.36209332942962646,9.783182144165039,0.002209365202262191,0.007792447840571981,0.0004633700039507468,1.3841214179992676,2019-06-18 15:38:45:887
0.4438309371471405,-0.2878561019897461,9.773603439331055,0.004207223659181376,0.003530349278995737,-0.0014012980192109879,1.3900055885314941,2019-06-18 15:38:45:893
0.40790969133377075,-0.34293535351753235,9.799945831298828,0.00154341238328913,0.006993303937655657,-0.0018008697105948246,1.3950066566467285,2019-06-18 15:38:45:898
0.4055149257183075,-0.33096158504486084,9.77599811553955,0.0023425557660568036,0.004329492661763411,0.0011293228229238084,1.399120807647705,2019-06-18 15:38:45:902
0.3863569498062134,-0.26390859484672546,9.83347225189209,7.831605963855469e-05,0.005128636044531084,0.006057373943398788,1.4050045013427734,2019-06-18 15:38:45:908
0.4126991927623749,-0.3141983449459076,9.773603439331055,0.0018097935108783545,0.005661398299709534,0.0040595154864796045,1.4091229438781738,2019-06-18 15:38:45:912
0.4198834300041199,-0.3453300893306732,9.795156478881836,0.0007442689355028748,0.010189877468726351,0.001528894514307645,1.4150090217590332,2019-06-18 15:38:45:918
0.4103044271469116,-0.31659308075904846,9.838261604309082,0.003541270840208314,0.0076592570167030435,0.0011293228229238084,1.419121265411377,2019-06-18 15:38:45:922
0.41509392857551575,-0.3118036091327667,9.704155921936035,-0.00045444623617650777,0.010456259116464226,0.0019284663357286445,1.42500638961792,2019-06-18 15:38:45:928
0.38875168561935425,-0.3333563506603241,9.797551155090332,0.0004778877754043595,0.005794589123578471,-0.0010017262628085697,1.4291434288024902,2019-06-18 15:38:45:932
0.3767779469490051,-0.2806718349456787,9.766419410705566,0.004207223659181376,0.01165497393054141,0.004725468305452665,1.4350180625915527,2019-06-18 15:38:45:938
0.40790969133377075,-0.3261720836162567,9.778392791748047,0.0023425557660568036,0.008724781527059942,0.0040595154864796045,1.4391207695007324,2019-06-18 15:38:45:942
0.4510151743888855,-0.30461934208869934,9.749655723571777,0.001676602947083742,0.004729064613221573,-0.0027332037871942733,1.4450082778930664,2019-06-18 15:38:45:948
0.3935411870479584,-0.2806718349456787,9.756839752197266,-0.0011203991526774412,0.008458400399470718,0.003793134358890379,1.4500079154968262,2019-06-18 15:38:45:953
0.42227819561958313,-0.3788565993309021,9.795156478881836,0.0004778877754043595,0.005661398299709534,0.0035267532313011545,1.455007553100586,2019-06-18 15:38:45:958
0.41509392857551575,-0.2950403392314911,9.759234428405762,0.0007442689355028748,0.00686011363393537,-0.00486425280790807,1.4591217041015625,2019-06-18 15:38:45:962
0.3863569498062134,-0.32856684923171997,9.87418270111084,0.003940842531592151,0.008857972350928878,0.0013957039505130327,1.465010166168213,2019-06-18 15:38:45:968
0.4031201899051666,-0.3070141077041626,9.771208763122559,-0.0007208273962750229,0.010589449420184513,0.0025944190246645436,1.4700102806091309,2019-06-18 15:38:45:973
0.3935411870479584,-0.30461934208869934,9.728102684020996,0.0008774594992974871,0.011921355578279287,-0.005530205886955456,1.4741215705871582,2019-06-18 15:38:45:977
0.37438318133354187,-0.3070141077041626,9.780787467956543,0.00154341238328913,0.005128636044531084,0.0008629416953345836,1.480029582977295,2019-06-18 15:38:45:983
0.4031201899051666,-0.33096158504486084,9.787971496582031,-0.0011203991526774412,0.008458400399470718,0.001528894514307645,1.484123706817627,2019-06-18 15:38:45:987
0.424672931432724,-0.32377734780311584,9.811919212341309,0.0034080802764137014,0.006993303937655657,-0.0031327754785781103,1.4900050163269043,2019-06-18 15:38:45:993
0.38875168561935425,-0.35730382800102234,9.90291976928711,-0.0017863519716505025,0.005794589123578471,0.002328037897075319,1.4941205978393555,2019-06-18 15:38:45:997
0.3911464512348175,-0.3596985936164856,9.80473518371582,0.002076174638467579,0.010189877468726351,-0.00486425280790807,1.5000061988830566,2019-06-18 15:38:46:003
0.4198834300041199,-0.34293535351753235,9.80473518371582,0.003141699148824477,0.006726922810066432,0.002860800412328093,1.5041184425354004,2019-06-18 15:38:46:007
0.417488694190979,-0.374067097902298,9.787971496582031,0.0019429840746729666,0.007925638144292268,0.0003301794401561345,1.5100007057189941,2019-06-18 15:38:46:013
0.417488694190979,-0.33575108647346497,9.749655723571777,0.002076174638467579,0.006593732506346145,-0.0006021545714247328,1.514122486114502,2019-06-18 15:38:46:017
0.3983306884765625,-0.3453300893306732,9.831077575683594,-0.0007208273962750229,0.003530349278995737,0.005524611688220339,1.5200066566467285,2019-06-18 15:38:46:023
0.4294624328613281,-0.35490909218788147,9.785576820373535,-5.487451634704159e-05,0.008458400399470718,-0.001934060274389437,1.525007724761963,2019-06-18 15:38:46:028
0.4198834300041199,-0.29025083780288696,9.780787467956543,0.002076174638467579,0.006993303937655657,-0.0011349168916217633,1.529120922088623,2019-06-18 15:38:46:032
0.4198834300041199,-0.33575108647346497,9.778392791748047,0.004473605046844925,0.0039299209703795735,0.0027276098485334807,1.5350136756896973,2019-06-18 15:38:46:038
0.3839621841907501,-0.31659308075904846,9.787971496582031,0.005405938733332886,0.005528207995989247,0.004459087177863441,1.5400300025939941,2019-06-18 15:38:46:043
0.379172682762146,-0.2926456034183502,9.780787467956543,0.0024757463298514157,0.006060970251167696,-0.0016676791468002124,1.5441222190856934,2019-06-18 15:38:46:047
0.41509392857551575,-0.30940884351730347,9.749655723571777,0.003940842531592151,0.007792447840571981,0.0011293228229238084,1.550001621246338,2019-06-18 15:38:46:053
0.4390414357185364,-0.3141983449459076,9.747261047363281,0.0034080802764137014,0.007792447840571981,0.0013957039505130327,1.554121494293213,2019-06-18 15:38:46:057
0.40072545409202576,-0.29743510484695435,9.809524536132812,0.002209365202262191,0.009523924909827616,0.0013957039505130327,1.5600056648254395,2019-06-18 15:38:46:063
0.3863569498062134,-0.28306660056114197,9.773603439331055,0.0008774594992974871,0.007126494761524595,-0.0006021545714247328,1.5641226768493652,2019-06-18 15:38:46:067
0.4390414357185364,-0.31659308075904846,9.759234428405762,0.0010106500630920993,0.0061941605548879826,0.000996132259129196,1.570004940032959,2019-06-18 15:38:46:073
0.4294624328613281,-0.33575108647346497,9.718523979187012,-0.0007208273962750229,0.0031307775876119005,0.004459087177863441,1.5741219520568848,2019-06-18 15:38:46:077
0.4198834300041199,-0.30461934208869934,9.75444507598877,-5.487451634704159e-05,0.00979030655756549,0.0013957039505130327,1.5800457000732422,2019-06-18 15:38:46:083
0.417488694190979,-0.30940884351730347,9.742471694946289,0.0007442689355028748,0.004329492661763411,-0.0004689640076301205,1.5841355323791504,2019-06-18 15:38:46:087
0.44143617153167725,-0.3213825821876526,9.716129302978516,-0.003118257609596625,0.010189877468726351,0.001528894514307645,1.5900044441223145,2019-06-18 15:38:46:093
0.4198834300041199,-0.3405405879020691,9.756839752197266,0.004207223659181376,0.009257544302387042,0.006590136198577237,1.5941219329833984,2019-06-18 15:38:46:097
0.4318571984767914,-0.30461934208869934,9.740077018737793,0.007803369401784558,0.007392875889113818,0.004459087177863441,1.6000065803527832,2019-06-18 15:38:46:103
0.3911464512348175,-0.3477248251438141,9.759234428405762,0.001143840691905293,0.008724781527059942,0.0021948473332807066,1.6041221618652344,2019-06-18 15:38:46:107
0.41509392857551575,-0.31659308075904846,9.747261047363281,0.0010106500630920993,0.006993303937655657,0.003793134358890379,1.6100029945373535,2019-06-18 15:38:46:113
0.3935411870479584,-0.3070141077041626,9.795156478881836,7.831605963855469e-05,0.006460541682477208,0.007122898453755686,1.614121913909912,2019-06-18 15:38:46:117
0.40072545409202576,-0.2926456034183502,9.80473518371582,0.003940842531592151,0.0024648247686388392,0.0013957039505130327,1.620008945465088,2019-06-18 15:38:46:123
0.42227819561958313,-0.29025083780288696,9.778392791748047,0.00473998617443415,0.007259685065244881,0.0025944190246645436,1.624122142791748,2019-06-18 15:38:46:127
0.3983306884765625,-0.275882363319397,9.835866928100586,0.00021150663156048962,0.009124352958369454,0.006590136198577237,1.6300034523010254,2019-06-18 15:38:46:133
0.3935411870479584,-0.32377734780311584,9.814313888549805,0.003141699148824477,0.006060970251167696,0.00166208520813942,1.6341204643249512,2019-06-18 15:38:46:137
0.38875168561935425,-0.32377734780311584,9.76402473449707,0.0028753180212352527,0.012720498440898311,0.0003301794401561345,1.6391420364379883,2019-06-18 15:38:46:142
0.41509392857551575,-0.29743510484695435,9.728102684020996,0.0003446972116097473,0.006993303937655657,-0.0026000132233996607,1.6450095176696777,2019-06-18 15:38:46:148
0.4055149257183075,-0.3141983449459076,9.778392791748047,0.004207223659181376,0.009257544302387042,0.0027276098485334807,1.6500053405761719,2019-06-18 15:38:46:153
0.36959367990493774,-0.30222460627555847,9.716129302978516,0.0003446972116097473,0.012454117833457736,0.002061656899523257,1.6541228294372559,2019-06-18 15:38:46:157
0.39593595266342163,-0.32856684923171997,9.742471694946289,0.0023425557660568036,0.013919214295272795,0.0031271815399173176,1.6600041389465332,2019-06-18 15:38:46:163
0.37438318133354187,-0.30461934208869934,9.797551155090332,0.004074033095386763,0.006460541682477208,-0.0008685356990139574,1.6641216278076172,2019-06-18 15:38:46:167
0.4198834300041199,-0.3381458520889282,9.778392791748047,0.005272748429612599,0.008192019271881493,0.003926324922684992,1.670003890991211,2019-06-18 15:38:46:173
0.42227819561958313,-0.3453300893306732,9.783182144165039,0.0006110783717082625,0.002997587023817288,-0.0003357734438355082,1.6741232872009277,2019-06-18 15:38:46:177
0.38875168561935425,-0.30940884351730347,9.737682342529297,-0.0017863519716505025,0.009390734606107327,0.000996132259129196,1.6800432205200195,2019-06-18 15:38:46:183
0.4031201899051666,-0.32856684923171997,9.716129302978516,0.0032748897126190896,0.010722639723904802,-0.0003357734438355082,1.6841368675231934,2019-06-18 15:38:46:187
0.39593595266342163,-0.3141983449459076,9.744866371154785,0.00021150663156048962,0.008058828968161205,0.0029939909761227054,1.6900057792663574,2019-06-18 15:38:46:193
0.3983306884765625,-0.3644880950450897,9.744866371154785,0.0007442689355028748,0.010056687165006064,-0.0027332037871942733,1.694122314453125,2019-06-18 15:38:46:197
0.4366466999053955,-0.2998298406600952,9.799945831298828,0.0019429840746729666,0.005528207995989247,-0.0024668226596050486,1.7000045776367188,2019-06-18 15:38:46:203
0.4031201899051666,-0.3477248251438141,9.720918655395508,-0.0003212556723818955,0.005128636044531084,-0.0020672508381840496,1.7041230201721191,2019-06-18 15:38:46:207
0.4103044271469116,-0.3453300893306732,9.752050399780273,0.0023425557660568036,0.008857972350928878,0.004325896614068829,1.7100043296813965,2019-06-18 15:38:46:213
0.3935411870479584,-0.33096158504486084,9.819103240966797,0.0050063673020233745,0.007392875889113818,0.0031271815399173176,1.715017318725586,2019-06-18 15:38:46:218
0.424672931432724,-0.3070141077041626,9.766419410705566,0.001143840691905293,0.0036635398427903496,0.0008629416953345836,1.7191252708435059,2019-06-18 15:38:46:222
0.4438309371471405,-0.28546133637428284,9.732892990112305,0.001143840691905293,0.007126494761524595,0.0017952757719340324,1.7250280380249023,2019-06-18 15:38:46:228
0.40072545409202576,-0.3213825821876526,9.773603439331055,0.0023425557660568036,0.008724781527059942,-0.0011349168916217633,1.730024814605713,2019-06-18 15:38:46:233
0.4294624328613281,-0.3333563506603241,9.756839752197266,-0.0008540179600696353,0.011521783626821125,0.002461228460869931,1.7350106239318848,2019-06-18 15:38:46:238
0.37438318133354187,-0.31659308075904846,9.828682899475098,0.002209365202262191,0.008857972350928878,-0.0024668226596050486,1.7400078773498535,2019-06-18 15:38:46:243
0.3935411870479584,-0.36209332942962646,9.802340507507324,-0.0009872085238642476,0.0076592570167030435,-6.939229186431566e-05,1.7450079917907715,2019-06-18 15:38:46:248
0.379172682762146,-0.3525143265724182,9.771208763122559,0.0023425557660568036,0.006593732506346145,0.0040595154864796045,1.7500205039978027,2019-06-18 15:38:46:253
0.417488694190979,-0.32856684923171997,9.814313888549805,0.004473605046844925,0.006726922810066432,-0.0018008697105948246,1.754122257232666,2019-06-18 15:38:46:257
0.41509392857551575,-0.38364607095718384,9.80473518371582,-0.0007208273962750229,0.006460541682477208,6.379828412128062e-05,1.760014533996582,2019-06-18 15:38:46:263
0.39593595266342163,-0.33575108647346497,9.80473518371582,0.0028753180212352527,0.0049954457408107975,-0.0028663943509888855,1.7650103569030762,2019-06-18 15:38:46:268
0.3935411870479584,-0.3477248251438141,9.828682899475098,0.0008774594992974871,0.006993303937655657,-0.0036655377337565594,1.7700166702270508,2019-06-18 15:38:46:273
0.4318571984767914,-0.30222460627555847,9.802340507507324,-0.0032514481733912377,0.007126494761524595,-0.0011349168916217633,1.7750225067138672,2019-06-18 15:38:46:278
0.4294624328613281,-0.33575108647346497,9.787971496582031,0.0004778877754043595,0.008192019271881493,-0.0041982999889350085,1.7791218757629395,2019-06-18 15:38:46:282
0.42706769704818726,-0.3596985936164856,9.768814086914062,-0.0020527330992397273,0.008192019271881493,-0.003931918861345784,1.7850046157836914,2019-06-18 15:38:46:288
0.45340994000434875,-0.30461934208869934,9.84544563293457,-0.0008540179600696353,0.010056687165006064,-0.0024668226596050486,1.7900137901306152,2019-06-18 15:38:46:293
0.4821469187736511,-0.2998298406600952,9.783182144165039,0.0012770312556999051,0.00632735137875692,0.0013957039505130327,1.795011043548584,2019-06-18 15:38:46:298
0.4438309371471405,-0.2926456034183502,9.811919212341309,0.0030085085850298653,0.009390734606107327,-0.005929777318264968,1.7991247177124023,2019-06-18 15:38:46:302
0.41509392857551575,-0.3381458520889282,9.821497917175293,-0.0009872085238642476,0.009657115213547902,-0.0028663943509888855,1.805006504058838,2019-06-18 15:38:46:308
0.45340994000434875,-0.32856684923171997,9.7352876663208,0.0028753180212352527,0.006060970251167696,-0.0027332037871942733,1.8091301918029785,2019-06-18 15:38:46:312
0.4558046758174896,-0.30940884351730347,9.826288223266602,0.0010106500630920993,0.00686011363393537,-0.007528064083800316,1.8150200843811035,2019-06-18 15:38:46:318
0.4581994414329529,-0.27109286189079285,9.75444507598877,0.0003446972116097473,0.007126494761524595,-0.002999584914783498,1.820014476776123,2019-06-18 15:38:46:323
0.424672931432724,-0.3141983449459076,9.742471694946289,0.0012770312556999051,0.010456259116464226,-0.005263824759366232,1.8250079154968262,2019-06-18 15:38:46:328
0.417488694190979,-0.3333563506603241,9.821497917175293,0.0010106500630920993,0.005661398299709534,0.004725468305452665,1.8300127983093262,2019-06-18 15:38:46:333
0.4438309371471405,-0.3070141077041626,9.783182144165039,0.0004778877754043595,0.008192019271881493,-0.003399156606167335,1.835008144378662,2019-06-18 15:38:46:338
0.4055149257183075,-0.29743510484695435,9.835866928100586,0.0014102218194945173,0.007126494761524595,0.0008629416953345836,1.8391242027282715,2019-06-18 15:38:46:342
0.44143617153167725,-0.3141983449459076,9.77599811553955,-0.0003212556723818955,0.005661398299709534,0.000996132259129196,1.8450093269348145,2019-06-18 15:38:46:348
0.3863569498062134,-0.35011959075927734,9.809524536132812,-0.0017863519716505025,0.008591591223339655,0.000996132259129196,1.8491549491882324,2019-06-18 15:38:46:352
0.4366466999053955,-0.3261720836162567,9.77599811553955,0.002209365202262191,0.008458400399470718,-0.0035323471699619468,1.8550715446472168,2019-06-18 15:38:46:358
0.4438309371471405,-0.29025083780288696,9.778392791748047,0.003940842531592151,0.0027312058962280636,0.004192706050274216,1.8591523170471191,2019-06-18 15:38:46:362
0.4318571984767914,-0.25911909341812134,9.859814643859863,0.0006110783717082625,0.007925638144292268,0.002328037897075319,1.8650169372558594,2019-06-18 15:38:46:368
0.39593595266342163,-0.2806718349456787,9.756839752197266,0.0028753180212352527,0.007792447840571981,0.0007297511315399715,1.8700051307678223,2019-06-18 15:38:46:373
0.44622567296028137,-0.2950403392314911,9.797551155090332,0.0034080802764137014,0.01032306881274394,0.008321613787981522,1.8750624656677246,2019-06-18 15:38:46:378
0.42706769704818726,-0.29025083780288696,9.752050399780273,0.001676602947083742,0.008192019271881493,0.005790992815809564,1.8800292015075684,2019-06-18 15:38:46:383
0.42227819561958313,-0.29743510484695435,9.723313331604004,-0.00045444623617650777,0.0076592570167030435,0.006856517326166462,1.8841233253479004,2019-06-18 15:38:46:387
0.42706769704818726,-0.25911909341812134,9.75444507598877,0.0004778877754043595,0.008058828968161205,0.005125040256910827,1.890000820159912,2019-06-18 15:38:46:393
0.42706769704818726,-0.275882363319397,9.797551155090332,0.0036744614040029266,0.0053950171721203095,0.007122898453755686,1.8950104713439941,2019-06-18 15:38:46:398
0.4318571984767914,-0.28306660056114197,9.823892593383789,0.0026089368936460283,0.004329492661763411,0.001528894514307645,1.899125576019287,2019-06-18 15:38:46:402
0.42706769704818726,-0.2878561019897461,9.814313888549805,0.0012770312556999051,0.006726922810066432,0.000996132259129196,1.9050092697143555,2019-06-18 15:38:46:408
0.46777844429016113,-0.32856684923171997,9.843050956726074,0.0007442689355028748,0.0061941605548879826,0.007122898453755686,1.9091229438781738,2019-06-18 15:38:46:412
0.42227819561958313,-0.275882363319397,9.792760848999023,-0.0027186859182127886,0.006593732506346145,0.005524611688220339,1.9150385856628418,2019-06-18 15:38:46:418
0.3983306884765625,-0.3118036091327667,9.773603439331055,0.0004778877754043595,0.004196302097968799,0.0011293228229238084,1.9200091361999512,2019-06-18 15:38:46:423
0.4438309371471405,-0.33575108647346497,9.706550598144531,0.0007442689355028748,0.010056687165006064,0.004325896614068829,1.925011157989502,2019-06-18 15:38:46:428
0.4366466999053955,-0.34293535351753235,9.799945831298828,-0.0015199708440612782,0.0049954457408107975,0.002328037897075319,1.9291253089904785,2019-06-18 15:38:46:432
0.371988445520401,-0.30222460627555847,9.77599811553955,-0.0020527330992397273,0.008458400399470718,0.0003301794401561345,1.935011863708496,2019-06-18 15:38:46:438
0.4055149257183075,-0.30940884351730347,9.759234428405762,0.0006110783717082625,0.003796730406584962,0.0017952757719340324,1.939122200012207,2019-06-18 15:38:46:442
0.417488694190979,-0.30222460627555847,9.8167085647583,7.831605963855469e-05,0.00632735137875692,0.005657802512089276,1.945274829864502,2019-06-18 15:38:46:448
0.40790969133377075,-0.3070141077041626,9.718523979187012,0.0028753180212352527,0.003530349278995737,0.0008629416953345836,1.9500298500061035,2019-06-18 15:38:46:453
0.44622567296028137,-0.36927759647369385,9.797551155090332,0.003940842531592151,0.00486225491694186,0.0025944190246645436,1.9541230201721191,2019-06-18 15:38:46:457
0.417488694190979,-0.3118036091327667,9.807129859924316,0.0006110783717082625,0.009657115213547902,0.0027276098485334807,1.9600024223327637,2019-06-18 15:38:46:463
0.4294624328613281,-0.32377734780311584,9.785576820373535,0.004207223659181376,0.0076592570167030435,0.004459087177863441,1.964116096496582,2019-06-18 15:38:46:467
0.42227819561958313,-0.3213825821876526,9.823892593383789,0.00021150663156048962,0.011921355578279287,0.002860800412328093,1.9700112342834473,2019-06-18 15:38:46:473
0.4031201899051666,-0.30461934208869934,9.720918655395508,-0.0007208273962750229,0.009657115213547902,0.006590136198577237,1.9741225242614746,2019-06-18 15:38:46:477
0.40790969133377075,-0.3381458520889282,9.783182144165039,-0.0015199708440612782,0.008991162654649167,6.379828412128062e-05,1.9800019264221191,2019-06-18 15:38:46:483
0.3576199412345886,-0.2950403392314911,9.780787467956543,0.00021150663156048962,0.006060970251167696,6.379828412128062e-05,1.9850068092346191,2019-06-18 15:38:46:488
0.424672931432724,-0.31659308075904846,9.778392791748047,-0.0008540179600696353,0.006593732506346145,0.0005965605677453591,1.9891276359558105,2019-06-18 15:38:46:492
0.42227819561958313,-0.30940884351730347,9.80473518371582,-0.0003212556723818955,0.007526066192834106,0.0012625133867184206,1.995011329650879,2019-06-18 15:38:46:498
0.3576199412345886,-0.3644880950450897,9.790366172790527,0.0036744614040029266,0.004595873789352636,0.002328037897075319,1.9991235733032227,2019-06-18 15:38:46:502
0.4031201899051666,-0.31659308075904846,9.790366172790527,0.0004778877754043595,0.010189877468726351,0.004325896614068829,2.005007266998291,2019-06-18 15:38:46:508
0.3935411870479584,-0.3261720836162567,9.747261047363281,-0.0016531614078558903,0.009523924909827616,-0.0016676791468002124,2.0100107192993164,2019-06-18 15:38:46:513
0.40790969133377075,-0.3453300893306732,9.771208763122559,0.0034080802764137014,0.008991162654649167,0.0035267532313011545,2.0141444206237793,2019-06-18 15:38:46:517
0.3863569498062134,-0.3333563506603241,9.787971496582031,0.004473605046844925,0.007526066192834106,-6.939229186431566e-05,2.0200085639953613,2019-06-18 15:38:46:523
0.38875168561935425,-0.3261720836162567,9.807129859924316,0.0018097935108783545,0.006726922810066432,0.0012625133867184206,2.0241217613220215,2019-06-18 15:38:46:527
0.3935411870479584,-0.3189878463745117,9.737682342529297,0.0006110783717082625,0.002997587023817288,0.0021948473332807066,2.03001070022583,2019-06-18 15:38:46:533
0.36959367990493774,-0.31659308075904846,9.761629104614258,0.0030085085850298653,0.009257544302387042,6.379828412128062e-05,2.0341248512268066,2019-06-18 15:38:46:537
0.4126991927623749,-0.31659308075904846,9.835866928100586,0.0010106500630920993,0.008058828968161205,0.002061656899523257,2.0400118827819824,2019-06-18 15:38:46:543
0.424672931432724,-0.3381458520889282,9.83347225189209,-0.0017863519716505025,0.007259685065244881,-0.0028663943509888855,2.0441203117370605,2019-06-18 15:38:46:547
0.3983306884765625,-0.3405405879020691,9.778392791748047,-5.487451634704159e-05,0.012454117833457736,-0.004464681376598559,2.0500054359436035,2019-06-18 15:38:46:553
0.3863569498062134,-0.35011959075927734,9.771208763122559,-0.0008540179600696353,0.008058828968161205,-0.0035323471699619468,2.0550084114074707,2019-06-18 15:38:46:558
0.40790969133377075,-0.33096158504486084,9.778392791748047,-5.487451634704159e-05,0.008991162654649167,-0.0037987282975511715,2.059121608734131,2019-06-18 15:38:46:562
0.417488694190979,-0.2998298406600952,9.802340507507324,0.0003446972116097473,0.0061941605548879826,0.0019284663357286445,2.0650477409362793,2019-06-18 15:38:46:568
0.379172682762146,-0.2926456034183502,9.790366172790527,7.831605963855469e-05,0.004196302097968799,-0.0031327754785781103,2.0700249671936035,2019-06-18 15:38:46:573
0.4103044271469116,-0.3453300893306732,9.785576820373535,-0.0005876368324804107,0.005661398299709534,-0.000735345135219345,2.0750060081481934,2019-06-18 15:38:46:578
0.4198834300041199,-0.3596985936164856,9.8167085647583,0.00021150663156048962,0.005794589123578471,-0.000735345135219345,2.0800089836120605,2019-06-18 15:38:46:583
0.37438318133354187,-0.3525143265724182,9.783182144165039,0.00154341238328913,0.010056687165006064,0.0008629416953345836,2.0841212272644043,2019-06-18 15:38:46:587
0.3911464512348175,-0.29025083780288696,9.807129859924316,0.0006110783717082625,0.007259685065244881,-0.0035323471699619468,2.090001106262207,2019-06-18 15:38:46:593
0.39593595266342163,-0.2950403392314911,9.778392791748047,0.0010106500630920993,0.01165497393054141,-0.0028663943509888855,2.0950093269348145,2019-06-18 15:38:46:598
0.4126991927623749,-0.3381458520889282,9.71373462677002,-0.00018806509233263786,0.005661398299709534,0.0027276098485334807,2.099125385284424,2019-06-18 15:38:46:602
0.42227819561958313,-0.29743510484695435,9.756839752197266,0.00154341238328913,0.004063111534174186,-0.004464681376598559,2.105008125305176,2019-06-18 15:38:46:608
0.41509392857551575,-0.3070141077041626,9.761629104614258,0.002076174638467579,0.0039299209703795735,0.006856517326166462,2.109160900115967,2019-06-18 15:38:46:612
0.4198834300041199,-0.26390859484672546,9.847840309143066,-0.0040505915561589115,0.005927779427298759,-0.003399156606167335,2.115021228790283,2019-06-18 15:38:46:618
0.4198834300041199,-0.28546133637428284,9.807129859924316,-0.0009872085238642476,0.008724781527059942,-0.003931918861345784,2.119119167327881,2019-06-18 15:38:46:622
0.45340994000434875,-0.2998298406600952,9.823892593383789,-0.0008540179600696353,0.007126494761524595,6.379828412128062e-05,2.125007152557373,2019-06-18 15:38:46:628
0.43425193428993225,-0.2926456034183502,9.840656280517578,0.0032748897126190896,0.01032306881274394,-0.0022004415320158242,2.1291251182556152,2019-06-18 15:38:46:632
0.4055149257183075,-0.28546133637428284,9.71373462677002,0.001676602947083742,0.00832521009575043,0.0003301794401561345,2.135009288787842,2019-06-18 15:38:46:638
0.424672931432724,-0.33575108647346497,9.77599811553955,0.0018097935108783545,0.010056687165006064,0.0029939909761227054,2.1391215324401855,2019-06-18 15:38:46:642
0.44143617153167725,-0.27827709913253784,9.766419410705566,0.0007442689355028748,0.010056687165006064,-0.0018008697105948246,2.1450066566467285,2019-06-18 15:38:46:648
0.41509392857551575,-0.31659308075904846,9.737682342529297,7.831605963855469e-05,0.00979030655756549,0.0005965605677453591,2.1491265296936035,2019-06-18 15:38:46:652
0.44622567296028137,-0.25672435760498047,9.821497917175293,0.0007442689355028748,0.003397158715201125,-0.0012681074554163755,2.1550097465515137,2019-06-18 15:38:46:658
0.417488694190979,-0.3141983449459076,9.76402473449707,0.005272748429612599,0.007526066192834106,0.004592277481583728,2.1600089073181152,2019-06-18 15:38:46:663
0.4558046758174896,-0.2686980962753296,9.720918655395508,-0.00018806509233263786,0.008591591223339655,0.002061656899523257,2.164121627807617,2019-06-18 15:38:46:667
0.43425193428993225,-0.3405405879020691,9.790366172790527,-0.00045444623617650777,0.004462683485632349,6.379828412128062e-05,2.170006275177002,2019-06-18 15:38:46:673
0.43425193428993225,-0.3333563506603241,9.787971496582031,0.00154341238328913,0.00486225491694186,-0.004464681376598559,2.1741514205932617,2019-06-18 15:38:46:677
0.424672931432724,-0.33096158504486084,9.780787467956543,0.005405938733332886,0.010056687165006064,0.0027276098485334807,2.1800026893615723,2019-06-18 15:38:46:683
0.42706769704818726,-0.3189878463745117,9.795156478881836,0.0028753180212352527,0.008458400399470718,0.0001969888601068769,2.1850061416625977,2019-06-18 15:38:46:688
0.42227819561958313,-0.28546133637428284,9.785576820373535,0.00154341238328913,0.008857972350928878,-0.005130633935497294,2.18912410736084,2019-06-18 15:38:46:692
0.4103044271469116,-0.23756635189056396,9.77599811553955,0.0004778877754043595,0.008458400399470718,0.004592277481583728,2.1950106620788574,2019-06-18 15:38:46:698
0.4103044271469116,-0.3213825821876526,9.790366172790527,0.0038076519677975387,0.0024648247686388392,0.00326037210371193,2.199118137359619,2019-06-18 15:38:46:702
0.477357417345047,-0.3405405879020691,9.759234428405762,0.005272748429612599,0.008458400399470718,0.00326037210371193,2.205005168914795,2019-06-18 15:38:46:708
0.4294624328613281,-0.2878561019897461,9.790366172790527,0.0012770312556999051,0.007526066192834106,-0.0023336320958104364,2.2091269493103027,2019-06-18 15:38:46:712
0.424672931432724,-0.34293535351753235,9.8167085647583,0.0007442689355028748,0.006593732506346145,0.0011293228229238084,2.2150321006774902,2019-06-18 15:38:46:718
0.4126991927623749,-0.3381458520889282,9.811919212341309,-0.0009872085238642476,0.009523924909827616,0.00326037210371193,2.2200160026550293,2019-06-18 15:38:46:723
0.4318571984767914,-0.27827709913253784,9.783182144165039,0.0008774594992974871,0.007526066192834106,0.005524611688220339,2.224128246307373,2019-06-18 15:38:46:727
0.4126991927623749,-0.2878561019897461,9.747261047363281,-0.0009872085238642476,0.007792447840571981,-0.0004689640076301205,2.2300047874450684,2019-06-18 15:38:46:733
0.417488694190979,-0.30461934208869934,9.783182144165039,-0.0011203991526774412,0.009523924909827616,0.0027276098485334807,2.235006809234619,2019-06-18 15:38:46:738
0.43425193428993225,-0.3189878463745117,9.797551155090332,0.0030085085850298653,0.006593732506346145,0.0027276098485334807,2.239123821258545,2019-06-18 15:38:46:742
0.4126991927623749,-0.30940884351730347,9.787971496582031,0.003541270840208314,0.006593732506346145,0.002328037897075319,2.245009422302246,2019-06-18 15:38:46:748
0.4055149257183075,-0.2950403392314911,9.797551155090332,0.0012770312556999051,0.004729064613221573,0.005524611688220339,2.250004291534424,2019-06-18 15:38:46:753
0.417488694190979,-0.2998298406600952,9.80473518371582,-0.0009872085238642476,0.008192019271881493,0.00326037210371193,2.255007266998291,2019-06-18 15:38:46:758
0.4126991927623749,-0.31659308075904846,9.840656280517578,-0.0005876368324804107,0.005528207995989247,0.005125040256910827,2.2591233253479004,2019-06-18 15:38:46:762
0.4390414357185364,-0.34293535351753235,9.771208763122559,0.004873176478154437,0.005128636044531084,0.0021948473332807066,2.2650108337402344,2019-06-18 15:38:46:768
0.4318571984767914,-0.31659308075904846,9.799945831298828,-0.0015199708440612782,0.006460541682477208,-6.939229186431566e-05,2.270009994506836,2019-06-18 15:38:46:773
0.3911464512348175,-0.3141983449459076,9.766419410705566,-0.0008540179600696353,0.01125540197908325,-0.001934060274389437,2.275010585784912,2019-06-18 15:38:46:778
0.38156744837760925,-0.33096158504486084,9.814313888549805,-0.0012535897164720534,0.009657115213547902,0.00326037210371193,2.279122829437256,2019-06-18 15:38:46:782
0.4294624328613281,-0.33096158504486084,9.761629104614258,0.003141699148824477,0.005261826868400022,0.000996132259129196,2.2850069999694824,2019-06-18 15:38:46:788
0.3911464512348175,-0.32856684923171997,9.80473518371582,0.0014102218194945173,0.005794589123578471,0.0013957039505130327,2.289123058319092,2019-06-18 15:38:46:792
0.37438318133354187,-0.29743510484695435,9.828682899475098,-0.0011203991526774412,0.006993303937655657,-0.0004689640076301205,2.295010566711426,2019-06-18 15:38:46:798
0.4126991927623749,-0.3453300893306732,9.795156478881836,0.0003446972116097473,0.004462683485632349,6.379828412128062e-05,2.2991256713867188,2019-06-18 15:38:46:802
0.4031201899051666,-0.36927759647369385,9.766419410705566,0.001143840691905293,0.002864396460022676,-0.004597871680318845,2.3050074577331543,2019-06-18 15:38:46:808
0.41509392857551575,-0.34293535351753235,9.826288223266602,0.001676602947083742,0.004063111534174186,-6.939229186431566e-05,2.3091235160827637,2019-06-18 15:38:46:812
0.4031201899051666,-0.3405405879020691,9.783182144165039,0.003940842531592151,0.0076592570167030435,0.002328037897075319,2.315033435821533,2019-06-18 15:38:46:818
0.4031201899051666,-0.30940884351730347,9.730497360229492,0.004340414222975988,0.008591591223339655,0.000996132259129196,2.319125175476074,2019-06-18 15:38:46:822
0.3935411870479584,-0.35490909218788147,9.756839752197266,0.0004778877754043595,0.007126494761524595,-0.003931918861345784,2.325042247772217,2019-06-18 15:38:46:828
0.4126991927623749,-0.3453300893306732,9.783182144165039,0.005139557605743661,0.008192019271881493,-0.0014012980192109879,2.3300042152404785,2019-06-18 15:38:46:833
0.43425193428993225,-0.3118036091327667,9.749655723571777,-0.0011203991526774412,0.009523924909827616,0.002328037897075319,2.335005283355713,2019-06-18 15:38:46:838
0.44862043857574463,-0.3070141077041626,9.749655723571777,0.005405938733332886,0.006460541682477208,-0.0016676791468002124,2.339125156402588,2019-06-18 15:38:46:842
0.41509392857551575,-0.3213825821876526,9.799945831298828,0.00620508211610056,0.00686011363393537,-0.0006021545714247328,2.3450098037719727,2019-06-18 15:38:46:848
0.4126991927623749,-0.30222460627555847,9.740077018737793,0.0030085085850298653,0.009523924909827616,0.00166208520813942,2.3491196632385254,2019-06-18 15:38:46:852
0.42706769704818726,-0.2663033604621887,9.768814086914062,0.002209365202262191,0.007792447840571981,-0.0004689640076301205,2.355008602142334,2019-06-18 15:38:46:858
0.42227819561958313,-0.3405405879020691,9.802340507507324,0.001676602947083742,0.010056687165006064,0.0005965605677453591,2.3591256141662598,2019-06-18 15:38:46:862
0.4366466999053955,-0.29743510484695435,9.787971496582031,0.0004778877754043595,0.01165497393054141,-0.0010017262628085697,2.365009307861328,2019-06-18 15:38:46:868
0.42706769704818726,-0.3189878463745117,9.785576820373535,-0.00045444623617650777,0.00486225491694186,-0.000735345135219345,2.36912202835083,2019-06-18 15:38:46:872
0.4294624328613281,-0.29743510484695435,9.785576820373535,0.001676602947083742,0.007392875889113818,-0.0010017262628085697,2.3750109672546387,2019-06-18 15:38:46:878
0.37438318133354187,-0.3261720836162567,9.835866928100586,-0.00045444623617650777,0.007392875889113818,-0.002999584914783498,2.3791251182556152,2019-06-18 15:38:46:882
0.3767779469490051,-0.27109286189079285,9.792760848999023,-0.0008540179600696353,0.0039299209703795735,-0.0020672508381840496,2.385009765625,2019-06-18 15:38:46:888
0.44622567296028137,-0.3118036091327667,9.759234428405762,0.005139557605743661,0.0061941605548879826,0.0003301794401561345,2.390005588531494,2019-06-18 15:38:46:893
0.39593595266342163,-0.28546133637428284,9.780787467956543,-5.487451634704159e-05,0.01165497393054141,-0.0060629681421339055,2.39412260055542,2019-06-18 15:38:46:897
0.4294624328613281,-0.33575108647346497,9.821497917175293,-0.0011203991526774412,0.003796730406584962,0.002461228460869931,2.4000067710876465,2019-06-18 15:38:46:903
0.3600147068500519,-0.3118036091327667,9.7352876663208,0.002209365202262191,0.008724781527059942,0.002328037897075319,2.4041242599487305,2019-06-18 15:38:46:907
0.38875168561935425,-0.2926456034183502,9.768814086914062,-0.0029850670458020133,0.006726922810066432,-0.0026000132233996607,2.4100289344787598,2019-06-18 15:38:46:913
0.3863569498062134,-0.30222460627555847,9.768814086914062,0.005139557605743661,0.007792447840571981,0.0027276098485334807,2.4150500297546387,2019-06-18 15:38:46:918
0.4126991927623749,-0.3213825821876526,9.807129859924316,-0.0015199708440612782,0.007392875889113818,6.379828412128062e-05,2.4191226959228516,2019-06-18 15:38:46:922
0.3983306884765625,-0.35011959075927734,9.785576820373535,0.004873176478154437,0.0053950171721203095,0.003393562667506543,2.4250025749206543,2019-06-18 15:38:46:928
0.4055149257183075,-0.30222460627555847,9.792760848999023,0.006071891812380273,0.007126494761524595,6.379828412128062e-05,2.429124355316162,2019-06-18 15:38:46:932
0.379172682762146,-0.3381458520889282,9.77599811553955,0.0027421274574406405,0.004729064613221573,0.0013957039505130327,2.4350080490112305,2019-06-18 15:38:46:938
0.39593595266342163,-0.27109286189079285,9.76402473449707,0.005139557605743661,0.007126494761524595,0.004192706050274216,2.4391188621520996,2019-06-18 15:38:46:942
0.417488694190979,-0.2686980962753296,9.795156478881836,0.0023425557660568036,0.008458400399470718,0.001528894514307645,2.445006847381592,2019-06-18 15:38:46:948
0.417488694190979,-0.29025083780288696,9.790366172790527,0.0030085085850298653,0.011388593323100838,0.002461228460869931,2.449127197265625,2019-06-18 15:38:46:952
0.42706769704818726,-0.30461934208869934,9.756839752197266,0.0019429840746729666,0.007526066192834106,0.0008629416953345836,2.4550089836120605,2019-06-18 15:38:46:958
0.4031201899051666,-0.3333563506603241,9.787971496582031,0.0019429840746729666,0.004595873789352636,0.004725468305452665,2.4600062370300293,2019-06-18 15:38:46:963
0.42706769704818726,-0.3189878463745117,9.742471694946289,0.005672319860922111,0.0053950171721203095,0.002860800412328093,2.464122772216797,2019-06-18 15:38:46:967
0.4031201899051666,-0.33575108647346497,9.780787467956543,0.00154341238328913,0.007259685065244881,0.00326037210371193,2.469125270843506,2019-06-18 15:38:46:972
0.4318571984767914,-0.31659308075904846,9.752050399780273,0.00154341238328913,0.0025980153324334514,0.0001969888601068769,2.474184989929199,2019-06-18 15:38:46:977
0.39593595266342163,-0.3333563506603241,9.766419410705566,0.004207223659181376,0.008192019271881493,-0.000735345135219345,2.480008602142334,2019-06-18 15:38:46:983
0.462988942861557,-0.3213825821876526,9.855024337768555,0.0014102218194945173,0.00632735137875692,0.004592277481583728,2.4850082397460938,2019-06-18 15:38:46:988
0.4366466999053955,-0.33575108647346497,9.826288223266602,0.0014102218194945173,0.009923496861285777,0.0017952757719340324,2.4891233444213867,2019-06-18 15:38:46:992
0.4198834300041199,-0.3333563506603241,9.795156478881836,0.0032748897126190896,0.009390734606107327,0.000996132259129196,2.4950108528137207,2019-06-18 15:38:46:998
0.4294624328613281,-0.3070141077041626,9.795156478881836,-0.00018806509233263786,0.010189877468726351,0.0008629416953345836,2.5000038146972656,2019-06-18 15:38:47:003
0.4198834300041199,-0.3141983449459076,9.811919212341309,0.004873176478154437,0.009923496861285777,-0.0028663943509888855,2.504119873046875,2019-06-18 15:38:47:007
0.43425193428993225,-0.30222460627555847,9.859814643859863,0.005539129557201824,0.012853689784915898,0.0021948473332807066,2.5100111961364746,2019-06-18 15:38:47:013
0.417488694190979,-0.29025083780288696,9.756839752197266,0.002209365202262191,0.009124352958369454,0.0029939909761227054,2.5150113105773926,2019-06-18 15:38:47:018
0.38875168561935425,-0.3189878463745117,9.8167085647583,0.004340414222975988,0.009390734606107327,0.005790992815809564,2.5200324058532715,2019-06-18 15:38:47:023
0.40072545409202576,-0.29743510484695435,9.814313888549805,0.00021150663156048962,0.009657115213547902,0.0019284663357286445,2.524125099182129,2019-06-18 15:38:47:027
0.4103044271469116,-0.28306660056114197,9.730497360229492,0.001676602947083742,0.010589449420184513,-0.0012681074554163755,2.529998779296875,2019-06-18 15:38:47:033
0.4198834300041199,-0.3405405879020691,9.795156478881836,0.0010106500630920993,0.006726922810066432,0.005391421384500052,2.5350022315979004,2019-06-18 15:38:47:038
0.42227819561958313,-0.3261720836162567,9.768814086914062,0.001676602947083742,0.008857972350928878,-0.0020672508381840496,2.539126396179199,2019-06-18 15:38:47:042
0.39593595266342163,-0.2998298406600952,9.799945831298828,-0.0011203991526774412,0.010456259116464226,0.002860800412328093,2.5450072288513184,2019-06-18 15:38:47:048
0.42227819561958313,-0.2998298406600952,9.802340507507324,0.006338272939969498,0.010589449420184513,-0.0015344885830056003,2.5491204261779785,2019-06-18 15:38:47:052
0.371988445520401,-0.3453300893306732,9.768814086914062,0.0027421274574406405,0.009257544302387042,0.002461228460869931,2.5550084114074707,2019-06-18 15:38:47:058
0.38875168561935425,-0.33575108647346497,9.795156478881836,0.0024757463298514157,0.0036635398427903496,0.0007297511315399715,2.560011386871338,2019-06-18 15:38:47:063
0.4366466999053955,-0.2806718349456787,9.740077018737793,-0.0016531614078558903,0.003530349278995737,-0.0020672508381840496,2.5641207695007324,2019-06-18 15:38:47:067
0.3767779469490051,-0.35011959075927734,9.773603439331055,-0.0025854953544181764,0.009390734606107327,0.0019284663357286445,2.5700087547302246,2019-06-18 15:38:47:073
0.3911464512348175,-0.3118036091327667,9.823892593383789,0.003141699148824477,0.01125540197908325,0.0012625133867184206,2.574124813079834,2019-06-18 15:38:47:077
0.44622567296028137,-0.3453300893306732,9.80473518371582,0.0023425557660568036,0.00486225491694186,-0.001934060274389437,2.580038070678711,2019-06-18 15:38:47:083
0.42706769704818726,-0.34293535351753235,9.8167085647583,0.005405938733332886,0.0061941605548879826,-0.0016676791468002124,2.584144115447998,2019-06-18 15:38:47:087
0.42706769704818726,-0.34293535351753235,9.802340507507324,0.0014102218194945173,0.012054545881999576,-0.0012681074554163755,2.5900015830993652,2019-06-18 15:38:47:093
0.39593595266342163,-0.34293535351753235,9.778392791748047,0.0034080802764137014,0.010056687165006064,-0.001934060274389437,2.5941195487976074,2019-06-18 15:38:47:097
0.4294624328613281,-0.33096158504486084,9.795156478881836,-0.0028518764820074007,0.00632735137875692,6.379828412128062e-05,2.5991263389587402,2019-06-18 15:38:47:102
0.3983306884765625,-0.3213825821876526,9.783182144165039,-0.0007208273962750229,0.008991162654649167,-0.005796587014544681,2.605009078979492,2019-06-18 15:38:47:108
0.44622567296028137,-0.3596985936164856,9.809524536132812,0.00154341238328913,0.006593732506346145,-0.006329349269723131,2.6091179847717285,2019-06-18 15:38:47:112
0.4103044271469116,-0.2926456034183502,9.809524536132812,0.003541270840208314,0.006460541682477208,-0.0036655377337565594,2.61500883102417,2019-06-18 15:38:47:118
0.42706769704818726,-0.30940884351730347,9.773603439331055,0.0010106500630920993,0.008991162654649167,-0.003931918861345784,2.619129180908203,2019-06-18 15:38:47:122
0.4366466999053955,-0.3261720836162567,9.785576820373535,0.002209365202262191,0.011122211675362963,-0.0026000132233996607,2.6250104904174805,2019-06-18 15:38:47:128
0.4318571984767914,-0.3118036091327667,9.768814086914062,0.002076174638467579,0.01325326069607676,-0.0016676791468002124,2.6291232109069824,2019-06-18 15:38:47:132
0.42227819561958313,-0.30461934208869934,9.766419410705566,7.831605963855469e-05,0.007526066192834106,-0.0012681074554163755,2.6350111961364746,2019-06-18 15:38:47:138
0.47496268153190613,-0.30940884351730347,9.795156478881836,-0.0016531614078558903,0.0053950171721203095,0.0004633700039507468,2.639155864715576,2019-06-18 15:38:47:142
0.4390414357185364,-0.2926456034183502,9.797551155090332,-0.0033846387371858503,0.008591591223339655,-0.000735345135219345,2.645012855529785,2019-06-18 15:38:47:148
0.4581994414329529,-0.3596985936164856,9.802340507507324,0.0008774594992974871,0.007526066192834106,-0.0027332037871942733,2.650003433227539,2019-06-18 15:38:47:153
0.43425193428993225,-0.35730382800102234,9.744866371154785,-0.0028518764820074007,0.010456259116464226,-0.0036655377337565594,2.6541171073913574,2019-06-18 15:38:47:157
0.4294624328613281,-0.3381458520889282,9.752050399780273,0.0006110783717082625,0.007925638144292268,-0.0003357734438355082,2.6600117683410645,2019-06-18 15:38:47:163
0.4198834300041199,-0.2734875977039337,9.749655723571777,0.0036744614040029266,0.009657115213547902,-0.0011349168916217633,2.6650118827819824,2019-06-18 15:38:47:168
0.42706769704818726,-0.3213825821876526,9.814313888549805,7.831605963855469e-05,0.010855831067922388,-0.0014012980192109879,2.6691203117370605,2019-06-18 15:38:47:172
0.4510151743888855,-0.3189878463745117,9.706550598144531,0.001143840691905293,0.006726922810066432,0.003793134358890379,2.6750073432922363,2019-06-18 15:38:47:178
0.4366466999053955,-0.35011959075927734,9.744866371154785,0.00021150663156048962,0.0053950171721203095,-0.0031327754785781103,2.679129123687744,2019-06-18 15:38:47:182
0.3911464512348175,-0.3381458520889282,9.795156478881836,0.0032748897126190896,0.006460541682477208,0.004592277481583728,2.6850123405456543,2019-06-18 15:38:47:188
0.424672931432724,-0.29025083780288696,9.792760848999023,0.003541270840208314,0.005528207995989247,-0.0031327754785781103,2.6891236305236816,2019-06-18 15:38:47:192
0.4103044271469116,-0.31659308075904846,9.759234428405762,0.0023425557660568036,0.008991162654649167,0.0005965605677453591,2.695010185241699,2019-06-18 15:38:47:198
0.424672931432724,-0.34293535351753235,9.749655723571777,0.0026089368936460283,0.006993303937655657,0.002461228460869931,2.700011730194092,2019-06-18 15:38:47:203
0.4390414357185364,-0.3453300893306732,9.809524536132812,0.0027421274574406405,0.003397158715201125,0.0035267532313011545,2.7050414085388184,2019-06-18 15:38:47:208
0.4294624328613281,-0.3453300893306732,9.811919212341309,0.0010106500630920993,0.005528207995989247,0.0029939909761227054,2.7100071907043457,2019-06-18 15:38:47:213
0.39593595266342163,-0.2950403392314911,9.780787467956543,-5.487451634704159e-05,0.005261826868400022,0.004592277481583728,2.715005397796631,2019-06-18 15:38:47:218
0.4031201899051666,-0.2950403392314911,9.740077018737793,0.0023425557660568036,0.008458400399470718,0.004192706050274216,2.7200169563293457,2019-06-18 15:38:47:223
0.4294624328613281,-0.33096158504486084,9.814313888549805,0.0028753180212352527,0.005794589123578471,0.0031271815399173176,2.725013256072998,2019-06-18 15:38:47:228
0.4031201899051666,-0.2950403392314911,9.780787467956543,0.0012770312556999051,0.0049954457408107975,0.008721185219291034,2.730006694793701,2019-06-18 15:38:47:233
0.3863569498062134,-0.37646183371543884,9.761629104614258,0.002076174638467579,0.005261826868400022,0.0040595154864796045,2.7341179847717285,2019-06-18 15:38:47:237
0.38875168561935425,-0.30461934208869934,9.811919212341309,-0.0011203991526774412,0.005128636044531084,0.0029939909761227054,2.7400102615356445,2019-06-18 15:38:47:243
0.39593595266342163,-0.3525143265724182,9.783182144165039,0.0007442689355028748,0.004462683485632349,-0.0011349168916217633,2.7441258430480957,2019-06-18 15:38:47:247
0.38875168561935425,-0.33575108647346497,9.728102684020996,-0.00045444623617650777,0.008591591223339655,0.005524611688220339,2.75,2019-06-18 15:38:47:253
0.40072545409202576,-0.3118036091327667,9.785576820373535,0.004074033095386763,0.005261826868400022,0.0021948473332807066,2.754117488861084,2019-06-18 15:38:47:257
0.40072545409202576,-0.32377734780311584,9.814313888549805,0.004473605046844925,0.006593732506346145,0.0011293228229238084,2.760010242462158,2019-06-18 15:38:47:263
0.4103044271469116,-0.3261720836162567,9.747261047363281,0.001143840691905293,0.007925638144292268,0.002860800412328093,2.7641234397888184,2019-06-18 15:38:47:267
0.40790969133377075,-0.3213825821876526,9.756839752197266,-0.0003212556723818955,0.006060970251167696,0.0007297511315399715,2.7700066566467285,2019-06-18 15:38:47:273
0.3983306884765625,-0.32377734780311584,9.747261047363281,-0.00018806509233263786,0.008192019271881493,0.0027276098485334807,2.774122714996338,2019-06-18 15:38:47:277
0.39593595266342163,-0.3453300893306732,9.778392791748047,-0.0036510198647750746,0.006993303937655657,-0.004065109425140397,2.7800068855285645,2019-06-18 15:38:47:283
0.3767779469490051,-0.32377734780311584,9.711339950561523,-0.00045444623617650777,0.007792447840571981,-0.0014012980192109879,2.785010814666748,2019-06-18 15:38:47:288
0.3863569498062134,-0.3189878463745117,9.756839752197266,0.0006110783717082625,0.005927779427298759,-0.002999584914783498,2.790038585662842,2019-06-18 15:38:47:293
0.4103044271469116,-0.2998298406600952,9.790366172790527,0.0038076519677975387,0.009523924909827616,0.0004633700039507468,2.79414701461792,2019-06-18 15:38:47:297
0.4366466999053955,-0.34293535351753235,9.761629104614258,0.001143840691905293,0.010589449420184513,-0.003931918861345784,2.80000638961792,2019-06-18 15:38:47:303
0.36959367990493774,-0.3070141077041626,9.768814086914062,-0.0029850670458020133,0.007925638144292268,0.0004633700039507468,2.8041186332702637,2019-06-18 15:38:47:307
0.3935411870479584,-0.30940884351730347,9.821497917175293,-0.0029850670458020133,0.0076592570167030435,-0.005796587014544681,2.8100099563598633,2019-06-18 15:38:47:313
0.4103044271469116,-0.3333563506603241,9.747261047363281,-0.0012535897164720534,0.008458400399470718,-0.006329349269723131,2.8141231536865234,2019-06-18 15:38:47:317
0.3935411870479584,-0.3333563506603241,9.766419410705566,-0.0007208273962750229,0.008857972350928878,-0.0028663943509888855,2.820000171661377,2019-06-18 15:38:47:323
0.36959367990493774,-0.2878561019897461,9.799945831298828,0.002076174638467579,0.005661398299709534,-0.0027332037871942733,2.8241190910339355,2019-06-18 15:38:47:327
0.3983306884765625,-0.3596985936164856,9.744866371154785,7.831605963855469e-05,0.00632735137875692,-0.0012681074554163755,2.8300118446350098,2019-06-18 15:38:47:333
0.3911464512348175,-0.30222460627555847,9.766419410705566,0.003940842531592151,0.007126494761524595,-0.0004689640076301205,2.83412504196167,2019-06-18 15:38:47:337
0.4055149257183075,-0.3118036091327667,9.787971496582031,0.0003446972116097473,0.006993303937655657,-0.005130633935497294,2.840013027191162,2019-06-18 15:38:47:343
0.43425193428993225,-0.33575108647346497,9.761629104614258,0.0004778877754043595,0.006993303937655657,-0.0024668226596050486,2.8441271781921387,2019-06-18 15:38:47:347
0.4438309371471405,-0.3141983449459076,9.785576820373535,0.004340414222975988,0.009657115213547902,0.0012625133867184206,2.850001811981201,2019-06-18 15:38:47:353
0.4390414357185364,-0.33096158504486084,9.855024337768555,0.0018097935108783545,0.010189877468726351,-0.0072616829562110905,2.854118824005127,2019-06-18 15:38:47:357
0.3935411870479584,-0.3477248251438141,9.795156478881836,0.0028753180212352527,0.004729064613221573,-0.0026000132233996607,2.8600096702575684,2019-06-18 15:38:47:363
0.41509392857551575,-0.35730382800102234,9.838261604309082,0.001676602947083742,0.010189877468726351,0.0019284663357286445,2.8641223907470703,2019-06-18 15:38:47:367
0.3839621841907501,-0.2998298406600952,9.795156478881836,0.0007442689355028748,0.006726922810066432,0.0027276098485334807,2.870002269744873,2019-06-18 15:38:47:373
0.38875168561935425,-0.32856684923171997,9.790366172790527,0.003541270840208314,0.009523924909827616,0.0027276098485334807,2.874119281768799,2019-06-18 15:38:47:377
0.4103044271469116,-0.30461934208869934,9.76402473449707,0.0038076519677975387,0.004729064613221573,0.0008629416953345836,2.880012035369873,2019-06-18 15:38:47:383
0.417488694190979,-0.2950403392314911,9.807129859924316,0.0018097935108783545,0.008058828968161205,-6.939229186431566e-05,2.8841238021850586,2019-06-18 15:38:47:387
0.417488694190979,-0.31659308075904846,9.799945831298828,-0.0003212556723818955,0.00832521009575043,0.0004633700039507468,2.8891234397888184,2019-06-18 15:38:47:392
0.42227819561958313,-0.2998298406600952,9.756839752197266,-5.487451634704159e-05,0.0076592570167030435,0.0008629416953345836,2.895008087158203,2019-06-18 15:38:47:398
0.4510151743888855,-0.29025083780288696,9.780787467956543,0.00473998617443415,0.005927779427298759,0.0008629416953345836,2.9000396728515625,2019-06-18 15:38:47:403
0.41509392857551575,-0.35730382800102234,9.790366172790527,-0.00018806509233263786,0.00686011363393537,0.0001969888601068769,2.90501070022583,2019-06-18 15:38:47:408
0.4055149257183075,-0.3405405879020691,9.740077018737793,0.003141699148824477,0.0076592570167030435,0.0021948473332807066,2.9091200828552246,2019-06-18 15:38:47:412
0.3911464512348175,-0.3213825821876526,9.766419410705566,0.0030085085850298653,0.006593732506346145,-0.0003357734438355082,2.915004253387451,2019-06-18 15:38:47:418
0.4390414357185364,-0.3189878463745117,9.783182144165039,0.002076174638467579,0.005528207995989247,0.0004633700039507468,2.920029640197754,2019-06-18 15:38:47:423
0.42227819561958313,-0.31659308075904846,9.749655723571777,0.0004778877754043595,0.0020652529472178394,0.002461228460869931,2.924124240875244,2019-06-18 15:38:47:427
0.45340994000434875,-0.31659308075904846,9.792760848999023,0.001676602947083742,0.0039299209703795735,0.004325896614068829,2.9300026893615723,2019-06-18 15:38:47:433
0.41509392857551575,-0.3405405879020691,9.780787467956543,0.0027421274574406405,0.009657115213547902,0.005790992815809564,2.9350085258483887,2019-06-18 15:38:47:438
0.44862043857574463,-0.35730382800102234,9.771208763122559,0.0028753180212352527,0.009124352958369454,-0.0003357734438355082,2.9391274452209473,2019-06-18 15:38:47:442
0.4438309371471405,-0.32377734780311584,9.795156478881836,0.0019429840746729666,0.006993303937655657,0.000996132259129196,2.9450106620788574,2019-06-18 15:38:47:448
0.43425193428993225,-0.3189878463745117,9.76402473449707,0.0004778877754043595,0.008591591223339655,0.00166208520813942,2.949122428894043,2019-06-18 15:38:47:452
0.4126991927623749,-0.3070141077041626,9.792760848999023,-0.0005876368324804107,0.00686011363393537,-0.0016676791468002124,2.955009937286377,2019-06-18 15:38:47:458
0.36240944266319275,-0.3118036091327667,9.850234985351562,0.0019429840746729666,0.0076592570167030435,0.0035267532313011545,2.959123134613037,2019-06-18 15:38:47:462
0.3863569498062134,-0.31659308075904846,9.761629104614258,0.004606795350565213,0.004196302097968799,0.008587994915570746,2.9650139808654785,2019-06-18 15:38:47:468
0.4390414357185364,-0.3189878463745117,9.744866371154785,-0.0020527330992397273,0.006993303937655657,0.0013957039505130327,2.969142436981201,2019-06-18 15:38:47:472
0.417488694190979,-0.3453300893306732,9.77599811553955,0.004074033095386763,0.003397158715201125,0.0008629416953345836,2.975019931793213,2019-06-18 15:38:47:478
0.42706769704818726,-0.3070141077041626,9.843050956726074,0.003541270840208314,0.006460541682477208,6.379828412128062e-05,2.979123592376709,2019-06-18 15:38:47:482
0.4294624328613281,-0.30461934208869934,9.747261047363281,0.005672319860922111,0.007126494761524595,0.006190564767267726,2.9850010871887207,2019-06-18 15:38:47:488
0.417488694190979,-0.3333563506603241,9.759234428405762,0.0028753180212352527,0.007792447840571981,0.0004633700039507468,2.9891252517700195,2019-06-18 15:38:47:492
0.4390414357185364,-0.31659308075904846,9.819103240966797,0.0007442689355028748,0.007925638144292268,0.002328037897075319,2.9950098991394043,2019-06-18 15:38:47:498
0.3911464512348175,-0.3118036091327667,9.759234428405762,-0.00018806509233263786,0.005128636044531084,-0.0006021545714247328,3.0004172325134277,2019-06-18 15:38:47:503
0.4390414357185364,-0.33575108647346497,9.795156478881836,0.0003446972116097473,0.00486225491694186,0.0021948473332807066,3.004350185394287,2019-06-18 15:38:47:507
0.36959367990493774,-0.32377734780311584,9.807129859924316,0.0034080802764137014,0.00486225491694186,0.004459087177863441,3.010010242462158,2019-06-18 15:38:47:513
0.3983306884765625,-0.30222460627555847,9.787971496582031,-0.0016531614078558903,0.010989021371642677,0.000996132259129196,3.014143943786621,2019-06-18 15:38:47:517
0.35043570399284363,-0.3525143265724182,9.759234428405762,-0.0028518764820074007,0.008724781527059942,-0.004464681376598559,3.020017147064209,2019-06-18 15:38:47:523
0.4198834300041199,-0.3453300893306732,9.768814086914062,0.0004778877754043595,0.007392875889113818,0.002461228460869931,3.0241265296936035,2019-06-18 15:38:47:527
0.4031201899051666,-0.28306660056114197,9.787971496582031,-0.0007208273962750229,0.008192019271881493,0.002860800412328093,3.030000686645508,2019-06-18 15:38:47:533
0.3863569498062134,-0.2926456034183502,9.828682899475098,0.00154341238328913,0.005128636044531084,0.005524611688220339,3.0341153144836426,2019-06-18 15:38:47:537
0.3839621841907501,-0.3477248251438141,9.749655723571777,0.002209365202262191,0.008458400399470718,0.0012625133867184206,3.0400052070617676,2019-06-18 15:38:47:543
0.40790969133377075,-0.30461934208869934,9.821497917175293,7.831605963855469e-05,0.009923496861285777,0.005657802512089276,3.044124126434326,2019-06-18 15:38:47:547
0.37438318133354187,-0.3405405879020691,9.728102684020996,0.00154341238328913,0.010056687165006064,0.002461228460869931,3.050002098083496,2019-06-18 15:38:47:553
0.3911464512348175,-0.32377734780311584,9.8167085647583,-0.002452304790623564,0.00486225491694186,0.00166208520813942,3.054119110107422,2019-06-18 15:38:47:557
0.4103044271469116,-0.2950403392314911,9.811919212341309,0.005139557605743661,0.010189877468726351,0.004459087177863441,3.060011386871338,2019-06-18 15:38:47:563
0.4055149257183075,-0.30222460627555847,9.787971496582031,0.0023425557660568036,0.010189877468726351,0.004192706050274216,3.064126491546631,2019-06-18 15:38:47:567
0.42227819561958313,-0.28546133637428284,9.708945274353027,-0.002452304790623564,0.009657115213547902,0.0007297511315399715,3.0700483322143555,2019-06-18 15:38:47:573
0.41509392857551575,-0.33575108647346497,9.744866371154785,0.0012770312556999051,0.006060970251167696,-0.0024668226596050486,3.075042724609375,2019-06-18 15:38:47:578
0.3983306884765625,-0.3381458520889282,9.778392791748047,0.002209365202262191,0.010056687165006064,-0.001934060274389437,3.0791258811950684,2019-06-18 15:38:47:582
0.3935411870479584,-0.32377734780311584,9.799945831298828,0.001676602947083742,0.007259685065244881,0.00166208520813942,3.0850067138671875,2019-06-18 15:38:47:588
0.4198834300041199,-0.2998298406600952,9.718523979187012,0.0023425557660568036,0.0061941605548879826,0.0008629416953345836,3.0891313552856445,2019-06-18 15:38:47:592
0.3839621841907501,-0.3453300893306732,9.771208763122559,0.0008774594992974871,0.008192019271881493,-0.0022004415320158242,3.0950093269348145,2019-06-18 15:38:47:598
0.4103044271469116,-0.32377734780311584,9.823892593383789,0.004606795350565213,0.008857972350928878,0.0013957039505130327,3.099120616912842,2019-06-18 15:38:47:602
0.39593595266342163,-0.3118036091327667,9.787971496582031,0.004074033095386763,0.010589449420184513,-0.005796587014544681,3.105010509490967,2019-06-18 15:38:47:608
0.38156744837760925,-0.30461934208869934,9.77599811553955,0.0012770312556999051,0.007259685065244881,0.0011293228229238084,3.110015392303467,2019-06-18 15:38:47:613
0.3983306884765625,-0.3261720836162567,9.843050956726074,0.004473605046844925,0.005261826868400022,-0.0027332037871942733,3.1141276359558105,2019-06-18 15:38:47:617
0.4031201899051666,-0.32377734780311584,9.823892593383789,0.006471463243689784,0.011521783626821125,-0.0035323471699619468,3.120053291320801,2019-06-18 15:38:47:623
0.3671989440917969,-0.30461934208869934,9.778392791748047,-5.487451634704159e-05,0.0061941605548879826,-0.0020672508381840496,3.1241297721862793,2019-06-18 15:38:47:627
0.4198834300041199,-0.3405405879020691,9.850234985351562,0.0007442689355028748,0.008857972350928878,-0.004731062504187783,3.130000591278076,2019-06-18 15:38:47:633
0.42706769704818726,-0.32856684923171997,9.778392791748047,0.0030085085850298653,0.00632735137875692,0.000996132259129196,3.134122848510742,2019-06-18 15:38:47:637
0.4294624328613281,-0.31659308075904846,9.809524536132812,-0.0020527330992397273,0.011921355578279287,-0.0010017262628085697,3.1400113105773926,2019-06-18 15:38:47:643
0.4103044271469116,-0.27109286189079285,9.780787467956543,0.00021150663156048962,0.008192019271881493,-0.006862111524901579,3.1441283226013184,2019-06-18 15:38:47:647
0.3935411870479584,-0.32377734780311584,9.778392791748047,-0.0003212556723818955,0.007259685065244881,-0.000735345135219345,3.1500024795532227,2019-06-18 15:38:47:653
0.4198834300041199,-0.28546133637428284,9.826288223266602,0.00620508211610056,0.008991162654649167,0.0013957039505130327,3.154122829437256,2019-06-18 15:38:47:657
0.39593595266342163,-0.3141983449459076,9.737682342529297,0.0032748897126190896,0.007792447840571981,0.0013957039505130327,3.1600136756896973,2019-06-18 15:38:47:663
0.417488694190979,-0.3189878463745117,9.759234428405762,-0.0035178293009804624,0.004729064613221573,-0.005530205886955456,3.164125919342041,2019-06-18 15:38:47:667
0.3863569498062134,-0.29743510484695435,9.773603439331055,-0.0008540179600696353,0.010189877468726351,-0.0006021545714247328,3.1700057983398438,2019-06-18 15:38:47:673
0.44862043857574463,-0.32856684923171997,9.766419410705566,-0.0003212556723818955,0.007392875889113818,-0.0026000132233996607,3.174149513244629,2019-06-18 15:38:47:677
0.4438309371471405,-0.3525143265724182,9.792760848999023,0.0019429840746729666,0.004063111534174186,-0.0036655377337565594,3.1800036430358887,2019-06-18 15:38:47:683
0.40790969133377075,-0.2950403392314911,9.811919212341309,0.0026089368936460283,0.009390734606107327,0.0008629416953345836,3.184121608734131,2019-06-18 15:38:47:687
0.43425193428993225,-0.3189878463745117,9.749655723571777,0.0007442689355028748,0.009390734606107327,0.0004633700039507468,3.190011978149414,2019-06-18 15:38:47:693
0.3983306884765625,-0.35730382800102234,9.792760848999023,-0.0008540179600696353,0.0049954457408107975,0.004858658609172953,3.19429349899292,2019-06-18 15:38:47:697
0.4031201899051666,-0.3141983449459076,9.797551155090332,-0.0033846387371858503,0.009257544302387042,0.0029939909761227054,3.2000041007995605,2019-06-18 15:38:47:703
0.4366466999053955,-0.3189878463745117,9.8167085647583,0.002209365202262191,0.0076592570167030435,-0.004464681376598559,3.2041258811950684,2019-06-18 15:38:47:707
0.46777844429016113,-0.3141983449459076,9.795156478881836,0.001676602947083742,0.007792447840571981,0.003659943795095767,3.210010051727295,2019-06-18 15:38:47:713
0.42227819561958313,-0.35011959075927734,9.802340507507324,0.0038076519677975387,0.008058828968161205,-0.0022004415320158242,3.2141242027282715,2019-06-18 15:38:47:717
0.42706769704818726,-0.3213825821876526,9.773603439331055,0.0034080802764137014,0.003796730406584962,0.002860800412328093,3.220025062561035,2019-06-18 15:38:47:723
0.4103044271469116,-0.33096158504486084,9.809524536132812,0.0019429840746729666,0.005794589123578471,0.00326037210371193,3.224123477935791,2019-06-18 15:38:47:727
0.4294624328613281,-0.3213825821876526,9.766419410705566,0.0003446972116097473,0.006726922810066432,0.0017952757719340324,3.230010509490967,2019-06-18 15:38:47:733
0.44862043857574463,-0.3118036091327667,9.787971496582031,0.0019429840746729666,0.006726922810066432,-6.939229186431566e-05,3.2341270446777344,2019-06-18 15:38:47:737
0.41509392857551575,-0.30222460627555847,9.807129859924316,0.0028753180212352527,0.008857972350928878,0.0031271815399173176,3.2400403022766113,2019-06-18 15:38:47:743
0.41509392857551575,-0.30940884351730347,9.83347225189209,0.004074033095386763,0.01218773618571986,0.006057373943398788,3.2441534996032715,2019-06-18 15:38:47:747
0.424672931432724,-0.3405405879020691,9.778392791748047,0.0018097935108783545,0.007392875889113818,0.0027276098485334807,3.250007152557373,2019-06-18 15:38:47:753
0.4198834300041199,-0.28306660056114197,9.797551155090332,0.0003446972116097473,0.0049954457408107975,-0.0016676791468002124,3.254119396209717,2019-06-18 15:38:47:757
0.4366466999053955,-0.3261720836162567,9.795156478881836,0.0012770312556999051,0.005661398299709534,-0.0008685356990139574,3.260011672973633,2019-06-18 15:38:47:763
0.41509392857551575,-0.2926456034183502,9.768814086914062,0.001676602947083742,0.009124352958369454,-0.0037987282975511715,3.264130115509033,2019-06-18 15:38:47:767
0.42227819561958313,-0.2926456034183502,9.838261604309082,-0.0033846387371858503,0.00832521009575043,-0.0010017262628085697,3.2700023651123047,2019-06-18 15:38:47:773
0.40072545409202576,-0.27827709913253784,9.823892593383789,0.0023425557660568036,0.00832521009575043,0.0004633700039507468,3.274117946624756,2019-06-18 15:38:47:777
0.44143617153167725,-0.2878561019897461,9.780787467956543,-0.0011203991526774412,0.007126494761524595,0.004459087177863441,3.28001070022583,2019-06-18 15:38:47:783
0.4031201899051666,-0.29743510484695435,9.799945831298828,0.0028753180212352527,0.0039299209703795735,0.0011293228229238084,3.284139633178711,2019-06-18 15:38:47:787
0.4510151743888855,-0.275882363319397,9.7352876663208,0.003141699148824477,0.008458400399470718,-0.0032659660423727224,3.2900166511535645,2019-06-18 15:38:47:793
0.42706769704818726,-0.35011959075927734,9.740077018737793,0.004074033095386763,0.006593732506346145,-0.0015344885830056003,3.2941322326660156,2019-06-18 15:38:47:797
0.45340994000434875,-0.29743510484695435,9.75444507598877,0.0024757463298514157,0.008724781527059942,-0.0020672508381840496,3.299999713897705,2019-06-18 15:38:47:803
0.4366466999053955,-0.32856684923171997,9.761629104614258,0.00473998617443415,0.011521783626821125,0.004192706050274216,3.3041200637817383,2019-06-18 15:38:47:807
0.41509392857551575,-0.30222460627555847,9.826288223266602,-0.0027186859182127886,0.009124352958369454,0.002061656899523257,3.3100132942199707,2019-06-18 15:38:47:813
0.38875168561935425,-0.3333563506603241,9.8167085647583,-0.0012535897164720534,0.004063111534174186,0.0019284663357286445,3.3141255378723145,2019-06-18 15:38:47:817
0.4294624328613281,-0.3333563506603241,9.749655723571777,-5.487451634704159e-05,0.00632735137875692,0.0011293228229238084,3.3200039863586426,2019-06-18 15:38:47:823
0.3935411870479584,-0.30940884351730347,9.802340507507324,0.0026089368936460283,0.011122211675362963,0.003793134358890379,3.324120044708252,2019-06-18 15:38:47:827
0.4390414357185364,-0.33096158504486084,9.723313331604004,0.003940842531592151,0.010722639723904802,0.001528894514307645,3.330017566680908,2019-06-18 15:38:47:833
0.42706769704818726,-0.30940884351730347,9.740077018737793,-0.0025854953544181764,0.008458400399470718,0.0007297511315399715,3.3341479301452637,2019-06-18 15:38:47:837
0.4103044271469116,-0.29743510484695435,9.737682342529297,0.0012770312556999051,0.004462683485632349,0.0013957039505130327,3.340005397796631,2019-06-18 15:38:47:843
0.4390414357185364,-0.31659308075904846,9.780787467956543,-0.0027186859182127886,0.010989021371642677,-0.004597871680318845,3.3441243171691895,2019-06-18 15:38:47:847
0.3911464512348175,-0.30940884351730347,9.773603439331055,0.0004778877754043595,0.007925638144292268,0.0035267532313011545,3.350099563598633,2019-06-18 15:38:47:853
0.4198834300041199,-0.3261720836162567,9.787971496582031,-0.0003212556723818955,0.008991162654649167,0.002461228460869931,3.355109691619873,2019-06-18 15:38:47:858
0.3983306884765625,-0.32856684923171997,9.814313888549805,0.001676602947083742,0.007925638144292268,0.0008629416953345836,3.3591275215148926,2019-06-18 15:38:47:862
0.371988445520401,-0.29743510484695435,9.80473518371582,0.004473605046844925,0.007126494761524595,0.0031271815399173176,3.3650078773498535,2019-06-18 15:38:47:868
0.4198834300041199,-0.3118036091327667,9.797551155090332,0.002209365202262191,0.0049954457408107975,0.0005965605677453591,3.3691296577453613,2019-06-18 15:38:47:872
0.38875168561935425,-0.3118036091327667,9.821497917175293,0.0018097935108783545,0.006060970251167696,0.0013957039505130327,3.3751168251037598,2019-06-18 15:38:47:878
0.4198834300041199,-0.3405405879020691,9.778392791748047,0.002209365202262191,0.004329492661763411,0.002328037897075319,3.3791403770446777,2019-06-18 15:38:47:882
0.4318571984767914,-0.3381458520889282,9.814313888549805,0.0003446972116097473,0.008724781527059942,0.00166208520813942,3.3850083351135254,2019-06-18 15:38:47:888
0.371988445520401,-0.3525143265724182,9.752050399780273,-0.0007208273962750229,0.006726922810066432,-0.000735345135219345,3.389120578765869,2019-06-18 15:38:47:892
0.4055149257183075,-0.3261720836162567,9.821497917175293,0.0006110783717082625,0.010722639723904802,-6.939229186431566e-05,3.3950109481811523,2019-06-18 15:38:47:898
0.417488694190979,-0.32856684923171997,9.773603439331055,7.831605963855469e-05,0.003530349278995737,0.002061656899523257,3.39912748336792,2019-06-18 15:38:47:902
0.40790969133377075,-0.28546133637428284,9.826288223266602,0.004207223659181376,0.009257544302387042,0.0035267532313011545,3.40501070022583,2019-06-18 15:38:47:908
0.43425193428993225,-0.34293535351753235,9.766419410705566,-0.0036510198647750746,0.013919214295272795,0.0003301794401561345,3.409123420715332,2019-06-18 15:38:47:912
0.424672931432724,-0.30940884351730347,9.75444507598877,-0.0005876368324804107,0.007259685065244881,-0.0003357734438355082,3.41501522064209,2019-06-18 15:38:47:918
0.3839621841907501,-0.2950403392314911,9.771208763122559,-0.0015199708440612782,0.006993303937655657,0.005391421384500052,3.4200520515441895,2019-06-18 15:38:47:923
0.43425193428993225,-0.3213825821876526,9.780787467956543,0.0019429840746729666,0.008458400399470718,6.379828412128062e-05,3.4241385459899902,2019-06-18 15:38:47:927
0.4390414357185364,-0.3118036091327667,9.778392791748047,0.002076174638467579,0.008058828968161205,-0.0022004415320158242,3.4300055503845215,2019-06-18 15:38:47:933
0.40072545409202576,-0.3405405879020691,9.785576820373535,0.0036744614040029266,0.00486225491694186,-0.0026000132233996607,3.4350132942199707,2019-06-18 15:38:47:938
0.3983306884765625,-0.3381458520889282,9.797551155090332,-0.00018806509233263786,0.007526066192834106,0.000996132259129196,3.4400100708007812,2019-06-18 15:38:47:943
0.40790969133377075,-0.30461934208869934,9.75444507598877,0.0026089368936460283,0.007925638144292268,-0.0022004415320158242,3.444122791290283,2019-06-18 15:38:47:947
0.4390414357185364,-0.3261720836162567,9.780787467956543,0.002209365202262191,0.0049954457408107975,-0.0020672508381840496,3.450003147125244,2019-06-18 15:38:47:953
0.4366466999053955,-0.3189878463745117,9.881366729736328,0.0032748897126190896,0.010855831067922388,0.001528894514307645,3.4541239738464355,2019-06-18 15:38:47:957
0.3911464512348175,-0.33096158504486084,9.728102684020996,0.0026089368936460283,0.005128636044531084,0.000996132259129196,3.4600367546081543,2019-06-18 15:38:47:963
0.37438318133354187,-0.3644880950450897,9.759234428405762,0.0036744614040029266,0.009257544302387042,6.379828412128062e-05,3.464141368865967,2019-06-18 15:38:47:967
0.42706769704818726,-0.2998298406600952,9.809524536132812,0.0010106500630920993,0.00486225491694186,-0.0003357734438355082,3.4691357612609863,2019-06-18 15:38:47:972
0.379172682762146,-0.35490909218788147,9.756839752197266,0.0028753180212352527,0.004729064613221573,-0.0018008697105948246,3.475010395050049,2019-06-18 15:38:47:978
0.38875168561935425,-0.374067097902298,9.797551155090332,0.003141699148824477,0.010456259116464226,0.0004633700039507468,3.480010509490967,2019-06-18 15:38:47:983
0.41509392857551575,-0.30940884351730347,9.780787467956543,0.0007442689355028748,0.008724781527059942,0.0007297511315399715,3.484123706817627,2019-06-18 15:38:47:987
0.4294624328613281,-0.32377734780311584,9.795156478881836,0.0018097935108783545,0.006993303937655657,-0.0024668226596050486,3.4900059700012207,2019-06-18 15:38:47:993
0.44862043857574463,-0.33096158504486084,9.835866928100586,0.0003446972116097473,0.005661398299709534,-0.0004689640076301205,3.4941225051879883,2019-06-18 15:38:47:997
0.4126991927623749,-0.275882363319397,9.840656280517578,-5.487451634704159e-05,0.007792447840571981,0.0027276098485334807,3.5000109672546387,2019-06-18 15:38:48:003
0.424672931432724,-0.32856684923171997,9.773603439331055,7.831605963855469e-05,0.010855831067922388,-0.0015344885830056003,3.5050249099731445,2019-06-18 15:38:48:008
0.42227819561958313,-0.30940884351730347,9.80473518371582,0.001676602947083742,0.00632735137875692,0.0001969888601068769,3.5100226402282715,2019-06-18 15:38:48:013
0.42227819561958313,-0.34293535351753235,9.8167085647583,-0.0009872085238642476,0.00832521009575043,0.0025944190246645436,3.514129638671875,2019-06-18 15:38:48:017
0.4438309371471405,-0.32856684923171997,9.752050399780273,0.0050063673020233745,0.008192019271881493,0.007256089277624623,3.5200304985046387,2019-06-18 15:38:48:023
0.43425193428993225,-0.31659308075904846,9.749655723571777,0.001676602947083742,0.008857972350928878,0.0003301794401561345,3.52412748336792,2019-06-18 15:38:48:027
0.3983306884765625,-0.3261720836162567,9.720918655395508,0.003141699148824477,0.005261826868400022,0.0008629416953345836,3.5300097465515137,2019-06-18 15:38:48:033
0.44622567296028137,-0.32856684923171997,9.756839752197266,-0.0036510198647750746,0.00486225491694186,0.0007297511315399715,3.534125328063965,2019-06-18 15:38:48:037
0.41509392857551575,-0.33575108647346497,9.773603439331055,-0.0020527330992397273,0.009257544302387042,0.007655660708934136,3.5400071144104004,2019-06-18 15:38:48:043
0.42706769704818726,-0.3141983449459076,9.759234428405762,-0.0009872085238642476,0.0039299209703795735,-0.0012681074554163755,3.5441231727600098,2019-06-18 15:38:48:047
0.4390414357185364,-0.2998298406600952,9.744866371154785,-0.0008540179600696353,0.00632735137875692,-0.0008685356990139574,3.550015449523926,2019-06-18 15:38:48:053
0.3767779469490051,-0.2998298406600952,9.778392791748047,-5.487451634704159e-05,0.007259685065244881,-0.000735345135219345,3.554131031036377,2019-06-18 15:38:48:057
0.4126991927623749,-0.30461934208869934,9.77599811553955,0.0024757463298514157,0.01218773618571986,0.0007297511315399715,3.5600104331970215,2019-06-18 15:38:48:063
0.4103044271469116,-0.34293535351753235,9.809524536132812,0.002076174638467579,0.004595873789352636,6.379828412128062e-05,3.5650153160095215,2019-06-18 15:38:48:068
0.4055149257183075,-0.29743510484695435,9.768814086914062,0.002076174638467579,0.009657115213547902,-0.0014012980192109879,3.570006847381592,2019-06-18 15:38:48:073
0.41509392857551575,-0.32377734780311584,9.809524536132812,0.004074033095386763,0.005794589123578471,0.0005965605677453591,3.574126720428467,2019-06-18 15:38:48:077
0.45340994000434875,-0.29743510484695435,9.742471694946289,0.0026089368936460283,0.012720498440898311,-0.0024668226596050486,3.580005168914795,2019-06-18 15:38:48:083
0.41509392857551575,-0.28546133637428284,9.809524536132812,0.0030085085850298653,0.008458400399470718,0.0021948473332807066,3.5841259956359863,2019-06-18 15:38:48:087
0.4366466999053955,-0.2998298406600952,9.773603439331055,0.007004226019016884,0.003530349278995737,0.004325896614068829,3.590013027191162,2019-06-18 15:38:48:093
0.3935411870479584,-0.3405405879020691,9.756839752197266,-0.0017863519716505025,0.01032306881274394,0.0013957039505130327,3.594128131866455,2019-06-18 15:38:48:097
