ACCELEROMETER X (m/s²),ACCELEROMETER Y (m/s²),ACCELEROMETER Z (m/s²),GYROSCOPE X (rad/s),GYROSCOPE Y (rad/s),GYROSCOPE Z (rad/s),Time since start in ms ,YYYY-MO-DD HH-MI-SS_SSS
-0.1117509976029396,-0.07711812108755112,9.869393348693848,0.0038076519677975387,0.003530349278995737,0.0005965605677453591,0.0,2019-06-18 15:14:30:546
-0.09977724403142929,-0.07472337782382965,9.787971496582031,7.831605963855469e-05,0.0036635398427903496,6.379828412128062e-05,0.004098415374755859,2019-06-18 15:14:30:550
-0.1117509976029396,-0.09867087006568909,9.797551155090332,-0.0020527330992397273,0.0032639681514065122,-0.0012681074554163755,0.009966373443603516,2019-06-18 15:14:30:556
-0.07582975178956985,-0.022038880735635757,9.821497917175293,0.00021150663156048962,0.0012661095644501657,-6.939229186431566e-05,0.014960765838623047,2019-06-18 15:14:30:561
-0.08780349791049957,-0.014854632318019867,9.823892593383789,-0.0012535897164720534,0.006593732506346145,0.002328037897075319,0.019071578979492188,2019-06-18 15:14:30:565
-0.09498775005340576,-0.05317062884569168,9.761629104614258,-0.0003212556723818955,0.007126494761524595,-0.005263824759366232,0.024971485137939453,2019-06-18 15:14:30:571
-0.12132999300956726,-0.07711812108755112,9.76402473449707,-0.004583353811337361,0.006593732506346145,-0.0036655377337565594,0.030051708221435547,2019-06-18 15:14:30:576
-0.1309089958667755,-0.05077587813138962,9.76402473449707,-0.0027186859182127886,0.0024648247686388392,0.0035267532313011545,0.03503561019897461,2019-06-18 15:14:30:581
-0.14288273453712463,-0.055565375834703445,9.828682899475098,0.0004778877754043595,0.0049954457408107975,-0.002999584914783498,0.039968013763427734,2019-06-18 15:14:30:586
-0.10217199474573135,-0.06753912568092346,9.831077575683594,0.0014102218194945173,0.0061941605548879826,0.0013957039505130327,0.04410505294799805,2019-06-18 15:14:30:590
-0.09738249331712723,-0.0651443749666214,9.857419967651367,-0.004183782119953524,0.0049954457408107975,0.003659943795095767,0.049991607666015625,2019-06-18 15:14:30:596
-0.14048798382282257,-0.02443363144993782,9.8167085647583,-0.0007208273962750229,0.004595873789352636,-0.003399156606167335,0.05409860610961914,2019-06-18 15:14:30:600
-0.08301399648189545,-0.022038880735635757,9.814313888549805,-0.0017863519716505025,0.003397158715201125,-6.939229186431566e-05,0.05996274948120117,2019-06-18 15:14:30:606
-0.0925929993391037,-0.06274962425231934,9.869393348693848,0.0012770312556999051,0.004329492661763411,0.0025944190246645436,0.06408071517944336,2019-06-18 15:14:30:610
-0.14048798382282257,-0.026828380301594734,9.869393348693848,0.001143840691905293,-0.000598558458711569,0.0007297511315399715,0.06996583938598633,2019-06-18 15:14:30:616
-0.12851424515247345,-0.05317062884569168,9.850234985351562,-0.0037842104285696868,0.006060970251167696,0.000996132259129196,0.07496118545532227,2019-06-18 15:14:30:621
-0.10696149617433548,-0.03640738129615784,9.838261604309082,0.00154341238328913,0.005794589123578471,0.0007297511315399715,0.07907533645629883,2019-06-18 15:14:30:625
-0.13569849729537964,-0.06753912568092346,9.831077575683594,0.0007442689355028748,-0.0003321772986130537,0.0031271815399173176,0.08496904373168945,2019-06-18 15:14:30:631
-0.06864549964666367,-0.0388021282851696,9.821497917175293,-0.0007208273962750229,0.0011329190006555533,0.0011293228229238084,0.08907556533813477,2019-06-18 15:14:30:635
-0.09977724403142929,-0.06035487726330757,9.811919212341309,-0.002452304790623564,0.0009997284368609412,0.0004633700039507468,0.09410238265991211,2019-06-18 15:14:30:640
-0.09977724403142929,-0.007670383434742689,9.730497360229492,0.001143840691905293,0.0007333473092717165,-0.0023336320958104364,0.09997081756591797,2019-06-18 15:14:30:646
-0.11654049158096313,-0.09388136863708496,9.787971496582031,-0.00018806509233263786,0.0032639681514065122,-0.0004689640076301205,0.10407590866088867,2019-06-18 15:14:30:650
-0.1117509976029396,-0.04359162971377373,9.835866928100586,-0.0007208273962750229,0.002864396460022676,-0.0004689640076301205,0.10995912551879883,2019-06-18 15:14:30:656
-0.07582975178956985,-0.00048613420221954584,9.8167085647583,0.003541270840208314,0.005927779427298759,0.001528894514307645,0.11407804489135742,2019-06-18 15:14:30:660
-0.1189352422952652,-0.048381127417087555,9.814313888549805,0.00021150663156048962,0.005927779427298759,0.0031271815399173176,0.1199641227722168,2019-06-18 15:14:30:666
-0.1380932480096817,-0.048381127417087555,9.759234428405762,0.004207223659181376,0.006060970251167696,0.0012625133867184206,0.12407302856445312,2019-06-18 15:14:30:670
-0.12372474372386932,-0.05317062884569168,9.8167085647583,0.0003446972116097473,0.001798871819628615,0.0005965605677453591,0.12996244430541992,2019-06-18 15:14:30:676
-0.1189352422952652,-0.05077587813138962,9.799945831298828,0.00154341238328913,0.0008665378730663289,0.0001969888601068769,0.13408374786376953,2019-06-18 15:14:30:680
-0.1117509976029396,-0.08909187465906143,9.761629104614258,0.001143840691905293,0.001798871819628615,0.0021948473332807066,0.13999319076538086,2019-06-18 15:14:30:686
-0.12372474372386932,-0.01724938116967678,9.787971496582031,-0.0013867802802666658,0.0006001567454771042,0.000996132259129196,0.14407968521118164,2019-06-18 15:14:30:690
-0.15485648810863495,-0.04359162971377373,9.792760848999023,0.0023425557660568036,0.002997587023817288,0.003926324922684992,0.14995908737182617,2019-06-18 15:14:30:696
-0.1189352422952652,-0.026828380301594734,9.797551155090332,0.004873176478154437,0.0027312058962280636,-0.0035323471699619468,0.15407419204711914,2019-06-18 15:14:30:700
-0.11414574086666107,-0.02443363144993782,9.809524536132812,0.00154341238328913,0.00632735137875692,0.0019284663357286445,0.15996599197387695,2019-06-18 15:14:30:706
-0.1380932480096817,-0.0651443749666214,9.821497917175293,0.0010106500630920993,0.0036635398427903496,0.004192706050274216,0.16495800018310547,2019-06-18 15:14:30:711
-0.15246173739433289,-0.04598637670278549,9.84544563293457,0.0006110783717082625,0.002997587023817288,-0.003931918861345784,0.16907167434692383,2019-06-18 15:14:30:715
-0.11654049158096313,-0.03640738129615784,9.840656280517578,-0.0023191142268289516,0.003796730406584962,-0.0022004415320158242,0.17496633529663086,2019-06-18 15:14:30:721
-0.12132999300956726,-0.034012630581855774,9.8167085647583,0.002076174638467579,0.0011329190006555533,-0.0011349168916217633,0.1790757179260254,2019-06-18 15:14:30:725
-0.0925929993391037,-0.01006513275206089,9.893341064453125,7.831605963855469e-05,0.003796730406584962,-0.0036655377337565594,0.18501758575439453,2019-06-18 15:14:30:731
-0.09019824862480164,-0.05077587813138962,9.852629661560059,-0.0007208273962750229,0.006726922810066432,-0.0015344885830056003,0.1890850067138672,2019-06-18 15:14:30:735
-0.1452774852514267,-0.055565375834703445,9.83347225189209,-5.487451634704159e-05,0.0024648247686388392,-0.003399156606167335,0.19495534896850586,2019-06-18 15:14:30:741
-0.14048798382282257,-0.041196878999471664,9.785576820373535,0.0006110783717082625,0.003796730406584962,-0.000735345135219345,0.19907236099243164,2019-06-18 15:14:30:745
-0.1189352422952652,-0.041196878999471664,9.821497917175293,-0.0011203991526774412,0.006460541682477208,-0.0006021545714247328,0.20496320724487305,2019-06-18 15:14:30:751
-0.09738249331712723,-0.03640738129615784,9.718523979187012,7.831605963855469e-05,0.001798871819628615,-0.005663396190675744,0.20996475219726562,2019-06-18 15:14:30:756
-0.15246173739433289,-0.05796012654900551,9.740077018737793,0.0023425557660568036,0.003530349278995737,-0.0031327754785781103,0.21407318115234375,2019-06-18 15:14:30:760
-0.12851424515247345,-0.05796012654900551,9.828682899475098,0.0003446972116097473,-0.0011313207138900182,0.0031271815399173176,0.21996212005615234,2019-06-18 15:14:30:766
-0.13569849729537964,-0.007670383434742689,9.773603439331055,0.0008774594992974871,0.002864396460022676,0.0019284663357286445,0.22409868240356445,2019-06-18 15:14:30:770
-0.12372474372386932,-0.041196878999471664,9.811919212341309,-0.0029850670458020133,0.004729064613221573,0.0011293228229238084,0.22910451889038086,2019-06-18 15:14:30:775
-0.10935624688863754,-0.07711812108755112,9.795156478881836,-0.003917400992364299,0.003530349278995737,-0.0010017262628085697,0.23495960235595703,2019-06-18 15:14:30:781
-0.10935624688863754,-0.03640738129615784,9.838261604309082,-0.0029850670458020133,0.002997587023817288,-0.00020258286378625062,0.23996400833129883,2019-06-18 15:14:30:786
-0.13569849729537964,-0.01724938116967678,9.783182144165039,-0.00045444623617650777,0.003530349278995737,0.000996132259129196,0.2440791130065918,2019-06-18 15:14:30:790
-0.08780349791049957,-0.0651443749666214,9.747261047363281,0.0008774594992974871,0.0012661095644501657,-0.002999584914783498,0.24996519088745117,2019-06-18 15:14:30:796
-0.08540874719619751,-0.04598637670278549,9.787971496582031,0.0006110783717082625,-6.579614257819981e-05,-0.0035323471699619468,0.25498199462890625,2019-06-18 15:14:30:801
-0.1261194944381714,-0.055565375834703445,9.799945831298828,-0.0012535897164720534,0.00486225491694186,-0.0008685356990139574,0.25907278060913086,2019-06-18 15:14:30:805
-0.11414574086666107,-0.041196878999471664,9.780787467956543,-0.0011203991526774412,0.002864396460022676,-0.0037987282975511715,0.26496458053588867,2019-06-18 15:14:30:811
-0.10456674546003342,-0.055565375834703445,9.797551155090332,0.0004778877754043595,0.00686011363393537,-0.0014012980192109879,0.2691006660461426,2019-06-18 15:14:30:815
-0.10696149617433548,-0.08190762251615524,9.814313888549805,0.0034080802764137014,0.005528207995989247,0.0017952757719340324,0.27497386932373047,2019-06-18 15:14:30:821
-0.14048798382282257,-0.055565375834703445,9.76402473449707,-0.0007208273962750229,0.003796730406584962,-0.0008685356990139574,0.27996015548706055,2019-06-18 15:14:30:826
-0.08540874719619751,0.006698114797472954,9.864603996276855,-0.004583353811337361,0.0039299209703795735,0.0031271815399173176,0.28407764434814453,2019-06-18 15:14:30:830
-0.1380932480096817,-0.03640738129615784,9.826288223266602,0.0003446972116097473,0.004196302097968799,0.0004633700039507468,0.2899632453918457,2019-06-18 15:14:30:836
-0.16922499239444733,-0.029223131015896797,9.847840309143066,0.0019429840746729666,0.0025980153324334514,0.0001969888601068769,0.29407358169555664,2019-06-18 15:14:30:840
-0.1261194944381714,-0.06035487726330757,9.807129859924316,-0.0012535897164720534,0.005661398299709534,-0.00486425280790807,0.29996252059936523,2019-06-18 15:14:30:846
-0.1452774852514267,-0.04598637670278549,9.895735740661621,0.0008774594992974871,0.004329492661763411,0.0040595154864796045,0.30408143997192383,2019-06-18 15:14:30:850
-0.14048798382282257,-0.06274962425231934,9.893341064453125,-0.0019195425354451149,0.005261826868400022,0.001528894514307645,0.3099665641784668,2019-06-18 15:14:30:856
-0.10935624688863754,-0.05317062884569168,9.843050956726074,-5.487451634704159e-05,0.005528207995989247,0.000996132259129196,0.3140840530395508,2019-06-18 15:14:30:860
-0.08780349791049957,-0.05077587813138962,9.852629661560059,0.0014102218194945173,0.0049954457408107975,0.0011293228229238084,0.31997013092041016,2019-06-18 15:14:30:866
-0.1189352422952652,-0.055565375834703445,9.809524536132812,-0.0013867802802666658,0.0025980153324334514,0.0025944190246645436,0.32495927810668945,2019-06-18 15:14:30:871
-0.11654049158096313,-0.03640738129615784,9.855024337768555,-0.0025854953544181764,0.001798871819628615,0.00326037210371193,0.32996034622192383,2019-06-18 15:14:30:876
-0.10456674546003342,-0.06035487726330757,9.785576820373535,-0.0009872085238642476,0.0012661095644501657,0.0003301794401561345,0.3340792655944824,2019-06-18 15:14:30:880
-0.1452774852514267,-0.05796012654900551,9.819103240966797,-0.0009872085238642476,6.739442934373515e-05,0.0013957039505130327,0.3399653434753418,2019-06-18 15:14:30:886
-0.13569849729537964,-0.05077587813138962,9.847840309143066,-0.0011203991526774412,6.739442934373515e-05,-0.004597871680318845,0.3440737724304199,2019-06-18 15:14:30:890
-0.08780349791049957,-0.06993387639522552,9.802340507507324,-0.0005876368324804107,0.007126494761524595,0.0031271815399173176,0.3499617576599121,2019-06-18 15:14:30:896
-0.12372474372386932,-0.05077587813138962,9.847840309143066,0.0010106500630920993,-0.0009981301500954058,-0.0018008697105948246,0.3541069030761719,2019-06-18 15:14:30:900
-0.09498775005340576,-0.07711812108755112,9.77599811553955,-0.0013867802802666658,0.003397158715201125,0.0040595154864796045,0.35999250411987305,2019-06-18 15:14:30:906
-0.10217199474573135,-0.029223131015896797,9.773603439331055,0.0010106500630920993,0.005261826868400022,-0.0031327754785781103,0.3640780448913574,2019-06-18 15:14:30:910
-0.08780349791049957,-0.048381127417087555,9.787971496582031,0.0034080802764137014,0.005261826868400022,0.002461228460869931,0.36995935440063477,2019-06-18 15:14:30:916
-0.11414574086666107,-0.01724938116967678,9.8167085647583,0.00154341238328913,0.0007333473092717165,0.0013957039505130327,0.37407827377319336,2019-06-18 15:14:30:920
-0.10935624688863754,-0.04359162971377373,9.831077575683594,7.831605963855469e-05,0.00632735137875692,-0.0020672508381840496,0.37996435165405273,2019-06-18 15:14:30:926
-0.1189352422952652,-0.03640738129615784,9.890946388244629,0.0024757463298514157,0.002997587023817288,-0.0004689640076301205,0.3849606513977051,2019-06-18 15:14:30:931
-0.12132999300956726,-0.04359162971377373,9.83347225189209,-0.004716544635206299,0.006726922810066432,-0.000735345135219345,0.3890700340270996,2019-06-18 15:14:30:935
-0.09498775005340576,-0.07472337782382965,9.905314445495605,0.0038076519677975387,0.0020652529472178394,0.005524611688220339,0.39496946334838867,2019-06-18 15:14:30:941
-0.0925929993391037,-0.026828380301594734,9.859814643859863,0.0012770312556999051,0.006593732506346145,0.0017952757719340324,0.3990778923034668,2019-06-18 15:14:30:945
-0.09738249331712723,-0.026828380301594734,9.831077575683594,-0.0021859236630343394,0.0032639681514065122,-0.004731062504187783,0.4049859046936035,2019-06-18 15:14:30:951
-0.10696149617433548,-0.05796012654900551,9.831077575683594,0.0018097935108783545,0.0025980153324334514,-0.005663396190675744,0.40996789932250977,2019-06-18 15:14:30:956
-0.13569849729537964,-0.05077587813138962,9.797551155090332,-0.0029850670458020133,0.005661398299709534,-0.004597871680318845,0.4149594306945801,2019-06-18 15:14:30:961
-0.12851424515247345,-0.055565375834703445,9.86220932006836,0.00021150663156048962,0.004329492661763411,-0.0010017262628085697,0.41996002197265625,2019-06-18 15:14:30:966
-0.11414574086666107,-0.04359162971377373,9.792760848999023,0.0010106500630920993,-0.0007317490225061812,0.000996132259129196,0.42496347427368164,2019-06-18 15:14:30:971
-0.10696149617433548,-0.05077587813138962,9.802340507507324,-0.0020527330992397273,0.0036635398427903496,-0.0011349168916217633,0.4290766716003418,2019-06-18 15:14:30:975
-0.0925929993391037,-0.06035487726330757,9.852629661560059,0.0004778877754043595,-0.004727466196418875,-0.005530205886955456,0.43495607376098633,2019-06-18 15:14:30:981
-0.10696149617433548,-0.06274962425231934,9.819103240966797,-0.0012535897164720534,0.0012661095644501657,-0.0004689640076301205,0.4390721321105957,2019-06-18 15:14:30:985
-0.07822450250387192,-0.0388021282851696,9.811919212341309,-0.0017863519716505025,0.0036635398427903496,-0.009392731976924888,0.44498729705810547,2019-06-18 15:14:30:991
-0.0925929993391037,-0.022038880735635757,9.838261604309082,-0.0028518764820074007,0.004063111534174186,-0.0035323471699619468,0.4499821662902832,2019-06-18 15:14:30:996
-0.09738249331712723,-0.07472337782382965,9.83347225189209,-0.00045444623617650777,0.0036635398427903496,-0.0023336320958104364,0.45408105850219727,2019-06-18 15:14:31:000
-0.13569849729537964,-0.048381127417087555,9.771208763122559,0.0023425557660568036,0.005128636044531084,-0.0024668226596050486,0.45997190475463867,2019-06-18 15:14:31:006
-0.08301399648189545,-0.07951287180185318,9.785576820373535,-0.0003212556723818955,0.0024648247686388392,6.379828412128062e-05,0.46407508850097656,2019-06-18 15:14:31:010
-0.1189352422952652,-0.04598637670278549,9.83347225189209,0.002209365202262191,0.0020652529472178394,0.0011293228229238084,0.4699592590332031,2019-06-18 15:14:31:016
-0.1380932480096817,-0.03640738129615784,9.80473518371582,-5.487451634704159e-05,0.0011329190006555533,-0.005929777318264968,0.4740767478942871,2019-06-18 15:14:31:020
-0.1309089958667755,-0.0651443749666214,9.768814086914062,0.00154341238328913,0.007526066192834106,0.0005965605677453591,0.4799656867980957,2019-06-18 15:14:31:026
-0.08780349791049957,-0.055565375834703445,9.821497917175293,-0.00045444623617650777,0.00632735137875692,-0.001934060274389437,0.4849586486816406,2019-06-18 15:14:31:031
-0.10935624688863754,-0.06753912568092346,9.859814643859863,0.0027421274574406405,0.004196302097968799,-0.0026000132233996607,0.4890871047973633,2019-06-18 15:14:31:035
-0.07582975178956985,-0.012459882535040379,9.807129859924316,0.00021150663156048962,-0.0024632263518361407,-0.00020258286378625062,0.494962215423584,2019-06-18 15:14:31:041
-0.08061924576759338,-0.03640738129615784,9.8167085647583,-0.0017863519716505025,0.0006001567454771042,0.00166208520813942,0.4991011619567871,2019-06-18 15:14:31:045
-0.1189352422952652,-0.04359162971377373,9.871788024902344,-0.003118257609596625,0.006460541682477208,-0.004997443631777007,0.5049614906311035,2019-06-18 15:14:31:051
-0.08540874719619751,-0.06993387639522552,9.790366172790527,0.003141699148824477,-0.00019898671856379607,-0.0011349168916217633,0.5090718269348145,2019-06-18 15:14:31:055
-0.10217199474573135,-0.05077587813138962,9.886157035827637,-0.0023191142268289516,0.007392875889113818,-0.000735345135219345,0.5149636268615723,2019-06-18 15:14:31:061
-0.09977724403142929,-0.05317062884569168,9.84544563293457,0.0004778877754043595,0.0025980153324334514,0.0021948473332807066,0.5199627876281738,2019-06-18 15:14:31:066
-0.10217199474573135,-0.022038880735635757,9.795156478881836,0.00154341238328913,0.006726922810066432,0.002328037897075319,0.5240740776062012,2019-06-18 15:14:31:070
-0.12372474372386932,-0.07232862710952759,9.888551712036133,0.0014102218194945173,0.004329492661763411,-0.0014012980192109879,0.5299639701843262,2019-06-18 15:14:31:076
-0.09019824862480164,-0.029223131015896797,9.823892593383789,7.831605963855469e-05,0.005661398299709534,-0.0064625395734434175,0.5340819358825684,2019-06-18 15:14:31:080
-0.09738249331712723,-0.029223131015896797,9.792760848999023,-0.0012535897164720534,0.001399300128244778,-0.0003357734438355082,0.5399947166442871,2019-06-18 15:14:31:086
-0.11414574086666107,-0.06274962425231934,9.797551155090332,0.00154341238328913,-0.003395560558472752,0.002061656899523257,0.5440902709960938,2019-06-18 15:14:31:090
-0.08301399648189545,-0.012459882535040379,9.864603996276855,0.001676602947083742,0.002864396460022676,-0.004065109425140397,0.5499677658081055,2019-06-18 15:14:31:096
-0.12851424515247345,-0.0388021282851696,9.893341064453125,-0.0009872085238642476,0.0032639681514065122,0.002061656899523257,0.5540957450866699,2019-06-18 15:14:31:100
-0.1189352422952652,-0.05317062884569168,9.883761405944824,-0.0016531614078558903,0.0008665378730663289,0.0067233270224461746,0.5599608421325684,2019-06-18 15:14:31:106
-0.07104025036096573,-0.034012630581855774,9.823892593383789,-0.002452304790623564,0.0008665378730663289,0.003393562667506543,0.5640749931335449,2019-06-18 15:14:31:110
-0.1309089958667755,-0.005275633651763201,9.807129859924316,0.0014102218194945173,0.004196302097968799,0.006190564767267726,0.5699663162231445,2019-06-18 15:14:31:116
-0.07582975178956985,-0.03640738129615784,9.811919212341309,-0.00045444623617650777,0.005261826868400022,0.0005965605677453591,0.5740742683410645,2019-06-18 15:14:31:120
-0.09498775005340576,-0.04598637670278549,9.795156478881836,0.00021150663156048962,0.0024648247686388392,0.000996132259129196,0.579099178314209,2019-06-18 15:14:31:125
-0.1452774852514267,-0.041196878999471664,9.790366172790527,0.0012770312556999051,0.001399300128244778,0.0004633700039507468,0.5849766731262207,2019-06-18 15:14:31:131
-0.09977724403142929,-0.048381127417087555,9.785576820373535,-0.0015199708440612782,0.004063111534174186,0.0003301794401561345,0.5890913009643555,2019-06-18 15:14:31:135
-0.10935624688863754,-0.06993387639522552,9.807129859924316,0.0006110783717082625,0.004329492661763411,0.002461228460869931,0.5949568748474121,2019-06-18 15:14:31:141
-0.1117509976029396,-0.03161787986755371,9.780787467956543,0.0027421274574406405,0.004329492661763411,0.004192706050274216,0.5990710258483887,2019-06-18 15:14:31:145
-0.10217199474573135,-0.08669712394475937,9.819103240966797,0.0019429840746729666,0.0049954457408107975,0.0005965605677453591,0.6049609184265137,2019-06-18 15:14:31:151
-0.10696149617433548,-0.0651443749666214,9.821497917175293,0.00021150663156048962,0.0025980153324334514,0.004725468305452665,0.6090760231018066,2019-06-18 15:14:31:155
-0.1117509976029396,-0.029223131015896797,9.802340507507324,0.0014102218194945173,0.0036635398427903496,0.003793134358890379,0.6149563789367676,2019-06-18 15:14:31:161
-0.1117509976029396,-0.055565375834703445,9.814313888549805,-0.0008540179600696353,0.003530349278995737,-0.0003357734438355082,0.619074821472168,2019-06-18 15:14:31:165
-0.09738249331712723,-0.041196878999471664,9.823892593383789,-0.0013867802802666658,0.0009997284368609412,0.002860800412328093,0.6249876022338867,2019-06-18 15:14:31:171
-0.11654049158096313,-0.02443363144993782,9.83347225189209,-0.0011203991526774412,0.0008665378730663289,0.0017952757719340324,0.62908935546875,2019-06-18 15:14:31:175
-0.10696149617433548,-0.0388021282851696,9.847840309143066,0.0006110783717082625,0.009523924909827616,0.001528894514307645,0.6349635124206543,2019-06-18 15:14:31:181
-0.10456674546003342,-0.03161787986755371,9.8167085647583,-5.487451634704159e-05,0.004063111534174186,-0.00020258286378625062,0.6399717330932617,2019-06-18 15:14:31:186
-0.14288273453712463,-0.026828380301594734,9.797551155090332,-0.0023191142268289516,0.0024648247686388392,0.006590136198577237,0.644960880279541,2019-06-18 15:14:31:191
-0.1261194944381714,-0.048381127417087555,9.80473518371582,-0.0016531614078558903,0.004462683485632349,0.0027276098485334807,0.6499590873718262,2019-06-18 15:14:31:196
-0.1261194944381714,-0.05796012654900551,9.878972053527832,0.002209365202262191,0.004063111534174186,-0.0018008697105948246,0.6541028022766113,2019-06-18 15:14:31:200
-0.13569849729537964,-0.055565375834703445,9.843050956726074,0.0004778877754043595,0.0053950171721203095,0.001528894514307645,0.6599678993225098,2019-06-18 15:14:31:206
-0.1380932480096817,-0.05796012654900551,9.814313888549805,0.0003446972116097473,0.0053950171721203095,-0.0018008697105948246,0.6649584770202637,2019-06-18 15:14:31:211
-0.08540874719619751,-0.04598637670278549,9.814313888549805,0.005405938733332886,0.006726922810066432,-0.0022004415320158242,0.6699671745300293,2019-06-18 15:14:31:216
-0.12132999300956726,-0.04359162971377373,9.840656280517578,0.0027421274574406405,0.004196302097968799,0.005391421384500052,0.6740775108337402,2019-06-18 15:14:31:220
-0.13330374658107758,-0.08190762251615524,9.814313888549805,-0.0003212556723818955,0.0009997284368609412,0.001528894514307645,0.679110050201416,2019-06-18 15:14:31:225
-0.1380932480096817,-0.05317062884569168,9.840656280517578,0.00154341238328913,0.0019320623834232272,-0.0016676791468002124,0.684959888458252,2019-06-18 15:14:31:231
-0.14048798382282257,-0.05796012654900551,9.809524536132812,7.831605963855469e-05,0.0023316342048442266,-0.0004689640076301205,0.6899638175964355,2019-06-18 15:14:31:236
-0.10217199474573135,-0.034012630581855774,9.768814086914062,0.0014102218194945173,0.0011329190006555533,0.0031271815399173176,0.6940832138061523,2019-06-18 15:14:31:240
-0.10456674546003342,-0.026828380301594734,9.864603996276855,-0.0009872085238642476,0.005794589123578471,0.00166208520813942,0.6999669075012207,2019-06-18 15:14:31:246
-0.1189352422952652,-0.041196878999471664,9.756839752197266,-0.002452304790623564,0.004063111534174186,0.0001969888601068769,0.704958438873291,2019-06-18 15:14:31:251
-0.10935624688863754,-0.07711812108755112,9.809524536132812,0.0004778877754043595,0.0031307775876119005,0.00499184943304189,0.7090725898742676,2019-06-18 15:14:31:255
-0.10935624688863754,-0.012459882535040379,9.859814643859863,-0.0003212556723818955,0.0021984436410496144,6.379828412128062e-05,0.7151942253112793,2019-06-18 15:14:31:261
-0.09977724403142929,-0.055565375834703445,9.809524536132812,-0.0005876368324804107,0.0008665378730663289,0.0025944190246645436,0.719973087310791,2019-06-18 15:14:31:266
-0.16683024168014526,-0.06993387639522552,9.785576820373535,0.0010106500630920993,0.0021984436410496144,-0.0036655377337565594,0.7241010665893555,2019-06-18 15:14:31:270
-0.11654049158096313,-0.06993387639522552,9.831077575683594,-0.0027186859182127886,0.005927779427298759,-0.0006021545714247328,0.7299685478210449,2019-06-18 15:14:31:276
-0.11654049158096313,-0.05317062884569168,9.840656280517578,0.002209365202262191,0.002864396460022676,-0.0020672508381840496,0.7340741157531738,2019-06-18 15:14:31:280
-0.15485648810863495,-0.06274962425231934,9.80473518371582,-0.0028518764820074007,0.004462683485632349,0.0013957039505130327,0.7399601936340332,2019-06-18 15:14:31:286
-0.1117509976029396,-0.06753912568092346,9.795156478881836,-0.0035178293009804624,0.005661398299709534,0.002461228460869931,0.7440814971923828,2019-06-18 15:14:31:290
-0.14048798382282257,-0.01724938116967678,9.84544563293457,7.831605963855469e-05,0.0039299209703795735,-0.0006021545714247328,0.7499666213989258,2019-06-18 15:14:31:296
-0.11414574086666107,-0.029223131015896797,9.76402473449707,0.0008774594992974871,0.0039299209703795735,-0.0037987282975511715,0.7549595832824707,2019-06-18 15:14:31:301
-0.12372474372386932,-0.0028808838687837124,9.740077018737793,-0.004716544635206299,-0.0007317490225061812,0.0013957039505130327,0.7591023445129395,2019-06-18 15:14:31:305
-0.1309089958667755,-0.05796012654900551,9.802340507507324,0.0024757463298514157,0.0015324906920393903,-0.0012681074554163755,0.764981746673584,2019-06-18 15:14:31:311
-0.07343500107526779,-0.03640738129615784,9.847840309143066,-0.0025854953544181764,0.004329492661763411,-0.0004689640076301205,0.7690939903259277,2019-06-18 15:14:31:315
-0.11414574086666107,-0.029223131015896797,9.811919212341309,0.0003446972116097473,0.001399300128244778,-0.0022004415320158242,0.7749571800231934,2019-06-18 15:14:31:321
-0.11414574086666107,-0.08909187465906143,9.811919212341309,0.00021150663156048962,0.0019320623834232272,-0.0024668226596050486,0.779961109161377,2019-06-18 15:14:31:326
-0.1309089958667755,-0.055565375834703445,9.768814086914062,0.0004778877754043595,0.0016656812558340024,-0.0032659660423727224,0.7840762138366699,2019-06-18 15:14:31:330
-0.09019824862480164,-0.06274962425231934,9.778392791748047,0.0003446972116097473,0.0032639681514065122,-6.939229186431566e-05,0.7899670600891113,2019-06-18 15:14:31:336
-0.11654049158096313,-0.029223131015896797,9.811919212341309,-0.00018806509233263786,0.004329492661763411,-0.0016676791468002124,0.7940735816955566,2019-06-18 15:14:31:340
-0.1380932480096817,-0.06753912568092346,9.819103240966797,0.0019429840746729666,0.001798871819628615,-0.0026000132233996607,0.8000307083129883,2019-06-18 15:14:31:346
-0.09019824862480164,-0.048381127417087555,9.831077575683594,0.004074033095386763,0.0053950171721203095,0.002461228460869931,0.8049893379211426,2019-06-18 15:14:31:351
-0.1189352422952652,-0.06993387639522552,9.807129859924316,7.831605963855469e-05,0.003796730406584962,-0.004731062504187783,0.8090968132019043,2019-06-18 15:14:31:355
-0.14048798382282257,-0.055565375834703445,9.821497917175293,-0.0027186859182127886,0.003397158715201125,-0.0031327754785781103,0.8149714469909668,2019-06-18 15:14:31:361
-0.12132999300956726,-0.05317062884569168,9.8167085647583,-0.0009872085238642476,0.0039299209703795735,6.379828412128062e-05,0.8199601173400879,2019-06-18 15:14:31:366
-0.12372474372386932,-0.0388021282851696,9.807129859924316,0.0018097935108783545,-0.0011313207138900182,-0.0026000132233996607,0.8240780830383301,2019-06-18 15:14:31:370
-0.13569849729537964,-0.06993387639522552,9.823892593383789,-0.006181640576872708,0.0021984436410496144,-0.004597871680318845,0.8299641609191895,2019-06-18 15:14:31:376
-0.10217199474573135,-0.05317062884569168,9.876577377319336,-0.0015199708440612782,0.004462683485632349,0.001528894514307645,0.8340744972229004,2019-06-18 15:14:31:380
-0.1380932480096817,-0.048381127417087555,9.826288223266602,0.0030085085850298653,0.003796730406584962,-0.0016676791468002124,0.8399643898010254,2019-06-18 15:14:31:386
-0.10935624688863754,-0.0388021282851696,9.799945831298828,-0.0007208273962750229,0.0020652529472178394,-0.001934060274389437,0.8440794944763184,2019-06-18 15:14:31:390
-0.1309089958667755,-0.041196878999471664,9.778392791748047,-0.0016531614078558903,0.0020652529472178394,-0.0003357734438355082,0.8499884605407715,2019-06-18 15:14:31:396
-0.14288273453712463,-0.05317062884569168,9.811919212341309,0.003141699148824477,0.004595873789352636,-0.0032659660423727224,0.8550195693969727,2019-06-18 15:14:31:401
-0.10217199474573135,-0.04359162971377373,9.811919212341309,0.0014102218194945173,0.0011329190006555533,-0.0018008697105948246,0.8599677085876465,2019-06-18 15:14:31:406
-0.15006698668003082,-0.0843023732304573,9.811919212341309,-5.487451634704159e-05,0.0012661095644501657,0.0013957039505130327,0.86407470703125,2019-06-18 15:14:31:410
-0.1261194944381714,-0.06753912568092346,9.790366172790527,0.001143840691905293,0.004329492661763411,0.0040595154864796045,0.8699612617492676,2019-06-18 15:14:31:416
-0.14288273453712463,-0.09867087006568909,9.802340507507324,-5.487451634704159e-05,0.004462683485632349,-0.0003357734438355082,0.8740768432617188,2019-06-18 15:14:31:420
-0.1309089958667755,-0.06753912568092346,9.83347225189209,0.0018097935108783545,-0.0013977018414792427,0.0007297511315399715,0.8799624443054199,2019-06-18 15:14:31:426
-0.10456674546003342,-0.048381127417087555,9.86220932006836,0.0028753180212352527,0.004329492661763411,0.0017952757719340324,0.8840751647949219,2019-06-18 15:14:31:430
-0.12132999300956726,-0.029223131015896797,9.852629661560059,-0.0019195425354451149,0.004595873789352636,0.00166208520813942,0.8899722099304199,2019-06-18 15:14:31:436
-0.10217199474573135,-0.055565375834703445,9.823892593383789,-0.0012535897164720534,0.005794589123578471,0.0012625133867184206,0.8940844535827637,2019-06-18 15:14:31:440
-0.10217199474573135,-0.06035487726330757,9.77599811553955,0.0018097935108783545,0.004462683485632349,-0.0027332037871942733,0.8991026878356934,2019-06-18 15:14:31:445
-0.12372474372386932,-0.029223131015896797,9.783182144165039,-0.0005876368324804107,0.004329492661763411,-0.0022004415320158242,0.9049582481384277,2019-06-18 15:14:31:451
-0.13569849729537964,0.0019086154643446207,9.749655723571777,-0.0017863519716505025,0.005128636044531084,6.379828412128062e-05,0.9099583625793457,2019-06-18 15:14:31:456
-0.0925929993391037,-0.02443363144993782,9.799945831298828,0.002076174638467579,0.0049954457408107975,-0.0026000132233996607,0.9140796661376953,2019-06-18 15:14:31:460
-0.12132999300956726,-0.048381127417087555,9.704155921936035,0.001143840691905293,0.0025980153324334514,-0.0020672508381840496,0.9199662208557129,2019-06-18 15:14:31:466
-0.12851424515247345,-0.048381127417087555,9.737682342529297,-0.0021859236630343394,-0.0003321772986130537,0.0021948473332807066,0.9249582290649414,2019-06-18 15:14:31:471
-0.1189352422952652,0.01148761436343193,9.795156478881836,0.0006110783717082625,0.0036635398427903496,-0.00020258286378625062,0.9299635887145996,2019-06-18 15:14:31:476
-0.1189352422952652,-0.05317062884569168,9.778392791748047,0.0018097935108783545,0.0009997284368609412,0.0017952757719340324,0.9341039657592773,2019-06-18 15:14:31:480
-0.1189352422952652,-0.022038880735635757,9.838261604309082,-0.0008540179600696353,0.0020652529472178394,-0.0035323471699619468,0.9400696754455566,2019-06-18 15:14:31:486
-0.12851424515247345,-0.05796012654900551,9.828682899475098,-0.0008540179600696353,0.00632735137875692,0.00166208520813942,0.9440999031066895,2019-06-18 15:14:31:490
-0.1261194944381714,-0.06274962425231934,9.881366729736328,0.002209365202262191,-0.001530892405273855,-0.002999584914783498,0.9499650001525879,2019-06-18 15:14:31:496
-0.12132999300956726,-0.06035487726330757,9.787971496582031,-0.0033846387371858503,0.004595873789352636,-0.0037987282975511715,0.9540739059448242,2019-06-18 15:14:31:500
-0.061461251229047775,-0.06035487726330757,9.792760848999023,-0.0015199708440612782,0.001798871819628615,6.379828412128062e-05,0.959083080291748,2019-06-18 15:14:31:505
-0.1189352422952652,-0.07951287180185318,9.888551712036133,0.0006110783717082625,0.005528207995989247,-0.0028663943509888855,0.9649643898010254,2019-06-18 15:14:31:511
-0.13569849729537964,-0.06993387639522552,9.797551155090332,0.003141699148824477,-0.0007317490225061812,0.0011293228229238084,0.9699649810791016,2019-06-18 15:14:31:516
-0.10935624688863754,-0.026828380301594734,9.80473518371582,-0.00018806509233263786,-0.00019898671856379607,-0.0023336320958104364,0.9740705490112305,2019-06-18 15:14:31:520
-0.08540874719619751,-0.01724938116967678,9.811919212341309,-0.0011203991526774412,0.004196302097968799,-0.0016676791468002124,0.9791007041931152,2019-06-18 15:14:31:525
-0.12132999300956726,-0.06035487726330757,9.802340507507324,-0.0012535897164720534,0.0032639681514065122,0.001528894514307645,0.9850058555603027,2019-06-18 15:14:31:531
-0.14288273453712463,-0.05796012654900551,9.859814643859863,-0.0013867802802666658,0.005661398299709534,-0.003399156606167335,0.9899802207946777,2019-06-18 15:14:31:536
-0.12851424515247345,-0.05796012654900551,9.84544563293457,0.0003446972116097473,0.0008665378730663289,-0.0014012980192109879,0.9940738677978516,2019-06-18 15:14:31:540
-0.09977724403142929,-0.007670383434742689,9.8167085647583,0.003141699148824477,0.003796730406584962,-0.0023336320958104364,0.9999632835388184,2019-06-18 15:14:31:546
-0.16683024168014526,-0.0388021282851696,9.783182144165039,0.0006110783717082625,0.0036635398427903496,-0.0015344885830056003,1.0049681663513184,2019-06-18 15:14:31:551
-0.1189352422952652,-0.05317062884569168,9.847840309143066,0.0010106500630920993,0.0008665378730663289,-0.0010017262628085697,1.00907564163208,2019-06-18 15:14:31:555
-0.15246173739433289,-0.04359162971377373,9.826288223266602,0.0006110783717082625,-0.0012645112776846303,-0.0003357734438355082,1.0149531364440918,2019-06-18 15:14:31:561
-0.10935624688863754,-0.014854632318019867,9.759234428405762,-0.0017863519716505025,0.004729064613221573,-0.0006021545714247328,1.019071102142334,2019-06-18 15:14:31:565
-0.1189352422952652,-0.07472337782382965,9.773603439331055,0.0007442689355028748,0.004329492661763411,-0.0018008697105948246,1.0249829292297363,2019-06-18 15:14:31:571
-0.11414574086666107,-0.007670383434742689,9.819103240966797,0.0012770312556999051,0.004063111534174186,0.0011293228229238084,1.02998685836792,2019-06-18 15:14:31:576
-0.09977724403142929,-0.04598637670278549,9.792760848999023,0.0003446972116097473,0.0024648247686388392,-0.005530205886955456,1.0340838432312012,2019-06-18 15:14:31:580
-0.12132999300956726,-0.06753912568092346,9.823892593383789,-0.0025854953544181764,0.003530349278995737,0.0017952757719340324,1.03995943069458,2019-06-18 15:14:31:586
-0.1380932480096817,-0.0651443749666214,9.819103240966797,-0.0016531614078558903,0.005661398299709534,-0.0024668226596050486,1.0440773963928223,2019-06-18 15:14:31:590
-0.10935624688863754,-0.07232862710952759,9.802340507507324,0.003541270840208314,0.0053950171721203095,-0.0015344885830056003,1.049964427947998,2019-06-18 15:14:31:596
-0.15485648810863495,-0.05317062884569168,9.8167085647583,0.0027421274574406405,0.004063111534174186,-0.0008685356990139574,1.0549588203430176,2019-06-18 15:14:31:601
-0.10456674546003342,-0.08190762251615524,9.843050956726074,-5.487451634704159e-05,0.007392875889113818,0.0013957039505130327,1.0599703788757324,2019-06-18 15:14:31:606
-0.0925929993391037,-0.055565375834703445,9.864603996276855,0.0010106500630920993,6.739442934373515e-05,-0.0024668226596050486,1.0640997886657715,2019-06-18 15:14:31:610
-0.11654049158096313,-0.041196878999471664,9.838261604309082,0.0014102218194945173,0.001798871819628615,-0.004331490552729621,1.069981575012207,2019-06-18 15:14:31:616
-0.10935624688863754,-0.034012630581855774,9.771208763122559,0.0003446972116097473,0.0012661095644501657,0.0012625133867184206,1.07407808303833,2019-06-18 15:14:31:620
-0.11414574086666107,-0.014854632318019867,9.835866928100586,-0.0005876368324804107,0.0023316342048442266,0.0012625133867184206,1.079967975616455,2019-06-18 15:14:31:626
-0.09738249331712723,-0.041196878999471664,9.852629661560059,-5.487451634704159e-05,0.003397158715201125,-0.0008685356990139574,1.0849609375,2019-06-18 15:14:31:631
-0.10935624688863754,-0.06035487726330757,9.747261047363281,-0.003917400992364299,0.0023316342048442266,-0.0011349168916217633,1.0890707969665527,2019-06-18 15:14:31:635
-0.11414574086666107,-0.0388021282851696,9.778392791748047,-0.0021859236630343394,0.0011329190006555533,-0.004065109425140397,1.0949716567993164,2019-06-18 15:14:31:641
-0.09019824862480164,-0.05077587813138962,9.814313888549805,-0.0016531614078558903,0.001399300128244778,-0.0004689640076301205,1.099076747894287,2019-06-18 15:14:31:645
-0.1309089958667755,-0.07472337782382965,9.819103240966797,0.004207223659181376,0.0021984436410496144,-0.0023336320958104364,1.1049542427062988,2019-06-18 15:14:31:651
-0.08540874719619751,-0.07711812108755112,9.8167085647583,-0.0029850670458020133,0.0021984436410496144,-0.005929777318264968,1.1099700927734375,2019-06-18 15:14:31:656
-0.1644354909658432,-0.06274962425231934,9.773603439331055,0.0023425557660568036,0.0021984436410496144,0.00166208520813942,1.1140804290771484,2019-06-18 15:14:31:660
-0.09738249331712723,-0.04359162971377373,9.783182144165039,0.00021150663156048962,0.00486225491694186,0.0012625133867184206,1.119987964630127,2019-06-18 15:14:31:666
-0.10935624688863754,-0.05796012654900551,9.792760848999023,-0.0020527330992397273,0.0049954457408107975,0.0017952757719340324,1.1240754127502441,2019-06-18 15:14:31:670
-0.10456674546003342,-0.07472337782382965,9.828682899475098,0.0004778877754043595,0.008458400399470718,-0.0020672508381840496,1.1299591064453125,2019-06-18 15:14:31:676
-0.10456674546003342,-0.029223131015896797,9.809524536132812,-0.0005876368324804107,0.0031307775876119005,-0.0011349168916217633,1.1340785026550293,2019-06-18 15:14:31:680
-0.10217199474573135,-0.048381127417087555,9.783182144165039,0.0010106500630920993,0.007526066192834106,-0.0015344885830056003,1.1399621963500977,2019-06-18 15:14:31:686
-0.09019824862480164,-0.029223131015896797,9.740077018737793,-0.0003212556723818955,0.004729064613221573,-0.002999584914783498,1.1440744400024414,2019-06-18 15:14:31:690
-0.1189352422952652,-0.07232862710952759,9.785576820373535,-0.0008540179600696353,0.0023316342048442266,-0.004331490552729621,1.1499629020690918,2019-06-18 15:14:31:696
-0.12851424515247345,-0.041196878999471664,9.76402473449707,0.0007442689355028748,-0.0012645112776846303,0.0005965605677453591,1.1540846824645996,2019-06-18 15:14:31:700
-0.10935624688863754,-0.04598637670278549,9.86220932006836,0.00154341238328913,-0.001530892405273855,0.00326037210371193,1.1599678993225098,2019-06-18 15:14:31:706
-0.08780349791049957,-0.04598637670278549,9.766419410705566,0.002209365202262191,0.0007333473092717165,-0.00020258286378625062,1.1649584770202637,2019-06-18 15:14:31:711
-0.07582975178956985,-0.08909187465906143,9.80473518371582,-0.0003212556723818955,0.0004669661491732013,0.0021948473332807066,1.1699576377868652,2019-06-18 15:14:31:716
-0.1309089958667755,-0.04598637670278549,9.819103240966797,-0.0019195425354451149,0.0032639681514065122,-0.0018008697105948246,1.1741137504577637,2019-06-18 15:14:31:720
-0.09977724403142929,-0.026828380301594734,9.826288223266602,0.0010106500630920993,0.0039299209703795735,-0.0004689640076301205,1.1799683570861816,2019-06-18 15:14:31:726
-0.11414574086666107,-0.055565375834703445,9.840656280517578,-0.0020527330992397273,0.006726922810066432,0.003793134358890379,1.1840720176696777,2019-06-18 15:14:31:730
-0.13569849729537964,-0.055565375834703445,9.766419410705566,0.0003446972116097473,0.0021984436410496144,-0.0006021545714247328,1.1899595260620117,2019-06-18 15:14:31:736
-0.08780349791049957,-0.05317062884569168,9.749655723571777,-0.0008540179600696353,0.003796730406584962,-0.0008685356990139574,1.194077968597412,2019-06-18 15:14:31:740
-0.14288273453712463,-0.04359162971377373,9.80473518371582,0.0012770312556999051,0.002864396460022676,-0.003931918861345784,1.1991004943847656,2019-06-18 15:14:31:745
-0.09977724403142929,-0.05077587813138962,9.828682899475098,-5.487451634704159e-05,0.0020652529472178394,-0.0015344885830056003,1.2049574851989746,2019-06-18 15:14:31:751
-0.14288273453712463,-0.03640738129615784,9.828682899475098,-0.0019195425354451149,-0.000598558458711569,-0.004731062504187783,1.2099614143371582,2019-06-18 15:14:31:756
-0.09977724403142929,-0.05317062884569168,9.792760848999023,-0.0012535897164720534,0.0023316342048442266,0.0021948473332807066,1.2140793800354004,2019-06-18 15:14:31:760
-0.09019824862480164,-0.05317062884569168,9.840656280517578,-0.0009872085238642476,0.0016656812558340024,0.003926324922684992,1.219102382659912,2019-06-18 15:14:31:765
-0.10217199474573135,-0.055565375834703445,9.814313888549805,-0.0009872085238642476,0.01032306881274394,-0.0006021545714247328,1.224958896636963,2019-06-18 15:14:31:771
-0.1452774852514267,-0.05317062884569168,9.814313888549805,-0.00511611606651581,0.004595873789352636,0.0031271815399173176,1.229072093963623,2019-06-18 15:14:31:775
-0.12132999300956726,-0.06753912568092346,9.809524536132812,-0.0008540179600696353,0.004595873789352636,0.000996132259129196,1.2349638938903809,2019-06-18 15:14:31:781
-0.15246173739433289,-0.04359162971377373,9.778392791748047,0.0018097935108783545,0.0016656812558340024,-0.0004689640076301205,1.2399954795837402,2019-06-18 15:14:31:786
-0.14767223596572876,-0.04598637670278549,9.76402473449707,-0.0035178293009804624,0.0016656812558340024,-0.0011349168916217633,1.2440953254699707,2019-06-18 15:14:31:790
-0.1452774852514267,-0.05077587813138962,9.790366172790527,0.003141699148824477,0.0021984436410496144,-6.939229186431566e-05,1.2499661445617676,2019-06-18 15:14:31:796
-0.15964598953723907,-0.0388021282851696,9.831077575683594,0.0036744614040029266,0.0025980153324334514,0.002461228460869931,1.2549591064453125,2019-06-18 15:14:31:801
-0.09977724403142929,-0.04598637670278549,9.811919212341309,0.0024757463298514157,0.0049954457408107975,0.0007297511315399715,1.2600135803222656,2019-06-18 15:14:31:806
-0.09498775005340576,-0.029223131015896797,9.771208763122559,-0.0015199708440612782,0.007925638144292268,0.0019284663357286445,1.2640957832336426,2019-06-18 15:14:31:810
-0.10935624688863754,-0.048381127417087555,9.826288223266602,0.0008774594992974871,0.006993303937655657,0.0004633700039507468,1.269965648651123,2019-06-18 15:14:31:816
-0.16204074025154114,-0.05317062884569168,9.797551155090332,-0.0013867802802666658,0.004196302097968799,0.000996132259129196,1.2749629020690918,2019-06-18 15:14:31:821
-0.09498775005340576,-0.055565375834703445,9.759234428405762,-0.0029850670458020133,0.005927779427298759,0.0027276098485334807,1.2799615859985352,2019-06-18 15:14:31:826
-0.1309089958667755,-0.05796012654900551,9.720918655395508,-0.0016531614078558903,0.004329492661763411,0.0011293228229238084,1.284996509552002,2019-06-18 15:14:31:831
-0.1452774852514267,-0.02443363144993782,9.778392791748047,0.0010106500630920993,0.006460541682477208,0.004192706050274216,1.2890925407409668,2019-06-18 15:14:31:835
-0.1309089958667755,-0.06035487726330757,9.76402473449707,-0.004583353811337361,-0.000598558458711569,0.003659943795095767,1.294957160949707,2019-06-18 15:14:31:841
-0.11654049158096313,-0.048381127417087555,9.855024337768555,-0.0021859236630343394,-0.0008649395863007935,0.0008629416953345836,1.2999615669250488,2019-06-18 15:14:31:846
-0.1380932480096817,-0.026828380301594734,9.831077575683594,-5.487451634704159e-05,0.0053950171721203095,6.379828412128062e-05,1.3040785789489746,2019-06-18 15:14:31:850
-0.08540874719619751,-0.022038880735635757,9.869393348693848,-0.00045444623617650777,0.0025980153324334514,0.0008629416953345836,1.309981346130371,2019-06-18 15:14:31:856
-0.11654049158096313,-0.055565375834703445,9.790366172790527,0.005405938733332886,0.005661398299709534,-0.00020258286378625062,1.3149561882019043,2019-06-18 15:14:31:861
-0.14767223596572876,-0.08909187465906143,9.787971496582031,-0.00045444623617650777,0.004063111534174186,-0.0035323471699619468,1.3190703392028809,2019-06-18 15:14:31:865
-0.1380932480096817,-0.04598637670278549,9.809524536132812,-0.00045444623617650777,0.0009997284368609412,-0.0018008697105948246,1.3249659538269043,2019-06-18 15:14:31:871
-0.12372474372386932,-0.06035487726330757,9.783182144165039,-0.0009872085238642476,0.0016656812558340024,-0.0015344885830056003,1.3299832344055176,2019-06-18 15:14:31:876
-0.12372474372386932,-0.06274962425231934,9.771208763122559,-0.0017863519716505025,0.004063111534174186,-0.0022004415320158242,1.334085464477539,2019-06-18 15:14:31:880
-0.11654049158096313,-0.04598637670278549,9.797551155090332,0.001676602947083742,0.0011329190006555533,0.000996132259129196,1.3399620056152344,2019-06-18 15:14:31:886
-0.14048798382282257,-0.022038880735635757,9.747261047363281,0.00021150663156048962,0.001399300128244778,-0.0053970150630865184,1.3440794944763184,2019-06-18 15:14:31:890
-0.13330374658107758,-0.05796012654900551,9.838261604309082,0.00154341238328913,0.0009997284368609412,-0.00020258286378625062,1.349982738494873,2019-06-18 15:14:31:896
-0.14288273453712463,-0.06993387639522552,9.835866928100586,0.0003446972116097473,0.006593732506346145,-0.0015344885830056003,1.3540887832641602,2019-06-18 15:14:31:900
-0.09019824862480164,-0.034012630581855774,9.809524536132812,-5.487451634704159e-05,0.00486225491694186,0.002328037897075319,1.3599834442138672,2019-06-18 15:14:31:906
-0.12851424515247345,-0.04359162971377373,9.809524536132812,-5.487451634704159e-05,0.0024648247686388392,-0.0022004415320158242,1.3640785217285156,2019-06-18 15:14:31:910
-0.12132999300956726,-0.06274962425231934,9.790366172790527,-0.0020527330992397273,0.006726922810066432,-0.0015344885830056003,1.3699650764465332,2019-06-18 15:14:31:916
-0.14048798382282257,-0.034012630581855774,9.744866371154785,0.0026089368936460283,0.008458400399470718,0.003659943795095767,1.374290943145752,2019-06-18 15:14:31:920
-0.14048798382282257,-0.0388021282851696,9.77599811553955,-0.003118257609596625,0.0009997284368609412,0.0019284663357286445,1.3799691200256348,2019-06-18 15:14:31:926
-0.12372474372386932,-0.02443363144993782,9.797551155090332,-0.0008540179600696353,-0.0017972735328630795,-0.0023336320958104364,1.3849577903747559,2019-06-18 15:14:31:931
-0.0925929993391037,-0.03161787986755371,9.807129859924316,0.002209365202262191,-6.579614257819981e-05,-0.002999584914783498,1.3890719413757324,2019-06-18 15:14:31:935
-0.11414574086666107,-0.05796012654900551,9.811919212341309,0.0006110783717082625,0.0036635398427903496,-0.004065109425140397,1.3951663970947266,2019-06-18 15:14:31:941
-0.1117509976029396,-0.05796012654900551,9.797551155090332,-0.0025854953544181764,0.0061941605548879826,-0.0011349168916217633,1.3999733924865723,2019-06-18 15:14:31:946
-0.12851424515247345,-0.07232862710952759,9.83347225189209,-0.0008540179600696353,0.007392875889113818,6.379828412128062e-05,1.4040732383728027,2019-06-18 15:14:31:950
-0.17401449382305145,-0.041196878999471664,9.771208763122559,-0.0007208273962750229,0.0012661095644501657,0.0003301794401561345,1.4099621772766113,2019-06-18 15:14:31:956
-0.1261194944381714,-0.04598637670278549,9.785576820373535,-0.0025854953544181764,0.006060970251167696,-0.003399156606167335,1.4140772819519043,2019-06-18 15:14:31:960
-0.16683024168014526,-0.06035487726330757,9.77599811553955,0.00154341238328913,0.003530349278995737,-0.0028663943509888855,1.4191079139709473,2019-06-18 15:14:31:965
-0.08780349791049957,-0.0388021282851696,9.778392791748047,-0.0019195425354451149,0.0009997284368609412,-0.0026000132233996607,1.4249567985534668,2019-06-18 15:14:31:971
-0.10696149617433548,-0.07711812108755112,9.783182144165039,-0.0021859236630343394,0.0025980153324334514,0.0003301794401561345,1.4299616813659668,2019-06-18 15:14:31:976
-0.08301399648189545,-0.034012630581855774,9.797551155090332,-0.0005876368324804107,0.006993303937655657,-0.0008685356990139574,1.4340786933898926,2019-06-18 15:14:31:980
-0.10456674546003342,-0.022038880735635757,9.823892593383789,-0.0035178293009804624,-0.00046536786240766596,-0.0003357734438355082,1.4392528533935547,2019-06-18 15:14:31:985
-0.1261194944381714,-0.05317062884569168,9.855024337768555,-0.0008540179600696353,0.004462683485632349,-0.003399156606167335,1.44549560546875,2019-06-18 15:14:31:991
-0.10935624688863754,-0.03161787986755371,9.8167085647583,-0.0032514481733912377,0.0049954457408107975,-0.0041982999889350085,1.4504737854003906,2019-06-18 15:14:31:996
-0.14288273453712463,-0.05317062884569168,9.838261604309082,-0.0011203991526774412,0.006060970251167696,-0.0008685356990139574,1.4540905952453613,2019-06-18 15:14:32:000
-0.09019824862480164,-0.048381127417087555,9.759234428405762,-0.0003212556723818955,0.007126494761524595,0.003393562667506543,1.4599852561950684,2019-06-18 15:14:32:006
-0.14048798382282257,-0.041196878999471664,9.77599811553955,-0.002452304790623564,0.007259685065244881,-0.0012681074554163755,1.4641108512878418,2019-06-18 15:14:32:010
-0.13569849729537964,-0.02443363144993782,9.80473518371582,-0.0016531614078558903,0.002997587023817288,0.002860800412328093,1.4699654579162598,2019-06-18 15:14:32:016
-0.10935624688863754,-0.06035487726330757,9.787971496582031,-0.0017863519716505025,0.005927779427298759,-0.0036655377337565594,1.4740748405456543,2019-06-18 15:14:32:020
-0.12132999300956726,-0.048381127417087555,9.811919212341309,0.0003446972116097473,0.0027312058962280636,0.0005965605677453591,1.4799585342407227,2019-06-18 15:14:32:026
-0.12132999300956726,-0.05796012654900551,9.835866928100586,0.002209365202262191,0.0019320623834232272,0.00166208520813942,1.4841065406799316,2019-06-18 15:14:32:030
-0.12372474372386932,-0.014854632318019867,9.797551155090332,-0.0007208273962750229,-0.0013977018414792427,0.002461228460869931,1.4899630546569824,2019-06-18 15:14:32:036
-0.09498775005340576,-0.026828380301594734,9.859814643859863,-0.0003212556723818955,0.0036635398427903496,0.0001969888601068769,1.4940743446350098,2019-06-18 15:14:32:040
-0.11654049158096313,-0.04359162971377373,9.823892593383789,0.0014102218194945173,0.005261826868400022,-0.0020672508381840496,1.4999594688415527,2019-06-18 15:14:32:046
-0.0925929993391037,-0.06753912568092346,9.80473518371582,-0.0011203991526774412,0.0076592570167030435,0.004459087177863441,1.5043282508850098,2019-06-18 15:14:32:050
-0.14288273453712463,-0.05077587813138962,9.76402473449707,-0.0012535897164720534,0.007925638144292268,0.001528894514307645,1.5099825859069824,2019-06-18 15:14:32:056
-0.12372474372386932,-0.04598637670278549,9.723313331604004,0.002209365202262191,0.006060970251167696,0.002461228460869931,1.5140738487243652,2019-06-18 15:14:32:060
-0.12372474372386932,-0.08669712394475937,9.799945831298828,0.0019429840746729666,0.003530349278995737,0.0013957039505130327,1.5199599266052246,2019-06-18 15:14:32:066
-0.12851424515247345,-0.034012630581855774,9.75444507598877,0.0007442689355028748,0.005128636044531084,0.001528894514307645,1.5240845680236816,2019-06-18 15:14:32:070
-0.13330374658107758,-0.012459882535040379,9.778392791748047,-0.00045444623617650777,0.002864396460022676,0.002328037897075319,1.5299768447875977,2019-06-18 15:14:32:076
-0.10217199474573135,-0.055565375834703445,9.771208763122559,-0.0009872085238642476,0.0032639681514065122,0.005657802512089276,1.5350942611694336,2019-06-18 15:14:32:081
-0.08301399648189545,-0.0388021282851696,9.83347225189209,0.0006110783717082625,0.0015324906920393903,0.0035267532313011545,1.5399808883666992,2019-06-18 15:14:32:086
-0.1452774852514267,-0.07951287180185318,9.785576820373535,-0.0003212556723818955,0.005927779427298759,-6.939229186431566e-05,1.5440783500671387,2019-06-18 15:14:32:090
-0.10696149617433548,-0.022038880735635757,9.852629661560059,0.0038076519677975387,0.004196302097968799,-0.0020672508381840496,1.549980640411377,2019-06-18 15:14:32:096
-0.10217199474573135,-0.03161787986755371,9.795156478881836,0.0007442689355028748,0.008991162654649167,6.379828412128062e-05,1.554090976715088,2019-06-18 15:14:32:100
-0.10696149617433548,-0.07472337782382965,9.749655723571777,7.831605963855469e-05,0.0049954457408107975,-0.0022004415320158242,1.5599799156188965,2019-06-18 15:14:32:106
-0.08780349791049957,-0.005275633651763201,9.802340507507324,-0.0019195425354451149,-0.00046536786240766596,0.006190564767267726,1.5640835762023926,2019-06-18 15:14:32:110
-0.12132999300956726,-0.0651443749666214,9.8167085647583,-0.0037842104285696868,0.005528207995989247,0.0011293228229238084,1.569962978363037,2019-06-18 15:14:32:116
-0.11414574086666107,-0.005275633651763201,9.737682342529297,0.00154341238328913,-0.00019898671856379607,-0.00020258286378625062,1.5740766525268555,2019-06-18 15:14:32:120
-0.10935624688863754,-0.04598637670278549,9.799945831298828,-0.00018806509233263786,-0.00019898671856379607,0.0008629416953345836,1.5791325569152832,2019-06-18 15:14:32:125
-0.09498775005340576,0.004303365014493465,9.893341064453125,-0.0008540179600696353,0.005661398299709534,-0.0003357734438355082,1.584958553314209,2019-06-18 15:14:32:131
-0.04948750138282776,-0.08909187465906143,9.838261604309082,0.00154341238328913,0.0039299209703795735,0.0011293228229238084,1.5899615287780762,2019-06-18 15:14:32:136
-0.12372474372386932,-0.05796012654900551,9.802340507507324,-0.0007208273962750229,0.00686011363393537,0.0008629416953345836,1.59409761428833,2019-06-18 15:14:32:140
-0.14048798382282257,-0.026828380301594734,9.80473518371582,0.0008774594992974871,0.005528207995989247,6.379828412128062e-05,1.599968433380127,2019-06-18 15:14:32:146
-0.08061924576759338,-0.03640738129615784,9.828682899475098,-0.003118257609596625,-0.0003321772986130537,-0.0035323471699619468,1.604076862335205,2019-06-18 15:14:32:150
-0.10217199474573135,-0.04359162971377373,9.790366172790527,-0.0007208273962750229,0.004729064613221573,0.002328037897075319,1.6099615097045898,2019-06-18 15:14:32:156
-0.13569849729537964,-0.10824987292289734,9.835866928100586,0.0003446972116097473,-0.0012645112776846303,0.002461228460869931,1.6140861511230469,2019-06-18 15:14:32:160
-0.12851424515247345,-0.0388021282851696,9.814313888549805,0.002209365202262191,-0.0025964169156307533,0.0012625133867184206,1.6199607849121094,2019-06-18 15:14:32:166
-0.1189352422952652,-0.07711812108755112,9.811919212341309,0.001143840691905293,0.00632735137875692,0.003793134358890379,1.6241068840026855,2019-06-18 15:14:32:170
-0.07104025036096573,-0.01724938116967678,9.86220932006836,-0.0003212556723818955,0.0019320623834232272,-0.0004689640076301205,1.6299653053283691,2019-06-18 15:14:32:176
-0.0925929993391037,-0.07472337782382965,9.823892593383789,-0.0020527330992397273,0.005128636044531084,-0.0018008697105948246,1.6340746879577637,2019-06-18 15:14:32:180
-0.08301399648189545,-0.055565375834703445,9.857419967651367,-0.0003212556723818955,0.004063111534174186,0.0040595154864796045,1.6399598121643066,2019-06-18 15:14:32:186
-0.1189352422952652,-0.034012630581855774,9.768814086914062,0.0007442689355028748,0.0016656812558340024,-0.0011349168916217633,1.6449904441833496,2019-06-18 15:14:32:191
-0.0925929993391037,-0.06993387639522552,9.819103240966797,-0.0009872085238642476,0.004595873789352636,0.0019284663357286445,1.649085521697998,2019-06-18 15:14:32:195
-0.12132999300956726,-0.04359162971377373,9.778392791748047,0.0018097935108783545,0.002997587023817288,-0.0032659660423727224,1.6549553871154785,2019-06-18 15:14:32:201
-0.0925929993391037,-0.022038880735635757,9.785576820373535,-5.487451634704159e-05,0.00033377558537858905,-0.00020258286378625062,1.6599817276000977,2019-06-18 15:14:32:206
-0.12851424515247345,-0.04598637670278549,9.773603439331055,-0.0033846387371858503,-0.0007317490225061812,-0.0028663943509888855,1.6640830039978027,2019-06-18 15:14:32:210
-0.1309089958667755,-0.034012630581855774,9.780787467956543,0.0004778877754043595,0.0036635398427903496,0.0008629416953345836,1.6699786186218262,2019-06-18 15:14:32:216
-0.0925929993391037,-0.04359162971377373,9.80473518371582,0.003940842531592151,0.0020652529472178394,0.0012625133867184206,1.674079418182373,2019-06-18 15:14:32:220
-0.14288273453712463,-0.041196878999471664,9.797551155090332,0.001143840691905293,0.0015324906920393903,-0.0015344885830056003,1.679959774017334,2019-06-18 15:14:32:226
-0.07343500107526779,-0.0914866253733635,9.835866928100586,0.0007442689355028748,0.005661398299709534,-0.0028663943509888855,1.6840825080871582,2019-06-18 15:14:32:230
-0.0925929993391037,-0.07232862710952759,9.850234985351562,0.0018097935108783545,0.008857972350928878,-0.005130633935497294,1.6899805068969727,2019-06-18 15:14:32:236
-0.11414574086666107,-0.05796012654900551,9.840656280517578,-0.005915259449283483,0.005128636044531084,-0.0024668226596050486,1.694077968597412,2019-06-18 15:14:32:240
-0.11654049158096313,-0.0651443749666214,9.83347225189209,0.004074033095386763,0.006726922810066432,-0.003399156606167335,1.6999592781066895,2019-06-18 15:14:32:246
-0.1189352422952652,-0.0388021282851696,9.76402473449707,0.0003446972116097473,0.003796730406584962,0.0007297511315399715,1.70408296585083,2019-06-18 15:14:32:250
-0.12372474372386932,-0.05077587813138962,9.785576820373535,-0.0007208273962750229,-0.000598558458711569,-0.0026000132233996607,1.7100186347961426,2019-06-18 15:14:32:256
-0.09019824862480164,-0.048381127417087555,9.77599811553955,0.0030085085850298653,0.004196302097968799,-0.0032659660423727224,1.7140917778015137,2019-06-18 15:14:32:260
-0.12851424515247345,-0.07232862710952759,9.864603996276855,-0.002452304790623564,0.002997587023817288,-0.0023336320958104364,1.7199583053588867,2019-06-18 15:14:32:266
-0.10456674546003342,-0.029223131015896797,9.795156478881836,-0.002452304790623564,0.0036635398427903496,6.379828412128062e-05,1.724968433380127,2019-06-18 15:14:32:271
-0.08301399648189545,-0.055565375834703445,9.802340507507324,-0.0013867802802666658,0.007259685065244881,-0.001934060274389437,1.7291007041931152,2019-06-18 15:14:32:275
-0.10217199474573135,-0.05796012654900551,9.809524536132812,-0.0009872085238642476,0.0015324906920393903,-0.00486425280790807,1.734968662261963,2019-06-18 15:14:32:281
-0.0925929993391037,-0.04359162971377373,9.780787467956543,-0.0019195425354451149,0.006593732506346145,-0.00486425280790807,1.739077091217041,2019-06-18 15:14:32:285
-0.09738249331712723,-0.055565375834703445,9.783182144165039,-0.0007208273962750229,0.0036635398427903496,-0.0041982999889350085,1.7449607849121094,2019-06-18 15:14:32:291
-0.09977724403142929,-0.014854632318019867,9.823892593383789,-0.0005876368324804107,0.004063111534174186,0.000996132259129196,1.749082088470459,2019-06-18 15:14:32:295
-0.10696149617433548,-0.022038880735635757,9.80473518371582,0.0004778877754043595,0.00486225491694186,-0.0004689640076301205,1.7549633979797363,2019-06-18 15:14:32:301
-0.10696149617433548,-0.07472337782382965,9.8167085647583,-0.0036510198647750746,0.0027312058962280636,0.004592277481583728,1.759106159210205,2019-06-18 15:14:32:305
-0.10217199474573135,-0.07472337782382965,9.814313888549805,0.002209365202262191,0.0053950171721203095,0.0031271815399173176,1.7649550437927246,2019-06-18 15:14:32:311
-0.08780349791049957,-0.05317062884569168,9.780787467956543,-0.0036510198647750746,-0.0009981301500954058,-0.0036655377337565594,1.7690739631652832,2019-06-18 15:14:32:315
-0.13569849729537964,-0.034012630581855774,9.787971496582031,-0.0008540179600696353,-0.000598558458711569,-0.0008685356990139574,1.774965763092041,2019-06-18 15:14:32:321
-0.1261194944381714,-0.07232862710952759,9.716129302978516,-0.0003212556723818955,0.008192019271881493,0.0001969888601068769,1.7790884971618652,2019-06-18 15:14:32:325
-0.10935624688863754,-0.05317062884569168,9.783182144165039,-0.0028518764820074007,0.007259685065244881,-0.0022004415320158242,1.7849555015563965,2019-06-18 15:14:32:331
-0.08540874719619751,-0.06035487726330757,9.771208763122559,0.0007442689355028748,0.0053950171721203095,-0.0024668226596050486,1.7890753746032715,2019-06-18 15:14:32:335
-0.15964598953723907,-0.03161787986755371,9.809524536132812,-0.0028518764820074007,0.0023316342048442266,-0.0012681074554163755,1.7949609756469727,2019-06-18 15:14:32:341
-0.14048798382282257,-0.026828380301594734,9.771208763122559,-5.487451634704159e-05,0.0016656812558340024,-0.0016676791468002124,1.7990961074829102,2019-06-18 15:14:32:345
-0.0925929993391037,-0.026828380301594734,9.819103240966797,-0.0008540179600696353,0.0039299209703795735,0.0012625133867184206,1.8049583435058594,2019-06-18 15:14:32:351
-0.13569849729537964,-0.07472337782382965,9.778392791748047,0.0023425557660568036,-0.0008649395863007935,0.0017952757719340324,1.8090739250183105,2019-06-18 15:14:32:355
-0.11414574086666107,-0.029223131015896797,9.766419410705566,0.0027421274574406405,0.0024648247686388392,-0.0015344885830056003,1.8149619102478027,2019-06-18 15:14:32:361
-0.1261194944381714,-0.041196878999471664,9.823892593383789,-0.0033846387371858503,0.002997587023817288,-0.0041982999889350085,1.820019245147705,2019-06-18 15:14:32:366
-0.09019824862480164,-0.05077587813138962,9.838261604309082,-0.00045444623617650777,0.005128636044531084,-0.0015344885830056003,1.8249621391296387,2019-06-18 15:14:32:371
-0.07582975178956985,-0.0914866253733635,9.855024337768555,-0.0017863519716505025,0.0024648247686388392,-0.000735345135219345,1.8299593925476074,2019-06-18 15:14:32:376
-0.14767223596572876,-0.034012630581855774,9.802340507507324,0.0026089368936460283,0.004462683485632349,-0.0015344885830056003,1.8340826034545898,2019-06-18 15:14:32:380
-0.12132999300956726,-0.07232862710952759,9.790366172790527,-0.0007208273962750229,0.005128636044531084,-0.0012681074554163755,1.8399624824523926,2019-06-18 15:14:32:386
-0.09977724403142929,-0.01724938116967678,9.819103240966797,0.00021150663156048962,0.0019320623834232272,0.0011293228229238084,1.8440804481506348,2019-06-18 15:14:32:390
-0.08780349791049957,-0.07711812108755112,9.814313888549805,0.005405938733332886,0.004462683485632349,-0.0016676791468002124,1.849968433380127,2019-06-18 15:14:32:396
-0.1309089958667755,-0.05317062884569168,9.730497360229492,-0.0023191142268289516,-6.579614257819981e-05,0.0012625133867184206,1.8540749549865723,2019-06-18 15:14:32:400
-0.09498775005340576,-0.055565375834703445,9.747261047363281,-0.0005876368324804107,0.004595873789352636,-0.00020258286378625062,1.8599896430969238,2019-06-18 15:14:32:406
-0.1117509976029396,-0.02443363144993782,9.811919212341309,0.0012770312556999051,0.003530349278995737,0.0029939909761227054,1.8641090393066406,2019-06-18 15:14:32:410
-0.09977724403142929,-0.041196878999471664,9.797551155090332,-0.0032514481733912377,0.0009997284368609412,0.000996132259129196,1.8699660301208496,2019-06-18 15:14:32:416
-0.1189352422952652,-0.13219736516475677,9.847840309143066,0.0004778877754043595,0.0031307775876119005,-0.0037987282975511715,1.8740763664245605,2019-06-18 15:14:32:420
-0.11654049158096313,-0.05077587813138962,9.807129859924316,0.0014102218194945173,0.0061941605548879826,0.0008629416953345836,1.879960536956787,2019-06-18 15:14:32:426
-0.11654049158096313,-0.029223131015896797,9.814313888549805,0.0014102218194945173,0.007126494761524595,-0.0010017262628085697,1.8840842247009277,2019-06-18 15:14:32:430
-0.09977724403142929,-0.08909187465906143,9.783182144165039,7.831605963855469e-05,0.004196302097968799,-0.0012681074554163755,1.890000820159912,2019-06-18 15:14:32:436
-0.09977724403142929,-0.06993387639522552,9.799945831298828,-0.0036510198647750746,0.0027312058962280636,-0.0006021545714247328,1.8940825462341309,2019-06-18 15:14:32:440
-0.10696149617433548,-0.019644131883978844,9.716129302978516,-5.487451634704159e-05,0.0020652529472178394,-0.0014012980192109879,1.899958610534668,2019-06-18 15:14:32:446
-0.08780349791049957,-0.01006513275206089,9.835866928100586,0.0008774594992974871,0.005128636044531084,-0.004997443631777007,1.9051556587219238,2019-06-18 15:14:32:451
-0.10217199474573135,-0.012459882535040379,9.838261604309082,0.0007442689355028748,0.006593732506346145,0.0040595154864796045,1.90910005569458,2019-06-18 15:14:32:455
-0.14288273453712463,-0.0388021282851696,9.876577377319336,0.005805510684791048,0.006726922810066432,0.002328037897075319,1.9149532318115234,2019-06-18 15:14:32:461
-0.11414574086666107,-0.05077587813138962,9.828682899475098,-0.0005876368324804107,0.004595873789352636,-0.0027332037871942733,1.9199581146240234,2019-06-18 15:14:32:466
-0.12372474372386932,-0.04359162971377373,9.84544563293457,0.0019429840746729666,0.003796730406584962,-6.939229186431566e-05,1.9240832328796387,2019-06-18 15:14:32:470
-0.10935624688863754,-0.04359162971377373,9.8167085647583,-0.0007208273962750229,0.001399300128244778,-0.0008685356990139574,1.9299631118774414,2019-06-18 15:14:32:476
-0.14048798382282257,-0.014854632318019867,9.8167085647583,0.0006110783717082625,0.0020652529472178394,0.001528894514307645,1.934074878692627,2019-06-18 15:14:32:480
-0.1117509976029396,-0.012459882535040379,9.835866928100586,-0.0023191142268289516,0.0031307775876119005,0.002860800412328093,1.9399771690368652,2019-06-18 15:14:32:486
-0.1309089958667755,-0.022038880735635757,9.823892593383789,-0.0003212556723818955,0.0019320623834232272,-0.003399156606167335,1.944077968597412,2019-06-18 15:14:32:490
-0.1261194944381714,-0.029223131015896797,9.809524536132812,0.003940842531592151,0.005128636044531084,-0.0015344885830056003,1.9499812126159668,2019-06-18 15:14:32:496
-0.09019824862480164,-0.041196878999471664,9.83347225189209,0.00021150663156048962,-0.0007317490225061812,0.0003301794401561345,1.9540910720825195,2019-06-18 15:14:32:500
-0.1261194944381714,-0.029223131015896797,9.773603439331055,-0.00018806509233263786,0.0019320623834232272,-0.00020258286378625062,1.9599604606628418,2019-06-18 15:14:32:506
-0.10456674546003342,-0.01006513275206089,9.802340507507324,-0.00018806509233263786,0.005261826868400022,-0.0028663943509888855,1.9640841484069824,2019-06-18 15:14:32:510
-0.10935624688863754,-0.03640738129615784,9.80473518371582,0.004074033095386763,0.0032639681514065122,-0.00020258286378625062,1.9699640274047852,2019-06-18 15:14:32:516
-0.1261194944381714,-0.03640738129615784,9.790366172790527,-0.0015199708440612782,0.005528207995989247,0.0029939909761227054,1.974076747894287,2019-06-18 15:14:32:520
-0.10217199474573135,-0.055565375834703445,9.761629104614258,0.0004778877754043595,0.004329492661763411,0.0025944190246645436,1.979963779449463,2019-06-18 15:14:32:526
-0.08540874719619751,-0.0388021282851696,9.811919212341309,0.001143840691905293,0.004063111534174186,-0.0026000132233996607,1.9849987030029297,2019-06-18 15:14:32:531
-0.12372474372386932,-0.05796012654900551,9.838261604309082,0.0012770312556999051,0.0004669661491732013,0.0005965605677453591,1.9890809059143066,2019-06-18 15:14:32:535
-0.09498775005340576,-0.012459882535040379,9.838261604309082,-0.0025854953544181764,0.007792447840571981,0.0012625133867184206,1.9949803352355957,2019-06-18 15:14:32:541
-0.09738249331712723,-0.05077587813138962,9.8167085647583,-0.0013867802802666658,0.003796730406584962,-0.005130633935497294,1.999089241027832,2019-06-18 15:14:32:545
-0.14048798382282257,-0.03161787986755371,9.785576820373535,0.004340414222975988,0.004329492661763411,-0.0027332037871942733,2.0049543380737305,2019-06-18 15:14:32:551
-0.12132999300956726,-0.06274962425231934,9.828682899475098,0.004873176478154437,0.006993303937655657,-0.0041982999889350085,2.0090723037719727,2019-06-18 15:14:32:555
-0.1117509976029396,-0.06035487726330757,9.773603439331055,-0.002452304790623564,0.004595873789352636,0.001528894514307645,2.0149645805358887,2019-06-18 15:14:32:561
-0.15246173739433289,-0.09388136863708496,9.80473518371582,0.002209365202262191,-0.0013977018414792427,-0.0022004415320158242,2.019080638885498,2019-06-18 15:14:32:565
-0.1644354909658432,-0.05796012654900551,9.799945831298828,0.0012770312556999051,0.0019320623834232272,0.0040595154864796045,2.025219440460205,2019-06-18 15:14:32:571
-0.08780349791049957,-0.03161787986755371,9.790366172790527,0.0012770312556999051,0.004063111534174186,-0.0015344885830056003,2.0291008949279785,2019-06-18 15:14:32:575
-0.12851424515247345,-0.07711812108755112,9.761629104614258,-0.0009872085238642476,0.00486225491694186,-0.0035323471699619468,2.034956455230713,2019-06-18 15:14:32:581
-0.1117509976029396,-0.03640738129615784,9.828682899475098,0.0004778877754043595,0.002997587023817288,-0.0027332037871942733,2.039083480834961,2019-06-18 15:14:32:585
-0.1452774852514267,-0.06993387639522552,9.881366729736328,0.004340414222975988,0.0031307775876119005,0.0005965605677453591,2.0449585914611816,2019-06-18 15:14:32:591
-0.12132999300956726,-0.055565375834703445,9.843050956726074,0.0012770312556999051,0.0016656812558340024,0.002461228460869931,2.049074649810791,2019-06-18 15:14:32:595
-0.10217199474573135,-0.01724938116967678,9.828682899475098,-0.0028518764820074007,0.0002005850053293314,-6.939229186431566e-05,2.054964542388916,2019-06-18 15:14:32:601
-0.17401449382305145,-0.014854632318019867,9.900525093078613,0.00021150663156048962,0.005794589123578471,-0.002999584914783498,2.0590834617614746,2019-06-18 15:14:32:605
-0.08540874719619751,-0.04359162971377373,9.900525093078613,-0.006980784479789033,0.005927779427298759,0.0012625133867184206,2.064958095550537,2019-06-18 15:14:32:611
-0.09498775005340576,-0.014854632318019867,9.807129859924316,0.0027421274574406405,0.003530349278995737,-0.004731062504187783,2.069328784942627,2019-06-18 15:14:32:615
-0.12132999300956726,-0.029223131015896797,9.787971496582031,-0.0005876368324804107,0.0031307775876119005,0.0001969888601068769,2.0740885734558105,2019-06-18 15:14:32:620
-0.08061924576759338,-0.05077587813138962,9.840656280517578,-0.0025854953544181764,0.003530349278995737,-0.00020258286378625062,2.079960823059082,2019-06-18 15:14:32:626
-0.1452774852514267,-0.06035487726330757,9.802340507507324,-0.0019195425354451149,0.00486225491694186,0.000996132259129196,2.084993839263916,2019-06-18 15:14:32:631
-0.14048798382282257,-0.06035487726330757,9.866998672485352,-0.0005876368324804107,0.0031307775876119005,-6.939229186431566e-05,2.089970111846924,2019-06-18 15:14:32:636
-0.12132999300956726,-0.029223131015896797,9.802340507507324,0.003141699148824477,0.0036635398427903496,0.00326037210371193,2.0940747261047363,2019-06-18 15:14:32:640
-0.14288273453712463,-0.05317062884569168,9.821497917175293,-0.0007208273962750229,0.005528207995989247,0.0008629416953345836,2.0999608039855957,2019-06-18 15:14:32:646
-0.10217199474573135,-0.041196878999471664,9.795156478881836,-0.0007208273962750229,0.004329492661763411,0.0029939909761227054,2.1049656867980957,2019-06-18 15:14:32:651
-0.11414574086666107,-0.06035487726330757,9.843050956726074,-0.0025854953544181764,0.006593732506346145,0.0001969888601068769,2.1090850830078125,2019-06-18 15:14:32:655
-0.1117509976029396,-0.04598637670278549,9.807129859924316,-0.0021859236630343394,0.0039299209703795735,-0.0023336320958104364,2.1151528358459473,2019-06-18 15:14:32:661
-0.12132999300956726,-0.01006513275206089,9.807129859924316,0.00473998617443415,0.007392875889113818,-0.0014012980192109879,2.119088649749756,2019-06-18 15:14:32:665
-0.11414574086666107,-0.019644131883978844,9.811919212341309,-0.0003212556723818955,0.005261826868400022,-0.005130633935497294,2.124955654144287,2019-06-18 15:14:32:671
-0.09498775005340576,-0.04598637670278549,9.737682342529297,-0.00045444623617650777,0.0031307775876119005,0.001528894514307645,2.129075527191162,2019-06-18 15:14:32:675
-0.15485648810863495,-0.05077587813138962,9.826288223266602,0.004074033095386763,0.001798871819628615,-0.0023336320958104364,2.13499116897583,2019-06-18 15:14:32:681
-0.11654049158096313,-0.06035487726330757,9.819103240966797,-0.003118257609596625,0.004462683485632349,0.003659943795095767,2.139085292816162,2019-06-18 15:14:32:685
-0.16922499239444733,-0.05077587813138962,9.80473518371582,0.0018097935108783545,0.006593732506346145,-0.006595730397312356,2.1449527740478516,2019-06-18 15:14:32:691
-0.13330374658107758,-0.041196878999471664,9.76402473449707,0.0012770312556999051,0.001798871819628615,0.0008629416953345836,2.1490731239318848,2019-06-18 15:14:32:695
-0.1117509976029396,-0.034012630581855774,9.802340507507324,0.0027421274574406405,0.006060970251167696,-0.0031327754785781103,2.1549620628356934,2019-06-18 15:14:32:701
-0.13330374658107758,-0.07472337782382965,9.819103240966797,0.0006110783717082625,0.0021984436410496144,-0.0020672508381840496,2.159083843231201,2019-06-18 15:14:32:705
-0.08780349791049957,-0.05317062884569168,9.811919212341309,0.00154341238328913,0.004196302097968799,0.0035267532313011545,2.1640915870666504,2019-06-18 15:14:32:710
-0.15246173739433289,-0.03161787986755371,9.835866928100586,0.0008774594992974871,0.0025980153324334514,0.00166208520813942,2.1699624061584473,2019-06-18 15:14:32:716
-0.10696149617433548,-0.01006513275206089,9.792760848999023,0.0010106500630920993,0.004462683485632349,-0.00020258286378625062,2.1740851402282715,2019-06-18 15:14:32:720
-0.1452774852514267,-0.05317062884569168,9.799945831298828,0.004473605046844925,0.006993303937655657,0.0013957039505130327,2.179959774017334,2019-06-18 15:14:32:726
-0.09738249331712723,-0.029223131015896797,9.809524536132812,-0.00045444623617650777,0.005128636044531084,0.0001969888601068769,2.1840720176696777,2019-06-18 15:14:32:730
-0.12132999300956726,-0.03640738129615784,9.843050956726074,-0.0007208273962750229,0.004063111534174186,0.004325896614068829,2.190019130706787,2019-06-18 15:14:32:736
-0.13569849729537964,-0.05796012654900551,9.778392791748047,-0.0003212556723818955,0.0036635398427903496,0.00326037210371193,2.1940808296203613,2019-06-18 15:14:32:740
-0.12372474372386932,-0.05317062884569168,9.792760848999023,-0.0011203991526774412,0.003530349278995737,0.0013957039505130327,2.199958324432373,2019-06-18 15:14:32:746
-0.12132999300956726,-0.055565375834703445,9.823892593383789,-0.0005876368324804107,0.001798871819628615,0.0007297511315399715,2.204106330871582,2019-06-18 15:14:32:750
-0.11414574086666107,-0.007670383434742689,9.886157035827637,-0.003118257609596625,0.0061941605548879826,-0.0020672508381840496,2.2099647521972656,2019-06-18 15:14:32:756
-0.1380932480096817,-0.04598637670278549,9.783182144165039,0.0036744614040029266,0.0020652529472178394,0.0021948473332807066,2.214073657989502,2019-06-18 15:14:32:760
-0.11654049158096313,-0.0388021282851696,9.823892593383789,0.0036744614040029266,0.007526066192834106,0.0008629416953345836,2.2199606895446777,2019-06-18 15:14:32:766
-0.14048798382282257,-0.055565375834703445,9.835866928100586,0.0019429840746729666,-0.0011313207138900182,0.0017952757719340324,2.2249646186828613,2019-06-18 15:14:32:771
-0.12851424515247345,-0.0914866253733635,9.77599811553955,-0.00045444623617650777,0.0020652529472178394,-0.0003357734438355082,2.2290797233581543,2019-06-18 15:14:32:775
-0.10217199474573135,-0.04359162971377373,9.792760848999023,0.00620508211610056,0.0036635398427903496,0.0012625133867184206,2.2349677085876465,2019-06-18 15:14:32:781
-0.14767223596572876,-0.06274962425231934,9.811919212341309,-5.487451634704159e-05,0.00686011363393537,0.0011293228229238084,2.239088535308838,2019-06-18 15:14:32:785
-0.16204074025154114,-0.08909187465906143,9.780787467956543,-0.0007208273962750229,-0.0013977018414792427,0.00326037210371193,2.2449870109558105,2019-06-18 15:14:32:791
-0.12132999300956726,-0.07711812108755112,9.737682342529297,-0.0017863519716505025,0.0016656812558340024,-0.0026000132233996607,2.249983310699463,2019-06-18 15:14:32:796
-0.10217199474573135,-0.02443363144993782,9.859814643859863,0.001676602947083742,-0.000598558458711569,-0.0012681074554163755,2.2540764808654785,2019-06-18 15:14:32:800
-0.13569849729537964,-0.034012630581855774,9.8167085647583,-0.0008540179600696353,0.004063111534174186,-0.0053970150630865184,2.2599596977233887,2019-06-18 15:14:32:806
-0.14048798382282257,-0.05317062884569168,9.8167085647583,0.0010106500630920993,0.0019320623834232272,-0.0037987282975511715,2.2641043663024902,2019-06-18 15:14:32:810
-0.14048798382282257,-0.06035487726330757,9.811919212341309,0.0030085085850298653,0.007126494761524595,0.0001969888601068769,2.2699623107910156,2019-06-18 15:14:32:816
-0.14048798382282257,-0.055565375834703445,9.859814643859863,-0.0036510198647750746,0.0021984436410496144,-0.0023336320958104364,2.274075984954834,2019-06-18 15:14:32:820
-0.1117509976029396,-0.041196878999471664,9.807129859924316,0.0026089368936460283,0.005661398299709534,-0.0018008697105948246,2.2799630165100098,2019-06-18 15:14:32:826
-0.12372474372386932,-0.02443363144993782,9.809524536132812,0.0007442689355028748,0.005528207995989247,-0.0011349168916217633,2.2840800285339355,2019-06-18 15:14:32:830
-0.1117509976029396,-0.034012630581855774,9.752050399780273,0.0014102218194945173,0.002997587023817288,-0.0036655377337565594,2.2899842262268066,2019-06-18 15:14:32:836
-0.11414574086666107,-0.06753912568092346,9.802340507507324,-0.00018806509233263786,0.005128636044531084,0.003659943795095767,2.2949752807617188,2019-06-18 15:14:32:841
-0.1309089958667755,-0.019644131883978844,9.771208763122559,-0.0012535897164720534,0.00486225491694186,-0.0020672508381840496,2.2990736961364746,2019-06-18 15:14:32:845
-0.1261194944381714,-0.02443363144993782,9.811919212341309,0.003141699148824477,0.005528207995989247,-0.0022004415320158242,2.304960250854492,2019-06-18 15:14:32:851
-0.1117509976029396,-0.0388021282851696,9.866998672485352,0.005938700988511335,0.001798871819628615,0.0017952757719340324,2.309079647064209,2019-06-18 15:14:32:855
-0.12132999300956726,-0.04598637670278549,9.799945831298828,-0.0005876368324804107,0.004729064613221573,-0.0037987282975511715,2.314952850341797,2019-06-18 15:14:32:861
-0.10935624688863754,-0.048381127417087555,9.838261604309082,-0.0011203991526774412,0.006460541682477208,0.0011293228229238084,2.3199687004089355,2019-06-18 15:14:32:866
-0.09738249331712723,-0.0028808838687837124,9.814313888549805,7.831605963855469e-05,-0.0016640829690684673,0.0029939909761227054,2.3249917030334473,2019-06-18 15:14:32:871
-0.09738249331712723,-0.07951287180185318,9.80473518371582,0.001676602947083742,0.0015324906920393903,-0.006196158445854193,2.329080581665039,2019-06-18 15:14:32:875
-0.12132999300956726,-0.022038880735635757,9.756839752197266,-0.0005876368324804107,0.0002005850053293314,-0.005663396190675744,2.3350157737731934,2019-06-18 15:14:32:881
-0.12372474372386932,-0.0843023732304573,9.8167085647583,-5.487451634704159e-05,0.004462683485632349,-0.0027332037871942733,2.3399863243103027,2019-06-18 15:14:32:886
-0.09498775005340576,-0.03640738129615784,9.807129859924316,0.0019429840746729666,0.0053950171721203095,-0.0022004415320158242,2.344076633453369,2019-06-18 15:14:32:890
-0.12132999300956726,-0.048381127417087555,9.831077575683594,-0.0005876368324804107,0.0006001567454771042,-0.0041982999889350085,2.349958896636963,2019-06-18 15:14:32:896
-0.1189352422952652,-0.06274962425231934,9.742471694946289,7.831605963855469e-05,0.004329492661763411,0.001528894514307645,2.3540821075439453,2019-06-18 15:14:32:900
-0.06864549964666367,-0.026828380301594734,9.799945831298828,-0.0029850670458020133,0.005927779427298759,-0.003399156606167335,2.3599648475646973,2019-06-18 15:14:32:906
-0.1261194944381714,-0.03640738129615784,9.759234428405762,0.004873176478154437,0.005661398299709534,-0.0011349168916217633,2.364098072052002,2019-06-18 15:14:32:910
-0.10935624688863754,-0.05077587813138962,9.802340507507324,0.001143840691905293,0.0021984436410496144,-0.0015344885830056003,2.369983196258545,2019-06-18 15:14:32:916
-0.08061924576759338,-0.026828380301594734,9.823892593383789,-0.0021859236630343394,0.0025980153324334514,0.0001969888601068769,2.374962329864502,2019-06-18 15:14:32:921
-0.1261194944381714,-0.06753912568092346,9.826288223266602,0.0024757463298514157,0.006060970251167696,-0.0028663943509888855,2.3790736198425293,2019-06-18 15:14:32:925
-0.10217199474573135,-0.06035487726330757,9.785576820373535,-0.0019195425354451149,0.001798871819628615,-0.0012681074554163755,2.385171413421631,2019-06-18 15:14:32:931
-0.10456674546003342,-0.05317062884569168,9.84544563293457,-5.487451634704159e-05,0.005927779427298759,-0.003399156606167335,2.389087200164795,2019-06-18 15:14:32:935
-0.09977724403142929,-0.048381127417087555,9.869393348693848,0.0019429840746729666,-0.0008649395863007935,-0.0022004415320158242,2.394954204559326,2019-06-18 15:14:32:941
-0.10217199474573135,-0.0651443749666214,9.795156478881836,-0.0028518764820074007,0.004595873789352636,-0.003399156606167335,2.3990721702575684,2019-06-18 15:14:32:945
-0.10935624688863754,-0.048381127417087555,9.799945831298828,0.0004778877754043595,0.006593732506346145,-0.0015344885830056003,2.4049620628356934,2019-06-18 15:14:32:951
-0.08061924576759338,-0.014854632318019867,9.843050956726074,-0.0008540179600696353,0.004329492661763411,0.000996132259129196,2.409101963043213,2019-06-18 15:14:32:955
-0.0925929993391037,-0.06274962425231934,9.828682899475098,0.002076174638467579,0.004063111534174186,0.002461228460869931,2.4149632453918457,2019-06-18 15:14:32:961
-0.0925929993391037,-0.10824987292289734,9.895735740661621,0.0003446972116097473,0.003530349278995737,0.0019284663357286445,2.4190707206726074,2019-06-18 15:14:32:965
-0.0925929993391037,-0.04598637670278549,9.843050956726074,-0.0013867802802666658,0.0027312058962280636,-0.0027332037871942733,2.4249658584594727,2019-06-18 15:14:32:971
-0.08780349791049957,-0.07472337782382965,9.783182144165039,0.0004778877754043595,0.0024648247686388392,-0.0003357734438355082,2.4291024208068848,2019-06-18 15:14:32:975
-0.09738249331712723,-0.0651443749666214,9.835866928100586,-0.0020527330992397273,0.0024648247686388392,-0.004331490552729621,2.434965133666992,2019-06-18 15:14:32:981
-0.10696149617433548,-0.06753912568092346,9.852629661560059,-0.00018806509233263786,0.005661398299709534,-0.0031327754785781103,2.439077377319336,2019-06-18 15:14:32:985
-0.08780349791049957,-0.034012630581855774,9.835866928100586,7.831605963855469e-05,0.002864396460022676,-0.00020258286378625062,2.444962501525879,2019-06-18 15:14:32:991
-0.10217199474573135,-0.01006513275206089,9.850234985351562,0.0023425557660568036,-0.000598558458711569,0.00326037210371193,2.449082851409912,2019-06-18 15:14:32:995
-0.12132999300956726,-0.04598637670278549,9.77599811553955,-0.0007208273962750229,0.00486225491694186,0.0012625133867184206,2.454963207244873,2019-06-18 15:14:33:001
-0.1261194944381714,-0.048381127417087555,9.809524536132812,-5.487451634704159e-05,0.003796730406584962,0.0019284663357286445,2.4590859413146973,2019-06-18 15:14:33:005
-0.13569849729537964,-0.0651443749666214,9.752050399780273,0.0028753180212352527,0.0025980153324334514,0.0019284663357286445,2.4649553298950195,2019-06-18 15:14:33:011
-0.10935624688863754,-0.041196878999471664,9.8167085647583,0.0019429840746729666,0.004063111534174186,0.002860800412328093,2.4690756797790527,2019-06-18 15:14:33:015
-0.08061924576759338,-0.04598637670278549,9.847840309143066,-0.0003212556723818955,0.0023316342048442266,0.0021948473332807066,2.4749674797058105,2019-06-18 15:14:33:021
-0.12132999300956726,-0.034012630581855774,9.799945831298828,0.0006110783717082625,0.002997587023817288,0.002461228460869931,2.479085922241211,2019-06-18 15:14:33:025
-0.10456674546003342,-0.01724938116967678,9.83347225189209,0.0008774594992974871,0.004729064613221573,-0.004065109425140397,2.4849562644958496,2019-06-18 15:14:33:031
-0.09498775005340576,-0.034012630581855774,9.795156478881836,0.0027421274574406405,0.00632735137875692,0.0019284663357286445,2.489962577819824,2019-06-18 15:14:33:036
-0.1189352422952652,-0.014854632318019867,9.838261604309082,-0.0009872085238642476,0.007126494761524595,0.004459087177863441,2.494081974029541,2019-06-18 15:14:33:040
-0.1452774852514267,-0.05317062884569168,9.75444507598877,-0.0003212556723818955,0.003796730406584962,-0.0010017262628085697,2.499969005584717,2019-06-18 15:14:33:046
-0.14048798382282257,-0.055565375834703445,9.8167085647583,-0.0008540179600696353,0.0061941605548879826,0.006057373943398788,2.5040769577026367,2019-06-18 15:14:33:050
-0.09019824862480164,-0.055565375834703445,9.823892593383789,-0.0036510198647750746,0.004462683485632349,0.006190564767267726,2.5099587440490723,2019-06-18 15:14:33:056
-0.10456674546003342,-0.012459882535040379,9.778392791748047,0.0027421274574406405,0.0039299209703795735,0.0005965605677453591,2.514082431793213,2019-06-18 15:14:33:060
-0.0925929993391037,-0.019644131883978844,9.792760848999023,7.831605963855469e-05,0.003796730406584962,0.0001969888601068769,2.51912260055542,2019-06-18 15:14:33:065
-0.1117509976029396,-0.041196878999471664,9.783182144165039,0.0010106500630920993,0.0049954457408107975,0.0021948473332807066,2.5249552726745605,2019-06-18 15:14:33:071
-0.1189352422952652,-0.022038880735635757,9.828682899475098,-0.0011203991526774412,0.002997587023817288,0.002061656899523257,2.52907133102417,2019-06-18 15:14:33:075
-0.08301399648189545,-0.07711812108755112,9.768814086914062,-0.00018806509233263786,-0.00019898671856379607,0.0031271815399173176,2.5349621772766113,2019-06-18 15:14:33:081
-0.1117509976029396,-0.05796012654900551,9.740077018737793,-0.0029850670458020133,0.004595873789352636,0.004325896614068829,2.53908109664917,2019-06-18 15:14:33:085
-0.09498775005340576,-0.026828380301594734,9.797551155090332,0.0023425557660568036,0.005661398299709534,0.0035267532313011545,2.5449910163879395,2019-06-18 15:14:33:091
-0.14288273453712463,-0.0388021282851696,9.778392791748047,-0.0020527330992397273,0.002864396460022676,0.002461228460869931,2.5499682426452637,2019-06-18 15:14:33:096
-0.08301399648189545,-0.022038880735635757,9.83347225189209,0.0008774594992974871,0.0015324906920393903,0.0017952757719340324,2.554075241088867,2019-06-18 15:14:33:100
-0.14048798382282257,-0.022038880735635757,9.77599811553955,-0.0020527330992397273,0.0024648247686388392,-0.0003357734438355082,2.5599589347839355,2019-06-18 15:14:33:106
-0.06864549964666367,-0.041196878999471664,9.83347225189209,0.00473998617443415,0.004063111534174186,0.0012625133867184206,2.5641093254089355,2019-06-18 15:14:33:110
-0.1261194944381714,-0.0388021282851696,9.768814086914062,0.0014102218194945173,0.0011329190006555533,0.0019284663357286445,2.5699691772460938,2019-06-18 15:14:33:116
-0.1117509976029396,-0.055565375834703445,9.831077575683594,-0.0011203991526774412,0.00832521009575043,0.0012625133867184206,2.5740761756896973,2019-06-18 15:14:33:120
-0.10696149617433548,-0.07232862710952759,9.792760848999023,0.001676602947083742,0.001399300128244778,0.00166208520813942,2.5799598693847656,2019-06-18 15:14:33:126
-0.10935624688863754,-0.01724938116967678,9.838261604309082,0.0030085085850298653,0.005261826868400022,0.0011293228229238084,2.584963798522949,2019-06-18 15:14:33:131
-0.1117509976029396,-0.029223131015896797,9.790366172790527,0.001676602947083742,0.0019320623834232272,0.0001969888601068769,2.58998966217041,2019-06-18 15:14:33:136
-0.1189352422952652,-0.03161787986755371,9.768814086914062,0.003141699148824477,0.0025980153324334514,0.002860800412328093,2.594078540802002,2019-06-18 15:14:33:140
-0.13569849729537964,-0.02443363144993782,9.737682342529297,0.0007442689355028748,0.007126494761524595,0.0017952757719340324,2.5999598503112793,2019-06-18 15:14:33:146
-0.14048798382282257,-0.019644131883978844,9.744866371154785,-0.0029850670458020133,0.001399300128244778,-0.005663396190675744,2.60408353805542,2019-06-18 15:14:33:150
-0.1452774852514267,-0.01724938116967678,9.797551155090332,0.002076174638467579,0.005528207995989247,0.000996132259129196,2.609982967376709,2019-06-18 15:14:33:156
-0.14048798382282257,-0.04359162971377373,9.766419410705566,0.0019429840746729666,-0.00046536786240766596,0.002061656899523257,2.614075183868408,2019-06-18 15:14:33:160
-0.11414574086666107,-0.012459882535040379,9.790366172790527,0.004340414222975988,0.00033377558537858905,0.00166208520813942,2.619959831237793,2019-06-18 15:14:33:166
-0.1380932480096817,-0.02443363144993782,9.76402473449707,0.0026089368936460283,0.001798871819628615,6.379828412128062e-05,2.624083995819092,2019-06-18 15:14:33:170
-0.15006698668003082,-0.048381127417087555,9.828682899475098,-0.0012535897164720534,0.003530349278995737,-0.0022004415320158242,2.630000114440918,2019-06-18 15:14:33:176
-0.09019824862480164,-0.06753912568092346,9.831077575683594,0.003141699148824477,0.004329492661763411,0.0021948473332807066,2.6340980529785156,2019-06-18 15:14:33:180
-0.13569849729537964,-0.05796012654900551,9.795156478881836,-0.0020527330992397273,0.005794589123578471,0.005657802512089276,2.6399645805358887,2019-06-18 15:14:33:186
-0.1189352422952652,-0.05796012654900551,9.828682899475098,0.003940842531592151,0.003530349278995737,0.004459087177863441,2.6440749168395996,2019-06-18 15:14:33:190
-0.10217199474573135,-0.06274962425231934,9.799945831298828,0.0030085085850298653,0.005794589123578471,0.0008629416953345836,2.6500110626220703,2019-06-18 15:14:33:196
-0.10696149617433548,-0.022038880735635757,9.802340507507324,0.0010106500630920993,0.005661398299709534,-0.0004689640076301205,2.6540942192077637,2019-06-18 15:14:33:200
-0.13330374658107758,-0.06274962425231934,9.869393348693848,7.831605963855469e-05,0.0027312058962280636,-0.0026000132233996607,2.6599602699279785,2019-06-18 15:14:33:206
-0.1309089958667755,-0.06993387639522552,9.771208763122559,0.0008774594992974871,0.0021984436410496144,-0.0012681074554163755,2.6641077995300293,2019-06-18 15:14:33:210
-0.10696149617433548,-0.012459882535040379,9.76402473449707,-0.0003212556723818955,0.00632735137875692,-0.004997443631777007,2.669970989227295,2019-06-18 15:14:33:216
-0.09977724403142929,-0.07472337782382965,9.809524536132812,-0.0027186859182127886,-0.0012645112776846303,0.0008629416953345836,2.6740880012512207,2019-06-18 15:14:33:220
-0.10217199474573135,-0.041196878999471664,9.783182144165039,-0.0011203991526774412,0.0012661095644501657,-0.0036655377337565594,2.679961681365967,2019-06-18 15:14:33:226
-0.10696149617433548,-0.09867087006568909,9.871788024902344,0.00154341238328913,0.005661398299709534,0.0003301794401561345,2.6840767860412598,2019-06-18 15:14:33:230
-0.10696149617433548,-0.05317062884569168,9.797551155090332,-0.0005876368324804107,0.005927779427298759,-0.0003357734438355082,2.689958095550537,2019-06-18 15:14:33:236
-0.11654049158096313,-0.03161787986755371,9.821497917175293,-0.0007208273962750229,0.0008665378730663289,0.0031271815399173176,2.6940741539001465,2019-06-18 15:14:33:240
-0.10696149617433548,-0.01724938116967678,9.826288223266602,-0.0015199708440612782,0.0031307775876119005,6.379828412128062e-05,2.699955940246582,2019-06-18 15:14:33:246
-0.14767223596572876,-0.041196878999471664,9.799945831298828,0.002209365202262191,0.003796730406584962,-0.0016676791468002124,2.704092502593994,2019-06-18 15:14:33:250
-0.11654049158096313,-0.06274962425231934,9.847840309143066,-0.00045444623617650777,0.004329492661763411,-0.0011349168916217633,2.7099709510803223,2019-06-18 15:14:33:256
-0.09977724403142929,-0.05317062884569168,9.778392791748047,-0.0013867802802666658,0.0016656812558340024,-0.001934060274389437,2.7140746116638184,2019-06-18 15:14:33:260
-0.12372474372386932,-0.048381127417087555,9.84544563293457,-0.0019195425354451149,0.0049954457408107975,0.0004633700039507468,2.719963550567627,2019-06-18 15:14:33:266
-0.12851424515247345,-0.029223131015896797,9.814313888549805,-0.0023191142268289516,0.0011329190006555533,-0.0015344885830056003,2.72407865524292,2019-06-18 15:14:33:270
-0.14048798382282257,-0.05796012654900551,9.850234985351562,-0.0025854953544181764,0.0009997284368609412,-0.0027332037871942733,2.7299599647521973,2019-06-18 15:14:33:276
-0.12372474372386932,-0.048381127417087555,9.80473518371582,-0.0011203991526774412,0.0021984436410496144,-0.0037987282975511715,2.7340826988220215,2019-06-18 15:14:33:280
-0.09738249331712723,-0.029223131015896797,9.83347225189209,0.0026089368936460283,0.0032639681514065122,-0.0004689640076301205,2.7399630546569824,2019-06-18 15:14:33:286
-0.12372474372386932,-0.026828380301594734,9.787971496582031,0.0004778877754043595,0.0015324906920393903,6.379828412128062e-05,2.7440733909606934,2019-06-18 15:14:33:290
-0.1452774852514267,-0.03640738129615784,9.797551155090332,0.0027421274574406405,0.004329492661763411,-0.005929777318264968,2.750199794769287,2019-06-18 15:14:33:296
-0.1189352422952652,-0.026828380301594734,9.792760848999023,0.001676602947083742,0.005794589123578471,-0.0028663943509888855,2.7540926933288574,2019-06-18 15:14:33:300
-0.16683024168014526,-0.05077587813138962,9.847840309143066,0.0007442689355028748,0.00486225491694186,0.0019284663357286445,2.759957790374756,2019-06-18 15:14:33:306
-0.08061924576759338,-0.05077587813138962,9.792760848999023,-0.0008540179600696353,0.0053950171721203095,-0.000735345135219345,2.765002727508545,2019-06-18 15:14:33:311
-0.04230325296521187,-0.0914866253733635,9.795156478881836,-0.0021859236630343394,0.005927779427298759,-0.00020258286378625062,2.7699666023254395,2019-06-18 15:14:33:316
-0.12851424515247345,-0.026828380301594734,9.826288223266602,-0.004716544635206299,0.007126494761524595,-0.0011349168916217633,2.774078369140625,2019-06-18 15:14:33:320
-0.14048798382282257,-0.026828380301594734,9.84544563293457,0.002209365202262191,0.004063111534174186,0.003926324922684992,2.7799601554870605,2019-06-18 15:14:33:326
-0.1452774852514267,-0.055565375834703445,9.857419967651367,0.0003446972116097473,-6.579614257819981e-05,-0.001934060274389437,2.784085750579834,2019-06-18 15:14:33:330
-0.1189352422952652,-0.012459882535040379,9.847840309143066,7.831605963855469e-05,0.0020652529472178394,-0.005530205886955456,2.7899632453918457,2019-06-18 15:14:33:336
-0.15246173739433289,-0.041196878999471664,9.773603439331055,-0.0012535897164720534,-0.00019898671856379607,0.0003301794401561345,2.794076442718506,2019-06-18 15:14:33:340
-0.11654049158096313,0.0019086154643446207,9.843050956726074,-5.487451634704159e-05,0.0007333473092717165,-0.0012681074554163755,2.8000235557556152,2019-06-18 15:14:33:346
-0.1261194944381714,-0.0651443749666214,9.864603996276855,0.0028753180212352527,0.0019320623834232272,-0.0010017262628085697,2.8040785789489746,2019-06-18 15:14:33:350
-0.08780349791049957,-0.04598637670278549,9.831077575683594,-0.0003212556723818955,0.0016656812558340024,0.00499184943304189,2.8099827766418457,2019-06-18 15:14:33:356
-0.12372474372386932,-0.09627611935138702,9.917288780212402,0.0019429840746729666,0.0015324906920393903,-0.0014012980192109879,2.8140764236450195,2019-06-18 15:14:33:360
-0.09977724403142929,-0.03640738129615784,9.828682899475098,-0.004183782119953524,0.0007333473092717165,0.000996132259129196,2.819958209991455,2019-06-18 15:14:33:366
-0.12372474372386932,-0.034012630581855774,9.898130416870117,-0.00045444623617650777,0.005261826868400022,-0.002999584914783498,2.824084758758545,2019-06-18 15:14:33:370
-0.11414574086666107,-0.022038880735635757,9.799945831298828,-5.487451634704159e-05,0.004595873789352636,0.0025944190246645436,2.829963207244873,2019-06-18 15:14:33:376
-0.12851424515247345,-0.029223131015896797,9.826288223266602,-0.0029850670458020133,0.003530349278995737,6.379828412128062e-05,2.834076404571533,2019-06-18 15:14:33:380
-0.10696149617433548,-0.05077587813138962,9.797551155090332,0.0006110783717082625,0.0025980153324334514,-0.004997443631777007,2.839963436126709,2019-06-18 15:14:33:386
-0.1380932480096817,0.0019086154643446207,9.83347225189209,0.002209365202262191,0.001798871819628615,0.0003301794401561345,2.844984531402588,2019-06-18 15:14:33:391
-0.11654049158096313,-0.041196878999471664,9.866998672485352,0.0003446972116097473,0.0011329190006555533,0.0008629416953345836,2.849337577819824,2019-06-18 15:14:33:395
-0.1189352422952652,-0.04598637670278549,9.84544563293457,-0.0020527330992397273,0.004462683485632349,0.00166208520813942,2.8549718856811523,2019-06-18 15:14:33:401
-0.11654049158096313,-0.048381127417087555,9.819103240966797,0.008469321960683293,0.0023316342048442266,-0.0027332037871942733,2.8599653244018555,2019-06-18 15:14:33:406
-0.10935624688863754,-0.06274962425231934,9.843050956726074,-0.0015199708440612782,0.002864396460022676,0.005391421384500052,2.8640856742858887,2019-06-18 15:14:33:410
-0.0662507489323616,-0.07232862710952759,9.871788024902344,0.0028753180212352527,0.004595873789352636,-0.0024668226596050486,2.869964122772217,2019-06-18 15:14:33:416
-0.11414574086666107,-0.03640738129615784,9.783182144165039,0.00021150663156048962,0.006593732506346145,0.0031271815399173176,2.8740735054016113,2019-06-18 15:14:33:420
-0.1117509976029396,-0.048381127417087555,9.866998672485352,0.0012770312556999051,0.00486225491694186,0.003659943795095767,2.8799633979797363,2019-06-18 15:14:33:426
-0.09019824862480164,-0.05796012654900551,9.823892593383789,0.0007442689355028748,0.007126494761524595,-0.0016676791468002124,2.884087085723877,2019-06-18 15:14:33:430
-0.09977724403142929,-0.08909187465906143,9.835866928100586,0.0012770312556999051,0.0004669661491732013,-0.0004689640076301205,2.8899807929992676,2019-06-18 15:14:33:436
-0.1261194944381714,-0.041196878999471664,9.8167085647583,0.0024757463298514157,-0.003395560558472752,6.379828412128062e-05,2.894075870513916,2019-06-18 15:14:33:440
-0.1309089958667755,-0.06993387639522552,9.780787467956543,0.001143840691905293,0.001399300128244778,0.0001969888601068769,2.900057315826416,2019-06-18 15:14:33:446
-0.10935624688863754,-0.05317062884569168,9.83347225189209,-0.0012535897164720534,0.0012661095644501657,0.0012625133867184206,2.904080867767334,2019-06-18 15:14:33:450
-0.1261194944381714,-0.012459882535040379,9.838261604309082,-0.0008540179600696353,0.0009997284368609412,-0.003399156606167335,2.909959316253662,2019-06-18 15:14:33:456
-0.08780349791049957,-0.041196878999471664,9.814313888549805,-0.004450163507617074,0.004462683485632349,0.002860800412328093,2.9140820503234863,2019-06-18 15:14:33:460
-0.10935624688863754,-0.041196878999471664,9.831077575683594,-0.0008540179600696353,0.0020652529472178394,0.0029939909761227054,2.919959545135498,2019-06-18 15:14:33:466
-0.14288273453712463,-0.0388021282851696,9.84544563293457,-0.0012535897164720534,0.007392875889113818,0.001528894514307645,2.9240803718566895,2019-06-18 15:14:33:470
-0.10696149617433548,-0.007670383434742689,9.826288223266602,-0.0008540179600696353,0.0019320623834232272,0.002461228460869931,2.929961681365967,2019-06-18 15:14:33:476
-0.10696149617433548,-0.05317062884569168,9.80473518371582,0.0023425557660568036,0.0031307775876119005,-0.0003357734438355082,2.9351329803466797,2019-06-18 15:14:33:481
-0.11654049158096313,0.016277113929390907,9.785576820373535,0.0038076519677975387,0.004729064613221573,-0.0035323471699619468,2.9390969276428223,2019-06-18 15:14:33:485
-0.09977724403142929,-0.07711812108755112,9.823892593383789,0.0028753180212352527,-0.0009981301500954058,0.00499184943304189,2.944967269897461,2019-06-18 15:14:33:491
-0.08301399648189545,-0.0651443749666214,9.811919212341309,-0.0011203991526774412,0.0007333473092717165,0.0031271815399173176,2.9490866661071777,2019-06-18 15:14:33:495
-0.1117509976029396,-0.06035487726330757,9.828682899475098,-0.0019195425354451149,0.0021984436410496144,0.0005965605677453591,2.954956531524658,2019-06-18 15:14:33:501
-0.09977724403142929,-0.06993387639522552,9.823892593383789,-0.0005876368324804107,0.00033377558537858905,-0.0003357734438355082,2.959073543548584,2019-06-18 15:14:33:505
-0.10456674546003342,-0.03640738129615784,9.807129859924316,-0.00045444623617650777,0.004196302097968799,-0.00486425280790807,2.9649643898010254,2019-06-18 15:14:33:511
-0.10935624688863754,-0.07232862710952759,9.785576820373535,-0.0028518764820074007,0.006460541682477208,0.003926324922684992,2.9699692726135254,2019-06-18 15:14:33:516
-0.14048798382282257,-0.03161787986755371,9.835866928100586,0.003141699148824477,0.005261826868400022,0.0003301794401561345,2.9740757942199707,2019-06-18 15:14:33:520
-0.1189352422952652,-0.06035487726330757,9.828682899475098,-0.0020527330992397273,0.004196302097968799,-0.004065109425140397,2.9799609184265137,2019-06-18 15:14:33:526
-0.1380932480096817,-0.08909187465906143,9.823892593383789,0.0019429840746729666,-0.0012645112776846303,0.0021948473332807066,2.9840826988220215,2019-06-18 15:14:33:530
-0.1452774852514267,-0.048381127417087555,9.799945831298828,0.002076174638467579,0.0015324906920393903,-0.004464681376598559,2.9899864196777344,2019-06-18 15:14:33:536
-0.13330374658107758,-0.022038880735635757,9.840656280517578,-0.00018806509233263786,0.005128636044531084,0.0004633700039507468,2.994077682495117,2019-06-18 15:14:33:540
-0.08540874719619751,-0.014854632318019867,9.838261604309082,-0.0029850670458020133,0.0032639681514065122,-0.0006021545714247328,2.9999594688415527,2019-06-18 15:14:33:546
-0.1189352422952652,-0.01006513275206089,9.828682899475098,0.0027421274574406405,0.0004669661491732013,-0.0023336320958104364,3.004082202911377,2019-06-18 15:14:33:550
-0.09977724403142929,-0.019644131883978844,9.871788024902344,-0.0036510198647750746,0.003796730406584962,-0.007927636035258477,3.009964942932129,2019-06-18 15:14:33:556
-0.13569849729537964,-0.03640738129615784,9.859814643859863,-0.0025854953544181764,0.0049954457408107975,0.0007297511315399715,3.0140738487243652,2019-06-18 15:14:33:560
-0.10217199474573135,-0.019644131883978844,9.84544563293457,-0.0016531614078558903,0.005927779427298759,-0.0004689640076301205,3.0199646949768066,2019-06-18 15:14:33:566
-0.07582975178956985,-0.04598637670278549,9.795156478881836,0.0008774594992974871,0.0061941605548879826,0.0004633700039507468,3.0240864753723145,2019-06-18 15:14:33:570
-0.12372474372386932,-0.04359162971377373,9.771208763122559,-0.0003212556723818955,0.001798871819628615,0.0040595154864796045,3.030200481414795,2019-06-18 15:14:33:576
-0.09977724403142929,-0.04359162971377373,9.797551155090332,-0.0008540179600696353,0.0027312058962280636,-0.0004689640076301205,3.034182071685791,2019-06-18 15:14:33:580
-0.10935624688863754,-0.06274962425231934,9.802340507507324,0.0008774594992974871,-0.00046536786240766596,0.0008629416953345836,3.0399718284606934,2019-06-18 15:14:33:586
-0.0925929993391037,-0.06274962425231934,9.828682899475098,-0.0020527330992397273,0.0012661095644501657,0.0012625133867184206,3.044079303741455,2019-06-18 15:14:33:590
-0.14767223596572876,-0.05796012654900551,9.831077575683594,-0.0036510198647750746,0.003397158715201125,0.0001969888601068769,3.049961566925049,2019-06-18 15:14:33:596
-0.10935624688863754,-0.041196878999471664,9.878972053527832,-0.0007208273962750229,0.0016656812558340024,0.00499184943304189,3.054086685180664,2019-06-18 15:14:33:600
-0.12372474372386932,-0.0388021282851696,9.843050956726074,0.0012770312556999051,0.004329492661763411,0.0025944190246645436,3.059968948364258,2019-06-18 15:14:33:606
-0.11654049158096313,-0.026828380301594734,9.828682899475098,0.0006110783717082625,0.002864396460022676,0.0004633700039507468,3.0640759468078613,2019-06-18 15:14:33:610
-0.10217199474573135,-0.048381127417087555,9.80473518371582,0.001143840691905293,0.0023316342048442266,-0.0010017262628085697,3.0690836906433105,2019-06-18 15:14:33:615
-0.1117509976029396,-0.06274962425231934,9.809524536132812,-0.0013867802802666658,0.001798871819628615,0.004325896614068829,3.074998378753662,2019-06-18 15:14:33:621
-0.1452774852514267,-0.02443363144993782,9.888551712036133,0.0014102218194945173,0.0020652529472178394,0.0004633700039507468,3.0790963172912598,2019-06-18 15:14:33:625
-0.1261194944381714,-0.04598637670278549,9.809524536132812,0.00021150663156048962,0.0012661095644501657,0.001528894514307645,3.084954261779785,2019-06-18 15:14:33:631
-0.15485648810863495,-0.07232862710952759,9.785576820373535,0.0004778877754043595,0.004729064613221573,0.0008629416953345836,3.089073657989502,2019-06-18 15:14:33:635
-0.0925929993391037,-0.05317062884569168,9.809524536132812,0.0030085085850298653,0.0036635398427903496,-0.0041982999889350085,3.0949654579162598,2019-06-18 15:14:33:641
-0.12851424515247345,-0.06753912568092346,9.807129859924316,0.0030085085850298653,0.00033377558537858905,0.003793134358890379,3.099083423614502,2019-06-18 15:14:33:645
-0.1117509976029396,-0.055565375834703445,9.766419410705566,0.0010106500630920993,0.0031307775876119005,-0.0027332037871942733,3.1049532890319824,2019-06-18 15:14:33:651
-0.1380932480096817,-0.09627611935138702,9.809524536132812,0.002209365202262191,0.004063111534174186,0.003393562667506543,3.1090731620788574,2019-06-18 15:14:33:655
-0.1261194944381714,-0.0388021282851696,9.819103240966797,-0.0019195425354451149,0.0025980153324334514,-0.0022004415320158242,3.1149978637695312,2019-06-18 15:14:33:661
-0.09738249331712723,-0.08190762251615524,9.819103240966797,-0.0013867802802666658,0.00486225491694186,0.002328037897075319,3.119119167327881,2019-06-18 15:14:33:665
-0.10217199474573135,-0.07711812108755112,9.83347225189209,-0.0011203991526774412,0.0039299209703795735,-0.0018008697105948246,3.1249661445617676,2019-06-18 15:14:33:671
-0.07822450250387192,-0.05796012654900551,9.823892593383789,0.0028753180212352527,0.0011329190006555533,-0.002999584914783498,3.129075527191162,2019-06-18 15:14:33:675
-0.12132999300956726,-0.04359162971377373,9.783182144165039,0.0007442689355028748,0.0016656812558340024,0.0035267532313011545,3.1349616050720215,2019-06-18 15:14:33:681
-0.14048798382282257,-0.055565375834703445,9.852629661560059,-0.0021859236630343394,0.0036635398427903496,-0.0006021545714247328,3.1399688720703125,2019-06-18 15:14:33:686
-0.11414574086666107,0.009092864580452442,9.795156478881836,0.0027421274574406405,0.005128636044531084,0.0003301794401561345,3.144073486328125,2019-06-18 15:14:33:690
-0.12372474372386932,-0.01724938116967678,9.787971496582031,0.0024757463298514157,0.003397158715201125,-0.0015344885830056003,3.1499619483947754,2019-06-18 15:14:33:696
-0.14048798382282257,-0.03161787986755371,9.799945831298828,0.0008774594992974871,0.0023316342048442266,0.00166208520813942,3.154085636138916,2019-06-18 15:14:33:700
-0.1261194944381714,-0.04598637670278549,9.790366172790527,0.001676602947083742,0.0021984436410496144,-0.005130633935497294,3.1599831581115723,2019-06-18 15:14:33:706
-0.09498775005340576,-0.05077587813138962,9.771208763122559,-0.0017863519716505025,0.003397158715201125,0.0013957039505130327,3.164106845855713,2019-06-18 15:14:33:710
-0.08540874719619751,-0.055565375834703445,9.792760848999023,0.00021150663156048962,0.0061941605548879826,0.000996132259129196,3.1690964698791504,2019-06-18 15:14:33:715
-0.09738249331712723,-0.034012630581855774,9.802340507507324,0.0038076519677975387,0.0076592570167030435,-0.006995301828621867,3.1749587059020996,2019-06-18 15:14:33:721
-0.12372474372386932,-0.0651443749666214,9.876577377319336,7.831605963855469e-05,-0.0009981301500954058,-0.0010017262628085697,3.1790738105773926,2019-06-18 15:14:33:725
-0.09738249331712723,-0.08669712394475937,9.890946388244629,0.0018097935108783545,0.007792447840571981,-6.939229186431566e-05,3.184962272644043,2019-06-18 15:14:33:731
-0.10456674546003342,-0.06753912568092346,9.886157035827637,0.0028753180212352527,0.0021984436410496144,-0.0035323471699619468,3.1890816688537598,2019-06-18 15:14:33:735
-0.1261194944381714,-0.007670383434742689,9.87418270111084,-0.00018806509233263786,0.004196302097968799,-0.002999584914783498,3.194953441619873,2019-06-18 15:14:33:741
-0.13569849729537964,-0.04359162971377373,9.797551155090332,0.0023425557660568036,0.007526066192834106,-0.003399156606167335,3.199075222015381,2019-06-18 15:14:33:745
-0.1189352422952652,-0.06753912568092346,9.795156478881836,-0.00045444623617650777,0.005661398299709534,-0.0004689640076301205,3.2049665451049805,2019-06-18 15:14:33:751
-0.10696149617433548,-0.041196878999471664,9.809524536132812,0.006471463243689784,0.00632735137875692,-0.004065109425140397,3.2091317176818848,2019-06-18 15:14:33:755
-0.10217199474573135,-0.01724938116967678,9.819103240966797,0.0003446972116097473,0.0025980153324334514,-0.0011349168916217633,3.2149558067321777,2019-06-18 15:14:33:761
-0.08061924576759338,-0.026828380301594734,9.838261604309082,0.0007442689355028748,0.006726922810066432,-0.0027332037871942733,3.2190723419189453,2019-06-18 15:14:33:765
-0.09738249331712723,-0.0651443749666214,9.799945831298828,-0.00018806509233263786,0.0009997284368609412,0.00166208520813942,3.2249603271484375,2019-06-18 15:14:33:771
-0.1117509976029396,-0.06035487726330757,9.807129859924316,-0.0009872085238642476,0.0011329190006555533,-0.00486425280790807,3.229081153869629,2019-06-18 15:14:33:775
-0.1189352422952652,-0.10824987292289734,9.766419410705566,-0.0003212556723818955,0.00486225491694186,-0.005929777318264968,3.234957218170166,2019-06-18 15:14:33:781
-0.10935624688863754,-0.019644131883978844,9.835866928100586,-0.0009872085238642476,0.00632735137875692,0.0013957039505130327,3.2390756607055664,2019-06-18 15:14:33:785
-0.15964598953723907,-0.019644131883978844,9.90291976928711,-0.002452304790623564,0.001399300128244778,-0.0028663943509888855,3.244965076446533,2019-06-18 15:14:33:791
-0.11654049158096313,-0.04598637670278549,9.809524536132812,0.0008774594992974871,0.004462683485632349,0.0001969888601068769,3.2499732971191406,2019-06-18 15:14:33:796
-0.14048798382282257,-0.026828380301594734,9.797551155090332,0.002209365202262191,-0.00046536786240766596,0.0001969888601068769,3.254121780395508,2019-06-18 15:14:33:800
-0.08061924576759338,-0.055565375834703445,9.811919212341309,-0.0008540179600696353,0.005661398299709534,-0.0008685356990139574,3.259972095489502,2019-06-18 15:14:33:806
-0.10217199474573135,-0.04359162971377373,9.797551155090332,-0.0017863519716505025,0.0032639681514065122,-0.005130633935497294,3.2640814781188965,2019-06-18 15:14:33:810
-0.10935624688863754,-0.022038880735635757,9.802340507507324,0.0024757463298514157,0.005927779427298759,-0.0023336320958104364,3.2699809074401855,2019-06-18 15:14:33:816
-0.1261194944381714,-0.06993387639522552,9.807129859924316,-0.0013867802802666658,0.0031307775876119005,-0.0053970150630865184,3.2740859985351562,2019-06-18 15:14:33:820
-0.11414574086666107,-0.041196878999471664,9.790366172790527,-5.487451634704159e-05,0.0049954457408107975,-0.0004689640076301205,3.279961109161377,2019-06-18 15:14:33:826
-0.09738249331712723,-0.029223131015896797,9.847840309143066,0.001676602947083742,0.00033377558537858905,-0.0022004415320158242,3.284074306488037,2019-06-18 15:14:33:830
-0.10456674546003342,-0.0388021282851696,9.723313331604004,0.0024757463298514157,0.004063111534174186,6.379828412128062e-05,3.289961338043213,2019-06-18 15:14:33:836
-0.11654049158096313,-0.048381127417087555,9.80473518371582,0.0026089368936460283,0.002864396460022676,0.000996132259129196,3.2941088676452637,2019-06-18 15:14:33:840
-0.09498775005340576,-0.048381127417087555,9.838261604309082,-0.0011203991526774412,0.0025980153324334514,0.0021948473332807066,3.2999815940856934,2019-06-18 15:14:33:846
-0.08540874719619751,-0.06035487726330757,9.84544563293457,7.831605963855469e-05,-6.579614257819981e-05,0.001528894514307645,3.3040871620178223,2019-06-18 15:14:33:850
-0.09019824862480164,-0.03640738129615784,9.826288223266602,0.0027421274574406405,0.003530349278995737,0.0031271815399173176,3.309959888458252,2019-06-18 15:14:33:856
-0.09977724403142929,-0.03161787986755371,9.857419967651367,0.004207223659181376,0.0024648247686388392,0.0003301794401561345,3.3140816688537598,2019-06-18 15:14:33:860
-0.09498775005340576,-0.03640738129615784,9.859814643859863,0.0026089368936460283,0.004063111534174186,0.0029939909761227054,3.319962978363037,2019-06-18 15:14:33:866
-0.08061924576759338,-0.026828380301594734,9.797551155090332,-0.0015199708440612782,0.0015324906920393903,0.006590136198577237,3.324075222015381,2019-06-18 15:14:33:870
-0.13569849729537964,-0.08909187465906143,9.87418270111084,0.0036744614040029266,0.006460541682477208,-0.0010017262628085697,3.329965114593506,2019-06-18 15:14:33:876
-0.1309089958667755,-0.08909187465906143,9.809524536132812,-0.0005876368324804107,0.0023316342048442266,-0.0008685356990139574,3.3349671363830566,2019-06-18 15:14:33:881
-0.11414574086666107,-0.048381127417087555,9.831077575683594,0.0019429840746729666,0.006060970251167696,6.379828412128062e-05,3.339102268218994,2019-06-18 15:14:33:885
-0.09738249331712723,-0.07232862710952759,9.809524536132812,0.0024757463298514157,0.004462683485632349,0.0001969888601068769,3.3449554443359375,2019-06-18 15:14:33:891
-0.15006698668003082,-0.08190762251615524,9.828682899475098,0.0007442689355028748,0.001399300128244778,0.0005965605677453591,3.349961757659912,2019-06-18 15:14:33:896
-0.1261194944381714,-0.014854632318019867,9.780787467956543,-0.0029850670458020133,0.0024648247686388392,0.0011293228229238084,3.3541436195373535,2019-06-18 15:14:33:900
-0.10696149617433548,-0.05317062884569168,9.797551155090332,-0.0005876368324804107,0.006060970251167696,-0.0027332037871942733,3.359093189239502,2019-06-18 15:14:33:905
-0.14288273453712463,-0.06274962425231934,9.80473518371582,-0.0028518764820074007,0.002864396460022676,0.002328037897075319,3.3649535179138184,2019-06-18 15:14:33:911
-0.14767223596572876,-0.048381127417087555,9.76402473449707,0.0026089368936460283,0.002997587023817288,0.001528894514307645,3.3690733909606934,2019-06-18 15:14:33:915
-0.1189352422952652,-0.06753912568092346,9.797551155090332,-5.487451634704159e-05,0.00033377558537858905,0.0029939909761227054,3.374962329864502,2019-06-18 15:14:33:921
-0.11654049158096313,-0.041196878999471664,9.826288223266602,-0.0021859236630343394,0.0049954457408107975,0.00326037210371193,3.379082202911377,2019-06-18 15:14:33:925
-0.157251238822937,-0.05796012654900551,9.778392791748047,0.0027421274574406405,0.003397158715201125,0.00326037210371193,3.3849854469299316,2019-06-18 15:14:33:931
-0.10696149617433548,-0.041196878999471664,9.809524536132812,-0.0028518764820074007,0.0024648247686388392,-0.0003357734438355082,3.3890838623046875,2019-06-18 15:14:33:935
-0.08301399648189545,-0.04359162971377373,9.835866928100586,-0.0017863519716505025,0.005528207995989247,0.00166208520813942,3.394956111907959,2019-06-18 15:14:33:941
-0.10696149617433548,-0.07711812108755112,9.840656280517578,0.006604654067558721,0.0039299209703795735,0.0035267532313011545,3.3990731239318848,2019-06-18 15:14:33:945
-0.12851424515247345,-0.0388021282851696,9.840656280517578,-0.0009872085238642476,0.004196302097968799,-0.0020672508381840496,3.404970169067383,2019-06-18 15:14:33:951
-0.12372474372386932,-0.03161787986755371,9.826288223266602,-0.0040505915561589115,0.003796730406584962,0.0003301794401561345,3.409972667694092,2019-06-18 15:14:33:956
-0.10935624688863754,-0.05317062884569168,9.778392791748047,-0.0008540179600696353,0.0036635398427903496,0.0011293228229238084,3.4140868186950684,2019-06-18 15:14:33:960
-0.12132999300956726,-0.0388021282851696,9.7352876663208,0.0023425557660568036,-0.004327894505035039,0.0012625133867184206,3.4199562072753906,2019-06-18 15:14:33:966
-0.10217199474573135,-0.012459882535040379,9.890946388244629,7.831605963855469e-05,0.0031307775876119005,-0.0020672508381840496,3.424074649810791,2019-06-18 15:14:33:970
-0.11414574086666107,-0.029223131015896797,9.843050956726074,-0.00018806509233263786,0.004462683485632349,-0.000735345135219345,3.4299564361572266,2019-06-18 15:14:33:976
-0.11654049158096313,-0.06753912568092346,9.852629661560059,-0.0019195425354451149,0.0016656812558340024,0.0004633700039507468,3.4340968132019043,2019-06-18 15:14:33:980
-0.08301399648189545,-0.03161787986755371,9.888551712036133,0.0010106500630920993,0.004462683485632349,0.000996132259129196,3.4399571418762207,2019-06-18 15:14:33:986
-0.07104025036096573,-0.01724938116967678,9.838261604309082,-0.0008540179600696353,-0.0017972735328630795,0.00326037210371193,3.444117546081543,2019-06-18 15:14:33:990
-0.10696149617433548,-0.03161787986755371,9.828682899475098,0.004873176478154437,0.001798871819628615,-0.0003357734438355082,3.4499735832214355,2019-06-18 15:14:33:996
-0.08780349791049957,-0.0388021282851696,9.785576820373535,0.0004778877754043595,0.003397158715201125,-0.0024668226596050486,3.4540772438049316,2019-06-18 15:14:34:000
-0.14767223596572876,-0.019644131883978844,9.795156478881836,0.0023425557660568036,0.004595873789352636,-0.0015344885830056003,3.459958553314209,2019-06-18 15:14:34:006
-0.10935624688863754,-0.0028808838687837124,9.840656280517578,0.0024757463298514157,0.003530349278995737,-0.0012681074554163755,3.464083671569824,2019-06-18 15:14:34:010
-0.14048798382282257,-0.03161787986755371,9.802340507507324,-0.0008540179600696353,-0.0007317490225061812,0.004459087177863441,3.4699854850769043,2019-06-18 15:14:34:016
-0.0662507489323616,-0.00048613420221954584,9.881366729736328,-0.0025854953544181764,0.004196302097968799,-0.0031327754785781103,3.4740781784057617,2019-06-18 15:14:34:020
-0.07582975178956985,-0.026828380301594734,9.8167085647583,-0.004316972683748136,0.0007333473092717165,0.0013957039505130327,3.4799795150756836,2019-06-18 15:14:34:026
-0.14048798382282257,-0.04359162971377373,9.831077575683594,-0.0015199708440612782,0.0020652529472178394,-0.000735345135219345,3.484961986541748,2019-06-18 15:14:34:031
-0.1380932480096817,-0.022038880735635757,9.773603439331055,0.0008774594992974871,0.004729064613221573,0.0007297511315399715,3.4890928268432617,2019-06-18 15:14:34:035
-0.11654049158096313,-0.034012630581855774,9.826288223266602,-0.0011203991526774412,0.005528207995989247,0.0012625133867184206,3.494960308074951,2019-06-18 15:14:34:041
-0.14288273453712463,-0.07472337782382965,9.83347225189209,-0.0011203991526774412,0.0020652529472178394,0.00166208520813942,3.4990735054016113,2019-06-18 15:14:34:045
-0.10935624688863754,-0.034012630581855774,9.847840309143066,0.00021150663156048962,0.004329492661763411,0.0019284663357286445,3.5049619674682617,2019-06-18 15:14:34:051
-0.10217199474573135,-0.03161787986755371,9.802340507507324,0.0012770312556999051,0.0002005850053293314,0.004325896614068829,3.5090832710266113,2019-06-18 15:14:34:055
-0.14048798382282257,-0.04598637670278549,9.809524536132812,0.0004778877754043595,0.007259685065244881,0.0040595154864796045,3.5149526596069336,2019-06-18 15:14:34:061
-0.1452774852514267,-0.048381127417087555,9.787971496582031,-0.0019195425354451149,0.002864396460022676,-0.0008685356990139574,3.519315719604492,2019-06-18 15:14:34:065
-0.1189352422952652,-0.048381127417087555,9.852629661560059,0.0012770312556999051,0.003397158715201125,0.0011293228229238084,3.524972438812256,2019-06-18 15:14:34:071
