ACCELEROMETER X (m/s²),ACCELEROMETER Y (m/s²),ACCELEROMETER Z (m/s²),GYROSCOPE X (rad/s),GYROSCOPE Y (rad/s),GYROSCOPE Z (rad/s),Time since start in ms ,YYYY-MO-DD HH-MI-SS_SSS,MagX,MagY,MagZ
-0.1541236937046051,0.02102111279964447,9.766711235046387,-0.0036889792729844113,-0.0035438016234668654,-0.0010354235079578973,0.0,2019-06-20 16:34:59:577,0.0,0.0,0.0
-0.14454469084739685,-0.019689632579684258,9.79305362701416,0.0003067379009282828,-0.003011039368288416,-0.0017013763269309588,0.004105091094970703,2019-06-20 16:34:59:581,0.0,0.0,0.0
-0.12059719860553741,-0.019689632579684258,9.800237655639648,-0.0010251678020364214,-0.00793909022868907,-0.0013018046355471218,0.010003089904785156,2019-06-20 16:34:59:587,0.0,0.0,0.0
-0.15891319513320923,0.037784360349178314,9.867290496826172,-0.001158358430849615,-0.002744658240699191,-0.00036947065647554515,0.0149993896484375,2019-06-20 16:34:59:592,0.0,0.0,0.0
-0.12299194931983948,-0.007715883664786816,9.771500587463379,-0.0004924055468579722,-0.005408469776665762,0.0005628633876146128,0.01998758316040039,2019-06-20 16:34:59:597,0.0,0.0,0.0
-0.15891319513320923,-0.04363713040947914,9.769105911254883,0.0019050247965007928,-0.007406327973510622,-0.0019677574545201833,0.024123191833496094,2019-06-20 16:34:59:601,0.0,0.0,0.0
-0.1613079458475113,0.03299486264586449,9.848133087158203,0.0005731190285175073,-0.0044761355700291515,-0.005031140421796266,0.030000686645507812,2019-06-20 16:34:59:607,0.0,0.0,0.0
-0.16849219799041748,-0.01490013301372528,9.754737854003906,-0.00022602440301410239,-0.004342945006234539,0.0005628633876146128,0.03410816192626953,2019-06-20 16:34:59:611,0.0,0.0,0.0
-0.13257095217704773,0.006652614567428827,9.8505277633667,0.001372262411285181,-0.0050088978252076,-0.0014349951993417342,0.04001760482788086,2019-06-20 16:34:59:617,0.0,0.0,0.0
-0.1732816994190216,0.023415861651301384,9.852922439575195,0.0005731190285175073,-0.0044761355700291515,-0.004764759294207041,0.04500246047973633,2019-06-20 16:34:59:622,0.0,0.0,0.0
-0.1349657028913498,0.023415861651301384,9.781079292297363,-0.003822169836779023,0.00018553447162054023,-0.0010354235079578973,0.04910850524902344,2019-06-20 16:34:59:626,0.0,0.0,0.0
-0.14454469084739685,0.006652614567428827,9.781079292297363,-0.0004924055468579722,-0.003144229932083028,0.0009624350789984497,0.05501604080200195,2019-06-20 16:34:59:632,0.0,0.0,0.0
-0.12299194931983948,-0.03405813127756119,9.773895263671875,-0.0008919772382418092,-0.0035438016234668654,-0.004498378166617817,0.059113502502441406,2019-06-20 16:34:59:636,0.0,0.0,0.0
-0.13017620146274567,0.03299486264586449,9.807421684265137,-0.0036889792729844113,-0.0050088978252076,-0.0032996633525406317,0.06499862670898438,2019-06-20 16:34:59:642,0.0,0.0,0.0
-0.13257095217704773,0.0018631152343004942,9.809816360473633,0.0008395001561067318,-0.0067403754146118855,-0.0025005197096986324,0.07002067565917969,2019-06-20 16:34:59:647,0.0,0.0,0.0
-0.13736045360565186,-0.010110633447766304,9.766711235046387,0.004169264511046364,-0.007406327973510622,-0.0006358518165740604,0.07412147521972656,2019-06-20 16:34:59:651,0.0,0.0,0.0
-0.1277814507484436,0.006652614567428827,9.845738410949707,-0.0016911206860280642,-0.0050088978252076,0.001095625642793062,0.07999420166015625,2019-06-20 16:34:59:657,0.0,0.0,0.0
-0.11101820319890976,0.059337109327316284,9.869685173034668,-0.0014247395584388394,-0.008072281052558009,-0.0005026612202701574,0.08411121368408203,2019-06-20 16:34:59:661,0.0,0.0,0.0
-0.08707070350646973,-0.002926384098827839,9.852922439575195,0.0003067379009282828,-0.007805899924968783,-0.0019677574545201833,0.08911418914794922,2019-06-20 16:34:59:666,0.0,0.0,0.0
-0.10143920034170151,0.023415861651301384,9.840948104858398,-0.0010251678020364214,-0.005541660080386049,0.0009624350789984497,0.09499549865722656,2019-06-20 16:34:59:672,0.0,0.0,0.0
-0.1469394415616989,0.018626363947987556,9.759527206420898,-0.0008919772382418092,-0.003943373314850702,-0.0010354235079578973,0.09998893737792969,2019-06-20 16:34:59:677,0.0,0.0,0.0
-0.1421499401330948,-0.010110633447766304,9.82179069519043,-0.0012915489946442272,-0.0023450862892410293,-0.0010354235079578973,0.10412931442260742,2019-06-20 16:34:59:681,0.0,0.0,0.0
-0.14454469084739685,-0.007715883664786816,9.788264274597168,0.0015054529750797934,-0.006873565718332173,0.0038926276125170823,0.10999488830566406,2019-06-20 16:34:59:687,0.0,0.0,0.0
-0.15891319513320923,0.03538960963487625,9.79305362701416,-0.00035921498306336,-0.006074422335564498,-0.0017013763269309588,0.11411285400390625,2019-06-20 16:34:59:691,0.0,0.0,0.0
-0.1349657028913498,0.03538960963487625,9.824185371398926,-0.0023570736350382883,-0.0032774204958776402,0.0025607219745709597,0.12003898620605469,2019-06-20 16:34:59:697,0.0,0.0,0.0
-0.11101820319890976,-0.029268629848957062,9.797842979431152,-0.0004924055468579722,-0.009537376994224418,-0.0026337102734932446,0.12500476837158203,2019-06-20 16:34:59:702,0.0,0.0,0.0
-0.1613079458475113,0.0018631152343004942,9.838553428649902,0.0007063095923121196,-0.008738234131605394,0.0017615784617661236,0.1299901008605957,2019-06-20 16:34:59:707,0.0,0.0,0.0
-0.08467595279216766,0.10004784911870956,9.771500587463379,-0.002090692377411901,-0.0067403754146118855,-0.004098806735308305,0.1341109275817871,2019-06-20 16:34:59:711,0.0,0.0,0.0
-0.15172894299030304,-0.04124237969517708,9.817001342773438,-0.0008919772382418092,-0.004609325873749438,0.0005628633876146128,0.13913536071777344,2019-06-20 16:34:59:716,0.0,0.0,0.0
-0.09904444962739944,-0.005321133881807327,9.747552871704102,0.002970549436894854,-0.008871424435325683,0.0002964822275160976,0.14411306381225586,2019-06-20 16:34:59:721,0.0,0.0,0.0
-0.17088694870471954,0.02102111279964447,9.824185371398926,-0.00448812291582641,-0.004742516697618376,-0.000902232944163285,0.150146484375,2019-06-20 16:34:59:727,0.0,0.0,0.0
-0.11820244789123535,-0.005321133881807327,9.749947547912598,0.0020382153602954054,-0.004209754442439926,-0.0030332819648770815,0.15412330627441406,2019-06-20 16:34:59:731,0.0,0.0,0.0
-0.1421499401330948,-0.05800562724471092,9.781079292297363,0.005234789021403263,-0.0035438016234668654,-0.0007690423803686727,0.1599893569946289,2019-06-20 16:34:59:737,0.0,0.0,0.0
-0.13257095217704773,0.009047363884747028,9.83376407623291,0.003370121128278691,-0.010469711200861029,-0.0032996633525406317,0.16413116455078125,2019-06-20 16:34:59:741,0.0,0.0,0.0
-0.15651844441890717,-0.007715883664786816,9.82179069519043,-0.0059532188574928195,-0.005408469776665762,-0.0026337102734932446,0.17000532150268555,2019-06-20 16:34:59:747,0.0,0.0,0.0
-0.16609744727611542,0.023415861651301384,9.754737854003906,0.001372262411285181,-0.006074422335564498,0.0012288162065876742,0.17499446868896484,2019-06-20 16:34:59:752,0.0,0.0,0.0
-0.1469394415616989,-0.0005316344322636724,9.836158752441406,-0.001158358430849615,-0.0012795617788841308,0.003493055921133246,0.17910242080688477,2019-06-20 16:34:59:756,0.0,0.0,0.0
-0.14933419227600098,0.05694235861301422,9.83376407623291,0.0024377869216420794,-0.006207613159433436,-0.0034328539163352434,0.18411493301391602,2019-06-20 16:34:59:761,0.0,0.0,0.0
-0.1349657028913498,-0.019689632579684258,9.790658950805664,-9.283383109216743e-05,-0.005941232031844212,0.0005628633876146128,0.18911314010620117,2019-06-20 16:34:59:766,0.0,0.0,0.0
-0.10143920034170151,-0.019689632579684258,9.826580047607422,0.0023045963578474673,-0.0052752789527968245,0.0024275314107763475,0.19411039352416992,2019-06-20 16:34:59:771,0.0,0.0,0.0
-0.1541236937046051,0.030600111931562424,9.867290496826172,-0.0007587866744471969,-0.003943373314850702,-0.0005026612202701574,0.20001697540283203,2019-06-20 16:34:59:777,0.0,0.0,0.0
-0.13257095217704773,0.009047363884747028,9.79305362701416,-0.0024902641988329005,-0.002744658240699191,-0.00010308950450435256,0.20499467849731445,2019-06-20 16:34:59:782,0.0,0.0,0.0
-0.11580769717693329,-0.04363713040947914,9.778684616088867,0.0025709774854366916,-0.005808041207975274,-0.0005026612202701574,0.2091054916381836,2019-06-20 16:34:59:786,0.0,0.0,0.0
-0.18525543808937073,0.02102111279964447,9.867290496826172,0.0043024550748409765,-0.003943373314850702,-0.007295380266379,0.21416950225830078,2019-06-20 16:34:59:791,0.0,0.0,0.0
-0.1469394415616989,0.04257386177778244,9.771500587463379,-0.002090692377411901,-0.0020787052916889674,0.0008292445152038374,0.22000598907470703,2019-06-20 16:34:59:797,0.0,0.0,0.0
-0.11820244789123535,0.009047363884747028,9.814606666564941,0.0003067379009282828,-0.0052752789527968245,0.0030934842297494092,0.2241067886352539,2019-06-20 16:34:59:801,0.0,0.0,0.0
-0.13975520431995392,0.011442113667726517,9.800237655639648,-9.283383109216743e-05,-0.005408469776665762,-0.0023673291459040203,0.2299952507019043,2019-06-20 16:34:59:807,0.0,0.0,0.0
-0.13257095217704773,0.011442113667726517,9.80502700805664,0.0032369305644840782,-0.0015459429064733554,0.0018947690255607357,0.23411273956298828,2019-06-20 16:34:59:811,0.0,0.0,0.0
-0.1421499401330948,0.004257864784449339,9.824185371398926,0.0027041680492313038,-0.0050088978252076,-0.0010354235079578973,0.23914337158203125,2019-06-20 16:34:59:816,0.0,0.0,0.0
-0.13736045360565186,-0.0005316344322636724,9.766711235046387,0.004036073947251752,-0.005142088649076538,0.0005628633876146128,0.2450084686279297,2019-06-20 16:34:59:822,0.0,0.0,0.0
-0.19243969023227692,0.006652614567428827,9.773895263671875,-0.0010251678020364214,-0.007672709101099845,0.004025818176311695,0.2491140365600586,2019-06-20 16:34:59:826,0.0,0.0,0.0
-0.16370269656181335,0.05454760789871216,9.840948104858398,-0.002090692377411901,-0.0067403754146118855,-0.0030332819648770815,0.25499820709228516,2019-06-20 16:34:59:832,0.0,0.0,0.0
-0.1541236937046051,-0.04124237969517708,9.776289939880371,-0.00022602440301410239,-0.0044761355700291515,0.0005628633876146128,0.2591114044189453,2019-06-20 16:34:59:836,0.0,0.0,0.0
-0.1349657028913498,0.0018631152343004942,9.817001342773438,0.0019050247965007928,-0.00793909022868907,-0.0048979501180759786,0.2641153335571289,2019-06-20 16:34:59:841,0.0,0.0,0.0
-0.13257095217704773,0.044968608766794205,9.83376407623291,0.0017718342327061804,-0.005541660080386049,0.0025607219745709597,0.2691044807434082,2019-06-20 16:34:59:846,0.0,0.0,0.0
-0.14454469084739685,0.0018631152343004942,9.814606666564941,-0.0030230264540113496,-0.0032774204958776402,-0.001834566890725571,0.2741212844848633,2019-06-20 16:34:59:851,0.0,0.0,0.0
-0.12538670003414154,-0.02208438143134117,9.857711791992188,-0.00022602440301410239,-0.0014127523426787432,-0.0027669008372878568,0.279998779296875,2019-06-20 16:34:59:857,0.0,0.0,0.0
-0.12538670003414154,-0.010110633447766304,9.80502700805664,-0.0012915489946442272,-0.005808041207975274,0.00042967279131070986,0.28410911560058594,2019-06-20 16:34:59:861,0.0,0.0,0.0
-0.14454469084739685,0.016231613233685493,9.795448303222656,-0.003156217017805962,-0.006607184590742948,-0.005563903197123366,0.28922367095947266,2019-06-20 16:34:59:866,0.0,0.0,0.0
-0.13257095217704773,-0.012505383230745792,9.80502700805664,0.003370121128278691,-0.009004614739045968,0.0029602936659547966,0.2950010299682617,2019-06-20 16:34:59:872,0.0,0.0,0.0
-0.12059719860553741,0.02820536121726036,9.852922439575195,0.00043992846472289506,-0.0044761355700291515,0.0013620067703822866,0.299102783203125,2019-06-20 16:34:59:876,0.0,0.0,0.0
-0.15891319513320923,0.04736335948109627,9.812211036682129,-0.001158358430849615,-0.00647399428702266,-0.000902232944163285,0.30504846572875977,2019-06-20 16:34:59:882,0.0,0.0,0.0
-0.13257095217704773,0.023415861651301384,9.812211036682129,-0.00035921498306336,-0.005541660080386049,3.010106944941304e-05,0.3091287612915039,2019-06-20 16:34:59:886,0.0,0.0,0.0
-0.1541236937046051,0.0018631152343004942,9.809816360473633,-0.0012915489946442272,-0.0032774204958776402,-0.0014349951993417342,0.31499481201171875,2019-06-20 16:34:59:892,0.0,0.0,0.0
-0.11820244789123535,0.059337109327316284,9.83376407623291,-0.0008919772382418092,-0.0035438016234668654,-0.0007690423803686727,0.31910228729248047,2019-06-20 16:34:59:896,0.0,0.0,0.0
-0.14454469084739685,-0.0005316344322636724,9.773895263671875,0.0021714059240900176,-0.005541660080386049,3.010106944941304e-05,0.32500171661376953,2019-06-20 16:34:59:902,0.0,0.0,0.0
-0.12059719860553741,0.0018631152343004942,9.773895263671875,0.0015054529750797934,-0.0050088978252076,0.0014951973341768988,0.32911205291748047,2019-06-20 16:34:59:906,0.0,0.0,0.0
-0.14454469084739685,0.025810612365603447,9.82179069519043,-0.001158358430849615,-0.005541660080386049,0.0002964822275160976,0.3352518081665039,2019-06-20 16:34:59:912,0.0,0.0,0.0
-0.1421499401330948,-0.010110633447766304,9.824185371398926,0.0021714059240900176,-0.0024782768530356414,-0.0011686140717525096,0.33916139602661133,2019-06-20 16:34:59:916,0.0,0.0,0.0
-0.1469394415616989,0.004257864784449339,9.843342781066895,0.00043992846472289506,-0.008871424435325683,0.0022943408469817354,0.3450002670288086,2019-06-20 16:34:59:922,0.0,0.0,0.0
-0.16370269656181335,0.004257864784449339,9.817001342773438,0.0008395001561067318,-0.0044761355700291515,-0.0013018046355471218,0.3491020202636719,2019-06-20 16:34:59:926,0.0,0.0,0.0
-0.1421499401330948,0.07849510759115219,9.797842979431152,-0.0010251678020364214,-0.006607184590742948,-0.0011686140717525096,0.35501575469970703,2019-06-20 16:34:59:932,0.0,0.0,0.0
-0.12059719860553741,-0.046031877398490906,9.819396018981934,0.0025709774854366916,-0.0016791336003051302,-0.0017013763269309588,0.3591041564941406,2019-06-20 16:34:59:936,0.0,0.0,0.0
-0.18286068737506866,-0.0005316344322636724,9.790658950805664,0.0020382153602954054,-0.0032774204958776402,-0.005963474628432877,0.36411476135253906,2019-06-20 16:34:59:941,0.0,0.0,0.0
-0.11820244789123535,0.04975811019539833,9.79305362701416,-0.0035557887091897987,-0.0028778488044938037,0.0009624350789984497,0.36999940872192383,2019-06-20 16:34:59:947,0.0,0.0,0.0
-0.1421499401330948,-0.007715883664786816,9.749947547912598,0.0032369305644840782,-0.0028778488044938037,-0.0019677574545201833,0.37410449981689453,2019-06-20 16:34:59:951,0.0,0.0,0.0
-0.14454469084739685,-0.019689632579684258,9.783474922180176,0.00017354732087902514,-0.006607184590742948,0.001095625642793062,0.3791069984436035,2019-06-20 16:34:59:956,0.0,0.0,0.0
-0.11580769717693329,0.03299486264586449,9.800237655639648,-0.0018243112498226766,-0.004209754442439926,-0.0030332819648770815,0.3841428756713867,2019-06-20 16:34:59:961,0.0,0.0,0.0
-0.09425495564937592,-0.002926384098827839,9.797842979431152,0.0007063095923121196,-0.0018123241640997428,-0.0027669008372878568,0.38912391662597656,2019-06-20 16:34:59:966,0.0,0.0,0.0
-0.10622870177030563,-0.03405813127756119,9.819396018981934,-0.003955360400573636,-0.0044761355700291515,-0.0019677574545201833,0.39411067962646484,2019-06-20 16:34:59:971,0.0,0.0,0.0
-0.16370269656181335,-0.017294881865382195,9.869685173034668,0.0003067379009282828,-0.0015459429064733554,-0.0021009480183147955,0.4000091552734375,2019-06-20 16:34:59:977,0.0,0.0,0.0
-0.10143920034170151,0.02102111279964447,9.855317115783691,0.0003067379009282828,-0.007672709101099845,-0.0031664725286716937,0.4041275978088379,2019-06-20 16:34:59:981,0.0,0.0,0.0
-0.11101820319890976,-0.038847628980875015,9.79305362701416,-0.0032894075816005744,-0.0067403754146118855,0.003226674793544021,0.4091062545776367,2019-06-20 16:34:59:986,0.0,0.0,0.0
-0.10143920034170151,-0.04842662811279297,9.836158752441406,0.00017354732087902514,-0.0028778488044938037,0.003226674793544021,0.41499996185302734,2019-06-20 16:34:59:992,0.0,0.0,0.0
-0.10622870177030563,0.04017911106348038,9.8505277633667,-0.0024902641988329005,-0.00847185248386752,-0.0006358518165740604,0.4191093444824219,2019-06-20 16:34:59:996,0.0,0.0,0.0
-0.1421499401330948,-0.002926384098827839,9.860106468200684,-0.0035557887091897987,-0.0044761355700291515,-0.004498378166617817,0.42499732971191406,2019-06-20 16:35:00:002,0.0,0.0,0.0
-0.1613079458475113,-0.012505383230745792,9.74276351928711,0.0011058812836959564,-0.005808041207975274,-0.000902232944163285,0.42932558059692383,2019-06-20 16:35:00:006,0.0,0.0,0.0
-0.11101820319890976,0.04975811019539833,9.852922439575195,0.00043992846472289506,-0.0038101827510560898,-0.0032996633525406317,0.43413257598876953,2019-06-20 16:35:00:011,0.0,0.0,0.0
-0.11820244789123535,0.02820536121726036,9.783474922180176,-0.0018243112498226766,-0.0040765638786453146,0.0038926276125170823,0.4391365051269531,2019-06-20 16:35:00:016,0.0,0.0,0.0
-0.10143920034170151,-0.0005316344322636724,9.795448303222656,0.0021714059240900176,-0.003943373314850702,0.001628387897971511,0.4450349807739258,2019-06-20 16:35:00:022,0.0,0.0,0.0
-0.14933419227600098,0.011442113667726517,9.766711235046387,0.0003067379009282828,-0.008338662180147232,-0.002234138582109408,0.44913339614868164,2019-06-20 16:35:00:026,0.0,0.0,0.0
-0.1469394415616989,0.04257386177778244,9.83376407623291,-0.0006255961106525846,-0.005541660080386049,-0.0023673291459040203,0.4541130065917969,2019-06-20 16:35:00:031,0.0,0.0,0.0
-0.1349657028913498,0.037784360349178314,9.812211036682129,-0.001957501813617289,-0.005941232031844212,-0.0023673291459040203,0.459989070892334,2019-06-20 16:35:00:037,0.0,0.0,0.0
-0.13975520431995392,-0.03405813127756119,9.757132530212402,-0.001957501813617289,-0.004742516697618376,0.00042967279131070986,0.4641151428222656,2019-06-20 16:35:00:041,0.0,0.0,0.0
-0.14933419227600098,0.006652614567428827,9.845738410949707,0.0032369305644840782,-0.005408469776665762,0.00042967279131070986,0.46912193298339844,2019-06-20 16:35:00:046,0.0,0.0,0.0
-0.13975520431995392,0.02102111279964447,9.826580047607422,-0.0012915489946442272,-0.003011039368288416,0.004958152122873981,0.4741086959838867,2019-06-20 16:35:00:051,0.0,0.0,0.0
-0.14933419227600098,-0.002926384098827839,9.788264274597168,0.0009726907199013442,-0.0032774204958776402,0.001095625642793062,0.48001861572265625,2019-06-20 16:35:00:057,0.0,0.0,0.0
-0.15651844441890717,-0.012505383230745792,9.828974723815918,-0.0006255961106525846,-0.007139946845921397,0.002693912538365572,0.48499488830566406,2019-06-20 16:35:00:062,0.0,0.0,0.0
-0.13257095217704773,0.04017911106348038,9.76431655883789,0.0035033116920733026,-0.006074422335564498,3.010106944941304e-05,0.4891033172607422,2019-06-20 16:35:00:066,0.0,0.0,0.0
-0.10622870177030563,0.016231613233685493,9.785869598388672,-0.0004924055468579722,-0.003410611059672253,-0.0029000914010824694,0.49503326416015625,2019-06-20 16:35:00:072,0.0,0.0,0.0
-0.1469394415616989,0.025810612365603447,9.800237655639648,0.006433504355629099,-0.003410611059672253,0.0013620067703822866,0.49912214279174805,2019-06-20 16:35:00:076,0.0,0.0,0.0
-0.11101820319890976,0.030600111931562424,9.83376407623291,0.0032369305644840782,-0.004342945006234539,-0.0029000914010824694,0.5049939155578613,2019-06-20 16:35:00:082,0.0,0.0,0.0
-0.1277814507484436,0.025810612365603447,9.80502700805664,0.0019050247965007928,-0.0015459429064733554,-0.000902232944163285,0.5091037750244141,2019-06-20 16:35:00:086,0.0,0.0,0.0
-0.13017620146274567,0.009047363884747028,9.838553428649902,0.0008395001561067318,-0.00647399428702266,0.0013620067703822866,0.5141153335571289,2019-06-20 16:35:00:091,0.0,0.0,0.0
-0.13257095217704773,0.030600111931562424,9.788264274597168,0.0019050247965007928,-0.00847185248386752,-0.004231997299102917,0.5191125869750977,2019-06-20 16:35:00:096,0.0,0.0,0.0
-0.1469394415616989,0.030600111931562424,9.797842979431152,-0.0004924055468579722,-0.0023450862892410293,0.0006960539514092252,0.5251302719116211,2019-06-20 16:35:00:102,0.0,0.0,0.0
-0.1086234524846077,-0.024479132145643234,9.881659507751465,-0.0008919772382418092,-0.004742516697618376,3.010106944941304e-05,0.5291128158569336,2019-06-20 16:35:00:106,0.0,0.0,0.0
-0.1277814507484436,-0.002926384098827839,9.838553428649902,-0.001557930122233452,-0.007539518797379559,-0.0026337102734932446,0.534996509552002,2019-06-20 16:35:00:112,0.0,0.0,0.0
-0.17088694870471954,0.06412661075592041,9.8505277633667,-0.0047545040434156345,-0.004609325873749438,-0.000902232944163285,0.5391068458557129,2019-06-20 16:35:00:116,0.0,0.0,0.0
-0.14933419227600098,0.025810612365603447,9.771500587463379,-0.003955360400573636,-0.001945514727894355,-0.0005026612202701574,0.5450129508972168,2019-06-20 16:35:00:122,0.0,0.0,0.0
-0.13975520431995392,-0.04842662811279297,9.797842979431152,0.005634360972861425,-0.007006756542201109,-0.0026337102734932446,0.5491042137145996,2019-06-20 16:35:00:126,0.0,0.0,0.0
-0.1613079458475113,0.023415861651301384,9.86250114440918,-0.00502088517100486,-0.0018123241640997428,-0.0025005197096986324,0.5541138648986816,2019-06-20 16:35:00:131,0.0,0.0,0.0
-0.1469394415616989,-0.012505383230745792,9.817001342773438,-0.0014247395584388394,-0.0014127523426787432,-0.0005026612202701574,0.5599889755249023,2019-06-20 16:35:00:137,0.0,0.0,0.0
-0.12059719860553741,-0.017294881865382195,9.812211036682129,-0.001557930122233452,-0.0050088978252076,0.0021611501531499603,0.5641107559204102,2019-06-20 16:35:00:141,0.0,0.0,0.0
-0.1277814507484436,-0.0005316344322636724,9.790658950805664,0.002970549436894854,-0.001945514727894355,0.005224533250463206,0.5691051483154297,2019-06-20 16:35:00:146,0.0,0.0,0.0
-0.13975520431995392,0.037784360349178314,9.797842979431152,-0.003422598145395187,-0.0007467995237056817,0.0017615784617661236,0.5750112533569336,2019-06-20 16:35:00:152,0.0,0.0,0.0
-0.15172894299030304,-0.0005316344322636724,9.797842979431152,-9.283383109216743e-05,-0.004875707001338663,-0.004365187862897529,0.5791072845458984,2019-06-20 16:35:00:156,0.0,0.0,0.0
-0.1277814507484436,-0.04124237969517708,9.82179069519043,0.00043992846472289506,-0.003676992187261477,0.0038926276125170823,0.5841131210327148,2019-06-20 16:35:00:161,0.0,0.0,0.0
-0.18525543808937073,0.023415861651301384,9.807421684265137,0.00043992846472289506,-0.0035438016234668654,-0.0034328539163352434,0.5900135040283203,2019-06-20 16:35:00:167,0.0,0.0,0.0
-0.12299194931983948,-0.002926384098827839,9.728395462036133,-0.002756645326422125,-0.004742516697618376,-0.0030332819648770815,0.5949921607971191,2019-06-20 16:35:00:172,0.0,0.0,0.0
-0.08946545422077179,-0.031663380563259125,9.802632331848145,0.0053679798452722005,-0.0040765638786453146,0.0030934842297494092,0.5991034507751465,2019-06-20 16:35:00:176,0.0,0.0,0.0
-0.12059719860553741,-0.017294881865382195,9.730790138244629,0.0021714059240900176,-0.004209754442439926,0.0012288162065876742,0.6041221618652344,2019-06-20 16:35:00:181,0.0,0.0,0.0
-0.13736045360565186,0.05454760789871216,9.826580047607422,-0.0030230264540113496,-0.001945514727894355,0.00016329164746684,0.6091117858886719,2019-06-20 16:35:00:186,0.0,0.0,0.0
-0.14454469084739685,-0.029268629848957062,9.79305362701416,0.0019050247965007928,-0.003144229932083028,-0.003566044480129856,0.614105224609375,2019-06-20 16:35:00:191,0.0,0.0,0.0
-0.13257095217704773,0.004257864784449339,9.785869598388672,0.0009726907199013442,-0.0023450862892410293,0.001095625642793062,0.6199893951416016,2019-06-20 16:35:00:197,0.0,0.0,0.0
-0.12059719860553741,0.023415861651301384,9.800237655639648,0.0015054529750797934,-0.002744658240699191,0.0005628633876146128,0.6250009536743164,2019-06-20 16:35:00:202,0.0,0.0,0.0
-0.16849219799041748,-0.029268629848957062,9.828974723815918,0.0009726907199013442,-0.004875707001338663,0.0024275314107763475,0.6291093826293945,2019-06-20 16:35:00:206,0.0,0.0,0.0
-0.15891319513320923,-0.017294881865382195,9.824185371398926,0.0032369305644840782,-0.007273137669790334,-0.0007690423803686727,0.6351490020751953,2019-06-20 16:35:00:212,0.0,0.0,0.0
-0.1732816994190216,0.059337109327316284,9.75234317779541,-0.0030230264540113496,-0.0050088978252076,3.010106944941304e-05,0.6391515731811523,2019-06-20 16:35:00:216,0.0,0.0,0.0
-0.10143920034170151,0.05694235861301422,9.824185371398926,-0.004621313219546697,-0.0018123241640997428,-0.00010308950450435256,0.6441140174865723,2019-06-20 16:35:00:221,0.0,0.0,0.0
-0.12299194931983948,0.009047363884747028,9.828974723815918,-0.00022602440301410239,-0.005808041207975274,-0.004231997299102917,0.6491079330444336,2019-06-20 16:35:00:226,0.0,0.0,0.0
-0.11580769717693329,0.009047363884747028,9.800237655639648,0.0024377869216420794,-0.003410611059672253,-0.00023628007642628753,0.6541128158569336,2019-06-20 16:35:00:231,0.0,0.0,0.0
-0.1613079458475113,0.04975811019539833,9.828974723815918,-0.0016911206860280642,-0.0038101827510560898,-0.004498378166617817,0.6599969863891602,2019-06-20 16:35:00:237,0.0,0.0,0.0
-0.11341295391321182,-0.012505383230745792,9.74276351928711,-0.0030230264540113496,-0.004609325873749438,-0.002234138582109408,0.6641092300415039,2019-06-20 16:35:00:241,0.0,0.0,0.0
-0.13257095217704773,-0.026873880997300148,9.783474922180176,0.0008395001561067318,-0.011002473456039477,-0.00010308950450435256,0.6699895858764648,2019-06-20 16:35:00:247,0.0,0.0,0.0
-0.11101820319890976,0.030600111931562424,9.831369400024414,0.0007063095923121196,-0.003410611059672253,0.0006960539514092252,0.6750054359436035,2019-06-20 16:35:00:252,0.0,0.0,0.0
-0.14454469084739685,0.030600111931562424,9.773895263671875,0.0037696928196625274,-0.0020787052916889674,-0.0011686140717525096,0.679110050201416,2019-06-20 16:35:00:256,0.0,0.0,0.0
-0.13017620146274567,-0.012505383230745792,9.747552871704102,0.0012390718474905686,-0.009670568338242006,0.0037594370487224705,0.6841373443603516,2019-06-20 16:35:00:261,0.0,0.0,0.0
-0.1421499401330948,0.013836863450706005,9.848133087158203,0.003636502255867915,-0.005941232031844212,-0.0034328539163352434,0.6891078948974609,2019-06-20 16:35:00:266,0.0,0.0,0.0
-0.12059719860553741,0.037784360349178314,9.86250114440918,4.035674489342885e-05,-0.0052752789527968245,-0.0015681857631363464,0.6941146850585938,2019-06-20 16:35:00:271,0.0,0.0,0.0
-0.12538670003414154,-0.012505383230745792,9.817001342773438,-0.001158358430849615,-0.004875707001338663,0.0022943408469817354,0.6991133689880371,2019-06-20 16:35:00:276,0.0,0.0,0.0
-0.12299194931983948,0.02102111279964447,9.828974723815918,0.004702026766224813,-0.0006136089599110694,0.002027959589355348,0.7049922943115234,2019-06-20 16:35:00:282,0.0,0.0,0.0
-0.16849219799041748,-0.010110633447766304,9.812211036682129,-0.0026234547626275127,-0.001945514727894355,-0.00010308950450435256,0.7091054916381836,2019-06-20 16:35:00:286,0.0,0.0,0.0
-0.09664970636367798,0.004257864784449339,9.781079292297363,-0.0004924055468579722,-0.003676992187261477,-0.006762618011200551,0.7150039672851562,2019-06-20 16:35:00:292,0.0,0.0,0.0
-0.15172894299030304,-0.03405813127756119,9.824185371398926,0.0005731190285175073,-0.005808041207975274,-0.0036992350439244686,0.7191095352172852,2019-06-20 16:35:00:296,0.0,0.0,0.0
-0.1421499401330948,0.05454760789871216,9.802632331848145,-0.001158358430849615,-0.0023450862892410293,-0.00036947065647554515,0.725001335144043,2019-06-20 16:35:00:302,0.0,0.0,0.0
-0.16609744727611542,0.025810612365603447,9.80502700805664,0.0035033116920733026,-0.009004614739045968,0.0022943408469817354,0.7293787002563477,2019-06-20 16:35:00:307,0.0,0.0,0.0
-0.1541236937046051,0.006652614567428827,9.726000785827637,4.035674489342885e-05,-0.006340803463153723,-0.0007690423803686727,0.7342824935913086,2019-06-20 16:35:00:311,0.0,0.0,0.0
-0.15891319513320923,-0.010110633447766304,9.802632331848145,0.003370121128278691,-0.005541660080386049,0.001095625642793062,0.7392692565917969,2019-06-20 16:35:00:316,0.0,0.0,0.0
-0.11580769717693329,0.037784360349178314,9.83376407623291,-0.0030230264540113496,-0.007406327973510622,0.003626246484927858,0.7442808151245117,2019-06-20 16:35:00:321,0.0,0.0,0.0
-0.1349657028913498,-0.04124237969517708,9.757132530212402,4.035674489342885e-05,-0.008205471356278294,0.00016329164746684,0.7492694854736328,2019-06-20 16:35:00:326,0.0,0.0,0.0
-0.14454469084739685,0.02102111279964447,9.836158752441406,0.003370121128278691,-0.003676992187261477,0.0018947690255607357,0.7542743682861328,2019-06-20 16:35:00:331,0.0,0.0,0.0
-0.15891319513320923,0.052152857184410095,9.807421684265137,-0.0024902641988329005,-0.0067403754146118855,-0.00010308950450435256,0.7592711448669434,2019-06-20 16:35:00:336,0.0,0.0,0.0
-0.11101820319890976,-0.01490013301372528,9.807421684265137,-0.00022602440301410239,-0.005808041207975274,0.0014951973341768988,0.7642841339111328,2019-06-20 16:35:00:341,0.0,0.0,0.0
-0.10143920034170151,-0.010110633447766304,9.867290496826172,-0.00035921498306336,-0.005541660080386049,0.00042967279131070986,0.7692704200744629,2019-06-20 16:35:00:346,0.0,0.0,0.0
-0.13257095217704773,-0.024479132145643234,9.82179069519043,-0.002223883071243676,-0.006607184590742948,-0.0010354235079578973,0.7742929458618164,2019-06-20 16:35:00:351,0.0,0.0,0.0
-0.13975520431995392,0.07610035687685013,9.776289939880371,-0.003156217017805962,-0.005142088649076538,-0.0013018046355471218,0.7792806625366211,2019-06-20 16:35:00:356,0.0,0.0,0.0
-0.11580769717693329,-0.029268629848957062,9.776289939880371,0.0008395001561067318,-0.0035438016234668654,-0.00023628007642628753,0.7842750549316406,2019-06-20 16:35:00:361,0.0,0.0,0.0
-0.14454469084739685,0.018626363947987556,9.836158752441406,-9.283383109216743e-05,-0.00847185248386752,0.00016329164746684,0.789268970489502,2019-06-20 16:35:00:366,0.0,0.0,0.0
-0.1277814507484436,0.059337109327316284,9.795448303222656,-0.0010251678020364214,-0.0044761355700291515,-0.0015681857631363464,0.794281005859375,2019-06-20 16:35:00:371,0.0,0.0,0.0
-0.14933419227600098,-0.002926384098827839,9.785869598388672,-0.0006255961106525846,-0.003011039368288416,-0.0005026612202701574,0.7992677688598633,2019-06-20 16:35:00:376,0.0,0.0,0.0
-0.16370269656181335,-0.038847628980875015,9.771500587463379,0.0015054529750797934,-0.004742516697618376,-0.00010308950450435256,0.8042712211608887,2019-06-20 16:35:00:381,0.0,0.0,0.0
-0.12059719860553741,-0.002926384098827839,9.843342781066895,0.0032369305644840782,-0.004209754442439926,0.0028271031021601845,0.8092584609985352,2019-06-20 16:35:00:386,0.0,0.0,0.0
-0.14933419227600098,-0.002926384098827839,9.802632331848145,-0.004621313219546697,-0.003410611059672253,-0.0019677574545201833,0.8142976760864258,2019-06-20 16:35:00:391,0.0,0.0,0.0
-0.12059719860553741,-0.031663380563259125,9.855317115783691,0.0027041680492313038,-0.0018123241640997428,0.0013620067703822866,0.8192715644836426,2019-06-20 16:35:00:396,0.0,0.0,0.0
-0.13736045360565186,0.011442113667726517,9.797842979431152,-0.001158358430849615,-0.005541660080386049,0.001095625642793062,0.8250241279602051,2019-06-20 16:35:00:402,0.0,0.0,0.0
-0.17807118594646454,-0.019689632579684258,9.797842979431152,0.0020382153602954054,-0.0038101827510560898,-0.0013018046355471218,0.8299899101257324,2019-06-20 16:35:00:407,0.0,0.0,0.0
-0.1349657028913498,-0.019689632579684258,9.757132530212402,-0.0035557887091897987,-0.0028778488044938037,0.00042967279131070986,0.834111213684082,2019-06-20 16:35:00:411,0.0,0.0,0.0
-0.14454469084739685,0.009047363884747028,9.807421684265137,0.0037696928196625274,-0.0067403754146118855,0.001095625642793062,0.8391098976135254,2019-06-20 16:35:00:416,0.0,0.0,0.0
-0.13975520431995392,0.09286360442638397,9.82179069519043,-0.002090692377411901,-0.003943373314850702,0.0018947690255607357,0.8450007438659668,2019-06-20 16:35:00:422,0.0,0.0,0.0
-0.1421499401330948,0.04975811019539833,9.828974723815918,-0.00448812291582641,-0.0032774204958776402,-0.0038324256077190803,0.8491034507751465,2019-06-20 16:35:00:426,0.0,0.0,0.0
-0.12538670003414154,-0.019689632579684258,9.814606666564941,-0.00022602440301410239,-0.006607184590742948,0.0005628633876146128,0.8550033569335938,2019-06-20 16:35:00:432,0.0,0.0,0.0
-0.11820244789123535,0.03299486264586449,9.795448303222656,-0.0018243112498226766,-0.006074422335564498,-0.0017013763269309588,0.8591098785400391,2019-06-20 16:35:00:436,0.0,0.0,0.0
-0.15172894299030304,-0.010110633447766304,9.747552871704102,-0.003156217017805962,-0.0038101827510560898,-0.004631568990486754,0.8650045394897461,2019-06-20 16:35:00:442,0.0,0.0,0.0
-0.11101820319890976,-0.04124237969517708,9.802632331848145,0.0003067379009282828,-0.004209754442439926,-0.001834566890725571,0.8691349029541016,2019-06-20 16:35:00:446,0.0,0.0,0.0
-0.1541236937046051,-0.010110633447766304,9.785869598388672,0.0007063095923121196,-0.003410611059672253,-0.0013018046355471218,0.875,2019-06-20 16:35:00:452,0.0,0.0,0.0
-0.1421499401330948,0.030600111931562424,9.795448303222656,0.0011058812836959564,-0.000879990087500294,-0.0017013763269309588,0.8791046142578125,2019-06-20 16:35:00:456,0.0,0.0,0.0
-0.09425495564937592,0.004257864784449339,9.776289939880371,-0.003822169836779023,-0.0016791336003051302,-0.005697093500843653,0.8850030899047852,2019-06-20 16:35:00:462,0.0,0.0,0.0
-0.13257095217704773,0.004257864784449339,9.771500587463379,-0.0016911206860280642,-0.0067403754146118855,0.001095625642793062,0.8891134262084961,2019-06-20 16:35:00:466,0.0,0.0,0.0
-0.11820244789123535,0.004257864784449339,9.867290496826172,0.0020382153602954054,-0.008738234131605394,-0.0014349951993417342,0.8949966430664062,2019-06-20 16:35:00:472,0.0,0.0,0.0
-0.13975520431995392,0.018626363947987556,9.79305362701416,4.035674489342885e-05,-0.006207613159433436,-0.0005026612202701574,0.899104118347168,2019-06-20 16:35:00:476,0.0,0.0,0.0
-0.13975520431995392,-0.031663380563259125,9.778684616088867,0.002970549436894854,-0.004609325873749438,-0.0025005197096986324,0.9050006866455078,2019-06-20 16:35:00:482,0.0,0.0,0.0
-0.1086234524846077,0.03538960963487625,9.843342781066895,0.003370121128278691,-0.005408469776665762,3.010106944941304e-05,0.9091062545776367,2019-06-20 16:35:00:486,0.0,0.0,0.0
-0.11341295391321182,0.052152857184410095,9.795448303222656,-0.005420456602314371,-0.0044761355700291515,-0.0026337102734932446,0.915006160736084,2019-06-20 16:35:00:492,0.0,0.0,0.0
-0.13975520431995392,-0.0005316344322636724,9.776289939880371,0.004169264511046364,-0.009270996386783843,-0.0014349951993417342,0.9191122055053711,2019-06-20 16:35:00:496,0.0,0.0,0.0
-0.13257095217704773,0.006652614567428827,9.797842979431152,0.0015054529750797934,-0.0020787052916889674,-0.0030332819648770815,0.9241132736206055,2019-06-20 16:35:00:501,0.0,0.0,0.0
-0.11101820319890976,0.04017911106348038,9.824185371398926,-0.004354932091957473,-0.005541660080386049,-0.0034328539163352434,0.9291267395019531,2019-06-20 16:35:00:506,0.0,0.0,0.0
-0.19004493951797485,-0.02208438143134117,9.802632331848145,0.0011058812836959564,-0.004609325873749438,-0.0013018046355471218,0.9350142478942871,2019-06-20 16:35:00:512,0.0,0.0,0.0
-0.11101820319890976,-0.002926384098827839,9.76431655883789,0.003636502255867915,-0.0032774204958776402,0.0008292445152038374,0.9399890899658203,2019-06-20 16:35:00:517,0.0,0.0,0.0
-0.14933419227600098,0.013836863450706005,9.819396018981934,-0.00022602440301410239,0.0011178684994560528,0.00042967279131070986,0.9441127777099609,2019-06-20 16:35:00:521,0.0,0.0,0.0
-0.12059719860553741,0.009047363884747028,9.900816917419434,-0.006352790808950982,-0.0035438016234668654,0.001628387897971511,0.9491124153137207,2019-06-20 16:35:00:526,0.0,0.0,0.0
-0.1277814507484436,-0.029268629848957062,9.809816360473633,-0.00022602440301410239,-0.005808041207975274,-0.005430712373254428,0.9541115760803223,2019-06-20 16:35:00:531,0.0,0.0,0.0
-0.13257095217704773,0.037784360349178314,9.802632331848145,-0.0016911206860280642,-0.004609325873749438,-0.0023673291459040203,0.9600272178649902,2019-06-20 16:35:00:537,0.0,0.0,0.0
-0.1349657028913498,0.018626363947987556,9.795448303222656,0.001372262411285181,-0.005142088649076538,-0.003965616171513693,0.9641256332397461,2019-06-20 16:35:00:541,0.0,0.0,0.0
-0.13017620146274567,-0.04363713040947914,9.778684616088867,-0.004088550964368248,-0.003943373314850702,-0.001834566890725571,0.9699916839599609,2019-06-20 16:35:00:547,0.0,0.0,0.0
-0.11341295391321182,-0.002926384098827839,9.809816360473633,-0.0004924055468579722,-0.007006756542201109,-0.0027669008372878568,0.9749994277954102,2019-06-20 16:35:00:552,0.0,0.0,0.0
-0.1421499401330948,0.02820536121726036,9.857711791992188,-0.002090692377411901,-0.007805899924968783,-0.0017013763269309588,0.9800176620483398,2019-06-20 16:35:00:557,0.0,0.0,0.0
-0.13017620146274567,-0.007715883664786816,9.769105911254883,-9.283383109216743e-05,-0.0023450862892410293,-0.002234138582109408,0.9841060638427734,2019-06-20 16:35:00:561,0.0,0.0,0.0
-0.12538670003414154,0.006652614567428827,9.788264274597168,0.0009726907199013442,-0.0024782768530356414,0.00016329164746684,0.9899935722351074,2019-06-20 16:35:00:567,0.0,0.0,0.0
-0.11101820319890976,0.011442113667726517,9.840948104858398,-0.0004924055468579722,-0.005408469776665762,0.0021611501531499603,0.9941129684448242,2019-06-20 16:35:00:571,0.0,0.0,0.0
-0.1469394415616989,0.03299486264586449,9.759527206420898,-0.0026234547626275127,-0.003410611059672253,-0.0010354235079578973,0.9999990463256836,2019-06-20 16:35:00:577,0.0,0.0,0.0
-0.1421499401330948,0.02102111279964447,9.809816360473633,-0.004887694347135921,-0.0044761355700291515,-0.0005026612202701574,1.0041084289550781,2019-06-20 16:35:00:581,0.0,0.0,0.0
-0.1349657028913498,-0.029268629848957062,9.788264274597168,-0.001957501813617289,-0.0023450862892410293,-0.002234138582109408,1.0092182159423828,2019-06-20 16:35:00:586,0.0,0.0,0.0
-0.12059719860553741,0.025810612365603447,9.83376407623291,0.003636502255867915,-0.005541660080386049,-0.00010308950450435256,1.0141496658325195,2019-06-20 16:35:00:591,0.0,0.0,0.0
-0.10383395105600357,0.013836863450706005,9.809816360473633,-0.003955360400573636,-0.0035438016234668654,-0.004231997299102917,1.0191097259521484,2019-06-20 16:35:00:596,0.0,0.0,0.0
-0.12538670003414154,-0.04363713040947914,9.76431655883789,-0.0024902641988329005,-0.003943373314850702,0.0037594370487224705,1.0250091552734375,2019-06-20 16:35:00:602,0.0,0.0,0.0
-0.1541236937046051,0.03538960963487625,9.845738410949707,0.0023045963578474673,-0.003676992187261477,3.010106944941304e-05,1.02911376953125,2019-06-20 16:35:00:606,0.0,0.0,0.0
-0.11341295391321182,-0.012505383230745792,9.852922439575195,-0.0014247395584388394,-0.0012795617788841308,-0.0005026612202701574,1.0341119766235352,2019-06-20 16:35:00:611,0.0,0.0,0.0
-0.15891319513320923,-0.012505383230745792,9.773895263671875,0.001372262411285181,-0.0050088978252076,0.0029602936659547966,1.0399937629699707,2019-06-20 16:35:00:617,0.0,0.0,0.0
-0.1469394415616989,0.011442113667726517,9.802632331848145,0.0016386436689115682,-0.002744658240699191,-0.0023673291459040203,1.0450057983398438,2019-06-20 16:35:00:622,0.0,0.0,0.0
-0.13975520431995392,0.04017911106348038,9.783474922180176,-0.00448812291582641,-0.009404186690504131,-0.0031664725286716937,1.0491070747375488,2019-06-20 16:35:00:626,0.0,0.0,0.0
-0.12059719860553741,-0.002926384098827839,9.797842979431152,-0.004088550964368248,-0.003410611059672253,0.0018947690255607357,1.054126262664795,2019-06-20 16:35:00:631,0.0,0.0,0.0
-0.11101820319890976,-0.019689632579684258,9.795448303222656,0.00017354732087902514,-0.005808041207975274,0.002027959589355348,1.0599956512451172,2019-06-20 16:35:00:637,0.0,0.0,0.0
-0.14454469084739685,-0.002926384098827839,9.82179069519043,0.0008395001561067318,-0.0016791336003051302,0.0006960539514092252,1.0641040802001953,2019-06-20 16:35:00:641,0.0,0.0,0.0
-0.1277814507484436,0.04975811019539833,9.781079292297363,-0.002090692377411901,0.0004519156154644102,-0.0025005197096986324,1.0691118240356445,2019-06-20 16:35:00:646,0.0,0.0,0.0
-0.21159768104553223,-0.010110633447766304,9.836158752441406,-9.283383109216743e-05,-0.003410611059672253,0.0024275314107763475,1.0741171836853027,2019-06-20 16:35:00:651,0.0,0.0,0.0
-0.13975520431995392,0.018626363947987556,9.773895263671875,0.001372262411285181,-0.006207613159433436,-0.0063630465798910395,1.0799894332885742,2019-06-20 16:35:00:657,0.0,0.0,0.0
-0.1541236937046051,0.025810612365603447,9.87447452545166,-0.001557930122233452,-0.0052752789527968245,-0.0005026612202701574,1.084111213684082,2019-06-20 16:35:00:661,0.0,0.0,0.0
-0.1541236937046051,-0.01490013301372528,9.759527206420898,-0.001957501813617289,-0.008871424435325683,-0.001834566890725571,1.0891094207763672,2019-06-20 16:35:00:666,0.0,0.0,0.0
-0.14454469084739685,0.025810612365603447,9.82179069519043,-0.0008919772382418092,-0.004742516697618376,-0.0010354235079578973,1.0949954986572266,2019-06-20 16:35:00:672,0.0,0.0,0.0
-0.16370269656181335,0.04257386177778244,9.75234317779541,-0.0016911206860280642,-8.084668035065233e-05,0.0008292445152038374,1.0991253852844238,2019-06-20 16:35:00:676,0.0,0.0,0.0
-0.15891319513320923,-0.03405813127756119,9.757132530212402,-0.0012915489946442272,-0.0052752789527968245,3.010106944941304e-05,1.1050090789794922,2019-06-20 16:35:00:682,0.0,0.0,0.0
-0.16849219799041748,-0.010110633447766304,9.819396018981934,-0.00022602440301410239,-0.007539518797379559,0.0012288162065876742,1.1091022491455078,2019-06-20 16:35:00:686,0.0,0.0,0.0
-0.16849219799041748,0.03299486264586449,9.773895263671875,0.0027041680492313038,-0.004875707001338663,0.00042967279131070986,1.1150388717651367,2019-06-20 16:35:00:692,0.0,0.0,0.0
-0.13257095217704773,-0.024479132145643234,9.864895820617676,0.0023045963578474673,-0.0026114674168302536,-0.0014349951993417342,1.1200146675109863,2019-06-20 16:35:00:697,0.0,0.0,0.0
-0.14454469084739685,-0.005321133881807327,9.819396018981934,-0.001957501813617289,-0.004342945006234539,-0.0023673291459040203,1.1241073608398438,2019-06-20 16:35:00:701,0.0,0.0,0.0
-0.1469394415616989,-0.007715883664786816,9.83376407623291,-0.001957501813617289,-0.0007467995237056817,0.0013620067703822866,1.1299915313720703,2019-06-20 16:35:00:707,0.0,0.0,0.0
-0.15651844441890717,0.03538960963487625,9.826580047607422,-0.001957501813617289,-0.0035438016234668654,-0.001834566890725571,1.1350016593933105,2019-06-20 16:35:00:712,0.0,0.0,0.0
-0.17807118594646454,-0.017294881865382195,9.802632331848145,-0.0026234547626275127,-0.002744658240699191,0.0018947690255607357,1.1391067504882812,2019-06-20 16:35:00:716,0.0,0.0,0.0
-0.1421499401330948,0.025810612365603447,9.843342781066895,-0.004354932091957473,-0.006873565718332173,-0.0027669008372878568,1.1449995040893555,2019-06-20 16:35:00:722,0.0,0.0,0.0
-0.16370269656181335,0.011442113667726517,9.807421684265137,-0.003422598145395187,-0.0067403754146118855,-0.000902232944163285,1.1491336822509766,2019-06-20 16:35:00:726,0.0,0.0,0.0
-0.13017620146274567,-0.012505383230745792,9.828974723815918,0.0011058812836959564,-0.0006136089599110694,-0.0025005197096986324,1.154998779296875,2019-06-20 16:35:00:732,0.0,0.0,0.0
-0.13257095217704773,-0.017294881865382195,9.860106468200684,-0.003822169836779023,-0.005808041207975274,0.0022943408469817354,1.1599884033203125,2019-06-20 16:35:00:737,0.0,0.0,0.0
-0.1732816994190216,0.037784360349178314,9.82179069519043,0.0009726907199013442,-0.0040765638786453146,0.0018947690255607357,1.1641340255737305,2019-06-20 16:35:00:741,0.0,0.0,0.0
-0.14933419227600098,0.04017911106348038,9.797842979431152,-0.0018243112498226766,-0.006207613159433436,-0.0005026612202701574,1.170003890991211,2019-06-20 16:35:00:747,0.0,0.0,0.0
-0.1349657028913498,0.011442113667726517,9.766711235046387,-0.0007587866744471969,-0.00647399428702266,-0.005963474628432877,1.1741056442260742,2019-06-20 16:35:00:751,0.0,0.0,0.0
-0.19004493951797485,0.016231613233685493,9.812211036682129,-0.00035921498306336,-0.00793909022868907,-0.0048979501180759786,1.1799941062927246,2019-06-20 16:35:00:757,0.0,0.0,0.0
-0.12059719860553741,0.08328460156917572,9.826580047607422,-0.0006255961106525846,-0.007672709101099845,-0.00023628007642628753,1.1841106414794922,2019-06-20 16:35:00:761,0.0,0.0,0.0
-0.14933419227600098,0.016231613233685493,9.797842979431152,-0.0004924055468579722,-0.0052752789527968245,-0.005297521549385491,1.189997673034668,2019-06-20 16:35:00:767,0.0,0.0,0.0
-0.12059719860553741,-0.01490013301372528,9.82179069519043,0.0035033116920733026,-0.0044761355700291515,-0.0027669008372878568,1.1950960159301758,2019-06-20 16:35:00:772,0.0,0.0,0.0
-0.13017620146274567,0.04975811019539833,9.797842979431152,0.0009726907199013442,-0.003410611059672253,0.0014951973341768988,1.2000021934509277,2019-06-20 16:35:00:777,0.0,0.0,0.0
-0.14933419227600098,0.011442113667726517,9.778684616088867,-0.0010251678020364214,-0.007539518797379559,-0.004498378166617817,1.2041082382202148,2019-06-20 16:35:00:781,0.0,0.0,0.0
-0.14454469084739685,-0.005321133881807327,9.826580047607422,-0.0004924055468579722,-0.007139946845921397,-0.000902232944163285,1.2100229263305664,2019-06-20 16:35:00:787,0.0,0.0,0.0
-0.13736045360565186,0.023415861651301384,9.838553428649902,-0.0004924055468579722,-0.004342945006234539,-0.000902232944163285,1.214116096496582,2019-06-20 16:35:00:791,0.0,0.0,0.0
-0.15651844441890717,-0.012505383230745792,9.840948104858398,-0.004354932091957473,-0.004609325873749438,-0.0038324256077190803,1.2191047668457031,2019-06-20 16:35:00:796,0.0,0.0,0.0
-0.09186020493507385,-0.017294881865382195,9.754737854003906,0.0003067379009282828,-0.006207613159433436,0.00042967279131070986,1.2250003814697266,2019-06-20 16:35:00:802,0.0,0.0,0.0
-0.1349657028913498,-0.026873880997300148,9.807421684265137,0.0008395001561067318,-0.005674850904254987,-0.000902232944163285,1.229996681213379,2019-06-20 16:35:00:807,0.0,0.0,0.0
-0.1421499401330948,0.016231613233685493,9.824185371398926,-9.283383109216743e-05,-0.006207613159433436,0.0012288162065876742,1.2350058555603027,2019-06-20 16:35:00:812,0.0,0.0,0.0
-0.1613079458475113,0.03538960963487625,9.831369400024414,-0.0030230264540113496,-0.0044761355700291515,-0.0029000914010824694,1.239121437072754,2019-06-20 16:35:00:816,0.0,0.0,0.0
-0.12299194931983948,-0.007715883664786816,9.8505277633667,0.0032369305644840782,-0.0026114674168302536,-0.0019677574545201833,1.2441329956054688,2019-06-20 16:35:00:821,0.0,0.0,0.0
-0.13257095217704773,0.02102111279964447,9.79305362701416,-0.0012915489946442272,-0.003676992187261477,-0.004098806735308305,1.2499914169311523,2019-06-20 16:35:00:827,0.0,0.0,0.0
-0.09904444962739944,0.02102111279964447,9.75234317779541,-0.003955360400573636,-0.002211895725446417,3.010106944941304e-05,1.254110336303711,2019-06-20 16:35:00:831,0.0,0.0,0.0
-0.15172894299030304,-0.060400377959012985,9.814606666564941,0.0023045963578474673,-0.001945514727894355,-0.0015681857631363464,1.259134292602539,2019-06-20 16:35:00:836,0.0,0.0,0.0
-0.1613079458475113,0.006652614567428827,9.75234317779541,-0.00022602440301410239,-0.0018123241640997428,-0.0006358518165740604,1.2641115188598633,2019-06-20 16:35:00:841,0.0,0.0,0.0
-0.07749170809984207,0.011442113667726517,9.797842979431152,-0.0014247395584388394,-0.008871424435325683,-0.0026337102734932446,1.2699918746948242,2019-06-20 16:35:00:847,0.0,0.0,0.0
-0.14933419227600098,-0.024479132145643234,9.828974723815918,0.0020382153602954054,-0.004875707001338663,-0.007428571090247938,1.2741122245788574,2019-06-20 16:35:00:851,0.0,0.0,0.0
-0.12059719860553741,-0.02208438143134117,9.819396018981934,0.0016386436689115682,-0.0038101827510560898,-0.004098806735308305,1.2791109085083008,2019-06-20 16:35:00:856,0.0,0.0,0.0
-0.12299194931983948,0.03299486264586449,9.824185371398926,0.0009726907199013442,-0.0038101827510560898,-0.0027669008372878568,1.2849969863891602,2019-06-20 16:35:00:862,0.0,0.0,0.0
-0.1086234524846077,-0.024479132145643234,9.795448303222656,-0.0023570736350382883,-0.00647399428702266,-0.0029000914010824694,1.2900199890136719,2019-06-20 16:35:00:867,0.0,0.0,0.0
-0.15172894299030304,-0.017294881865382195,9.845738410949707,0.0027041680492313038,-0.003144229932083028,-0.00036947065647554515,1.2941102981567383,2019-06-20 16:35:00:871,0.0,0.0,0.0
-0.21159768104553223,0.030600111931562424,9.826580047607422,0.0019050247965007928,-0.0003472278323218449,-0.004365187862897529,1.2999911308288574,2019-06-20 16:35:00:877,0.0,0.0,0.0
0.05182477831840515,-0.005321133881807327,9.757132530212402,-0.0010251678020364214,-0.0067403754146118855,-0.000902232944163285,1.3049964904785156,2019-06-20 16:35:00:882,0.0,0.0,0.0
-0.3888091742992401,-0.010110633447766304,9.967869758605957,0.0019050247965007928,-0.003144229932083028,-0.004764759294207041,1.3091058731079102,2019-06-20 16:35:00:886,0.0,0.0,0.0
0.027877280488610268,0.04017911106348038,9.75234317779541,-0.0030230264540113496,-0.006607184590742948,-0.000902232944163285,1.3149986267089844,2019-06-20 16:35:00:892,0.0,0.0,0.0
-0.40078291296958923,-0.038847628980875015,9.946317672729492,0.0003067379009282828,5.234389563494396e-05,-0.0007690423803686727,1.3191032409667969,2019-06-20 16:35:00:896,0.0,0.0,0.0
0.16437801718711853,0.016231613233685493,9.6565523147583,-0.00035921498306336,-0.004209754442439926,-0.0017013763269309588,1.3241147994995117,2019-06-20 16:35:00:901,0.0,0.0,0.0
-0.1349657028913498,0.011442113667726517,9.8505277633667,0.0011058812836959564,-0.0020787052916889674,-0.0015681857631363464,1.3300013542175293,2019-06-20 16:35:00:907,0.0,0.0,0.0
0.05900902673602104,-0.04124237969517708,9.75234317779541,-0.003422598145395187,-0.008338662180147232,0.005224533250463206,1.33412504196167,2019-06-20 16:35:00:911,0.0,0.0,0.0
-0.0559389591217041,0.013836863450706005,9.800237655639648,-0.001557930122233452,-0.0038101827510560898,-0.0026337102734932446,1.3400049209594727,2019-06-20 16:35:00:917,0.0,0.0,0.0
-0.285834938287735,-0.005321133881807327,9.809816360473633,0.0027041680492313038,-0.005808041207975274,-0.0032996633525406317,1.345015048980713,2019-06-20 16:35:00:922,0.0,0.0,0.0
-0.18286068737506866,0.004257864784449339,9.843342781066895,0.0015054529750797934,-0.0024782768530356414,0.0005628633876146128,1.34912109375,2019-06-20 16:35:00:926,0.0,0.0,0.0
-0.2978086769580841,0.016231613233685493,9.843342781066895,-0.002090692377411901,-0.0067403754146118855,-0.0015681857631363464,1.3550138473510742,2019-06-20 16:35:00:932,0.0,0.0,0.0
0.03745628148317337,-0.024479132145643234,9.66134262084961,0.0015054529750797934,-0.003676992187261477,-0.0023673291459040203,1.3599920272827148,2019-06-20 16:35:00:937,0.0,0.0,0.0
-0.20201869308948517,-0.060400377959012985,9.809816360473633,0.0019050247965007928,-0.0028778488044938037,0.003493055921133246,1.364112377166748,2019-06-20 16:35:00:941,0.0,0.0,0.0
0.03506153076887131,0.052152857184410095,9.769105911254883,-0.002090692377411901,-0.00647399428702266,-0.00023628007642628753,1.3699951171875,2019-06-20 16:35:00:947,0.0,0.0,0.0
-0.20441344380378723,0.009047363884747028,9.828974723815918,0.0005731190285175073,-0.003676992187261477,-0.0025005197096986324,1.3741064071655273,2019-06-20 16:35:00:951,0.0,0.0,0.0
-0.051149457693099976,0.03538960963487625,9.757132530212402,0.0012390718474905686,-0.008605043307736458,-0.0006358518165740604,1.3800230026245117,2019-06-20 16:35:00:957,0.0,0.0,0.0
-0.21878193318843842,0.02820536121726036,9.840948104858398,0.001372262411285181,-0.001945514727894355,-0.0007690423803686727,1.3841257095336914,2019-06-20 16:35:00:961,0.0,0.0,0.0
-0.058333706110715866,0.04736335948109627,9.802632331848145,-9.283383109216743e-05,-0.003011039368288416,-0.0038324256077190803,1.3899941444396973,2019-06-20 16:35:00:967,0.0,0.0,0.0
-0.2139924317598343,-0.031663380563259125,9.848133087158203,-0.0012915489946442272,-0.0050088978252076,0.004958152122873981,1.394108772277832,2019-06-20 16:35:00:971,0.0,0.0,0.0
-0.06551795452833176,0.011442113667726517,9.807421684265137,-0.0036889792729844113,-0.006207613159433436,-0.0011686140717525096,1.3992033004760742,2019-06-20 16:35:00:976,0.0,0.0,0.0
-0.1613079458475113,0.04736335948109627,9.87447452545166,0.004435645638635589,-8.084668035065233e-05,0.00016329164746684,1.404116153717041,2019-06-20 16:35:00:981,0.0,0.0,0.0
-0.11580769717693329,-0.01490013301372528,9.819396018981934,0.00043992846472289506,-0.0011463712150895187,0.004159008740106307,1.4099884033203125,2019-06-20 16:35:00:987,0.0,0.0,0.0
-0.17088694870471954,-0.07716362178325653,9.817001342773438,0.003636502255867915,-0.001945514727894355,-0.0014349951993417342,1.4141111373901367,2019-06-20 16:35:00:991,0.0,0.0,0.0
-0.1421499401330948,0.044968608766794205,9.757132530212402,0.0007063095923121196,-0.005142088649076538,0.0021611501531499603,1.4200048446655273,2019-06-20 16:35:00:997,0.0,0.0,0.0
-0.1421499401330948,-0.007715883664786816,9.840948104858398,0.0005731190285175073,-0.007006756542201109,-0.0014349951993417342,1.424107551574707,2019-06-20 16:35:01:001,0.0,0.0,0.0
-0.15891319513320923,-0.017294881865382195,9.824185371398926,0.0027041680492313038,-0.003676992187261477,0.00042967279131070986,1.4291105270385742,2019-06-20 16:35:01:006,0.0,0.0,0.0
-0.08467595279216766,0.016231613233685493,9.824185371398926,-0.0035557887091897987,-0.003410611059672253,0.0009624350789984497,1.435007095336914,2019-06-20 16:35:01:012,0.0,0.0,0.0
-0.12299194931983948,0.016231613233685493,9.812211036682129,-0.0014247395584388394,-0.0016791336003051302,-0.001834566890725571,1.4391069412231445,2019-06-20 16:35:01:016,0.0,0.0,0.0
-0.09904444962739944,-0.010110633447766304,9.771500587463379,0.0015054529750797934,-0.0035438016234668654,-0.0034328539163352434,1.445113182067871,2019-06-20 16:35:01:022,0.0,0.0,0.0
-0.16609744727611542,0.02820536121726036,9.884054183959961,-0.002090692377411901,-0.007273137669790334,-0.0025005197096986324,1.4500017166137695,2019-06-20 16:35:01:027,0.0,0.0,0.0
-0.09904444962739944,-0.002926384098827839,9.812211036682129,0.00043992846472289506,-0.007006756542201109,-0.0005026612202701574,1.4541044235229492,2019-06-20 16:35:01:031,0.0,0.0,0.0
-0.12299194931983948,-0.0005316344322636724,9.817001342773438,0.0009726907199013442,-0.0004804183961164572,-0.0027669008372878568,1.4599943161010742,2019-06-20 16:35:01:037,0.0,0.0,0.0
-0.1086234524846077,0.009047363884747028,9.778684616088867,0.0025709774854366916,-0.007273137669790334,-0.0010354235079578973,1.4641103744506836,2019-06-20 16:35:01:041,0.0,0.0,0.0
-0.16370269656181335,0.013836863450706005,9.884054183959961,-0.0023570736350382883,-0.0028778488044938037,0.0030934842297494092,1.4699983596801758,2019-06-20 16:35:01:047,0.0,0.0,0.0
-0.14454469084739685,0.04017911106348038,9.809816360473633,0.00017354732087902514,-0.0028778488044938037,-0.0026337102734932446,1.474125862121582,2019-06-20 16:35:01:051,0.0,0.0,0.0
-0.12538670003414154,0.004257864784449339,9.771500587463379,0.0012390718474905686,-0.007406327973510622,0.00549091437805243,1.4800138473510742,2019-06-20 16:35:01:057,0.0,0.0,0.0
-0.16370269656181335,-0.01490013301372528,9.843342781066895,0.0028373588731002413,-0.0052752789527968245,0.0005628633876146128,1.4841089248657227,2019-06-20 16:35:01:061,0.0,0.0,0.0
-0.1277814507484436,0.006652614567428827,9.807421684265137,0.001372262411285181,-0.007139946845921397,0.00042967279131070986,1.4900107383728027,2019-06-20 16:35:01:067,0.0,0.0,0.0
-0.10383395105600357,0.023415861651301384,9.790658950805664,-0.0023570736350382883,-0.004209754442439926,0.001628387897971511,1.4950103759765625,2019-06-20 16:35:01:072,0.0,0.0,0.0
-0.14933419227600098,-0.03405813127756119,9.814606666564941,0.00017354732087902514,-0.002211895725446417,-0.0007690423803686727,1.4991025924682617,2019-06-20 16:35:01:076,0.0,0.0,0.0
-0.15172894299030304,0.025810612365603447,9.72360610961914,-0.0032894075816005744,-0.005408469776665762,-0.001834566890725571,1.5041131973266602,2019-06-20 16:35:01:081,0.0,0.0,0.0
-0.1613079458475113,-0.0005316344322636724,9.817001342773438,-0.0008919772382418092,-0.0040765638786453146,0.003493055921133246,1.509110450744629,2019-06-20 16:35:01:086,0.0,0.0,0.0
-0.1349657028913498,-0.005321133881807327,9.754737854003906,-0.0012915489946442272,-0.004342945006234539,0.0037594370487224705,1.514998435974121,2019-06-20 16:35:01:092,0.0,0.0,0.0
-0.13975520431995392,0.004257864784449339,9.840948104858398,-0.0008919772382418092,-0.002211895725446417,-0.0011686140717525096,1.5199880599975586,2019-06-20 16:35:01:097,0.0,0.0,0.0
-0.13017620146274567,0.02102111279964447,9.915185928344727,0.0003067379009282828,-0.005674850904254987,-0.0019677574545201833,1.5241365432739258,2019-06-20 16:35:01:101,0.0,0.0,0.0
-0.1613079458475113,-0.029268629848957062,9.864895820617676,0.00043992846472289506,-0.002211895725446417,0.0009624350789984497,1.5299897193908691,2019-06-20 16:35:01:107,0.0,0.0,0.0
-0.1421499401330948,0.02102111279964447,9.8505277633667,-0.0004924055468579722,-0.005808041207975274,0.0002964822275160976,1.534113883972168,2019-06-20 16:35:01:111,0.0,0.0,0.0
-0.18525543808937073,0.004257864784449339,9.807421684265137,0.0007063095923121196,-0.005408469776665762,-0.001834566890725571,1.5400209426879883,2019-06-20 16:35:01:117,0.0,0.0,0.0
-0.12299194931983948,-0.01490013301372528,9.781079292297363,0.0016386436689115682,-0.006074422335564498,0.0029602936659547966,1.5441274642944336,2019-06-20 16:35:01:121,0.0,0.0,0.0
-0.17567645013332367,-0.031663380563259125,9.778684616088867,0.0027041680492313038,-0.006873565718332173,-0.00036947065647554515,1.5499916076660156,2019-06-20 16:35:01:127,0.0,0.0,0.0
-0.16370269656181335,-0.017294881865382195,9.824185371398926,0.0015054529750797934,0.000851487306848247,-0.004365187862897529,1.554107666015625,2019-06-20 16:35:01:131,0.0,0.0,0.0
-0.14933419227600098,0.009047363884747028,9.836158752441406,-0.0012915489946442272,-0.008205471356278294,0.0002964822275160976,1.5599908828735352,2019-06-20 16:35:01:137,0.0,0.0,0.0
-0.1277814507484436,0.013836863450706005,9.749947547912598,0.0025709774854366916,-0.005941232031844212,0.0021611501531499603,1.564992904663086,2019-06-20 16:35:01:142,0.0,0.0,0.0
-0.15172894299030304,-0.012505383230745792,9.773895263671875,0.0024377869216420794,-0.003943373314850702,-0.002234138582109408,1.5691137313842773,2019-06-20 16:35:01:146,0.0,0.0,0.0
-0.13975520431995392,0.02102111279964447,9.843342781066895,-0.0016911206860280642,-0.005142088649076538,-0.0014349951993417342,1.5750007629394531,2019-06-20 16:35:01:152,0.0,0.0,0.0
-0.15891319513320923,0.03299486264586449,9.785869598388672,0.0009726907199013442,-0.0038101827510560898,-0.0026337102734932446,1.5791034698486328,2019-06-20 16:35:01:156,0.0,0.0,0.0
-0.13257095217704773,-0.026873880997300148,9.807421684265137,0.0017718342327061804,-0.003943373314850702,-0.0006358518165740604,1.5841259956359863,2019-06-20 16:35:01:161,0.0,0.0,0.0
-0.17567645013332367,0.03299486264586449,9.8505277633667,0.0016386436689115682,-0.005674850904254987,3.010106944941304e-05,1.590005874633789,2019-06-20 16:35:01:167,0.0,0.0,0.0
-0.13257095217704773,0.03538960963487625,9.781079292297363,0.003103740000689466,5.234389563494396e-05,-0.005297521549385491,1.5941095352172852,2019-06-20 16:35:01:171,0.0,0.0,0.0
-0.13257095217704773,-0.026873880997300148,9.778684616088867,0.0025709774854366916,-0.00647399428702266,-0.004365187862897529,1.599992275238037,2019-06-20 16:35:01:177,0.0,0.0,0.0
-0.14454469084739685,0.03299486264586449,9.747552871704102,-0.0016911206860280642,-0.002744658240699191,0.0018947690255607357,1.6050009727478027,2019-06-20 16:35:01:182,0.0,0.0,0.0
-0.14933419227600098,0.023415861651301384,9.843342781066895,-0.0018243112498226766,-0.0014127523426787432,0.0018947690255607357,1.6091070175170898,2019-06-20 16:35:01:186,0.0,0.0,0.0
-0.13975520431995392,-0.02208438143134117,9.72360610961914,-9.283383109216743e-05,-0.0012795617788841308,-0.002234138582109408,1.615020751953125,2019-06-20 16:35:01:192,0.0,0.0,0.0
-0.1541236937046051,0.009047363884747028,9.776289939880371,0.0003067379009282828,-0.006074422335564498,-0.00036947065647554515,1.6200151443481445,2019-06-20 16:35:01:197,0.0,0.0,0.0
-0.1732816994190216,0.037784360349178314,9.83376407623291,-0.001158358430849615,-0.000879990087500294,0.0012288162065876742,1.6241068840026855,2019-06-20 16:35:01:201,0.0,0.0,0.0
-0.1421499401330948,-0.010110633447766304,9.836158752441406,-0.00022602440301410239,-0.0006136089599110694,-0.0032996633525406317,1.6300239562988281,2019-06-20 16:35:01:207,0.0,0.0,0.0
-0.14933419227600098,-0.02208438143134117,9.795448303222656,0.006699885483218323,-0.007539518797379559,-0.0021009480183147955,1.6341257095336914,2019-06-20 16:35:01:211,0.0,0.0,0.0
-0.13017620146274567,-0.019689632579684258,9.848133087158203,-0.0007587866744471969,-0.003943373314850702,-0.003566044480129856,1.639108657836914,2019-06-20 16:35:01:216,0.0,0.0,0.0
-0.12538670003414154,-0.031663380563259125,9.910396575927734,-0.0004924055468579722,-0.0052752789527968245,-0.00023628007642628753,1.645024299621582,2019-06-20 16:35:01:222,0.0,0.0,0.0
-0.14454469084739685,-0.01490013301372528,9.819396018981934,0.003103740000689466,-0.004875707001338663,-0.0005026612202701574,1.6500000953674316,2019-06-20 16:35:01:227,0.0,0.0,0.0
-0.1421499401330948,-0.002926384098827839,9.776289939880371,-0.004088550964368248,-0.005941232031844212,-0.0038324256077190803,1.6541051864624023,2019-06-20 16:35:01:231,0.0,0.0,0.0
-0.11341295391321182,0.016231613233685493,9.817001342773438,0.0020382153602954054,-0.0011463712150895187,0.0012288162065876742,1.659994125366211,2019-06-20 16:35:01:237,0.0,0.0,0.0
-0.12299194931983948,-0.002926384098827839,9.771500587463379,-0.003422598145395187,-0.00793909022868907,0.0018947690255607357,1.6641292572021484,2019-06-20 16:35:01:241,0.0,0.0,0.0
-0.15651844441890717,-0.005321133881807327,9.809816360473633,-0.0016911206860280642,-0.00647399428702266,-0.0006358518165740604,1.669112205505371,2019-06-20 16:35:01:246,0.0,0.0,0.0
-0.13736045360565186,0.009047363884747028,9.840948104858398,-0.0004924055468579722,-0.005142088649076538,3.010106944941304e-05,1.6750025749206543,2019-06-20 16:35:01:252,0.0,0.0,0.0
-0.09904444962739944,0.013836863450706005,9.788264274597168,-0.00502088517100486,-0.0024782768530356414,-0.004498378166617817,1.6792774200439453,2019-06-20 16:35:01:256,0.0,0.0,0.0
-0.13017620146274567,-0.03645287826657295,9.80502700805664,0.0005731190285175073,-0.006074422335564498,3.010106944941304e-05,1.6855430603027344,2019-06-20 16:35:01:263,0.0,0.0,0.0
-0.13257095217704773,0.02102111279964447,9.826580047607422,0.0003067379009282828,-0.005142088649076538,-0.0011686140717525096,1.6905736923217773,2019-06-20 16:35:01:268,0.0,0.0,0.0
-0.1541236937046051,0.037784360349178314,9.802632331848145,-0.003156217017805962,-0.0028778488044938037,-0.0032996633525406317,1.6955842971801758,2019-06-20 16:35:01:273,0.0,0.0,0.0
-0.13975520431995392,0.011442113667726517,9.788264274597168,0.0019050247965007928,-0.007672709101099845,-0.0013018046355471218,1.7005653381347656,2019-06-20 16:35:01:278,0.0,0.0,0.0
-0.17088694870471954,0.018626363947987556,9.788264274597168,0.001372262411285181,0.00031872505166979784,-0.00023628007642628753,1.7055740356445312,2019-06-20 16:35:01:283,0.0,0.0,0.0
-0.14933419227600098,-0.005321133881807327,9.819396018981934,-0.002889835890216737,-0.0038101827510560898,-0.0026337102734932446,1.710935115814209,2019-06-20 16:35:01:288,0.0,0.0,0.0
-0.1613079458475113,0.0018631152343004942,9.783474922180176,-0.00035921498306336,-0.004875707001338663,-0.0006358518165740604,1.7205266952514648,2019-06-20 16:35:01:298,0.0,0.0,0.0
-0.1732816994190216,0.04017911106348038,9.812211036682129,-0.002223883071243676,-0.003011039368288416,0.00016329164746684,1.725663661956787,2019-06-20 16:35:01:303,0.0,0.0,0.0
-0.13975520431995392,-0.010110633447766304,9.80502700805664,0.0012390718474905686,-0.004609325873749438,-0.0021009480183147955,1.7305903434753418,2019-06-20 16:35:01:308,0.0,0.0,0.0
-0.08707070350646973,-0.017294881865382195,9.797842979431152,-0.0030230264540113496,-0.0018123241640997428,-0.0011686140717525096,1.7355923652648926,2019-06-20 16:35:01:313,0.0,0.0,0.0
-0.1349657028913498,0.05694235861301422,9.807421684265137,-0.006352790808950982,-0.002744658240699191,-0.0021009480183147955,1.7405681610107422,2019-06-20 16:35:01:318,0.0,0.0,0.0
-0.12538670003414154,0.02102111279964447,9.802632331848145,0.0007063095923121196,-0.0023450862892410293,0.00016329164746684,1.745621681213379,2019-06-20 16:35:01:323,0.0,0.0,0.0
-0.15172894299030304,-0.017294881865382195,9.817001342773438,-0.00022602440301410239,-0.003676992187261477,-0.0015681857631363464,1.750565528869629,2019-06-20 16:35:01:328,0.0,0.0,0.0
-0.13736045360565186,0.011442113667726517,9.769105911254883,-0.0047545040434156345,-0.007805899924968783,-0.0026337102734932446,1.7556886672973633,2019-06-20 16:35:01:333,0.0,0.0,0.0
-0.15172894299030304,0.030600111931562424,9.812211036682129,-0.0036889792729844113,-0.006207613159433436,-0.0014349951993417342,1.7600202560424805,2019-06-20 16:35:01:337,0.0,0.0,0.0
-0.10143920034170151,0.0018631152343004942,9.824185371398926,0.0011058812836959564,-0.005541660080386049,0.001628387897971511,1.764108657836914,2019-06-20 16:35:01:341,0.0,0.0,0.0
-0.12059719860553741,0.0018631152343004942,9.860106468200684,0.0009726907199013442,-0.007006756542201109,-0.00036947065647554515,1.7700414657592773,2019-06-20 16:35:01:347,0.0,0.0,0.0
-0.1421499401330948,0.059337109327316284,9.82179069519043,0.001372262411285181,-0.0016791336003051302,-0.0011686140717525096,1.775019645690918,2019-06-20 16:35:01:352,0.0,0.0,0.0
-0.1349657028913498,-0.019689632579684258,9.83376407623291,-0.0012915489946442272,-0.0052752789527968245,-0.0007690423803686727,1.7799901962280273,2019-06-20 16:35:01:357,0.0,0.0,0.0
-0.1421499401330948,-0.017294881865382195,9.848133087158203,0.0023045963578474673,-0.006074422335564498,-0.0029000914010824694,1.7841105461120605,2019-06-20 16:35:01:361,0.0,0.0,0.0
-0.13975520431995392,0.059337109327316284,9.797842979431152,0.0011058812836959564,-0.0014127523426787432,-0.0036992350439244686,1.789113998413086,2019-06-20 16:35:01:366,0.0,0.0,0.0
-0.16370269656181335,-0.005321133881807327,9.824185371398926,0.0008395001561067318,-0.00847185248386752,-0.0027669008372878568,1.794111728668213,2019-06-20 16:35:01:371,0.0,0.0,0.0
-0.13736045360565186,-0.024479132145643234,9.819396018981934,0.0020382153602954054,-0.005541660080386049,0.0018947690255607357,1.79998779296875,2019-06-20 16:35:01:377,0.0,0.0,0.0
-0.13017620146274567,-0.017294881865382195,9.790658950805664,0.004169264511046364,-0.007672709101099845,-0.0005026612202701574,1.8049983978271484,2019-06-20 16:35:01:382,0.0,0.0,0.0
-0.13257095217704773,0.04736335948109627,9.838553428649902,-0.003822169836779023,-0.001945514727894355,0.0006960539514092252,1.80999755859375,2019-06-20 16:35:01:387,0.0,0.0,0.0
-0.16849219799041748,0.04736335948109627,9.82179069519043,-0.006885553064129431,-0.006074422335564498,0.00016329164746684,1.8141083717346191,2019-06-20 16:35:01:391,0.0,0.0,0.0
-0.1421499401330948,-0.024479132145643234,9.802632331848145,-0.0008919772382418092,-0.0035438016234668654,-0.00023628007642628753,1.8199996948242188,2019-06-20 16:35:01:397,0.0,0.0,0.0
-0.13257095217704773,-0.029268629848957062,9.86250114440918,-0.001957501813617289,-0.006340803463153723,-0.0027669008372878568,1.824110984802246,2019-06-20 16:35:01:401,0.0,0.0,0.0
-0.16370269656181335,0.044968608766794205,9.838553428649902,-0.0006255961106525846,-0.004342945006234539,0.0005628633876146128,1.829106330871582,2019-06-20 16:35:01:406,0.0,0.0,0.0
-0.07030745595693588,-0.019689632579684258,9.800237655639648,0.0008395001561067318,0.0009846778706428594,-0.00023628007642628753,1.8341236114501953,2019-06-20 16:35:01:411,0.0,0.0,0.0
-0.1804659366607666,0.02820536121726036,9.869685173034668,0.0025709774854366916,-0.005941232031844212,-0.003566044480129856,1.8391132354736328,2019-06-20 16:35:01:416,0.0,0.0,0.0
-0.11101820319890976,0.037784360349178314,9.87447452545166,-0.003422598145395187,-0.008605043307736458,-0.0014349951993417342,1.8441376686096191,2019-06-20 16:35:01:421,0.0,0.0,0.0
-0.21878193318843842,0.004257864784449339,9.864895820617676,0.00043992846472289506,-0.0040765638786453146,-0.0038324256077190803,1.8500266075134277,2019-06-20 16:35:01:427,0.0,0.0,0.0
-0.09664970636367798,-0.0005316344322636724,9.788264274597168,-0.0024902641988329005,-0.006873565718332173,-0.00023628007642628753,1.8541269302368164,2019-06-20 16:35:01:431,0.0,0.0,0.0
-0.21638718247413635,0.011442113667726517,9.824185371398926,-0.0012915489946442272,0.002716155395028563,-0.001834566890725571,1.8599920272827148,2019-06-20 16:35:01:437,0.0,0.0,0.0
-0.07030745595693588,0.006652614567428827,9.790658950805664,0.0005731190285175073,-8.084668035065233e-05,-0.0026337102734932446,1.8643646240234375,2019-06-20 16:35:01:442,0.0,0.0,0.0
-0.17567645013332367,-0.05561087653040886,9.76431655883789,0.003370121128278691,-0.0038101827510560898,-0.0031664725286716937,1.8691339492797852,2019-06-20 16:35:01:446,0.0,0.0,0.0
-0.1277814507484436,0.04257386177778244,9.826580047607422,0.0007063095923121196,-0.005808041207975274,-0.0026337102734932446,1.8749918937683105,2019-06-20 16:35:01:452,0.0,0.0,0.0
-0.15172894299030304,0.013836863450706005,9.886448860168457,0.0011058812836959564,-0.0026114674168302536,-0.0029000914010824694,1.879101276397705,2019-06-20 16:35:01:456,0.0,0.0,0.0
-0.1277814507484436,0.011442113667726517,9.807421684265137,-0.003822169836779023,-0.0023450862892410293,-0.0005026612202701574,1.8841209411621094,2019-06-20 16:35:01:461,0.0,0.0,0.0
-0.1277814507484436,-0.02208438143134117,9.87447452545166,0.0003067379009282828,-0.0035438016234668654,-0.0026337102734932446,1.8891105651855469,2019-06-20 16:35:01:466,0.0,0.0,0.0
-0.1469394415616989,0.013836863450706005,9.845738410949707,-0.002090692377411901,-0.0032774204958776402,-0.0006358518165740604,1.8941106796264648,2019-06-20 16:35:01:471,0.0,0.0,0.0
-0.11820244789123535,-0.005321133881807327,9.759527206420898,0.0017718342327061804,-0.006207613159433436,0.0005628633876146128,1.9000167846679688,2019-06-20 16:35:01:477,0.0,0.0,0.0
-0.1349657028913498,-0.04124237969517708,9.828974723815918,0.0007063095923121196,-0.004742516697618376,-0.0032996633525406317,1.9041118621826172,2019-06-20 16:35:01:481,0.0,0.0,0.0
-0.12059719860553741,-0.04124237969517708,9.840948104858398,-0.001158358430849615,-0.003144229932083028,-0.004631568990486754,1.9091053009033203,2019-06-20 16:35:01:486,0.0,0.0,0.0
-0.1421499401330948,0.018626363947987556,9.747552871704102,0.0007063095923121196,-0.0040765638786453146,-0.0032996633525406317,1.9141359329223633,2019-06-20 16:35:01:491,0.0,0.0,0.0
-0.14933419227600098,-0.019689632579684258,9.795448303222656,0.004169264511046364,-0.004742516697618376,-0.0026337102734932446,1.9199886322021484,2019-06-20 16:35:01:497,0.0,0.0,0.0
-0.14454469084739685,-0.002926384098827839,9.766711235046387,0.003370121128278691,-0.006340803463153723,-0.002234138582109408,1.9241137504577637,2019-06-20 16:35:01:501,0.0,0.0,0.0
-0.1349657028913498,0.037784360349178314,9.845738410949707,-0.0004924055468579722,-0.0038101827510560898,-0.0032996633525406317,1.9291143417358398,2019-06-20 16:35:01:506,0.0,0.0,0.0
-0.1349657028913498,0.02820536121726036,9.778684616088867,-0.001557930122233452,-0.0028778488044938037,0.0021611501531499603,1.9341073036193848,2019-06-20 16:35:01:511,0.0,0.0,0.0
-0.08707070350646973,-0.03645287826657295,9.828974723815918,0.0017718342327061804,-0.004609325873749438,0.002027959589355348,1.9391040802001953,2019-06-20 16:35:01:516,0.0,0.0,0.0
-0.1349657028913498,0.05694235861301422,9.819396018981934,-0.001957501813617289,-0.0020787052916889674,3.010106944941304e-05,1.9450273513793945,2019-06-20 16:35:01:522,0.0,0.0,0.0
-0.1541236937046051,0.016231613233685493,9.79305362701416,0.00017354732087902514,-0.003676992187261477,0.001628387897971511,1.950002670288086,2019-06-20 16:35:01:527,0.0,0.0,0.0
-0.16370269656181335,-0.026873880997300148,9.781079292297363,0.001372262411285181,-0.003410611059672253,-0.0029000914010824694,1.9541053771972656,2019-06-20 16:35:01:531,0.0,0.0,0.0
-0.11820244789123535,0.013836863450706005,9.836158752441406,-0.00422174152816286,-0.0016791336003051302,-0.0010354235079578973,1.9600005149841309,2019-06-20 16:35:01:537,0.0,0.0,0.0
-0.16370269656181335,0.03538960963487625,9.817001342773438,-0.0012915489946442272,-0.006873565718332173,-0.0007690423803686727,1.9641122817993164,2019-06-20 16:35:01:541,0.0,0.0,0.0
-0.14454469084739685,0.009047363884747028,9.828974723815918,-0.0030230264540113496,-0.009270996386783843,-0.0027669008372878568,1.9691057205200195,2019-06-20 16:35:01:546,0.0,0.0,0.0
-0.15172894299030304,0.016231613233685493,9.845738410949707,-0.002756645326422125,-0.002744658240699191,0.005890486329510593,1.9750003814697266,2019-06-20 16:35:01:552,0.0,0.0,0.0
-0.11580769717693329,0.05694235861301422,9.814606666564941,0.0023045963578474673,-0.0026114674168302536,0.001095625642793062,1.9791102409362793,2019-06-20 16:35:01:556,0.0,0.0,0.0
-0.18525543808937073,0.016231613233685493,9.749947547912598,-0.00022602440301410239,-0.007805899924968783,0.0028271031021601845,1.9841113090515137,2019-06-20 16:35:01:561,0.0,0.0,0.0
-0.19004493951797485,0.04257386177778244,9.795448303222656,0.0009726907199013442,-0.003943373314850702,-0.0013018046355471218,1.989151954650879,2019-06-20 16:35:01:566,0.0,0.0,0.0
-0.18525543808937073,0.0018631152343004942,9.785869598388672,-0.0006255961106525846,-0.004209754442439926,0.002027959589355348,1.9950084686279297,2019-06-20 16:35:01:572,0.0,0.0,0.0
-0.1732816994190216,0.05694235861301422,9.82179069519043,-0.002223883071243676,-0.001945514727894355,-0.0011686140717525096,1.9991044998168945,2019-06-20 16:35:01:576,0.0,0.0,0.0
-0.1277814507484436,-0.02208438143134117,9.761921882629395,0.003370121128278691,-0.0044761355700291515,0.0024275314107763475,2.0041146278381348,2019-06-20 16:35:01:581,0.0,0.0,0.0
-0.15651844441890717,-0.026873880997300148,9.836158752441406,0.0008395001561067318,-0.0038101827510560898,-0.0032996633525406317,2.0100135803222656,2019-06-20 16:35:01:587,0.0,0.0,0.0
-0.1613079458475113,0.0018631152343004942,9.884054183959961,-0.00422174152816286,-0.0006136089599110694,-0.0023673291459040203,2.014995574951172,2019-06-20 16:35:01:592,0.0,0.0,0.0
-0.1421499401330948,0.016231613233685493,9.884054183959961,0.0011058812836959564,-0.004342945006234539,0.0009624350789984497,2.01910400390625,2019-06-20 16:35:01:596,0.0,0.0,0.0
-0.1613079458475113,-0.012505383230745792,9.814606666564941,-0.0004924055468579722,-0.004742516697618376,0.001095625642793062,2.0241265296936035,2019-06-20 16:35:01:601,0.0,0.0,0.0
-0.1349657028913498,0.016231613233685493,9.87447452545166,-0.001957501813617289,0.001650630754634502,0.0022943408469817354,2.030000686645508,2019-06-20 16:35:01:607,0.0,0.0,0.0
-0.13257095217704773,0.02102111279964447,9.819396018981934,0.0009726907199013442,-0.0035438016234668654,0.0014951973341768988,2.0341110229492188,2019-06-20 16:35:01:611,0.0,0.0,0.0
-0.1469394415616989,0.004257864784449339,9.819396018981934,-0.003422598145395187,-0.003011039368288416,-0.0011686140717525096,2.0391407012939453,2019-06-20 16:35:01:616,0.0,0.0,0.0
-0.16370269656181335,0.03299486264586449,9.790658950805664,0.005501170148992487,-0.005142088649076538,0.00016329164746684,2.0441112518310547,2019-06-20 16:35:01:621,0.0,0.0,0.0
-0.1349657028913498,0.037784360349178314,9.730790138244629,-0.0026234547626275127,-0.003943373314850702,-0.0005026612202701574,2.049107551574707,2019-06-20 16:35:01:626,0.0,0.0,0.0
-0.11341295391321182,-0.017294881865382195,9.778684616088867,-0.004887694347135921,-0.006340803463153723,-0.005297521549385491,2.0549964904785156,2019-06-20 16:35:01:632,0.0,0.0,0.0
-0.1613079458475113,-0.0005316344322636724,9.761921882629395,0.004702026766224813,-0.00993694894568258,-0.0019677574545201833,2.059109687805176,2019-06-20 16:35:01:636,0.0,0.0,0.0
-0.19243969023227692,0.059337109327316284,9.831369400024414,-0.001957501813617289,-0.0050088978252076,0.0013620067703822866,2.0649938583374023,2019-06-20 16:35:01:642,0.0,0.0,0.0
-0.13736045360565186,0.011442113667726517,9.809816360473633,-0.0032894075816005744,-0.0007467995237056817,0.0005628633876146128,2.0699901580810547,2019-06-20 16:35:01:647,0.0,0.0,0.0
-0.12538670003414154,-0.04124237969517708,9.781079292297363,-0.003156217017805962,-0.005408469776665762,0.001095625642793062,2.0749993324279785,2019-06-20 16:35:01:652,0.0,0.0,0.0
-0.13736045360565186,0.06412661075592041,9.817001342773438,0.0039028833834571395,-0.006873565718332173,0.002027959589355348,2.0791091918945312,2019-06-20 16:35:01:656,0.0,0.0,0.0
-0.11101820319890976,0.037784360349178314,9.812211036682129,-0.004354932091957473,-0.00021403725227258724,0.004958152122873981,2.084122657775879,2019-06-20 16:35:01:661,0.0,0.0,0.0
-0.1349657028913498,-0.01490013301372528,9.76431655883789,0.0027041680492313038,-0.004609325873749438,-0.00036947065647554515,2.0891261100769043,2019-06-20 16:35:01:666,0.0,0.0,0.0
-0.13017620146274567,0.0018631152343004942,9.749947547912598,-0.0014247395584388394,0.00031872505166979784,0.0014951973341768988,2.094994068145752,2019-06-20 16:35:01:672,0.0,0.0,0.0
-0.10383395105600357,0.03299486264586449,9.807421684265137,-0.0012915489946442272,-0.006607184590742948,0.00042967279131070986,2.099102020263672,2019-06-20 16:35:01:676,0.0,0.0,0.0
-0.18286068737506866,0.013836863450706005,9.845738410949707,0.0009726907199013442,-0.0032774204958776402,0.0002964822275160976,2.105003833770752,2019-06-20 16:35:01:682,0.0,0.0,0.0
-0.1349657028913498,-0.007715883664786816,9.814606666564941,0.0023045963578474673,-0.005941232031844212,0.0029602936659547966,2.1091113090515137,2019-06-20 16:35:01:686,0.0,0.0,0.0
-0.13017620146274567,0.06173185631632805,9.776289939880371,-0.0010251678020364214,-0.002744658240699191,0.004425389867695532,2.1150965690612793,2019-06-20 16:35:01:692,0.0,0.0,0.0
-0.11341295391321182,0.044968608766794205,9.797842979431152,0.0005731190285175073,-0.004209754442439926,-0.0023673291459040203,2.119117259979248,2019-06-20 16:35:01:696,0.0,0.0,0.0
-0.11820244789123535,0.009047363884747028,9.817001342773438,0.001372262411285181,-0.008072281052558009,0.0022943408469817354,2.124997615814209,2019-06-20 16:35:01:702,0.0,0.0,0.0
-0.12538670003414154,0.06412661075592041,9.83376407623291,-0.0012915489946442272,-0.006873565718332173,0.00042967279131070986,2.129103660583496,2019-06-20 16:35:01:706,0.0,0.0,0.0
-0.14933419227600098,0.0018631152343004942,9.778684616088867,0.00043992846472289506,-0.0040765638786453146,0.0024275314107763475,2.1350135803222656,2019-06-20 16:35:01:712,0.0,0.0,0.0
-0.11341295391321182,-0.0005316344322636724,9.838553428649902,0.0017718342327061804,-0.007273137669790334,0.0012288162065876742,2.1399917602539062,2019-06-20 16:35:01:717,0.0,0.0,0.0
-0.13257095217704773,0.023415861651301384,9.828974723815918,0.0048352170699451,-0.00847185248386752,-0.0015681857631363464,2.144108772277832,2019-06-20 16:35:01:721,0.0,0.0,0.0
-0.13975520431995392,0.08088985830545425,9.864895820617676,4.035674489342885e-05,-0.007006756542201109,-0.0031664725286716937,2.15000057220459,2019-06-20 16:35:01:727,0.0,0.0,0.0
-0.1349657028913498,0.023415861651301384,9.788264274597168,-0.0004924055468579722,-0.0016791336003051302,-0.0027669008372878568,2.154107093811035,2019-06-20 16:35:01:731,0.0,0.0,0.0
-0.1613079458475113,-0.04124237969517708,9.848133087158203,0.004435645638635589,-0.003144229932083028,0.0021611501531499603,2.1599960327148438,2019-06-20 16:35:01:737,0.0,0.0,0.0
-0.13257095217704773,0.009047363884747028,9.82179069519043,0.0011058812836959564,-0.003943373314850702,-0.0006358518165740604,2.16501522064209,2019-06-20 16:35:01:742,0.0,0.0,0.0
-0.10143920034170151,0.037784360349178314,9.807421684265137,0.0012390718474905686,-0.004875707001338663,0.0021611501531499603,2.169105052947998,2019-06-20 16:35:01:746,0.0,0.0,0.0
-0.1349657028913498,-0.019689632579684258,9.80502700805664,-9.283383109216743e-05,-0.001945514727894355,0.00016329164746684,2.1750006675720215,2019-06-20 16:35:01:752,0.0,0.0,0.0
-0.13257095217704773,0.016231613233685493,9.814606666564941,0.001372262411285181,-0.009004614739045968,0.0012288162065876742,2.1792774200439453,2019-06-20 16:35:01:756,0.0,0.0,0.0
-0.15891319513320923,0.030600111931562424,9.769105911254883,-0.0018243112498226766,-0.005408469776665762,-0.00010308950450435256,2.185556411743164,2019-06-20 16:35:01:763,0.0,0.0,0.0
-0.12059719860553741,-0.053216129541397095,9.807421684265137,0.0007063095923121196,-0.006607184590742948,0.004292199303900919,2.1905670166015625,2019-06-20 16:35:01:768,0.0,0.0,0.0
-0.1277814507484436,-0.002926384098827839,9.80502700805664,-0.0024902641988329005,-0.005408469776665762,0.0014951973341768988,2.195584297180176,2019-06-20 16:35:01:773,0.0,0.0,0.0
-0.11820244789123535,0.04017911106348038,9.89123821258545,0.0027041680492313038,-0.0028778488044938037,-0.0032996633525406317,2.200565814971924,2019-06-20 16:35:01:778,0.0,0.0,0.0
-0.0822812020778656,-0.024479132145643234,9.771500587463379,0.001372262411285181,-0.007006756542201109,0.001095625642793062,2.205575942993164,2019-06-20 16:35:01:783,0.0,0.0,0.0
-0.13257095217704773,-0.002926384098827839,9.778684616088867,0.0007063095923121196,-0.005541660080386049,-0.005164331245665204,2.2105636596679688,2019-06-20 16:35:01:788,0.0,0.0,0.0
-0.11101820319890976,0.011442113667726517,9.908001899719238,0.0003067379009282828,-0.005142088649076538,0.0005628633876146128,2.2156434059143066,2019-06-20 16:35:01:793,0.0,0.0,0.0
-0.09904444962739944,-0.03405813127756119,9.86250114440918,0.00043992846472289506,-0.005408469776665762,0.0013620067703822866,2.2205848693847656,2019-06-20 16:35:01:798,0.0,0.0,0.0
-0.10143920034170151,-0.04842662811279297,9.817001342773438,0.0016386436689115682,-0.0023450862892410293,-0.0014349951993417342,2.225637435913086,2019-06-20 16:35:01:803,0.0,0.0,0.0
-0.11820244789123535,0.02820536121726036,9.800237655639648,0.0016386436689115682,-0.006207613159433436,0.003226674793544021,2.2305831909179688,2019-06-20 16:35:01:808,0.0,0.0,0.0
-0.15891319513320923,0.006652614567428827,9.781079292297363,0.0053679798452722005,-0.008072281052558009,-0.0015681857631363464,2.2355775833129883,2019-06-20 16:35:01:813,0.0,0.0,0.0
-0.11101820319890976,0.0018631152343004942,9.795448303222656,-0.001158358430849615,-0.0032774204958776402,0.002693912538365572,2.2405662536621094,2019-06-20 16:35:01:818,0.0,0.0,0.0
-0.11820244789123535,-0.017294881865382195,9.819396018981934,-0.00035921498306336,-0.005541660080386049,-0.0030332819648770815,2.245584011077881,2019-06-20 16:35:01:823,0.0,0.0,0.0
-0.13975520431995392,0.03538960963487625,9.797842979431152,-0.0004924055468579722,-0.007139946845921397,-0.0019677574545201833,2.250603675842285,2019-06-20 16:35:01:828,0.0,0.0,0.0
-0.08467595279216766,-0.010110633447766304,9.87447452545166,0.0005731190285175073,-0.0044761355700291515,-0.0023673291459040203,2.2555747032165527,2019-06-20 16:35:01:833,0.0,0.0,0.0
-0.10622870177030563,-0.031663380563259125,9.730790138244629,0.0037696928196625274,-0.0035438016234668654,-0.001834566890725571,2.2605648040771484,2019-06-20 16:35:01:838,0.0,0.0,0.0
-0.12538670003414154,0.016231613233685493,9.857711791992188,4.035674489342885e-05,-0.0018123241640997428,0.006689629712278266,2.265591621398926,2019-06-20 16:35:01:843,0.0,0.0,0.0
-0.12538670003414154,0.016231613233685493,9.819396018981934,-0.003422598145395187,-0.003676992187261477,-0.0027669008372878568,2.27061128616333,2019-06-20 16:35:01:848,0.0,0.0,0.0
-0.07030745595693588,-0.012505383230745792,9.828974723815918,-0.0023570736350382883,-0.004875707001338663,0.0014951973341768988,2.275660514831543,2019-06-20 16:35:01:853,0.0,0.0,0.0
-0.1349657028913498,-0.019689632579684258,9.845738410949707,0.0037696928196625274,-0.003676992187261477,0.00016329164746684,2.280571460723877,2019-06-20 16:35:01:858,0.0,0.0,0.0
-0.12059719860553741,0.06173185631632805,9.783474922180176,0.0023045963578474673,-0.003144229932083028,0.0012288162065876742,2.285586357116699,2019-06-20 16:35:01:863,0.0,0.0,0.0
-0.10383395105600357,0.006652614567428827,9.802632331848145,-0.003422598145395187,-0.005142088649076538,-0.005031140421796266,2.2905664443969727,2019-06-20 16:35:01:868,0.0,0.0,0.0
-0.14454469084739685,0.023415861651301384,9.800237655639648,0.003103740000689466,-0.0052752789527968245,-0.005830284324712591,2.295574188232422,2019-06-20 16:35:01:873,0.0,0.0,0.0
-0.13017620146274567,0.02820536121726036,9.838553428649902,0.001372262411285181,-0.009670568338242006,-0.00010308950450435256,2.3005733489990234,2019-06-20 16:35:01:878,0.0,0.0,0.0
-0.22836093604564667,-0.010110633447766304,9.840948104858398,-0.00035921498306336,-8.084668035065233e-05,0.00016329164746684,2.3055906295776367,2019-06-20 16:35:01:883,0.0,0.0,0.0
0.011114032939076424,-0.0005316344322636724,9.757132530212402,0.004169264511046364,-0.007539518797379559,0.0013620067703822866,2.310558319091797,2019-06-20 16:35:01:888,0.0,0.0,0.0
-0.22836093604564667,0.011442113667726517,9.869685173034668,-0.0012915489946442272,-0.0050088978252076,-0.0030332819648770815,2.3155784606933594,2019-06-20 16:35:01:893,0.0,0.0,0.0
-0.015228213742375374,0.02820536121726036,9.797842979431152,-0.0007587866744471969,-0.0023450862892410293,-0.004764759294207041,2.320683479309082,2019-06-20 16:35:01:898,0.0,0.0,0.0
-0.24272944033145905,-0.005321133881807327,9.888843536376953,0.0025709774854366916,-0.004342945006234539,0.004425389867695532,2.325590133666992,2019-06-20 16:35:01:903,0.0,0.0,0.0
-0.09664970636367798,-0.046031877398490906,9.838553428649902,0.0019050247965007928,-0.006074422335564498,-0.0023673291459040203,2.3305716514587402,2019-06-20 16:35:01:908,0.0,0.0,0.0
-0.20201869308948517,0.06173185631632805,9.771500587463379,-0.005420456602314371,-0.005408469776665762,-0.0019677574545201833,2.3355846405029297,2019-06-20 16:35:01:913,0.0,0.0,0.0
-0.08707070350646973,-0.012505383230745792,9.807421684265137,-0.0010251678020364214,-0.013266712780473562,0.001095625642793062,2.3405685424804688,2019-06-20 16:35:01:918,0.0,0.0,0.0
-0.16370269656181335,-0.026873880997300148,9.817001342773438,0.0003067379009282828,-0.004342945006234539,-0.001834566890725571,2.3455753326416016,2019-06-20 16:35:01:923,0.0,0.0,0.0
-0.11341295391321182,0.04017911106348038,9.812211036682129,-0.005553647426183308,-0.0020787052916889674,-0.0014349951993417342,2.350592613220215,2019-06-20 16:35:01:928,0.0,0.0,0.0
-0.1349657028913498,0.02820536121726036,9.776289939880371,0.0020382153602954054,-0.003011039368288416,-0.0025005197096986324,2.355590343475342,2019-06-20 16:35:01:933,0.0,0.0,0.0
-0.16609744727611542,0.004257864784449339,9.795448303222656,0.0009726907199013442,-0.009537376994224418,0.0014951973341768988,2.3605690002441406,2019-06-20 16:35:01:938,0.0,0.0,0.0
-0.14454469084739685,0.013836863450706005,9.79305362701416,0.0028373588731002413,-0.006607184590742948,0.0029602936659547966,2.365675926208496,2019-06-20 16:35:01:943,0.0,0.0,0.0
-0.17807118594646454,-0.007715883664786816,9.824185371398926,-0.0012915489946442272,-0.0004804183961164572,-0.00036947065647554515,2.370595932006836,2019-06-20 16:35:01:948,0.0,0.0,0.0
-0.13736045360565186,0.03299486264586449,9.831369400024414,-0.001557930122233452,-0.010070139249402867,0.0008292445152038374,2.3755764961242676,2019-06-20 16:35:01:953,0.0,0.0,0.0
-0.17807118594646454,0.013836863450706005,9.690079689025879,-0.0014247395584388394,-0.0052752789527968245,-0.0029000914010824694,2.380565643310547,2019-06-20 16:35:01:958,0.0,0.0,0.0
-0.19243969023227692,0.04017911106348038,9.812211036682129,-9.283383109216743e-05,-0.007139946845921397,-0.0021009480183147955,2.385584831237793,2019-06-20 16:35:01:963,0.0,0.0,0.0
-0.17088694870471954,0.025810612365603447,9.80502700805664,-0.0004924055468579722,-0.008605043307736458,-0.002234138582109408,2.390568256378174,2019-06-20 16:35:01:968,0.0,0.0,0.0
-0.12059719860553741,-0.017294881865382195,9.8505277633667,0.0005731190285175073,-0.0006136089599110694,-0.003566044480129856,2.395570755004883,2019-06-20 16:35:01:973,0.0,0.0,0.0
-0.13975520431995392,0.004257864784449339,9.83376407623291,0.0007063095923121196,-0.001945514727894355,-0.0031664725286716937,2.400567054748535,2019-06-20 16:35:01:978,0.0,0.0,0.0
-0.17807118594646454,0.04736335948109627,9.840948104858398,0.0015054529750797934,-0.005674850904254987,-0.0007690423803686727,2.405594825744629,2019-06-20 16:35:01:983,0.0,0.0,0.0
-0.14454469084739685,-0.01490013301372528,9.75234317779541,0.0008395001561067318,-0.006873565718332173,-0.0013018046355471218,2.410567283630371,2019-06-20 16:35:01:988,0.0,0.0,0.0
-0.16609744727611542,0.004257864784449339,9.788264274597168,0.0028373588731002413,-0.0024782768530356414,0.0013620067703822866,2.4156932830810547,2019-06-20 16:35:01:993,0.0,0.0,0.0
-0.19483444094657898,-0.0005316344322636724,9.828974723815918,-0.002889835890216737,-0.006074422335564498,0.001628387897971511,2.420581817626953,2019-06-20 16:35:01:998,0.0,0.0,0.0
-0.1732816994190216,0.006652614567428827,9.848133087158203,0.0015054529750797934,-0.005674850904254987,-0.00010308950450435256,2.425577163696289,2019-06-20 16:35:02:003,0.0,0.0,0.0
-0.16609744727611542,-0.02208438143134117,9.869685173034668,0.001372262411285181,-0.0052752789527968245,0.0038926276125170823,2.4305686950683594,2019-06-20 16:35:02:008,0.0,0.0,0.0
-0.22357143461704254,0.02820536121726036,9.893632888793945,0.0012390718474905686,-0.006607184590742948,0.0009624350789984497,2.4355859756469727,2019-06-20 16:35:02:013,0.0,0.0,0.0
-0.13736045360565186,0.04017911106348038,9.817001342773438,-0.0016911206860280642,-0.006074422335564498,0.0006960539514092252,2.4405698776245117,2019-06-20 16:35:02:018,0.0,0.0,0.0
-0.17567645013332367,0.009047363884747028,9.72360610961914,-0.001957501813617289,-0.005142088649076538,-0.00023628007642628753,2.44558048248291,2019-06-20 16:35:02:023,0.0,0.0,0.0
-0.17088694870471954,0.037784360349178314,9.795448303222656,0.0023045963578474673,-0.001945514727894355,-0.0006358518165740604,2.4505953788757324,2019-06-20 16:35:02:028,0.0,0.0,0.0
-0.15651844441890717,0.06891610473394394,9.86250114440918,-0.0018243112498226766,-0.003676992187261477,-0.000902232944163285,2.4555916786193848,2019-06-20 16:35:02:033,0.0,0.0,0.0
-0.12299194931983948,-0.024479132145643234,9.757132530212402,0.003370121128278691,-0.0026114674168302536,0.0005628633876146128,2.4606380462646484,2019-06-20 16:35:02:038,0.0,0.0,0.0
-0.19004493951797485,0.016231613233685493,9.785869598388672,0.003103740000689466,-0.0007467995237056817,0.0008292445152038374,2.4655914306640625,2019-06-20 16:35:02:043,0.0,0.0,0.0
-0.1541236937046051,0.02820536121726036,9.773895263671875,-0.0016911206860280642,-0.003410611059672253,0.003493055921133246,2.4705705642700195,2019-06-20 16:35:02:048,0.0,0.0,0.0
-0.18525543808937073,0.013836863450706005,9.800237655639648,-0.00022602440301410239,-0.0040765638786453146,0.0017615784617661236,2.475593090057373,2019-06-20 16:35:02:053,0.0,0.0,0.0
-0.10622870177030563,-0.005321133881807327,9.79305362701416,-0.0023570736350382883,-0.006074422335564498,-0.00010308950450435256,2.480571746826172,2019-06-20 16:35:02:058,0.0,0.0,0.0
-0.1732816994190216,0.04257386177778244,9.881659507751465,-0.002223883071243676,-0.0028778488044938037,-0.0038324256077190803,2.4855728149414062,2019-06-20 16:35:02:063,0.0,0.0,0.0
-0.12299194931983948,0.011442113667726517,9.795448303222656,-0.002090692377411901,-0.0038101827510560898,-0.001834566890725571,2.490570068359375,2019-06-20 16:35:02:068,0.0,0.0,0.0
-0.1421499401330948,-0.010110633447766304,9.79305362701416,0.0021714059240900176,-0.004209754442439926,0.0037594370487224705,2.495593547821045,2019-06-20 16:35:02:073,0.0,0.0,0.0
-0.11101820319890976,0.030600111931562424,9.795448303222656,0.005501170148992487,-0.0052752789527968245,0.0028271031021601845,2.5005664825439453,2019-06-20 16:35:02:078,0.0,0.0,0.0
-0.17567645013332367,0.03299486264586449,9.826580047607422,-0.0014247395584388394,-0.004209754442439926,-0.0032996633525406317,2.5056142807006836,2019-06-20 16:35:02:083,0.0,0.0,0.0
-0.1421499401330948,0.011442113667726517,9.800237655639648,0.00017354732087902514,-0.009270996386783843,0.0018947690255607357,2.510807514190674,2019-06-20 16:35:02:088,0.0,0.0,0.0
-0.15891319513320923,-0.0005316344322636724,9.881659507751465,-0.00022602440301410239,-0.0032774204958776402,-0.0036992350439244686,2.5158205032348633,2019-06-20 16:35:02:093,0.0,0.0,0.0
-0.16849219799041748,-0.0005316344322636724,9.838553428649902,-0.002090692377411901,-0.004342945006234539,-0.0010354235079578973,2.5205860137939453,2019-06-20 16:35:02:098,0.0,0.0,0.0
-0.14454469084739685,0.04017911106348038,9.781079292297363,0.0019050247965007928,-0.0035438016234668654,-0.0021009480183147955,2.525599956512451,2019-06-20 16:35:02:103,0.0,0.0,0.0
-0.16370269656181335,-0.02208438143134117,9.788264274597168,0.0023045963578474673,-0.0067403754146118855,0.0002964822275160976,2.5305843353271484,2019-06-20 16:35:02:108,0.0,0.0,0.0
-0.16370269656181335,0.052152857184410095,9.776289939880371,-0.00022602440301410239,-0.007006756542201109,-0.002234138582109408,2.5355939865112305,2019-06-20 16:35:02:113,0.0,0.0,0.0
-0.12538670003414154,0.03299486264586449,9.809816360473633,-0.00022602440301410239,-0.0052752789527968245,-0.0011686140717525096,2.540576457977295,2019-06-20 16:35:02:118,0.0,0.0,0.0
-0.14454469084739685,0.004257864784449339,9.778684616088867,0.005634360972861425,-0.006207613159433436,-0.0011686140717525096,2.5456008911132812,2019-06-20 16:35:02:123,0.0,0.0,0.0
-0.1349657028913498,-0.01490013301372528,9.819396018981934,0.004968407893814039,-0.0050088978252076,0.0002964822275160976,2.5505967140197754,2019-06-20 16:35:02:128,0.0,0.0,0.0
-0.1732816994190216,0.011442113667726517,9.826580047607422,-0.0004924055468579722,-0.007139946845921397,-0.0005026612202701574,2.555055618286133,2019-06-20 16:35:02:132,0.0,0.0,0.0
-0.15172894299030304,0.03538960963487625,9.797842979431152,-0.005553647426183308,-0.007006756542201109,-0.0025005197096986324,2.5591115951538086,2019-06-20 16:35:02:136,0.0,0.0,0.0
-0.11580769717693329,-0.04363713040947914,9.807421684265137,-0.00035921498306336,-0.007672709101099845,0.00016329164746684,2.5641088485717773,2019-06-20 16:35:02:141,0.0,0.0,0.0
-0.1469394415616989,-0.019689632579684258,9.778684616088867,0.0023045963578474673,0.000851487306848247,-0.0026337102734932446,2.5691051483154297,2019-06-20 16:35:02:146,0.0,0.0,0.0
-0.13257095217704773,0.05454760789871216,9.783474922180176,-0.00035921498306336,-0.0004804183961164572,-0.0013018046355471218,2.5749998092651367,2019-06-20 16:35:02:152,0.0,0.0,0.0
-0.1349657028913498,-0.005321133881807327,9.711631774902344,-0.0014247395584388394,-0.009670568338242006,0.0009624350789984497,2.5799989700317383,2019-06-20 16:35:02:157,0.0,0.0,0.0
-0.19004493951797485,0.030600111931562424,9.773895263671875,0.004702026766224813,-0.007139946845921397,-0.0015681857631363464,2.584109306335449,2019-06-20 16:35:02:161,0.0,0.0,0.0
-0.1541236937046051,0.06891610473394394,9.819396018981934,0.0020382153602954054,-0.007539518797379559,-0.0030332819648770815,2.589108943939209,2019-06-20 16:35:02:166,0.0,0.0,0.0
-0.14454469084739685,0.004257864784449339,9.824185371398926,-0.0016911206860280642,0.00031872505166979784,-0.0015681857631363464,2.5941238403320312,2019-06-20 16:35:02:171,0.0,0.0,0.0
-0.07270220667123795,-0.02208438143134117,9.72360610961914,0.002970549436894854,0.002050202446018339,3.010106944941304e-05,2.599289894104004,2019-06-20 16:35:02:176,0.0,0.0,0.0
-0.17567645013332367,0.02102111279964447,9.855317115783691,0.0025709774854366916,-0.0023450862892410293,-0.0005026612202701574,2.6050095558166504,2019-06-20 16:35:02:182,0.0,0.0,0.0
-0.1349657028913498,0.025810612365603447,9.70205307006836,-0.0007587866744471969,-0.006207613159433436,-0.0030332819648770815,2.6091060638427734,2019-06-20 16:35:02:186,0.0,0.0,0.0
-0.16370269656181335,-0.05561087653040886,9.699658393859863,-0.0012915489946442272,-0.0050088978252076,-0.0011686140717525096,2.615001678466797,2019-06-20 16:35:02:192,0.0,0.0,0.0
-0.07988645136356354,-0.03405813127756119,9.781079292297363,0.004036073947251752,-0.008072281052558009,-0.005430712373254428,2.619110107421875,2019-06-20 16:35:02:196,0.0,0.0,0.0
-0.19483444094657898,0.030600111931562424,9.83376407623291,-0.0004924055468579722,-0.004209754442439926,-0.0025005197096986324,2.6241092681884766,2019-06-20 16:35:02:201,0.0,0.0,0.0
-0.06072845682501793,0.025810612365603447,9.855317115783691,0.0008395001561067318,-0.003676992187261477,-0.002234138582109408,2.629105567932129,2019-06-20 16:35:02:206,0.0,0.0,0.0
-0.1613079458475113,-0.024479132145643234,9.783474922180176,0.0032369305644840782,-0.002744658240699191,-0.0063630465798910395,2.634121894836426,2019-06-20 16:35:02:211,0.0,0.0,0.0
-0.0822812020778656,0.06652135401964188,9.737974166870117,0.0003067379009282828,-0.0014127523426787432,-0.0007690423803686727,2.6391096115112305,2019-06-20 16:35:02:216,0.0,0.0,0.0
-0.14933419227600098,-0.024479132145643234,9.800237655639648,0.0028373588731002413,-0.005674850904254987,-0.00010308950450435256,2.644113063812256,2019-06-20 16:35:02:221,0.0,0.0,0.0
-0.1421499401330948,-0.046031877398490906,9.824185371398926,-0.002090692377411901,-0.006340803463153723,-0.006229855756022102,2.6500415802001953,2019-06-20 16:35:02:227,0.0,0.0,0.0
-0.13736045360565186,0.006652614567428827,9.860106468200684,4.035674489342885e-05,-0.004609325873749438,0.0030934842297494092,2.65411376953125,2019-06-20 16:35:02:231,0.0,0.0,0.0
-0.11580769717693329,0.016231613233685493,9.83376407623291,0.0028373588731002413,-0.007006756542201109,0.0030934842297494092,2.659989356994629,2019-06-20 16:35:02:237,0.0,0.0,0.0
-0.13017620146274567,-0.031663380563259125,9.869685173034668,-9.283383109216743e-05,-0.003676992187261477,-0.008094523649146673,2.664112091064453,2019-06-20 16:35:02:241,0.0,0.0,0.0
-0.10383395105600357,0.025810612365603447,9.802632331848145,-9.283383109216743e-05,-0.0052752789527968245,-0.004231997299102917,2.6691131591796875,2019-06-20 16:35:02:246,0.0,0.0,0.0
-0.13257095217704773,0.023415861651301384,9.76431655883789,0.0019050247965007928,-0.0052752789527968245,-0.0036992350439244686,2.6749954223632812,2019-06-20 16:35:02:252,0.0,0.0,0.0
-0.07270220667123795,0.011442113667726517,9.864895820617676,0.0011058812836959564,-0.0040765638786453146,0.0013620067703822866,2.6791000366210938,2019-06-20 16:35:02:256,0.0,0.0,0.0
-0.10622870177030563,-0.031663380563259125,9.769105911254883,0.0039028833834571395,-0.0035438016234668654,-0.001834566890725571,2.6841230392456055,2019-06-20 16:35:02:261,0.0,0.0,0.0
-0.09186020493507385,0.044968608766794205,9.824185371398926,0.0005731190285175073,-0.006340803463153723,-0.0023673291459040203,2.6899967193603516,2019-06-20 16:35:02:267,0.0,0.0,0.0
-0.09186020493507385,0.02102111279964447,9.836158752441406,-0.002223883071243676,-0.0050088978252076,-0.00036947065647554515,2.694127082824707,2019-06-20 16:35:02:271,0.0,0.0,0.0
-0.09186020493507385,0.02102111279964447,9.802632331848145,-9.283383109216743e-05,-0.006873565718332173,0.0017615784617661236,2.7000021934509277,2019-06-20 16:35:02:277,0.0,0.0,0.0
-0.13017620146274567,0.03299486264586449,9.809816360473633,-0.00035921498306336,-0.006207613159433436,-0.005430712373254428,2.704108238220215,2019-06-20 16:35:02:281,0.0,0.0,0.0
-0.09425495564937592,0.03538960963487625,9.838553428649902,0.0024377869216420794,-0.005142088649076538,-0.0010354235079578973,2.709104537963867,2019-06-20 16:35:02:286,0.0,0.0,0.0
-0.12538670003414154,-0.046031877398490906,9.83376407623291,0.001372262411285181,-0.003410611059672253,-0.001834566890725571,2.7150001525878906,2019-06-20 16:35:02:292,0.0,0.0,0.0
-0.13736045360565186,-0.007715883664786816,9.759527206420898,0.0017718342327061804,-0.004342945006234539,-0.0030332819648770815,2.7191104888916016,2019-06-20 16:35:02:296,0.0,0.0,0.0
-0.11820244789123535,0.025810612365603447,9.783474922180176,0.0027041680492313038,-0.006340803463153723,-0.0023673291459040203,2.724109172821045,2019-06-20 16:35:02:301,0.0,0.0,0.0
-0.1541236937046051,0.013836863450706005,9.840948104858398,0.0027041680492313038,-0.0038101827510560898,0.0013620067703822866,2.7291078567504883,2019-06-20 16:35:02:306,0.0,0.0,0.0
-0.13257095217704773,-0.0005316344322636724,9.79305362701416,0.004968407893814039,-0.005674850904254987,0.0024275314107763475,2.735004425048828,2019-06-20 16:35:02:312,0.0,0.0,0.0
-0.12299194931983948,0.04736335948109627,9.800237655639648,-0.0024902641988329005,-0.002744658240699191,0.00042967279131070986,2.739211082458496,2019-06-20 16:35:02:316,0.0,0.0,0.0
-0.1277814507484436,-0.017294881865382195,9.817001342773438,0.0035033116920733026,-0.004875707001338663,-0.0007690423803686727,2.7441349029541016,2019-06-20 16:35:02:321,0.0,0.0,0.0
-0.11820244789123535,-0.0005316344322636724,9.831369400024414,0.0008395001561067318,-0.007006756542201109,0.0005628633876146128,2.749105453491211,2019-06-20 16:35:02:326,0.0,0.0,0.0
-0.15172894299030304,0.059337109327316284,9.80502700805664,0.00017354732087902514,-0.005941232031844212,0.0033598653573386336,2.755000114440918,2019-06-20 16:35:02:332,0.0,0.0,0.0
-0.15172894299030304,-0.0005316344322636724,9.814606666564941,0.00017354732087902514,-0.0012795617788841308,0.004691770995284756,2.7591094970703125,2019-06-20 16:35:02:336,0.0,0.0,0.0
-0.11580769717693329,0.025810612365603447,9.819396018981934,-0.001557930122233452,-0.005808041207975274,-0.0026337102734932446,2.7649917602539062,2019-06-20 16:35:02:342,0.0,0.0,0.0
-0.13017620146274567,-0.005321133881807327,9.864895820617676,-0.0024902641988329005,-0.009137805042766256,0.0014951973341768988,2.7691030502319336,2019-06-20 16:35:02:346,0.0,0.0,0.0
-0.11580769717693329,0.016231613233685493,9.867290496826172,-0.0016911206860280642,-0.0012795617788841308,0.0025607219745709597,2.7741212844848633,2019-06-20 16:35:02:351,0.0,0.0,0.0
-0.17567645013332367,0.052152857184410095,9.83376407623291,-0.0024902641988329005,-0.005142088649076538,-0.00010308950450435256,2.7799973487854004,2019-06-20 16:35:02:357,0.0,0.0,0.0
-0.09904444962739944,-0.029268629848957062,9.781079292297363,-0.001158358430849615,-0.00793909022868907,0.0013620067703822866,2.7850027084350586,2019-06-20 16:35:02:362,0.0,0.0,0.0
-0.18286068737506866,0.004257864784449339,9.855317115783691,0.0021714059240900176,-0.006074422335564498,0.0002964822275160976,2.790022373199463,2019-06-20 16:35:02:367,0.0,0.0,0.0
-0.1349657028913498,0.07370560616254807,9.797842979431152,-0.0036889792729844113,-0.0016791336003051302,-0.0013018046355471218,2.794112205505371,2019-06-20 16:35:02:371,0.0,0.0,0.0
-0.16370269656181335,-0.04124237969517708,9.773895263671875,0.0017718342327061804,-0.009137805042766256,0.00042967279131070986,2.799107551574707,2019-06-20 16:35:02:376,0.0,0.0,0.0
-0.11101820319890976,0.04017911106348038,9.797842979431152,0.0005731190285175073,-0.007139946845921397,-0.003965616171513693,2.8049964904785156,2019-06-20 16:35:02:382,0.0,0.0,0.0
-0.15891319513320923,0.0018631152343004942,9.86250114440918,-0.0006255961106525846,-0.005541660080386049,0.002693912538365572,2.809988021850586,2019-06-20 16:35:02:387,0.0,0.0,0.0
-0.08946545422077179,0.013836863450706005,9.80502700805664,0.002970549436894854,-0.0018123241640997428,0.0009624350789984497,2.8141069412231445,2019-06-20 16:35:02:391,0.0,0.0,0.0
-0.14933419227600098,-0.002926384098827839,9.776289939880371,-0.0008919772382418092,-0.0040765638786453146,-0.0011686140717525096,2.819993019104004,2019-06-20 16:35:02:397,0.0,0.0,0.0
-0.17807118594646454,-0.0005316344322636724,9.831369400024414,-0.0010251678020364214,-0.004609325873749438,0.00016329164746684,2.8241147994995117,2019-06-20 16:35:02:401,0.0,0.0,0.0
-0.13975520431995392,-0.010110633447766304,9.807421684265137,-0.003822169836779023,-0.008205471356278294,-0.0063630465798910395,2.8291096687316895,2019-06-20 16:35:02:406,0.0,0.0,0.0
-0.11820244789123535,0.011442113667726517,9.824185371398926,0.0028373588731002413,-0.003410611059672253,-0.0019677574545201833,2.8350353240966797,2019-06-20 16:35:02:412,0.0,0.0,0.0
-0.13736045360565186,0.006652614567428827,9.82179069519043,0.0027041680492313038,-0.0032774204958776402,0.0012288162065876742,2.839125633239746,2019-06-20 16:35:02:416,0.0,0.0,0.0
-0.1541236937046051,0.011442113667726517,9.845738410949707,0.0009726907199013442,-0.00647399428702266,-0.0005026612202701574,2.8441123962402344,2019-06-20 16:35:02:421,0.0,0.0,0.0
-0.13017620146274567,0.0018631152343004942,9.826580047607422,-0.0012915489946442272,5.234389563494396e-05,-0.00010308950450435256,2.8499884605407715,2019-06-20 16:35:02:427,0.0,0.0,0.0
-0.16370269656181335,-0.007715883664786816,9.776289939880371,0.0009726907199013442,-0.007539518797379559,0.0012288162065876742,2.854121685028076,2019-06-20 16:35:02:431,0.0,0.0,0.0
-0.11341295391321182,0.04736335948109627,9.809816360473633,-0.0008919772382418092,-0.008072281052558009,-0.0048979501180759786,2.859999179840088,2019-06-20 16:35:02:437,0.0,0.0,0.0
-0.15891319513320923,0.03299486264586449,9.840948104858398,0.0003067379009282828,-0.0035438016234668654,-0.0032996633525406317,2.864107608795166,2019-06-20 16:35:02:441,0.0,0.0,0.0
-0.14933419227600098,0.02102111279964447,9.824185371398926,0.0023045963578474673,-0.001945514727894355,-0.004365187862897529,2.8699865341186523,2019-06-20 16:35:02:447,0.0,0.0,0.0
-0.1541236937046051,0.03299486264586449,9.802632331848145,-0.0014247395584388394,-0.0023450862892410293,0.0021611501531499603,2.8741226196289062,2019-06-20 16:35:02:451,0.0,0.0,0.0
-0.08707070350646973,0.044968608766794205,9.80502700805664,0.0017718342327061804,0.0005851061792590224,-0.0015681857631363464,2.880038261413574,2019-06-20 16:35:02:457,0.0,0.0,0.0
-0.16849219799041748,-0.029268629848957062,9.761921882629395,-9.283383109216743e-05,-0.006873565718332173,0.0013620067703822866,2.8841376304626465,2019-06-20 16:35:02:461,0.0,0.0,0.0
-0.13736045360565186,0.030600111931562424,9.771500587463379,0.0027041680492313038,-0.005808041207975274,-0.0030332819648770815,2.889993190765381,2019-06-20 16:35:02:467,0.0,0.0,0.0
-0.15172894299030304,0.02102111279964447,9.826580047607422,0.00043992846472289506,-0.006340803463153723,0.0005628633876146128,2.894124984741211,2019-06-20 16:35:02:471,0.0,0.0,0.0
-0.11101820319890976,-0.010110633447766304,9.802632331848145,0.003636502255867915,-0.0023450862892410293,-0.0021009480183147955,2.899995803833008,2019-06-20 16:35:02:477,0.0,0.0,0.0
-0.12299194931983948,-0.007715883664786816,9.797842979431152,-0.0018243112498226766,-0.0052752789527968245,0.0006960539514092252,2.9041075706481934,2019-06-20 16:35:02:481,0.0,0.0,0.0
-0.1086234524846077,-0.005321133881807327,9.819396018981934,0.0021714059240900176,-0.0012795617788841308,-0.0006358518165740604,2.909107208251953,2019-06-20 16:35:02:486,0.0,0.0,0.0
-0.17088694870471954,0.04257386177778244,9.809816360473633,-0.0024902641988329005,-0.005541660080386049,0.0009624350789984497,2.914121627807617,2019-06-20 16:35:02:491,0.0,0.0,0.0
-0.15172894299030304,0.009047363884747028,9.886448860168457,-0.0024902641988329005,-0.005408469776665762,-0.0013018046355471218,2.9191102981567383,2019-06-20 16:35:02:496,0.0,0.0,0.0
-0.17567645013332367,0.025810612365603447,9.838553428649902,0.00043992846472289506,-0.004742516697618376,-0.0027669008372878568,2.9241137504577637,2019-06-20 16:35:02:501,0.0,0.0,0.0
-0.1349657028913498,0.006652614567428827,9.836158752441406,-0.001957501813617289,-0.004875707001338663,-0.0031664725286716937,2.929140090942383,2019-06-20 16:35:02:506,0.0,0.0,0.0
-0.1349657028913498,-0.03405813127756119,9.771500587463379,-0.004354932091957473,-0.003943373314850702,0.00016329164746684,2.9341115951538086,2019-06-20 16:35:02:511,0.0,0.0,0.0
-0.16849219799041748,-0.010110633447766304,9.75234317779541,0.002970549436894854,5.234389563494396e-05,-0.0007690423803686727,2.939105987548828,2019-06-20 16:35:02:516,0.0,0.0,0.0
-0.13736045360565186,0.04017911106348038,9.91279125213623,0.0007063095923121196,-0.008205471356278294,0.004558580691564469,2.944112777709961,2019-06-20 16:35:02:521,0.0,0.0,0.0
-0.1421499401330948,0.013836863450706005,9.766711235046387,-0.001957501813617289,-0.0035438016234668654,-0.006629427707480263,2.9499998092651367,2019-06-20 16:35:02:527,0.0,0.0,0.0
-0.17088694870471954,-0.02208438143134117,9.795448303222656,-0.0006255961106525846,-0.002744658240699191,3.010106944941304e-05,2.9550037384033203,2019-06-20 16:35:02:532,0.0,0.0,0.0
-0.16370269656181335,0.004257864784449339,9.79305362701416,0.0003067379009282828,-0.006340803463153723,0.0014951973341768988,2.959103584289551,2019-06-20 16:35:02:536,0.0,0.0,0.0
-0.13257095217704773,0.044968608766794205,9.828974723815918,0.0005731190285175073,-0.0050088978252076,0.0006960539514092252,2.96500301361084,2019-06-20 16:35:02:542,0.0,0.0,0.0
-0.1613079458475113,-0.024479132145643234,9.759527206420898,0.0019050247965007928,-0.002211895725446417,-0.0017013763269309588,2.9691085815429688,2019-06-20 16:35:02:546,0.0,0.0,0.0
-0.13736045360565186,-0.002926384098827839,9.778684616088867,0.0020382153602954054,-0.000879990087500294,0.0009624350789984497,2.975027084350586,2019-06-20 16:35:02:552,0.0,0.0,0.0
-0.16609744727611542,0.011442113667726517,9.819396018981934,-0.0007587866744471969,-0.006074422335564498,0.0029602936659547966,2.9791345596313477,2019-06-20 16:35:02:556,0.0,0.0,0.0
-0.11580769717693329,0.011442113667726517,9.824185371398926,0.0003067379009282828,-0.005541660080386049,-0.0030332819648770815,2.9841089248657227,2019-06-20 16:35:02:561,0.0,0.0,0.0
-0.14933419227600098,0.009047363884747028,9.783474922180176,4.035674489342885e-05,-0.003410611059672253,0.0014951973341768988,2.989985466003418,2019-06-20 16:35:02:567,0.0,0.0,0.0
-0.17088694870471954,-0.031663380563259125,9.824185371398926,-0.0010251678020364214,-0.003144229932083028,-0.001834566890725571,2.994112491607666,2019-06-20 16:35:02:571,0.0,0.0,0.0
-0.17567645013332367,0.03538960963487625,9.828974723815918,-0.0026234547626275127,-0.0032774204958776402,-0.0032996633525406317,2.999112129211426,2019-06-20 16:35:02:576,0.0,0.0,0.0
-0.13736045360565186,0.016231613233685493,9.788264274597168,0.0023045963578474673,-0.007139946845921397,-0.0014349951993417342,3.0041093826293945,2019-06-20 16:35:02:581,0.0,0.0,0.0
-0.15172894299030304,0.030600111931562424,9.766711235046387,0.0035033116920733026,-0.004609325873749438,-0.004098806735308305,3.0091066360473633,2019-06-20 16:35:02:586,0.0,0.0,0.0
-0.13736045360565186,0.03538960963487625,9.845738410949707,0.0011058812836959564,-0.0012795617788841308,-0.0048979501180759786,3.0141239166259766,2019-06-20 16:35:02:591,0.0,0.0,0.0
-0.16370269656181335,0.025810612365603447,9.83376407623291,-0.0008919772382418092,-0.006873565718332173,0.0005628633876146128,3.0202832221984863,2019-06-20 16:35:02:597,0.0,0.0,0.0
-0.11580769717693329,0.023415861651301384,9.807421684265137,0.0003067379009282828,-0.0007467995237056817,-0.0006358518165740604,3.0241355895996094,2019-06-20 16:35:02:601,0.0,0.0,0.0
-0.20920294523239136,0.025810612365603447,9.783474922180176,0.0021714059240900176,-0.003144229932083028,0.0005628633876146128,3.0291085243225098,2019-06-20 16:35:02:606,0.0,0.0,0.0
-0.15891319513320923,0.009047363884747028,9.814606666564941,-0.001957501813617289,-0.005541660080386049,0.0008292445152038374,3.0350027084350586,2019-06-20 16:35:02:612,0.0,0.0,0.0
-0.1613079458475113,-0.007715883664786816,9.814606666564941,-9.283383109216743e-05,-0.0050088978252076,-0.0031664725286716937,3.0399961471557617,2019-06-20 16:35:02:617,0.0,0.0,0.0
-0.16370269656181335,0.004257864784449339,9.896027565002441,-0.00035921498306336,-0.014598618938568335,-0.0023673291459040203,3.0441064834594727,2019-06-20 16:35:02:621,0.0,0.0,0.0
-0.1613079458475113,0.02102111279964447,9.814606666564941,-0.0010251678020364214,0.00018553447162054023,-0.0023673291459040203,3.049989700317383,2019-06-20 16:35:02:627,0.0,0.0,0.0
-0.13017620146274567,0.0018631152343004942,9.809816360473633,0.0035033116920733026,-0.003144229932083028,0.0018947690255607357,3.054110527038574,2019-06-20 16:35:02:631,0.0,0.0,0.0
-0.16370269656181335,0.009047363884747028,9.797842979431152,0.0027041680492313038,-0.003144229932083028,0.0009624350789984497,3.059107780456543,2019-06-20 16:35:02:636,0.0,0.0,0.0
-0.16849219799041748,0.023415861651301384,9.802632331848145,-0.0018243112498226766,-0.005808041207975274,0.004425389867695532,3.064114570617676,2019-06-20 16:35:02:641,0.0,0.0,0.0
-0.1541236937046051,0.004257864784449339,9.778684616088867,-0.001957501813617289,-0.003943373314850702,-0.00023628007642628753,3.0700016021728516,2019-06-20 16:35:02:647,0.0,0.0,0.0
-0.16849219799041748,-0.007715883664786816,9.771500587463379,0.0027041680492313038,-0.008205471356278294,0.0009624350789984497,3.0741233825683594,2019-06-20 16:35:02:651,0.0,0.0,0.0
-0.1349657028913498,0.030600111931562424,9.888843536376953,-0.0030230264540113496,-0.005142088649076538,0.0024275314107763475,3.0791091918945312,2019-06-20 16:35:02:656,0.0,0.0,0.0
-0.17807118594646454,0.02820536121726036,9.809816360473633,-0.002756645326422125,-0.003676992187261477,0.0024275314107763475,3.0841212272644043,2019-06-20 16:35:02:661,0.0,0.0,0.0
-0.16370269656181335,-0.005321133881807327,9.855317115783691,-0.001557930122233452,-0.007139946845921397,-0.0005026612202701574,3.089114189147949,2019-06-20 16:35:02:666,0.0,0.0,0.0
-0.15651844441890717,0.030600111931562424,9.817001342773438,0.0008395001561067318,-0.005541660080386049,-0.0036992350439244686,3.09498929977417,2019-06-20 16:35:02:672,0.0,0.0,0.0
-0.11820244789123535,0.044968608766794205,9.812211036682129,0.0003067379009282828,-0.0038101827510560898,-0.0006358518165740604,3.0991058349609375,2019-06-20 16:35:02:676,0.0,0.0,0.0
-0.1277814507484436,-0.024479132145643234,9.824185371398926,-0.001957501813617289,-0.0038101827510560898,-0.0029000914010824694,3.1050071716308594,2019-06-20 16:35:02:682,0.0,0.0,0.0
-0.10622870177030563,0.004257864784449339,9.857711791992188,0.0011058812836959564,-0.003011039368288416,-0.00023628007642628753,3.109999656677246,2019-06-20 16:35:02:687,0.0,0.0,0.0
-0.1421499401330948,0.011442113667726517,9.795448303222656,0.0007063095923121196,-0.0014127523426787432,-0.0027669008372878568,3.1141481399536133,2019-06-20 16:35:02:691,0.0,0.0,0.0
-0.09186020493507385,0.02102111279964447,9.840948104858398,0.0028373588731002413,-0.003144229932083028,-0.0032996633525406317,3.1191353797912598,2019-06-20 16:35:02:696,0.0,0.0,0.0
-0.09904444962739944,-0.005321133881807327,9.843342781066895,-0.0006255961106525846,-0.003144229932083028,-0.003566044480129856,3.124110221862793,2019-06-20 16:35:02:701,0.0,0.0,0.0
-0.11101820319890976,0.06891610473394394,9.807421684265137,0.00043992846472289506,-0.005408469776665762,-0.0014349951993417342,3.129110336303711,2019-06-20 16:35:02:706,0.0,0.0,0.0
-0.11580769717693329,0.025810612365603447,9.759527206420898,-0.0047545040434156345,-0.005941232031844212,-0.004365187862897529,3.135000228881836,2019-06-20 16:35:02:712,0.0,0.0,0.0
-0.11820244789123535,-0.02208438143134117,9.814606666564941,0.0015054529750797934,-0.005142088649076538,0.00042967279131070986,3.1391100883483887,2019-06-20 16:35:02:716,0.0,0.0,0.0
-0.12538670003414154,0.02820536121726036,9.848133087158203,-0.0012915489946442272,-0.006074422335564498,0.0005628633876146128,3.144108772277832,2019-06-20 16:35:02:721,0.0,0.0,0.0
-0.11101820319890976,0.03538960963487625,9.898422241210938,-0.0008919772382418092,-0.005142088649076538,0.0013620067703822866,3.149106979370117,2019-06-20 16:35:02:726,0.0,0.0,0.0
-0.09425495564937592,-0.01490013301372528,9.76431655883789,-0.001158358430849615,-0.0026114674168302536,-0.0031664725286716937,3.155024528503418,2019-06-20 16:35:02:732,0.0,0.0,0.0
-0.13975520431995392,0.03299486264586449,9.843342781066895,0.0011058812836959564,0.000851487306848247,-0.005430712373254428,3.15999698638916,2019-06-20 16:35:02:737,0.0,0.0,0.0
-0.12538670003414154,-0.0005316344322636724,9.83376407623291,0.0019050247965007928,-0.0007467995237056817,-0.0014349951993417342,3.164139747619629,2019-06-20 16:35:02:741,0.0,0.0,0.0
-0.07988645136356354,0.03538960963487625,9.788264274597168,-0.00022602440301410239,-0.0018123241640997428,-0.0031664725286716937,3.16910982131958,2019-06-20 16:35:02:746,0.0,0.0,0.0
-0.08946545422077179,0.004257864784449339,9.778684616088867,-0.0006255961106525846,-0.004875707001338663,-0.0026337102734932446,3.1750001907348633,2019-06-20 16:35:02:752,0.0,0.0,0.0
-0.13017620146274567,-0.017294881865382195,9.800237655639648,0.0009726907199013442,-0.004742516697618376,-0.00023628007642628753,3.17911434173584,2019-06-20 16:35:02:756,0.0,0.0,0.0
-0.07509695738554001,0.02102111279964447,9.838553428649902,-0.00022602440301410239,-0.003943373314850702,-0.006895808835069488,3.1841068267822266,2019-06-20 16:35:02:761,0.0,0.0,0.0
-0.1277814507484436,0.009047363884747028,9.840948104858398,-0.0012915489946442272,-0.005808041207975274,0.0021611501531499603,3.1891069412231445,2019-06-20 16:35:02:766,0.0,0.0,0.0
-0.09186020493507385,0.009047363884747028,9.769105911254883,0.00017354732087902514,-0.0035438016234668654,3.010106944941304e-05,3.195002555847168,2019-06-20 16:35:02:772,0.0,0.0,0.0
-0.13257095217704773,0.018626363947987556,9.828974723815918,0.0039028833834571395,-0.005142088649076538,0.0012288162065876742,3.1991095542907715,2019-06-20 16:35:02:776,0.0,0.0,0.0
-0.09186020493507385,0.037784360349178314,9.802632331848145,0.003636502255867915,-0.0067403754146118855,0.002027959589355348,3.2041139602661133,2019-06-20 16:35:02:781,0.0,0.0,0.0
-0.1421499401330948,-0.007715883664786816,9.785869598388672,0.0003067379009282828,-0.00847185248386752,-0.000902232944163285,3.2100038528442383,2019-06-20 16:35:02:787,0.0,0.0,0.0
-0.11580769717693329,0.037784360349178314,9.773895263671875,-0.0014247395584388394,-0.006607184590742948,0.0008292445152038374,3.2141218185424805,2019-06-20 16:35:02:791,0.0,0.0,0.0
-0.1732816994190216,0.016231613233685493,9.790658950805664,0.0015054529750797934,-0.003410611059672253,-0.0038324256077190803,3.2191085815429688,2019-06-20 16:35:02:796,0.0,0.0,0.0
-0.10143920034170151,-0.017294881865382195,9.778684616088867,-9.283383109216743e-05,-0.006074422335564498,-0.0006358518165740604,3.2241148948669434,2019-06-20 16:35:02:801,0.0,0.0,0.0
-0.11341295391321182,-0.017294881865382195,9.836158752441406,-0.00448812291582641,-0.005142088649076538,-0.0006358518165740604,3.2291126251220703,2019-06-20 16:35:02:806,0.0,0.0,0.0
-0.1086234524846077,0.030600111931562424,9.82179069519043,-0.0026234547626275127,-0.002211895725446417,0.0002964822275160976,3.2349977493286133,2019-06-20 16:35:02:812,0.0,0.0,0.0
-0.09186020493507385,-0.0005316344322636724,9.836158752441406,-0.0007587866744471969,-0.0028778488044938037,-0.0011686140717525096,3.239103317260742,2019-06-20 16:35:02:816,0.0,0.0,0.0
-0.09664970636367798,0.006652614567428827,9.83376407623291,0.00043992846472289506,-0.0035438016234668654,-0.0029000914010824694,3.2441234588623047,2019-06-20 16:35:02:821,0.0,0.0,0.0
-0.12059719860553741,0.009047363884747028,9.812211036682129,-0.0030230264540113496,-0.002211895725446417,0.001095625642793062,3.2491111755371094,2019-06-20 16:35:02:826,0.0,0.0,0.0
-0.1349657028913498,-0.005321133881807327,9.769105911254883,0.0015054529750797934,-0.005541660080386049,-0.001834566890725571,3.2550230026245117,2019-06-20 16:35:02:832,0.0,0.0,0.0
-0.1469394415616989,0.006652614567428827,9.788264274597168,0.0019050247965007928,-0.008072281052558009,0.0006960539514092252,3.259110450744629,2019-06-20 16:35:02:836,0.0,0.0,0.0
-0.11341295391321182,0.011442113667726517,9.828974723815918,-0.0004924055468579722,-0.003144229932083028,-0.0010354235079578973,3.26505184173584,2019-06-20 16:35:02:842,0.0,0.0,0.0
-0.10143920034170151,0.016231613233685493,9.809816360473633,0.0020382153602954054,-0.0050088978252076,-0.0027669008372878568,3.269123077392578,2019-06-20 16:35:02:846,0.0,0.0,0.0
-0.1421499401330948,0.023415861651301384,9.867290496826172,-0.0016911206860280642,-0.004875707001338663,-0.0015681857631363464,3.274111747741699,2019-06-20 16:35:02:851,0.0,0.0,0.0
-0.15651844441890717,-0.0005316344322636724,9.75234317779541,4.035674489342885e-05,-0.0040765638786453146,-0.0023673291459040203,3.2791075706481934,2019-06-20 16:35:02:856,0.0,0.0,0.0
