ACCELEROMETER X (m/s²),ACCELEROMETER Y (m/s²),ACCELEROMETER Z (m/s²),GYROSCOPE X (rad/s),GYROSCOPE Y (rad/s),GYROSCOPE Z (rad/s),Time since start in ms ,YYYY-MO-DD HH-MI-SS_SSS,MagX,MagY,MagZ
-0.09425495564937592,0.28444358706474304,9.812211036682129,0.0011058812836959564,-0.004875707001338663,-0.005697093500843653,0.0,2019-06-20 14:47:13:126,0.0,0.0,0.0
-0.07509695738554001,0.2796540856361389,9.783474922180176,-0.002889835890216737,-0.003676992187261477,-0.0030332819648770815,0.005018711090087891,2019-06-20 14:47:13:131,0.0,0.0,0.0
-0.09425495564937592,0.2796540856361389,9.776289939880371,0.0032369305644840782,-0.002211895725446417,-0.00023628007642628753,0.009159088134765625,2019-06-20 14:47:13:135,0.0,0.0,0.0
-0.06791270524263382,0.3395228087902069,9.773895263671875,-0.0012915489946442272,0.00031872505166979784,0.0013620067703822866,0.015034198760986328,2019-06-20 14:47:13:141,0.0,0.0,0.0
-0.10143920034170151,0.3012068271636963,9.797842979431152,-0.0004924055468579722,-0.0014127523426787432,-0.0019677574545201833,0.019123077392578125,2019-06-20 14:47:13:145,0.0,0.0,0.0
-0.09186020493507385,0.33473333716392517,9.79305362701416,0.0020382153602954054,-0.002744658240699191,0.0009624350789984497,0.02501964569091797,2019-06-20 14:47:13:151,0.0,0.0,0.0
-0.11580769717693329,0.2988120913505554,9.826580047607422,0.0020382153602954054,-0.0012795617788841308,-0.0006358518165740604,0.029127120971679688,2019-06-20 14:47:13:155,0.0,0.0,0.0
-0.09904444962739944,0.31078583002090454,9.802632331848145,-0.001557930122233452,-0.005408469776665762,0.002027959589355348,0.03500699996948242,2019-06-20 14:47:13:161,0.0,0.0,0.0
-0.1086234524846077,0.3131805658340454,9.82179069519043,-0.0008919772382418092,-0.0016791336003051302,-0.0026337102734932446,0.03912496566772461,2019-06-20 14:47:13:165,0.0,0.0,0.0
-0.06072845682501793,0.2988120913505554,9.795448303222656,0.0028373588731002413,-0.0026114674168302536,0.00042967279131070986,0.04501628875732422,2019-06-20 14:47:13:171,0.0,0.0,0.0
-0.1277814507484436,0.32275956869125366,9.788264274597168,0.0005731190285175073,-0.0032774204958776402,0.0005628633876146128,0.05001544952392578,2019-06-20 14:47:13:176,0.0,0.0,0.0
-0.06072845682501793,0.30360156297683716,9.769105911254883,0.0007063095923121196,0.00031872505166979784,0.0018947690255607357,0.05412864685058594,2019-06-20 14:47:13:180,0.0,0.0,0.0
-0.07030745595693588,0.2868383228778839,9.769105911254883,0.002970549436894854,-0.005808041207975274,0.0002964822275160976,0.0592188835144043,2019-06-20 14:47:13:185,0.0,0.0,0.0
-0.051149457693099976,0.31797006726264954,9.76431655883789,-0.00035921498306336,-0.0020787052916889674,-0.002234138582109408,0.06501388549804688,2019-06-20 14:47:13:191,0.0,0.0,0.0
-0.06072845682501793,0.2820488214492798,9.812211036682129,4.035674489342885e-05,-0.007672709101099845,-0.0025005197096986324,0.06911945343017578,2019-06-20 14:47:13:195,0.0,0.0,0.0
-0.09186020493507385,0.32275956869125366,9.749947547912598,-0.0012915489946442272,-0.0023450862892410293,0.007222391967456715,0.07501077651977539,2019-06-20 14:47:13:201,0.0,0.0,0.0
-0.0822812020778656,0.3059963285923004,9.80502700805664,0.0007063095923121196,-0.0038101827510560898,-0.0013018046355471218,0.07912731170654297,2019-06-20 14:47:13:205,0.0,0.0,0.0
-0.06791270524263382,0.29162782430648804,9.819396018981934,0.006966266610807547,-0.0015459429064733554,0.0008292445152038374,0.08501052856445312,2019-06-20 14:47:13:211,0.0,0.0,0.0
-0.06551795452833176,0.3131805658340454,9.781079292297363,0.0023045963578474673,-0.004342945006234539,-0.0025005197096986324,0.08912277221679688,2019-06-20 14:47:13:215,0.0,0.0,0.0
-0.09186020493507385,0.29641732573509216,9.812211036682129,0.0005731190285175073,0.0012510590632506652,0.0021611501531499603,0.0950155258178711,2019-06-20 14:47:13:221,0.0,0.0,0.0
-0.08946545422077179,0.34191757440567017,9.915185928344727,0.0019050247965007928,-0.000879990087500294,-0.0023673291459040203,0.09912776947021484,2019-06-20 14:47:13:225,0.0,0.0,0.0
-0.07509695738554001,0.3251543343067169,9.83376407623291,-0.00022602440301410239,-0.0015459429064733554,0.0014951973341768988,0.10504865646362305,2019-06-20 14:47:13:231,0.0,0.0,0.0
-0.06551795452833176,0.29641732573509216,9.860106468200684,0.001372262411285181,-0.0004804183961164572,3.010106944941304e-05,0.10915088653564453,2019-06-20 14:47:13:235,0.0,0.0,0.0
-0.10143920034170151,0.2988120913505554,9.807421684265137,0.0012390718474905686,0.0012510590632506652,-0.00036947065647554515,0.1150064468383789,2019-06-20 14:47:13:241,0.0,0.0,0.0
-0.06791270524263382,0.28444358706474304,9.797842979431152,4.035674489342885e-05,-0.004609325873749438,-0.0019677574545201833,0.11912250518798828,2019-06-20 14:47:13:245,0.0,0.0,0.0
-0.07749170809984207,0.31078583002090454,9.817001342773438,0.0005731190285175073,-0.0026114674168302536,0.0009624350789984497,0.1250162124633789,2019-06-20 14:47:13:251,0.0,0.0,0.0
-0.058333706110715866,0.32994383573532104,9.838553428649902,-0.0008919772382418092,-0.005674850904254987,0.003226674793544021,0.12912750244140625,2019-06-20 14:47:13:255,0.0,0.0,0.0
-0.06791270524263382,0.28923308849334717,9.757132530212402,-0.002223883071243676,-0.0012795617788841308,0.0008292445152038374,0.13500499725341797,2019-06-20 14:47:13:261,0.0,0.0,0.0
-0.0822812020778656,0.3012068271636963,9.867290496826172,-0.001158358430849615,0.00018553447162054023,0.0006960539514092252,0.13912200927734375,2019-06-20 14:47:13:265,0.0,0.0,0.0
-0.06072845682501793,0.2940225899219513,9.82179069519043,0.0003067379009282828,-0.002211895725446417,-0.0010354235079578973,0.14501571655273438,2019-06-20 14:47:13:271,0.0,0.0,0.0
-0.06791270524263382,0.29162782430648804,9.845738410949707,-0.0008919772382418092,-0.005408469776665762,-0.00010308950450435256,0.14912700653076172,2019-06-20 14:47:13:275,0.0,0.0,0.0
-0.10143920034170151,0.29162782430648804,9.797842979431152,0.004169264511046364,-0.0012795617788841308,-0.000902232944163285,0.15503168106079102,2019-06-20 14:47:13:281,0.0,0.0,0.0
-0.07988645136356354,0.30360156297683716,9.80502700805664,-0.001557930122233452,-0.0044761355700291515,0.0008292445152038374,0.15912437438964844,2019-06-20 14:47:13:285,0.0,0.0,0.0
-0.08707070350646973,0.31797006726264954,9.824185371398926,0.0039028833834571395,-0.0016791336003051302,-0.0010354235079578973,0.1650104522705078,2019-06-20 14:47:13:291,0.0,0.0,0.0
-0.11580769717693329,0.3275490701198578,9.79305362701416,0.0005731190285175073,-0.006340803463153723,-0.0011686140717525096,0.16912555694580078,2019-06-20 14:47:13:295,0.0,0.0,0.0
-0.07988645136356354,0.32994383573532104,9.812211036682129,0.00043992846472289506,-0.006607184590742948,-0.00036947065647554515,0.17500925064086914,2019-06-20 14:47:13:301,0.0,0.0,0.0
-0.07509695738554001,0.3275490701198578,9.79305362701416,0.0007063095923121196,-0.004209754442439926,0.0012288162065876742,0.1791238784790039,2019-06-20 14:47:13:305,0.0,0.0,0.0
-0.07030745595693588,0.3514965772628784,9.843342781066895,-0.004354932091957473,-0.0038101827510560898,-0.000902232944163285,0.18502092361450195,2019-06-20 14:47:13:311,0.0,0.0,0.0
-0.09425495564937592,0.29162782430648804,9.771500587463379,-0.003955360400573636,-0.002211895725446417,-0.0007690423803686727,0.18912887573242188,2019-06-20 14:47:13:315,0.0,0.0,0.0
-0.07030745595693588,0.2988120913505554,9.802632331848145,-9.283383109216743e-05,-0.005142088649076538,0.001095625642793062,0.19503402709960938,2019-06-20 14:47:13:321,0.0,0.0,0.0
-0.07030745595693588,0.29641732573509216,9.778684616088867,0.0024377869216420794,-0.001945514727894355,0.0006960539514092252,0.1991591453552246,2019-06-20 14:47:13:325,0.0,0.0,0.0
-0.09664970636367798,0.30360156297683716,9.76431655883789,-0.001158358430849615,-0.005674850904254987,-0.0014349951993417342,0.20501232147216797,2019-06-20 14:47:13:331,0.0,0.0,0.0
-0.0822812020778656,0.3131805658340454,9.788264274597168,0.0015054529750797934,-0.0024782768530356414,-0.00023628007642628753,0.20912456512451172,2019-06-20 14:47:13:335,0.0,0.0,0.0
-0.0631232038140297,0.27246981859207153,9.781079292297363,0.0007063095923121196,-0.0020787052916889674,0.001628387897971511,0.2150120735168457,2019-06-20 14:47:13:341,0.0,0.0,0.0
-0.08946545422077179,0.29641732573509216,9.857711791992188,0.00043992846472289506,-0.001945514727894355,0.0012288162065876742,0.22001171112060547,2019-06-20 14:47:13:346,0.0,0.0,0.0
-0.11101820319890976,0.3131805658340454,9.8505277633667,-0.0026234547626275127,-0.0023450862892410293,0.0013620067703822866,0.22412633895874023,2019-06-20 14:47:13:350,0.0,0.0,0.0
-0.08707070350646973,0.31797006726264954,9.802632331848145,-0.00022602440301410239,0.0013842496270452774,0.0006960539514092252,0.23000335693359375,2019-06-20 14:47:13:356,0.0,0.0,0.0
-0.09425495564937592,0.2868383228778839,9.852922439575195,0.0008395001561067318,-0.004342945006234539,-0.0021009480183147955,0.23413944244384766,2019-06-20 14:47:13:360,0.0,0.0,0.0
-0.0631232038140297,0.3251543343067169,9.817001342773438,0.0012390718474905686,-0.0014127523426787432,0.0022943408469817354,0.24000978469848633,2019-06-20 14:47:13:366,0.0,0.0,0.0
-0.1277814507484436,0.33473333716392517,9.800237655639648,0.004435645638635589,-0.0038101827510560898,-0.0030332819648770815,0.24419307708740234,2019-06-20 14:47:13:370,0.0,0.0,0.0
-0.08707070350646973,0.3514965772628784,9.836158752441406,0.0024377869216420794,-0.002211895725446417,-0.0014349951993417342,0.24915409088134766,2019-06-20 14:47:13:375,0.0,0.0,0.0
-0.07749170809984207,0.2988120913505554,9.814606666564941,0.0011058812836959564,-0.003011039368288416,-0.002234138582109408,0.25501060485839844,2019-06-20 14:47:13:381,0.0,0.0,0.0
-0.08946545422077179,0.3059963285923004,9.771500587463379,0.0035033116920733026,-0.0016791336003051302,0.0022943408469817354,0.259124755859375,2019-06-20 14:47:13:385,0.0,0.0,0.0
-0.08467595279216766,0.2988120913505554,9.809816360473633,-0.0012915489946442272,-0.001945514727894355,-0.0005026612202701574,0.26500558853149414,2019-06-20 14:47:13:391,0.0,0.0,0.0
-0.09904444962739944,0.2940225899219513,9.75234317779541,0.0023045963578474673,-0.004875707001338663,-0.0014349951993417342,0.26912403106689453,2019-06-20 14:47:13:395,0.0,0.0,0.0
-0.04875471070408821,0.29641732573509216,9.749947547912598,0.0027041680492313038,-0.0012795617788841308,-0.0011686140717525096,0.2750091552734375,2019-06-20 14:47:13:401,0.0,0.0,0.0
-0.07509695738554001,0.2988120913505554,9.800237655639648,-0.0018243112498226766,-0.005142088649076538,0.0002964822275160976,0.28000688552856445,2019-06-20 14:47:13:406,0.0,0.0,0.0
-0.11101820319890976,0.28923308849334717,9.747552871704102,-0.0018243112498226766,-0.0015459429064733554,0.0017615784617661236,0.2841300964355469,2019-06-20 14:47:13:410,0.0,0.0,0.0
-0.07270220667123795,0.3323385715484619,9.800237655639648,0.0005731190285175073,-0.003410611059672253,0.003493055921133246,0.290008544921875,2019-06-20 14:47:13:416,0.0,0.0,0.0
-0.1086234524846077,0.30360156297683716,9.807421684265137,-0.005287266298594084,-0.0012795617788841308,0.00016329164746684,0.2941765785217285,2019-06-20 14:47:13:420,0.0,0.0,0.0
-0.10143920034170151,0.3059963285923004,9.800237655639648,-0.003422598145395187,-0.00021403725227258724,-0.0019677574545201833,0.3000063896179199,2019-06-20 14:47:13:426,0.0,0.0,0.0
-0.11580769717693329,0.2796540856361389,9.876870155334473,-0.0016911206860280642,-0.002744658240699191,-0.0005026612202701574,0.30412960052490234,2019-06-20 14:47:13:430,0.0,0.0,0.0
-0.0631232038140297,0.32994383573532104,9.807421684265137,4.035674489342885e-05,-0.0012795617788841308,0.0021611501531499603,0.3100090026855469,2019-06-20 14:47:13:436,0.0,0.0,0.0
-0.07030745595693588,0.33712807297706604,9.766711235046387,0.0015054529750797934,-0.004342945006234539,-0.0011686140717525096,0.31501293182373047,2019-06-20 14:47:13:441,0.0,0.0,0.0
-0.09904444962739944,0.32994383573532104,9.8505277633667,0.0008395001561067318,-0.007539518797379559,0.0005628633876146128,0.3191242218017578,2019-06-20 14:47:13:445,0.0,0.0,0.0
-0.07988645136356354,0.3059963285923004,9.812211036682129,0.0012390718474905686,-0.0011463712150895187,-0.0027669008372878568,0.3250150680541992,2019-06-20 14:47:13:451,0.0,0.0,0.0
-0.04635995998978615,0.2988120913505554,9.790658950805664,-0.002889835890216737,-0.0016791336003051302,-0.004631568990486754,0.32912635803222656,2019-06-20 14:47:13:455,0.0,0.0,0.0
-0.0822812020778656,0.3251543343067169,9.781079292297363,-0.0030230264540113496,-0.003144229932083028,0.0006960539514092252,0.3350105285644531,2019-06-20 14:47:13:461,0.0,0.0,0.0
-0.09664970636367798,0.3012068271636963,9.814606666564941,-0.00648598111267127,-0.005941232031844212,0.0002964822275160976,0.34002113342285156,2019-06-20 14:47:13:466,0.0,0.0,0.0
-0.08467595279216766,0.2988120913505554,9.812211036682129,-0.0004924055468579722,-0.003011039368288416,0.0017615784617661236,0.34414005279541016,2019-06-20 14:47:13:470,0.0,0.0,0.0
-0.058333706110715866,0.3275490701198578,9.79305362701416,0.0023045963578474673,-0.0012795617788841308,0.0030934842297494092,0.34999942779541016,2019-06-20 14:47:13:476,0.0,0.0,0.0
-0.09425495564937592,0.3083910644054413,9.76431655883789,4.035674489342885e-05,-0.0006136089599110694,0.0017615784617661236,0.3550148010253906,2019-06-20 14:47:13:481,0.0,0.0,0.0
-0.09425495564937592,0.32275956869125366,9.824185371398926,0.0037696928196625274,-0.004342945006234539,-0.0019677574545201833,0.3591270446777344,2019-06-20 14:47:13:485,0.0,0.0,0.0
-0.09904444962739944,0.3059963285923004,9.79305362701416,-0.00035921498306336,-0.0028778488044938037,-0.0030332819648770815,0.3650093078613281,2019-06-20 14:47:13:491,0.0,0.0,0.0
-0.09186020493507385,0.3059963285923004,9.781079292297363,-0.0010251678020364214,-0.0012795617788841308,-0.001834566890725571,0.37000560760498047,2019-06-20 14:47:13:496,0.0,0.0,0.0
-0.08467595279216766,0.3251543343067169,9.852922439575195,0.0009726907199013442,-0.0032774204958776402,0.002027959589355348,0.3741297721862793,2019-06-20 14:47:13:500,0.0,0.0,0.0
-0.09664970636367798,0.30360156297683716,9.802632331848145,0.003636502255867915,-0.0024782768530356414,0.006156867457099816,0.37912607192993164,2019-06-20 14:47:13:505,0.0,0.0,0.0
-0.06551795452833176,0.3251543343067169,9.790658950805664,0.0028373588731002413,0.00018553447162054023,0.0024275314107763475,0.3850574493408203,2019-06-20 14:47:13:511,0.0,0.0,0.0
-0.07509695738554001,0.3012068271636963,9.80502700805664,0.0020382153602954054,-0.0018123241640997428,-0.0015681857631363464,0.38915300369262695,2019-06-20 14:47:13:515,0.0,0.0,0.0
-0.09664970636367798,0.32275956869125366,9.848133087158203,0.0007063095923121196,-0.0012795617788841308,0.005757295505641655,0.39500999450683594,2019-06-20 14:47:13:521,0.0,0.0,0.0
-0.06551795452833176,0.3131805658340454,9.781079292297363,0.0017718342327061804,0.00031872505166979784,0.0029602936659547966,0.3991241455078125,2019-06-20 14:47:13:525,0.0,0.0,0.0
-0.11580769717693329,0.28923308849334717,9.845738410949707,0.0017718342327061804,0.00018553447162054023,0.00042967279131070986,0.4050111770629883,2019-06-20 14:47:13:531,0.0,0.0,0.0
-0.08467595279216766,0.2868383228778839,9.797842979431152,0.0021714059240900176,-0.0038101827510560898,-0.003566044480129856,0.41001367568969727,2019-06-20 14:47:13:536,0.0,0.0,0.0
-0.07988645136356354,0.2940225899219513,9.843342781066895,0.0005731190285175073,-0.0023450862892410293,-0.0023673291459040203,0.4142336845397949,2019-06-20 14:47:13:540,0.0,0.0,0.0
-0.10622870177030563,0.3275490701198578,9.83376407623291,0.003370121128278691,-0.0012795617788841308,-0.0025005197096986324,0.42002201080322266,2019-06-20 14:47:13:546,0.0,0.0,0.0
-0.08707070350646973,0.3083910644054413,9.766711235046387,0.0020382153602954054,-0.007006756542201109,0.0017615784617661236,0.42414188385009766,2019-06-20 14:47:13:550,0.0,0.0,0.0
-0.08467595279216766,0.27246981859207153,9.86250114440918,0.0028373588731002413,-0.0020787052916889674,0.0013620067703822866,0.4300065040588379,2019-06-20 14:47:13:556,0.0,0.0,0.0
-0.09425495564937592,0.31078583002090454,9.848133087158203,0.00043992846472289506,-0.0026114674168302536,-0.0005026612202701574,0.4341554641723633,2019-06-20 14:47:13:560,0.0,0.0,0.0
-0.11820244789123535,0.3083910644054413,9.826580047607422,0.0021714059240900176,-0.0003472278323218449,-0.0007690423803686727,0.44001340866088867,2019-06-20 14:47:13:566,0.0,0.0,0.0
-0.0822812020778656,0.2748645842075348,9.836158752441406,0.0021714059240900176,-0.0040765638786453146,0.0008292445152038374,0.4450087547302246,2019-06-20 14:47:13:571,0.0,0.0,0.0
-0.12538670003414154,0.27725932002067566,9.828974723815918,0.003370121128278691,-0.0067403754146118855,-0.0027669008372878568,0.4491276741027832,2019-06-20 14:47:13:575,0.0,0.0,0.0
-0.09425495564937592,0.27246981859207153,9.797842979431152,0.0012390718474905686,-0.0012795617788841308,-0.0010354235079578973,0.45501041412353516,2019-06-20 14:47:13:581,0.0,0.0,0.0
-0.11580769717693329,0.33712807297706604,9.819396018981934,0.0015054529750797934,-0.0044761355700291515,-0.0015681857631363464,0.4591236114501953,2019-06-20 14:47:13:585,0.0,0.0,0.0
-0.08467595279216766,0.29162782430648804,9.797842979431152,-0.00035921498306336,-0.0016791336003051302,0.00016329164746684,0.4650111198425293,2019-06-20 14:47:13:591,0.0,0.0,0.0
-0.07988645136356354,0.2940225899219513,9.80502700805664,0.0015054529750797934,-0.005408469776665762,-0.004631568990486754,0.4691286087036133,2019-06-20 14:47:13:595,0.0,0.0,0.0
-0.02720196172595024,0.3323385715484619,9.80502700805664,0.0008395001561067318,-0.0035438016234668654,0.0024275314107763475,0.4750051498413086,2019-06-20 14:47:13:601,0.0,0.0,0.0
-0.0559389591217041,0.34191757440567017,9.757132530212402,0.0012390718474905686,0.0009846778706428594,-0.0014349951993417342,0.4791436195373535,2019-06-20 14:47:13:605,0.0,0.0,0.0
-0.0822812020778656,0.3012068271636963,9.86250114440918,-0.0012915489946442272,-0.0032774204958776402,-0.0014349951993417342,0.4850125312805176,2019-06-20 14:47:13:611,0.0,0.0,0.0
-0.05354420840740204,0.31078583002090454,9.773895263671875,0.00043992846472289506,0.0007182967430536347,0.0021611501531499603,0.4891214370727539,2019-06-20 14:47:13:615,0.0,0.0,0.0
-0.017622962594032288,0.30360156297683716,9.80502700805664,4.035674489342885e-05,-0.0035438016234668654,-0.0006358518165740604,0.4950523376464844,2019-06-20 14:47:13:621,0.0,0.0,0.0
-0.036780960857868195,0.31557533144950867,9.864895820617676,-0.00022602440301410239,-0.007539518797379559,-0.0026337102734932446,0.4991459846496582,2019-06-20 14:47:13:625,0.0,0.0,0.0
-0.003254464827477932,0.3059963285923004,9.83376407623291,0.003636502255867915,-0.003144229932083028,-0.00010308950450435256,0.5050039291381836,2019-06-20 14:47:13:631,0.0,0.0,0.0
-0.04635995998978615,0.29162782430648804,9.824185371398926,0.003103740000689466,-8.084668035065233e-05,0.0022943408469817354,0.5091218948364258,2019-06-20 14:47:13:635,0.0,0.0,0.0
-0.07030745595693588,0.3514965772628784,9.802632331848145,0.0011058812836959564,-0.0028778488044938037,0.002693912538365572,0.5150113105773926,2019-06-20 14:47:13:641,0.0,0.0,0.0
-0.07270220667123795,0.3275490701198578,9.814606666564941,0.00043992846472289506,-0.0035438016234668654,3.010106944941304e-05,0.5191278457641602,2019-06-20 14:47:13:645,0.0,0.0,0.0
-0.09904444962739944,0.3467070758342743,9.778684616088867,0.001372262411285181,-0.0014127523426787432,-0.0010354235079578973,0.5250530242919922,2019-06-20 14:47:13:651,0.0,0.0,0.0
-0.06072845682501793,0.27725932002067566,9.771500587463379,0.001372262411285181,-0.0011463712150895187,-0.0034328539163352434,0.5291528701782227,2019-06-20 14:47:13:655,0.0,0.0,0.0
-0.07270220667123795,0.35628607869148254,9.797842979431152,0.0021714059240900176,-0.002744658240699191,0.005357724074332143,0.5350103378295898,2019-06-20 14:47:13:661,0.0,0.0,0.0
-0.07749170809984207,0.31078583002090454,9.776289939880371,0.003103740000689466,0.00018553447162054023,0.003626246484927858,0.5400104522705078,2019-06-20 14:47:13:666,0.0,0.0,0.0
-0.0822812020778656,0.30360156297683716,9.75234317779541,-0.0010251678020364214,0.000851487306848247,0.0005628633876146128,0.5441493988037109,2019-06-20 14:47:13:670,0.0,0.0,0.0
-0.0822812020778656,0.34431231021881104,9.761921882629395,0.00043992846472289506,-0.007006756542201109,-0.001834566890725571,0.5500040054321289,2019-06-20 14:47:13:676,0.0,0.0,0.0
-0.0822812020778656,0.31078583002090454,9.807421684265137,-0.0010251678020364214,-0.004742516697618376,0.0037594370487224705,0.5541296005249023,2019-06-20 14:47:13:680,0.0,0.0,0.0
-0.05354420840740204,0.3059963285923004,9.826580047607422,0.0024377869216420794,-0.002744658240699191,-0.0014349951993417342,0.5600113868713379,2019-06-20 14:47:13:686,0.0,0.0,0.0
-0.07749170809984207,0.3275490701198578,9.781079292297363,0.0003067379009282828,-0.000879990087500294,0.006290057760820104,0.5641274452209473,2019-06-20 14:47:13:690,0.0,0.0,0.0
-0.09664970636367798,0.3059963285923004,9.754737854003906,0.0019050247965007928,0.0021833931398501137,0.001095625642793062,0.5700006484985352,2019-06-20 14:47:13:696,0.0,0.0,0.0
-0.09425495564937592,0.2868383228778839,9.778684616088867,0.0009726907199013442,-0.003410611059672253,0.0038926276125170823,0.5741682052612305,2019-06-20 14:47:13:700,0.0,0.0,0.0
-0.07030745595693588,0.3203648328781128,9.788264274597168,0.0057675512765817125,-0.0032774204958776402,0.0028271031021601845,0.5791311264038086,2019-06-20 14:47:13:705,0.0,0.0,0.0
-0.12538670003414154,0.2868383228778839,9.781079292297363,0.0017718342327061804,0.0015174401908398898,0.004425389867695532,0.5850067138671875,2019-06-20 14:47:13:711,0.0,0.0,0.0
-0.10143920034170151,0.31557533144950867,9.807421684265137,-0.0004924055468579722,-0.001945514727894355,0.004958152122873981,0.5891690254211426,2019-06-20 14:47:13:715,0.0,0.0,0.0
-0.09664970636367798,0.29641732573509216,9.836158752441406,-0.0007587866744471969,-0.003943373314850702,0.0033598653573386336,0.5950384140014648,2019-06-20 14:47:13:721,0.0,0.0,0.0
-0.1086234524846077,0.3083910644054413,9.776289939880371,-0.0023570736350382883,-0.008205471356278294,0.0037594370487224705,0.6000089645385742,2019-06-20 14:47:13:726,0.0,0.0,0.0
-0.11820244789123535,0.3467070758342743,9.864895820617676,0.001372262411285181,-0.003676992187261477,3.010106944941304e-05,0.6041278839111328,2019-06-20 14:47:13:730,0.0,0.0,0.0
-0.09425495564937592,0.2820488214492798,9.783474922180176,-0.002090692377411901,-0.0044761355700291515,-0.0030332819648770815,0.610011100769043,2019-06-20 14:47:13:736,0.0,0.0,0.0
-0.10383395105600357,0.29162782430648804,9.869685173034668,0.004036073947251752,-0.0024782768530356414,-0.0019677574545201833,0.6150097846984863,2019-06-20 14:47:13:741,0.0,0.0,0.0
-0.06791270524263382,0.31557533144950867,9.807421684265137,0.0020382153602954054,-0.004609325873749438,-0.0006358518165740604,0.6191515922546387,2019-06-20 14:47:13:745,0.0,0.0,0.0
-0.058333706110715866,0.3131805658340454,9.79305362701416,-0.0018243112498226766,-0.003144229932083028,-0.0015681857631363464,0.6250228881835938,2019-06-20 14:47:13:751,0.0,0.0,0.0
-0.06551795452833176,0.2988120913505554,9.87447452545166,0.002970549436894854,-0.0007467995237056817,-0.00010308950450435256,0.629122257232666,2019-06-20 14:47:13:755,0.0,0.0,0.0
-0.06791270524263382,0.29162782430648804,9.800237655639648,-0.0006255961106525846,-0.0016791336003051302,0.002027959589355348,0.6356344223022461,2019-06-20 14:47:13:762,0.0,0.0,0.0
-0.09664970636367798,0.27725932002067566,9.802632331848145,0.0025709774854366916,-0.004742516697618376,-0.0023673291459040203,0.6406087875366211,2019-06-20 14:47:13:767,0.0,0.0,0.0
-0.07270220667123795,0.28444358706474304,9.802632331848145,0.00590074210045065,-0.004609325873749438,0.0006960539514092252,0.6456022262573242,2019-06-20 14:47:13:772,0.0,0.0,0.0
-0.09186020493507385,0.3012068271636963,9.795448303222656,-9.283383109216743e-05,-0.0018123241640997428,-0.0075617613939682245,0.6505951881408691,2019-06-20 14:47:13:777,0.0,0.0,0.0
-0.07270220667123795,0.3059963285923004,9.749947547912598,-0.0023570736350382883,-0.0010131806512949063,-0.0013018046355471218,0.6556124687194824,2019-06-20 14:47:13:782,0.0,0.0,0.0
-0.0631232038140297,0.28444358706474304,9.785869598388672,-0.0012915489946442272,-0.0044761355700291515,0.0025607219745709597,0.6605901718139648,2019-06-20 14:47:13:787,0.0,0.0,0.0
-0.0631232038140297,0.31557533144950867,9.790658950805664,0.0011058812836959564,-0.0038101827510560898,0.002693912538365572,0.6656723022460938,2019-06-20 14:47:13:792,0.0,0.0,0.0
-0.04157045856118202,0.2868383228778839,9.783474922180176,0.003103740000689466,-0.003676992187261477,-0.0029000914010824694,0.670659065246582,2019-06-20 14:47:13:797,0.0,0.0,0.0
-0.0631232038140297,0.32994383573532104,9.776289939880371,-0.0004924055468579722,-0.004342945006234539,0.0005628633876146128,0.6756057739257812,2019-06-20 14:47:13:802,0.0,0.0,0.0
-0.09425495564937592,0.29162782430648804,9.848133087158203,0.005234789021403263,-0.0014127523426787432,-0.00036947065647554515,0.6805915832519531,2019-06-20 14:47:13:807,0.0,0.0,0.0
-0.07509695738554001,0.31797006726264954,9.771500587463379,0.0028373588731002413,0.0007182967430536347,0.0005628633876146128,0.6856989860534668,2019-06-20 14:47:13:812,0.0,0.0,0.0
-0.10622870177030563,0.3012068271636963,9.781079292297363,0.0027041680492313038,-0.003943373314850702,0.0006960539514092252,0.6905999183654785,2019-06-20 14:47:13:817,0.0,0.0,0.0
-0.13017620146274567,0.3275490701198578,9.766711235046387,0.0008395001561067318,-0.0023450862892410293,-0.0023673291459040203,0.6956396102905273,2019-06-20 14:47:13:822,0.0,0.0,0.0
-0.08946545422077179,0.28444358706474304,9.797842979431152,0.0011058812836959564,-0.001945514727894355,-0.0027669008372878568,0.7005929946899414,2019-06-20 14:47:13:827,0.0,0.0,0.0
-0.10383395105600357,0.2988120913505554,9.819396018981934,0.002970549436894854,-0.003011039368288416,0.00016329164746684,0.7056021690368652,2019-06-20 14:47:13:832,0.0,0.0,0.0
-0.08946545422077179,0.2940225899219513,9.778684616088867,0.0005731190285175073,0.00018553447162054023,0.0017615784617661236,0.7105951309204102,2019-06-20 14:47:13:837,0.0,0.0,0.0
-0.09904444962739944,0.3012068271636963,9.778684616088867,-0.0023570736350382883,-0.003676992187261477,-0.0005026612202701574,0.7156891822814941,2019-06-20 14:47:13:842,0.0,0.0,0.0
-0.09664970636367798,0.2820488214492798,9.771500587463379,0.0027041680492313038,-0.0052752789527968245,0.00016329164746684,0.7206058502197266,2019-06-20 14:47:13:847,0.0,0.0,0.0
-0.08946545422077179,0.33473333716392517,9.795448303222656,0.004568835942355876,-0.0020787052916889674,0.00016329164746684,0.7255964279174805,2019-06-20 14:47:13:852,0.0,0.0,0.0
-0.08946545422077179,0.3012068271636963,9.809816360473633,0.002970549436894854,-0.004209754442439926,-0.003965616171513693,0.7306528091430664,2019-06-20 14:47:13:857,0.0,0.0,0.0
-0.0559389591217041,0.3514965772628784,9.848133087158203,0.0024377869216420794,-0.0012795617788841308,-0.00010308950450435256,0.7356147766113281,2019-06-20 14:47:13:862,0.0,0.0,0.0
-0.11101820319890976,0.3395228087902069,9.814606666564941,0.0008395001561067318,-0.002744658240699191,-0.003965616171513693,0.7406005859375,2019-06-20 14:47:13:867,0.0,0.0,0.0
-0.08946545422077179,0.27007508277893066,9.788264274597168,0.0025709774854366916,-0.0032774204958776402,0.0014951973341768988,0.7456111907958984,2019-06-20 14:47:13:872,0.0,0.0,0.0
-0.09904444962739944,0.3131805658340454,9.831369400024414,0.0057675512765817125,-0.0003472278323218449,-0.0015681857631363464,0.7505965232849121,2019-06-20 14:47:13:877,0.0,0.0,0.0
-0.0822812020778656,0.32994383573532104,9.800237655639648,0.005101598717682976,-0.0044761355700291515,3.010106944941304e-05,0.7556009292602539,2019-06-20 14:47:13:882,0.0,0.0,0.0
-0.08946545422077179,0.31078583002090454,9.82179069519043,0.0019050247965007928,-0.0026114674168302536,0.0013620067703822866,0.7602910995483398,2019-06-20 14:47:13:886,0.0,0.0,0.0
-0.1277814507484436,0.3083910644054413,9.852922439575195,-0.004088550964368248,-0.005941232031844212,0.0030934842297494092,0.7641434669494629,2019-06-20 14:47:13:890,0.0,0.0,0.0
-0.12059719860553741,0.2748645842075348,9.778684616088867,0.0037696928196625274,-0.001945514727894355,0.0008292445152038374,0.7691197395324707,2019-06-20 14:47:13:895,0.0,0.0,0.0
-0.12059719860553741,0.3395228087902069,9.814606666564941,-0.00035921498306336,-0.007006756542201109,-0.001834566890725571,0.7751274108886719,2019-06-20 14:47:13:901,0.0,0.0,0.0
-0.10143920034170151,0.31557533144950867,9.80502700805664,0.001372262411285181,-0.003943373314850702,-0.001834566890725571,0.7800302505493164,2019-06-20 14:47:13:906,0.0,0.0,0.0
-0.11580769717693329,0.27246981859207153,9.781079292297363,0.0012390718474905686,-0.0014127523426787432,-0.0011686140717525096,0.785008430480957,2019-06-20 14:47:13:911,0.0,0.0,0.0
-0.09186020493507385,0.2796540856361389,9.797842979431152,0.0012390718474905686,-0.0015459429064733554,-0.0017013763269309588,0.789116382598877,2019-06-20 14:47:13:915,0.0,0.0,0.0
-0.06551795452833176,0.27007508277893066,9.82179069519043,-0.0008919772382418092,-0.0035438016234668654,0.00016329164746684,0.7950401306152344,2019-06-20 14:47:13:921,0.0,0.0,0.0
-0.09904444962739944,0.31797006726264954,9.790658950805664,0.0023045963578474673,-0.0006136089599110694,-0.0021009480183147955,0.799128532409668,2019-06-20 14:47:13:925,0.0,0.0,0.0
-0.12299194931983948,0.29162782430648804,9.795448303222656,0.0039028833834571395,-0.0020787052916889674,0.001095625642793062,0.8050065040588379,2019-06-20 14:47:13:931,0.0,0.0,0.0
-0.06791270524263382,0.3586808145046234,9.836158752441406,0.00017354732087902514,-0.006074422335564498,-0.0007690423803686727,0.8100757598876953,2019-06-20 14:47:13:936,0.0,0.0,0.0
-0.1086234524846077,0.27725932002067566,9.76431655883789,-0.0018243112498226766,0.0019170118822237267,-0.0029000914010824694,0.8141269683837891,2019-06-20 14:47:13:940,0.0,0.0,0.0
-0.06791270524263382,0.25810134410858154,9.840948104858398,0.0019050247965007928,-0.005541660080386049,0.0002964822275160976,0.820002555847168,2019-06-20 14:47:13:946,0.0,0.0,0.0
-0.08707070350646973,0.28444358706474304,9.74276351928711,0.003370121128278691,-0.004342945006234539,0.0017615784617661236,0.8250141143798828,2019-06-20 14:47:13:951,0.0,0.0,0.0
-0.09186020493507385,0.34191757440567017,9.766711235046387,-0.00035921498306336,-0.004609325873749438,-0.0038324256077190803,0.8291225433349609,2019-06-20 14:47:13:955,0.0,0.0,0.0
-0.10622870177030563,0.3012068271636963,9.735579490661621,0.005234789021403263,-0.003410611059672253,-0.00010308950450435256,0.8350095748901367,2019-06-20 14:47:13:961,0.0,0.0,0.0
-0.1086234524846077,0.3083910644054413,9.735579490661621,0.00043992846472289506,-0.005541660080386049,-0.0030332819648770815,0.839137077331543,2019-06-20 14:47:13:965,0.0,0.0,0.0
-0.11580769717693329,0.31557533144950867,9.74276351928711,0.0048352170699451,-0.0023450862892410293,0.005224533250463206,0.8450150489807129,2019-06-20 14:47:13:971,0.0,0.0,0.0
-0.11580769717693329,0.2988120913505554,9.749947547912598,0.004036073947251752,-0.0038101827510560898,0.0006960539514092252,0.8491191864013672,2019-06-20 14:47:13:975,0.0,0.0,0.0
-0.07270220667123795,0.32275956869125366,9.797842979431152,0.0020382153602954054,-0.0015459429064733554,-0.0021009480183147955,0.8550209999084473,2019-06-20 14:47:13:981,0.0,0.0,0.0
-0.09904444962739944,0.30360156297683716,9.807421684265137,-0.0014247395584388394,0.002849345958823175,-0.0030332819648770815,0.8600168228149414,2019-06-20 14:47:13:986,0.0,0.0,0.0
-0.0822812020778656,0.3251543343067169,9.848133087158203,0.0039028833834571395,0.0011178684994560528,-0.0019677574545201833,0.8641214370727539,2019-06-20 14:47:13:990,0.0,0.0,0.0
-0.13257095217704773,0.33712807297706604,9.83376407623291,0.0017718342327061804,-0.003410611059672253,-0.0027669008372878568,0.8700051307678223,2019-06-20 14:47:13:996,0.0,0.0,0.0
-0.0822812020778656,0.31078583002090454,9.785869598388672,-0.001158358430849615,-0.0026114674168302536,0.0029602936659547966,0.8741273880004883,2019-06-20 14:47:14:000,0.0,0.0,0.0
-0.12059719860553741,0.30360156297683716,9.840948104858398,0.0007063095923121196,-0.003943373314850702,-0.0014349951993417342,0.8800115585327148,2019-06-20 14:47:14:006,0.0,0.0,0.0
-0.08946545422077179,0.3059963285923004,9.766711235046387,0.004702026766224813,-0.002211895725446417,0.002027959589355348,0.8850769996643066,2019-06-20 14:47:14:011,0.0,0.0,0.0
-0.0631232038140297,0.31557533144950867,9.814606666564941,0.0011058812836959564,0.00431444216056391,-0.001834566890725571,0.8900294303894043,2019-06-20 14:47:14:016,0.0,0.0,0.0
-0.07030745595693588,0.3131805658340454,9.795448303222656,0.001372262411285181,-0.0018123241640997428,-0.0031664725286716937,0.8941221237182617,2019-06-20 14:47:14:020,0.0,0.0,0.0
-0.0631232038140297,0.3012068271636963,9.82179069519043,0.0021714059240900176,-0.0020787052916889674,0.0017615784617661236,0.8991270065307617,2019-06-20 14:47:14:025,0.0,0.0,0.0
-0.07030745595693588,0.3059963285923004,9.675710678100586,0.0019050247965007928,-0.003011039368288416,0.001628387897971511,0.9050250053405762,2019-06-20 14:47:14:031,0.0,0.0,0.0
-0.1086234524846077,0.31078583002090454,9.797842979431152,0.0035033116920733026,-0.0003472278323218449,-0.00036947065647554515,0.9100027084350586,2019-06-20 14:47:14:036,0.0,0.0,0.0
-0.07509695738554001,0.3131805658340454,9.735579490661621,0.004568835942355876,-0.001945514727894355,0.0005628633876146128,0.91412353515625,2019-06-20 14:47:14:040,0.0,0.0,0.0
-0.11820244789123535,0.33473333716392517,9.757132530212402,0.002970549436894854,-0.0010131806512949063,-0.0038324256077190803,0.920013427734375,2019-06-20 14:47:14:046,0.0,0.0,0.0
-0.03199145942926407,0.3083910644054413,9.76431655883789,0.0023045963578474673,-0.0050088978252076,-0.0036992350439244686,0.9250068664550781,2019-06-20 14:47:14:051,0.0,0.0,0.0
-0.09664970636367798,0.30360156297683716,9.800237655639648,-9.283383109216743e-05,-0.002744658240699191,0.0056241052019213676,0.9291162490844727,2019-06-20 14:47:14:055,0.0,0.0,0.0
-0.09664970636367798,0.3586808145046234,9.781079292297363,0.0008395001561067318,-0.0050088978252076,-0.0013018046355471218,0.9350600242614746,2019-06-20 14:47:14:061,0.0,0.0,0.0
-0.10143920034170151,0.28923308849334717,9.828974723815918,-0.0006255961106525846,-0.003410611059672253,0.0013620067703822866,0.9400119781494141,2019-06-20 14:47:14:066,0.0,0.0,0.0
-0.10143920034170151,0.28923308849334717,9.790658950805664,0.0025709774854366916,0.000851487306848247,0.0009624350789984497,0.9441232681274414,2019-06-20 14:47:14:070,0.0,0.0,0.0
-0.10622870177030563,0.34191757440567017,9.781079292297363,0.004702026766224813,-0.004609325873749438,0.0018947690255607357,0.9500412940979004,2019-06-20 14:47:14:076,0.0,0.0,0.0
-0.07509695738554001,0.34910181164741516,9.771500587463379,-0.0004924055468579722,-0.0014127523426787432,0.0013620067703822866,0.955012321472168,2019-06-20 14:47:14:081,0.0,0.0,0.0
-0.09904444962739944,0.3586808145046234,9.828974723815918,-0.0012915489946442272,0.00031872505166979784,-0.004764759294207041,0.9591131210327148,2019-06-20 14:47:14:085,0.0,0.0,0.0
-0.11580769717693329,0.31797006726264954,9.769105911254883,0.005501170148992487,-0.0028778488044938037,-0.0025005197096986324,0.9650125503540039,2019-06-20 14:47:14:091,0.0,0.0,0.0
-0.09664970636367798,0.33712807297706604,9.848133087158203,0.004435645638635589,5.234389563494396e-05,-0.0031664725286716937,0.9700117111206055,2019-06-20 14:47:14:096,0.0,0.0,0.0
-0.08707070350646973,0.2940225899219513,9.809816360473633,-0.002889835890216737,-0.0015459429064733554,-0.0021009480183147955,0.9741201400756836,2019-06-20 14:47:14:100,0.0,0.0,0.0
-0.06072845682501793,0.29162782430648804,9.857711791992188,0.0028373588731002413,0.001650630754634502,0.0018947690255607357,0.9800148010253906,2019-06-20 14:47:14:106,0.0,0.0,0.0
-0.1277814507484436,0.3083910644054413,9.82179069519043,0.0009726907199013442,-0.0011463712150895187,-0.0015681857631363464,0.9841279983520508,2019-06-20 14:47:14:110,0.0,0.0,0.0
-0.07270220667123795,0.29641732573509216,9.812211036682129,-0.00022602440301410239,-0.000879990087500294,-0.0017013763269309588,0.9900026321411133,2019-06-20 14:47:14:116,0.0,0.0,0.0
-0.1421499401330948,0.34431231021881104,9.814606666564941,0.0016386436689115682,-0.003011039368288416,-0.006895808835069488,0.994140625,2019-06-20 14:47:14:120,0.0,0.0,0.0
-0.10383395105600357,0.3012068271636963,9.826580047607422,-0.004354932091957473,-0.005142088649076538,0.001095625642793062,1.000035285949707,2019-06-20 14:47:14:126,0.0,0.0,0.0
-0.09664970636367798,0.31078583002090454,9.845738410949707,0.001372262411285181,0.001650630754634502,0.0006960539514092252,1.0050086975097656,2019-06-20 14:47:14:131,0.0,0.0,0.0
-0.09904444962739944,0.3251543343067169,9.812211036682129,-0.0023570736350382883,-0.008072281052558009,-0.0010354235079578973,1.0100040435791016,2019-06-20 14:47:14:136,0.0,0.0,0.0
-0.11341295391321182,0.2868383228778839,9.855317115783691,-0.0004924055468579722,-0.0026114674168302536,0.00016329164746684,1.0141258239746094,2019-06-20 14:47:14:140,0.0,0.0,0.0
-0.07749170809984207,0.34191757440567017,9.778684616088867,-0.0006255961106525846,-0.0024782768530356414,0.0006960539514092252,1.0200080871582031,2019-06-20 14:47:14:146,0.0,0.0,0.0
-0.09186020493507385,0.2676803171634674,9.857711791992188,-0.001557930122233452,-0.004209754442439926,3.010106944941304e-05,1.0241212844848633,2019-06-20 14:47:14:150,0.0,0.0,0.0
-0.13257095217704773,0.3323385715484619,9.809816360473633,-0.0014247395584388394,-0.003676992187261477,0.0008292445152038374,1.030029296875,2019-06-20 14:47:14:156,0.0,0.0,0.0
-0.08946545422077179,0.3203648328781128,9.828974723815918,-0.0006255961106525846,-0.0020787052916889674,0.0025607219745709597,1.0350079536437988,2019-06-20 14:47:14:161,0.0,0.0,0.0
-0.05354420840740204,0.32275956869125366,9.761921882629395,0.00017354732087902514,-0.000879990087500294,0.0008292445152038374,1.039116382598877,2019-06-20 14:47:14:165,0.0,0.0,0.0
-0.05354420840740204,0.33473333716392517,9.809816360473633,0.003103740000689466,-0.00647399428702266,0.003493055921133246,1.044145107269287,2019-06-20 14:47:14:170,0.0,0.0,0.0
-0.06551795452833176,0.3012068271636963,9.795448303222656,-0.003422598145395187,-0.005142088649076538,0.0025607219745709597,1.049118995666504,2019-06-20 14:47:14:175,0.0,0.0,0.0
-0.06791270524263382,0.2748645842075348,9.812211036682129,-0.001557930122233452,0.000851487306848247,-0.001834566890725571,1.0550150871276855,2019-06-20 14:47:14:181,0.0,0.0,0.0
-0.08707070350646973,0.2820488214492798,9.812211036682129,4.035674489342885e-05,-0.00647399428702266,-0.0027669008372878568,1.0600109100341797,2019-06-20 14:47:14:186,0.0,0.0,0.0
-0.04875471070408821,0.28444358706474304,9.80502700805664,0.0020382153602954054,-0.0004804183961164572,0.0009624350789984497,1.0650110244750977,2019-06-20 14:47:14:191,0.0,0.0,0.0
-0.08707070350646973,0.3131805658340454,9.749947547912598,0.0025709774854366916,-0.0024782768530356414,0.0005628633876146128,1.0691161155700684,2019-06-20 14:47:14:195,0.0,0.0,0.0
-0.11580769717693329,0.31557533144950867,9.769105911254883,-0.002223883071243676,-0.0038101827510560898,0.0009624350789984497,1.0750360488891602,2019-06-20 14:47:14:201,0.0,0.0,0.0
-0.07988645136356354,0.29641732573509216,9.79305362701416,0.0037696928196625274,-0.002744658240699191,-0.0025005197096986324,1.080019474029541,2019-06-20 14:47:14:206,0.0,0.0,0.0
-0.07030745595693588,0.27246981859207153,9.867290496826172,0.0021714059240900176,0.0019170118822237267,-0.0038324256077190803,1.0850086212158203,2019-06-20 14:47:14:211,0.0,0.0,0.0
-0.10383395105600357,0.28444358706474304,9.776289939880371,-0.003422598145395187,-0.0032774204958776402,0.0009624350789984497,1.0891342163085938,2019-06-20 14:47:14:215,0.0,0.0,0.0
-0.09186020493507385,0.32994383573532104,9.795448303222656,-0.0007587866744471969,-0.0006136089599110694,0.002693912538365572,1.0950126647949219,2019-06-20 14:47:14:221,0.0,0.0,0.0
-0.04157045856118202,0.29162782430648804,9.852922439575195,0.00043992846472289506,-0.0010131806512949063,-0.0027669008372878568,1.0991401672363281,2019-06-20 14:47:14:225,0.0,0.0,0.0
-0.07509695738554001,0.2988120913505554,9.785869598388672,-0.0018243112498226766,-0.0023450862892410293,-0.0034328539163352434,1.1050138473510742,2019-06-20 14:47:14:231,0.0,0.0,0.0
-0.10143920034170151,0.2868383228778839,9.857711791992188,0.0019050247965007928,-0.0038101827510560898,-0.00036947065647554515,1.110011100769043,2019-06-20 14:47:14:236,0.0,0.0,0.0
-0.06551795452833176,0.3203648328781128,9.778684616088867,0.00043992846472289506,-0.0010131806512949063,-0.000902232944163285,1.114121437072754,2019-06-20 14:47:14:240,0.0,0.0,0.0
-0.058333706110715866,0.3083910644054413,9.843342781066895,0.0020382153602954054,5.234389563494396e-05,0.0021611501531499603,1.1191420555114746,2019-06-20 14:47:14:245,0.0,0.0,0.0
-0.07270220667123795,0.31797006726264954,9.812211036682129,0.0027041680492313038,0.0017838213184291141,0.00042967279131070986,1.1250181198120117,2019-06-20 14:47:14:251,0.0,0.0,0.0
-0.0559389591217041,0.3083910644054413,9.79305362701416,-0.0059532188574928195,-0.005408469776665762,-0.0032996633525406317,1.1291170120239258,2019-06-20 14:47:14:255,0.0,0.0,0.0
-0.07030745595693588,0.3251543343067169,9.814606666564941,0.0016386436689115682,-0.0020787052916889674,0.0022943408469817354,1.1350722312927246,2019-06-20 14:47:14:261,0.0,0.0,0.0
-0.09904444962739944,0.3323385715484619,9.824185371398926,0.0023045963578474673,-0.002211895725446417,-0.0021009480183147955,1.1391429901123047,2019-06-20 14:47:14:265,0.0,0.0,0.0
-0.07509695738554001,0.32994383573532104,9.788264274597168,0.0035033116920733026,-0.000879990087500294,-0.00023628007642628753,1.1450090408325195,2019-06-20 14:47:14:271,0.0,0.0,0.0
-0.024807212874293327,0.3323385715484619,9.82179069519043,0.0007063095923121196,-0.001945514727894355,-0.0032996633525406317,1.1491179466247559,2019-06-20 14:47:14:275,0.0,0.0,0.0
-0.08467595279216766,0.3203648328781128,9.790658950805664,0.0028373588731002413,-0.0038101827510560898,-0.00010308950450435256,1.155013084411621,2019-06-20 14:47:14:281,0.0,0.0,0.0
-0.051149457693099976,0.31078583002090454,9.766711235046387,-0.0007587866744471969,-0.003943373314850702,-0.0032996633525406317,1.1591248512268066,2019-06-20 14:47:14:285,0.0,0.0,0.0
-0.08467595279216766,0.31557533144950867,9.79305362701416,-0.002756645326422125,-0.004742516697618376,-0.0013018046355471218,1.1650066375732422,2019-06-20 14:47:14:291,0.0,0.0,0.0
-0.1086234524846077,0.3131805658340454,9.771500587463379,0.004036073947251752,-0.0003472278323218449,-0.000902232944163285,1.1700339317321777,2019-06-20 14:47:14:296,0.0,0.0,0.0
-0.07270220667123795,0.33473333716392517,9.771500587463379,0.0019050247965007928,-0.000879990087500294,0.0014951973341768988,1.175008773803711,2019-06-20 14:47:14:301,0.0,0.0,0.0
-0.09904444962739944,0.3203648328781128,9.769105911254883,-0.0016911206860280642,0.00018553447162054023,-0.002234138582109408,1.179117202758789,2019-06-20 14:47:14:305,0.0,0.0,0.0
-0.08946545422077179,0.3538913130760193,9.802632331848145,0.001372262411285181,-0.005541660080386049,0.0025607219745709597,1.1850337982177734,2019-06-20 14:47:14:311,0.0,0.0,0.0
-0.07509695738554001,0.2940225899219513,9.726000785827637,0.00043992846472289506,-0.002211895725446417,-0.0010354235079578973,1.1900138854980469,2019-06-20 14:47:14:316,0.0,0.0,0.0
-0.10383395105600357,0.3251543343067169,9.800237655639648,-0.0026234547626275127,-0.003011039368288416,-0.0030332819648770815,1.194119930267334,2019-06-20 14:47:14:320,0.0,0.0,0.0
-0.09664970636367798,0.3059963285923004,9.80502700805664,-0.0016911206860280642,-0.005941232031844212,0.001095625642793062,1.199141502380371,2019-06-20 14:47:14:325,0.0,0.0,0.0
-0.10143920034170151,0.30360156297683716,9.79305362701416,-9.283383109216743e-05,-0.002744658240699191,0.0008292445152038374,1.2050042152404785,2019-06-20 14:47:14:331,0.0,0.0,0.0
-0.09904444962739944,0.25091707706451416,9.790658950805664,0.001372262411285181,-0.003410611059672253,-0.0021009480183147955,1.2091169357299805,2019-06-20 14:47:14:335,0.0,0.0,0.0
-0.0822812020778656,0.31557533144950867,9.86250114440918,0.0032369305644840782,-0.008738234131605394,0.0002964822275160976,1.2150158882141113,2019-06-20 14:47:14:341,0.0,0.0,0.0
-0.08707070350646973,0.31557533144950867,9.797842979431152,0.0007063095923121196,-0.0035438016234668654,0.002693912538365572,1.2200136184692383,2019-06-20 14:47:14:346,0.0,0.0,0.0
-0.06551795452833176,0.29162782430648804,9.79305362701416,0.0035033116920733026,-0.005408469776665762,-0.0029000914010824694,1.2250137329101562,2019-06-20 14:47:14:351,0.0,0.0,0.0
-0.0822812020778656,0.32275956869125366,9.843342781066895,0.0015054529750797934,-0.0010131806512949063,-0.0030332819648770815,1.2300128936767578,2019-06-20 14:47:14:356,0.0,0.0,0.0
-0.07749170809984207,0.3203648328781128,9.8505277633667,-0.0007587866744471969,-0.0044761355700291515,0.0008292445152038374,1.234126091003418,2019-06-20 14:47:14:360,0.0,0.0,0.0
-0.07509695738554001,0.25810134410858154,9.80502700805664,0.0007063095923121196,-0.003943373314850702,-0.00023628007642628753,1.2391180992126465,2019-06-20 14:47:14:365,0.0,0.0,0.0
-0.06072845682501793,0.32275956869125366,9.809816360473633,-0.001957501813617289,-0.002744658240699191,-0.000902232944163285,1.2450151443481445,2019-06-20 14:47:14:371,0.0,0.0,0.0
-0.05354420840740204,0.3586808145046234,9.812211036682129,0.0021714059240900176,-0.0014127523426787432,0.001095625642793062,1.250009536743164,2019-06-20 14:47:14:376,0.0,0.0,0.0
-0.07509695738554001,0.27725932002067566,9.867290496826172,0.004702026766224813,-0.00021403725227258724,0.0021611501531499603,1.2550048828125,2019-06-20 14:47:14:381,0.0,0.0,0.0
-0.07030745595693588,0.3012068271636963,9.840948104858398,0.0011058812836959564,-0.00647399428702266,-0.0025005197096986324,1.2591438293457031,2019-06-20 14:47:14:385,0.0,0.0,0.0
-0.07509695738554001,0.31557533144950867,9.807421684265137,0.003370121128278691,-0.0040765638786453146,-0.00023628007642628753,1.2650198936462402,2019-06-20 14:47:14:391,0.0,0.0,0.0
-0.11580769717693329,0.32275956869125366,9.797842979431152,-0.002889835890216737,-8.084668035065233e-05,-0.00023628007642628753,1.2700042724609375,2019-06-20 14:47:14:396,0.0,0.0,0.0
-0.07030745595693588,0.3083910644054413,9.824185371398926,-0.002223883071243676,-0.008738234131605394,-0.001834566890725571,1.2741265296936035,2019-06-20 14:47:14:400,0.0,0.0,0.0
-0.09425495564937592,0.3203648328781128,9.840948104858398,0.0043024550748409765,-0.0003472278323218449,0.0018947690255607357,1.2800264358520508,2019-06-20 14:47:14:406,0.0,0.0,0.0
-0.10383395105600357,0.27007508277893066,9.745158195495605,0.0008395001561067318,-0.0014127523426787432,-0.0032996633525406317,1.284123420715332,2019-06-20 14:47:14:410,0.0,0.0,0.0
-0.12299194931983948,0.29641732573509216,9.848133087158203,0.001372262411285181,-0.005674850904254987,0.0037594370487224705,1.2900056838989258,2019-06-20 14:47:14:416,0.0,0.0,0.0
-0.0631232038140297,0.31557533144950867,9.783474922180176,0.0028373588731002413,0.0013842496270452774,0.0021611501531499603,1.2941226959228516,2019-06-20 14:47:14:420,0.0,0.0,0.0
-0.11580769717693329,0.29162782430648804,9.845738410949707,-0.0012915489946442272,0.0009846778706428594,-0.0021009480183147955,1.300032615661621,2019-06-20 14:47:14:426,0.0,0.0,0.0
-0.1086234524846077,0.2940225899219513,9.773895263671875,0.0009726907199013442,-0.007672709101099845,-0.00010308950450435256,1.305006504058838,2019-06-20 14:47:14:431,0.0,0.0,0.0
-0.09664970636367798,0.32275956869125366,9.797842979431152,-0.0014247395584388394,-0.003144229932083028,-0.000902232944163285,1.310032844543457,2019-06-20 14:47:14:436,0.0,0.0,0.0
-0.06791270524263382,0.3251543343067169,9.845738410949707,0.0027041680492313038,-0.0020787052916889674,0.0018947690255607357,1.3150110244750977,2019-06-20 14:47:14:441,0.0,0.0,0.0
-0.07988645136356354,0.3083910644054413,9.819396018981934,-0.0026234547626275127,-0.002211895725446417,-0.0029000914010824694,1.3191165924072266,2019-06-20 14:47:14:445,0.0,0.0,0.0
-0.11341295391321182,0.3012068271636963,9.776289939880371,0.0016386436689115682,-0.005541660080386049,-0.0005026612202701574,1.324131965637207,2019-06-20 14:47:14:450,0.0,0.0,0.0
-0.07749170809984207,0.33473333716392517,9.817001342773438,-0.0023570736350382883,-0.0004804183961164572,0.00016329164746684,1.3300142288208008,2019-06-20 14:47:14:456,0.0,0.0,0.0
-0.07988645136356354,0.28444358706474304,9.817001342773438,0.0007063095923121196,-0.0010131806512949063,-0.0010354235079578973,1.334122657775879,2019-06-20 14:47:14:460,0.0,0.0,0.0
-0.04875471070408821,0.32275956869125366,9.790658950805664,-0.0014247395584388394,-0.0026114674168302536,0.0030934842297494092,1.340001106262207,2019-06-20 14:47:14:466,0.0,0.0,0.0
-0.0559389591217041,0.33712807297706604,9.783474922180176,-0.001957501813617289,0.0015174401908398898,0.0014951973341768988,1.3441247940063477,2019-06-20 14:47:14:470,0.0,0.0,0.0
-0.1086234524846077,0.3275490701198578,9.860106468200684,-0.0018243112498226766,-0.0024782768530356414,-0.0021009480183147955,1.3500089645385742,2019-06-20 14:47:14:476,0.0,0.0,0.0
-0.043965209275484085,0.2796540856361389,9.881659507751465,0.0019050247965007928,-0.003676992187261477,-0.003965616171513693,1.3541436195373535,2019-06-20 14:47:14:480,0.0,0.0,0.0
-0.09664970636367798,0.2748645842075348,9.812211036682129,-0.0008919772382418092,-0.004342945006234539,-0.0019677574545201833,1.3600239753723145,2019-06-20 14:47:14:486,0.0,0.0,0.0
-0.11341295391321182,0.2940225899219513,9.824185371398926,0.004036073947251752,-0.0023450862892410293,0.0002964822275160976,1.365006446838379,2019-06-20 14:47:14:491,0.0,0.0,0.0
-0.07030745595693588,0.3323385715484619,9.848133087158203,0.0020382153602954054,-0.0012795617788841308,-0.002234138582109408,1.3693642616271973,2019-06-20 14:47:14:495,0.0,0.0,0.0
-0.07988645136356354,0.29641732573509216,9.788264274597168,0.0011058812836959564,-0.004742516697618376,0.0002964822275160976,1.3750200271606445,2019-06-20 14:47:14:501,0.0,0.0,0.0
-0.0631232038140297,0.2940225899219513,9.82179069519043,0.0017718342327061804,-0.0024782768530356414,-0.0019677574545201833,1.3791141510009766,2019-06-20 14:47:14:505,0.0,0.0,0.0
-0.0822812020778656,0.32275956869125366,9.82179069519043,-0.0018243112498226766,-0.0050088978252076,0.0022943408469817354,1.3841304779052734,2019-06-20 14:47:14:510,0.0,0.0,0.0
-0.0822812020778656,0.3514965772628784,9.773895263671875,0.0007063095923121196,-0.0052752789527968245,-0.0023673291459040203,1.3900127410888672,2019-06-20 14:47:14:516,0.0,0.0,0.0
-0.08467595279216766,0.31797006726264954,9.800237655639648,-0.0004924055468579722,-0.005408469776665762,-0.0007690423803686727,1.3950085639953613,2019-06-20 14:47:14:521,0.0,0.0,0.0
-0.09425495564937592,0.31557533144950867,9.840948104858398,0.0009726907199013442,-0.0014127523426787432,-0.0031664725286716937,1.399139404296875,2019-06-20 14:47:14:525,0.0,0.0,0.0
-0.07988645136356354,0.29641732573509216,9.83376407623291,0.0019050247965007928,-0.0026114674168302536,-0.004098806735308305,1.4050226211547852,2019-06-20 14:47:14:531,0.0,0.0,0.0
-0.05354420840740204,0.2868383228778839,9.814606666564941,0.0025709774854366916,-0.0038101827510560898,-0.0007690423803686727,1.4091176986694336,2019-06-20 14:47:14:535,0.0,0.0,0.0
-0.07749170809984207,0.28444358706474304,9.790658950805664,0.0012390718474905686,-0.0040765638786453146,0.0008292445152038374,1.4150142669677734,2019-06-20 14:47:14:541,0.0,0.0,0.0
-0.08467595279216766,0.31078583002090454,9.817001342773438,-0.0007587866744471969,-0.004342945006234539,0.0008292445152038374,1.419144630432129,2019-06-20 14:47:14:545,0.0,0.0,0.0
-0.04635995998978615,0.29641732573509216,9.857711791992188,0.0015054529750797934,-0.0032774204958776402,0.001628387897971511,1.4250059127807617,2019-06-20 14:47:14:551,0.0,0.0,0.0
-0.03438621014356613,0.3203648328781128,9.831369400024414,0.003103740000689466,-0.005808041207975274,0.00016329164746684,1.4291181564331055,2019-06-20 14:47:14:555,0.0,0.0,0.0
-0.04875471070408821,0.34191757440567017,9.761921882629395,0.0005731190285175073,-0.0011463712150895187,-0.000902232944163285,1.434126853942871,2019-06-20 14:47:14:560,0.0,0.0,0.0
-0.09186020493507385,0.31078583002090454,9.807421684265137,0.00043992846472289506,-0.0006136089599110694,3.010106944941304e-05,1.4400105476379395,2019-06-20 14:47:14:566,0.0,0.0,0.0
-0.08707070350646973,0.3251543343067169,9.864895820617676,4.035674489342885e-05,-0.0050088978252076,-0.0005026612202701574,1.4441213607788086,2019-06-20 14:47:14:570,0.0,0.0,0.0
-0.12538670003414154,0.3012068271636963,9.795448303222656,-0.0016911206860280642,-0.002211895725446417,3.010106944941304e-05,1.450033187866211,2019-06-20 14:47:14:576,0.0,0.0,0.0
-0.06791270524263382,0.3131805658340454,9.848133087158203,0.004968407893814039,-0.0044761355700291515,0.00042967279131070986,1.4541239738464355,2019-06-20 14:47:14:580,0.0,0.0,0.0
-0.058333706110715866,0.3203648328781128,9.83376407623291,-0.0018243112498226766,-0.003011039368288416,0.006689629712278266,1.460042953491211,2019-06-20 14:47:14:586,0.0,0.0,0.0
-0.07988645136356354,0.3083910644054413,9.80502700805664,-0.0051540754747251465,-0.003943373314850702,0.0012288162065876742,1.4641437530517578,2019-06-20 14:47:14:590,0.0,0.0,0.0
-0.08467595279216766,0.3395228087902069,9.795448303222656,0.004568835942355876,-0.004875707001338663,0.0018947690255607357,1.4700164794921875,2019-06-20 14:47:14:596,0.0,0.0,0.0
-0.07270220667123795,0.3538913130760193,9.785869598388672,-0.00022602440301410239,-0.0016791336003051302,0.0012288162065876742,1.4741225242614746,2019-06-20 14:47:14:600,0.0,0.0,0.0
-0.07030745595693588,0.31797006726264954,9.836158752441406,0.0008395001561067318,-0.004875707001338663,0.004159008740106307,1.4800024032592773,2019-06-20 14:47:14:606,0.0,0.0,0.0
-0.10143920034170151,0.2796540856361389,9.852922439575195,0.0011058812836959564,-0.006873565718332173,0.00016329164746684,1.4850149154663086,2019-06-20 14:47:14:611,0.0,0.0,0.0
-0.09664970636367798,0.33473333716392517,9.807421684265137,0.002970549436894854,-0.004342945006234539,0.0037594370487224705,1.4891223907470703,2019-06-20 14:47:14:615,0.0,0.0,0.0
-0.08707070350646973,0.34910181164741516,9.87447452545166,0.0015054529750797934,-0.003410611059672253,-0.0034328539163352434,1.4950370788574219,2019-06-20 14:47:14:621,0.0,0.0,0.0
-0.11101820319890976,0.3275490701198578,9.785869598388672,0.0016386436689115682,-0.005142088649076538,0.00016329164746684,1.4991521835327148,2019-06-20 14:47:14:625,0.0,0.0,0.0
-0.11820244789123535,0.3275490701198578,9.840948104858398,0.0005731190285175073,-0.000879990087500294,-0.0030332819648770815,1.5050091743469238,2019-06-20 14:47:14:631,0.0,0.0,0.0
-0.10622870177030563,0.3203648328781128,9.843342781066895,0.003103740000689466,-0.0023450862892410293,0.0006960539514092252,1.5091814994812012,2019-06-20 14:47:14:635,0.0,0.0,0.0
-0.09425495564937592,0.26528558135032654,9.802632331848145,-0.00022602440301410239,-0.002211895725446417,0.00042967279131070986,1.5150184631347656,2019-06-20 14:47:14:641,0.0,0.0,0.0
-0.0822812020778656,0.3059963285923004,9.826580047607422,0.0007063095923121196,-0.0023450862892410293,0.002027959589355348,1.5191154479980469,2019-06-20 14:47:14:645,0.0,0.0,0.0
-0.06072845682501793,0.3514965772628784,9.771500587463379,0.0012390718474905686,-0.005142088649076538,0.0028271031021601845,1.5250153541564941,2019-06-20 14:47:14:651,0.0,0.0,0.0
-0.0822812020778656,0.34910181164741516,9.852922439575195,0.0020382153602954054,-0.00021403725227258724,0.0021611501531499603,1.530013084411621,2019-06-20 14:47:14:656,0.0,0.0,0.0
-0.09664970636367798,0.3586808145046234,9.826580047607422,-0.0004924055468579722,-0.0067403754146118855,-0.0038324256077190803,1.5341215133666992,2019-06-20 14:47:14:660,0.0,0.0,0.0
-0.11341295391321182,0.3083910644054413,9.785869598388672,4.035674489342885e-05,-0.0032774204958776402,-0.0032996633525406317,1.5400018692016602,2019-06-20 14:47:14:666,0.0,0.0,0.0
-0.09664970636367798,0.29162782430648804,9.80502700805664,0.005234789021403263,-0.0006136089599110694,-0.00010308950450435256,1.5450286865234375,2019-06-20 14:47:14:671,0.0,0.0,0.0
-0.08467595279216766,0.28444358706474304,9.809816360473633,4.035674489342885e-05,-0.004875707001338663,0.0012288162065876742,1.5491209030151367,2019-06-20 14:47:14:675,0.0,0.0,0.0
-0.0631232038140297,0.2988120913505554,9.788264274597168,-0.0023570736350382883,-0.004609325873749438,-0.0010354235079578973,1.555013656616211,2019-06-20 14:47:14:681,0.0,0.0,0.0
-0.10143920034170151,0.27007508277893066,9.802632331848145,-0.0006255961106525846,-0.006074422335564498,0.0029602936659547966,1.560030460357666,2019-06-20 14:47:14:686,0.0,0.0,0.0
-0.09425495564937592,0.2940225899219513,9.754737854003906,0.0019050247965007928,-0.00647399428702266,-0.005297521549385491,1.5650081634521484,2019-06-20 14:47:14:691,0.0,0.0,0.0
-0.0559389591217041,0.3012068271636963,9.790658950805664,-0.001557930122233452,-0.0018123241640997428,0.0037594370487224705,1.569117546081543,2019-06-20 14:47:14:695,0.0,0.0,0.0
-0.09186020493507385,0.3467070758342743,9.776289939880371,0.0027041680492313038,-0.0044761355700291515,0.0012288162065876742,1.5750136375427246,2019-06-20 14:47:14:701,0.0,0.0,0.0
-0.10383395105600357,0.3323385715484619,9.840948104858398,0.001372262411285181,0.0031157270864124,-0.0019677574545201833,1.5800118446350098,2019-06-20 14:47:14:706,0.0,0.0,0.0
-0.07030745595693588,0.34191757440567017,9.773895263671875,0.0019050247965007928,-0.003410611059672253,3.010106944941304e-05,1.5850048065185547,2019-06-20 14:47:14:711,0.0,0.0,0.0
-0.08946545422077179,0.2676803171634674,9.783474922180176,-0.0004924055468579722,-0.004342945006234539,-0.0014349951993417342,1.589125156402588,2019-06-20 14:47:14:715,0.0,0.0,0.0
-0.07749170809984207,0.28444358706474304,9.86250114440918,0.0039028833834571395,-0.005142088649076538,0.0022943408469817354,1.5950117111206055,2019-06-20 14:47:14:721,0.0,0.0,0.0
-0.09664970636367798,0.31797006726264954,9.781079292297363,-0.00022602440301410239,-0.004875707001338663,-0.0063630465798910395,1.5991172790527344,2019-06-20 14:47:14:725,0.0,0.0,0.0
-0.10143920034170151,0.31557533144950867,9.795448303222656,0.0005731190285175073,-0.0012795617788841308,-0.0025005197096986324,1.6041383743286133,2019-06-20 14:47:14:730,0.0,0.0,0.0
-0.0559389591217041,0.30360156297683716,9.867290496826172,-0.0036889792729844113,-0.0024782768530356414,0.0014951973341768988,1.6091289520263672,2019-06-20 14:47:14:735,0.0,0.0,0.0
-0.09425495564937592,0.30360156297683716,9.757132530212402,-0.0024902641988329005,-0.0014127523426787432,-0.0021009480183147955,1.6150083541870117,2019-06-20 14:47:14:741,0.0,0.0,0.0
-0.07749170809984207,0.26528558135032654,9.864895820617676,0.00043992846472289506,-0.005142088649076538,-0.0030332819648770815,1.6191167831420898,2019-06-20 14:47:14:745,0.0,0.0,0.0
-0.0822812020778656,0.3275490701198578,9.814606666564941,-0.002090692377411901,-0.0050088978252076,-0.0005026612202701574,1.6250133514404297,2019-06-20 14:47:14:751,0.0,0.0,0.0
-0.10143920034170151,0.28923308849334717,9.790658950805664,-0.002889835890216737,-0.003943373314850702,-0.003566044480129856,1.6300082206726074,2019-06-20 14:47:14:756,0.0,0.0,0.0
-0.07509695738554001,0.3275490701198578,9.781079292297363,0.0016386436689115682,0.0017838213184291141,0.0017615784617661236,1.6350436210632324,2019-06-20 14:47:14:761,0.0,0.0,0.0
-0.03199145942926407,0.2988120913505554,9.812211036682129,-0.0008919772382418092,0.000851487306848247,0.004159008740106307,1.6391420364379883,2019-06-20 14:47:14:765,0.0,0.0,0.0
-0.11101820319890976,0.27246981859207153,9.83376407623291,0.004169264511046364,-0.0010131806512949063,-0.0010354235079578973,1.6450061798095703,2019-06-20 14:47:14:771,0.0,0.0,0.0
-0.07509695738554001,0.3083910644054413,9.788264274597168,0.0021714059240900176,-0.0035438016234668654,-0.0019677574545201833,1.6500368118286133,2019-06-20 14:47:14:776,0.0,0.0,0.0
-0.07030745595693588,0.3203648328781128,9.76431655883789,0.005634360972861425,-0.003410611059672253,-0.0006358518165740604,1.6550259590148926,2019-06-20 14:47:14:781,0.0,0.0,0.0
-0.09904444962739944,0.31078583002090454,9.769105911254883,-0.0007587866744471969,-0.005808041207975274,0.0008292445152038374,1.6591157913208008,2019-06-20 14:47:14:785,0.0,0.0,0.0
-0.09186020493507385,0.3203648328781128,9.769105911254883,0.0019050247965007928,-0.0038101827510560898,0.0002964822275160976,1.6650171279907227,2019-06-20 14:47:14:791,0.0,0.0,0.0
-0.08467595279216766,0.32275956869125366,9.795448303222656,0.0015054529750797934,-0.00021403725227258724,-0.0006358518165740604,1.6691226959228516,2019-06-20 14:47:14:795,0.0,0.0,0.0
-0.07988645136356354,0.3059963285923004,9.759527206420898,0.00017354732087902514,-0.003943373314850702,0.0022943408469817354,1.6750059127807617,2019-06-20 14:47:14:801,0.0,0.0,0.0
-0.0822812020778656,0.32275956869125366,9.807421684265137,-0.0006255961106525846,-0.0028778488044938037,0.0030934842297494092,1.6791162490844727,2019-06-20 14:47:14:805,0.0,0.0,0.0
-0.09425495564937592,0.3012068271636963,9.802632331848145,-0.001158358430849615,-0.005541660080386049,-0.0005026612202701574,1.6850290298461914,2019-06-20 14:47:14:811,0.0,0.0,0.0
-0.04635995998978615,0.34910181164741516,9.800237655639648,0.001372262411285181,-0.006074422335564498,-0.000902232944163285,1.6891202926635742,2019-06-20 14:47:14:815,0.0,0.0,0.0
-0.10383395105600357,0.30360156297683716,9.819396018981934,-0.001158358430849615,-0.0038101827510560898,0.0025607219745709597,1.6950111389160156,2019-06-20 14:47:14:821,0.0,0.0,0.0
-0.10622870177030563,0.3012068271636963,9.759527206420898,-0.002090692377411901,-0.007139946845921397,-0.0023673291459040203,1.7000341415405273,2019-06-20 14:47:14:826,0.0,0.0,0.0
-0.10383395105600357,0.3251543343067169,9.838553428649902,-0.0026234547626275127,-0.0007467995237056817,0.0008292445152038374,1.7041258811950684,2019-06-20 14:47:14:830,0.0,0.0,0.0
-0.08467595279216766,0.2940225899219513,9.781079292297363,0.0048352170699451,-0.007539518797379559,0.0012288162065876742,1.710000991821289,2019-06-20 14:47:14:836,0.0,0.0,0.0
-0.07030745595693588,0.3538913130760193,9.773895263671875,0.0012390718474905686,-0.0028778488044938037,0.0008292445152038374,1.7150144577026367,2019-06-20 14:47:14:841,0.0,0.0,0.0
-0.12059719860553741,0.2820488214492798,9.740368843078613,0.0032369305644840782,-0.0032774204958776402,0.0002964822275160976,1.7191247940063477,2019-06-20 14:47:14:845,0.0,0.0,0.0
-0.1086234524846077,0.2557065784931183,9.795448303222656,-9.283383109216743e-05,-0.003144229932083028,-0.0006358518165740604,1.7250213623046875,2019-06-20 14:47:14:851,0.0,0.0,0.0
-0.08467595279216766,0.3012068271636963,9.812211036682129,-0.0018243112498226766,-0.0012795617788841308,-0.0015681857631363464,1.7300195693969727,2019-06-20 14:47:14:856,0.0,0.0,0.0
-0.11580769717693329,0.3467070758342743,9.828974723815918,-0.0008919772382418092,-0.003676992187261477,-0.000902232944163285,1.7341227531433105,2019-06-20 14:47:14:860,0.0,0.0,0.0
-0.11820244789123535,0.3203648328781128,9.860106468200684,-0.0004924055468579722,-0.005142088649076538,-0.0005026612202701574,1.7400627136230469,2019-06-20 14:47:14:866,0.0,0.0,0.0
-0.09425495564937592,0.28444358706474304,9.867290496826172,0.0032369305644840782,-0.002211895725446417,0.001628387897971511,1.7450246810913086,2019-06-20 14:47:14:871,0.0,0.0,0.0
-0.14454469084739685,0.2796540856361389,9.852922439575195,0.0007063095923121196,-0.0012795617788841308,0.0025607219745709597,1.7491178512573242,2019-06-20 14:47:14:875,0.0,0.0,0.0
-0.12299194931983948,0.27725932002067566,9.828974723815918,0.0007063095923121196,-0.0028778488044938037,0.0021611501531499603,1.7550525665283203,2019-06-20 14:47:14:881,0.0,0.0,0.0
-0.1277814507484436,0.29162782430648804,9.797842979431152,-0.0012915489946442272,-0.003011039368288416,-0.004231997299102917,1.7600207328796387,2019-06-20 14:47:14:886,0.0,0.0,0.0
-0.12538670003414154,0.3203648328781128,9.89123821258545,0.0005731190285175073,-0.005808041207975274,-0.00036947065647554515,1.7641425132751465,2019-06-20 14:47:14:890,0.0,0.0,0.0
-0.1086234524846077,0.31078583002090454,9.867290496826172,-0.0004924055468579722,-0.00647399428702266,-0.0031664725286716937,1.7700161933898926,2019-06-20 14:47:14:896,0.0,0.0,0.0
-0.10383395105600357,0.3012068271636963,9.848133087158203,0.004169264511046364,-0.0003472278323218449,0.00016329164746684,1.775008201599121,2019-06-20 14:47:14:901,0.0,0.0,0.0
-0.10383395105600357,0.31797006726264954,9.828974723815918,0.004169264511046364,-0.0016791336003051302,-0.005963474628432877,1.7791128158569336,2019-06-20 14:47:14:905,0.0,0.0,0.0
-0.1086234524846077,0.32994383573532104,9.814606666564941,-9.283383109216743e-05,-0.007672709101099845,0.00016329164746684,1.7841415405273438,2019-06-20 14:47:14:910,0.0,0.0,0.0
-0.07749170809984207,0.31797006726264954,9.812211036682129,-0.00022602440301410239,-0.007139946845921397,-0.004498378166617817,1.7900142669677734,2019-06-20 14:47:14:916,0.0,0.0,0.0
-0.06791270524263382,0.27246981859207153,9.771500587463379,0.0012390718474905686,-0.0014127523426787432,0.0018947690255607357,1.7941231727600098,2019-06-20 14:47:14:920,0.0,0.0,0.0
-0.07749170809984207,0.31557533144950867,9.812211036682129,0.0021714059240900176,-0.006207613159433436,-0.0023673291459040203,1.7991161346435547,2019-06-20 14:47:14:925,0.0,0.0,0.0
-0.11580769717693329,0.3323385715484619,9.771500587463379,0.004036073947251752,-0.006873565718332173,0.0008292445152038374,1.8041276931762695,2019-06-20 14:47:14:930,0.0,0.0,0.0
-0.07270220667123795,0.3012068271636963,9.86250114440918,0.004435645638635589,-0.0003472278323218449,-0.0015681857631363464,1.810013771057129,2019-06-20 14:47:14:936,0.0,0.0,0.0
-0.11580769717693329,0.24373283982276917,9.814606666564941,0.0012390718474905686,-0.0018123241640997428,-0.001834566890725571,1.8150081634521484,2019-06-20 14:47:14:941,0.0,0.0,0.0
-0.07030745595693588,0.2868383228778839,9.740368843078613,0.0020382153602954054,0.0009846778706428594,-0.005031140421796266,1.8200006484985352,2019-06-20 14:47:14:946,0.0,0.0,0.0
-0.1469394415616989,0.31557533144950867,9.800237655639648,0.0037696928196625274,-0.002744658240699191,-0.0013018046355471218,1.8250641822814941,2019-06-20 14:47:14:951,0.0,0.0,0.0
-0.12538670003414154,0.2940225899219513,9.776289939880371,0.003636502255867915,-0.0044761355700291515,0.0025607219745709597,1.8300175666809082,2019-06-20 14:47:14:956,0.0,0.0,0.0
-0.20920294523239136,0.29162782430648804,9.817001342773438,0.001372262411285181,-0.0067403754146118855,-0.0025005197096986324,1.8350577354431152,2019-06-20 14:47:14:961,0.0,0.0,0.0
-0.1086234524846077,0.3083910644054413,9.8505277633667,-0.003156217017805962,-0.005674850904254987,-0.0013018046355471218,1.8400278091430664,2019-06-20 14:47:14:966,0.0,0.0,0.0
-0.09664970636367798,0.25810134410858154,9.855317115783691,0.0024377869216420794,-0.0038101827510560898,0.003226674793544021,1.8450541496276855,2019-06-20 14:47:14:971,0.0,0.0,0.0
-0.0559389591217041,0.3083910644054413,9.819396018981934,0.0017718342327061804,0.000851487306848247,0.0006960539514092252,1.8491392135620117,2019-06-20 14:47:14:975,0.0,0.0,0.0
-0.09186020493507385,0.34910181164741516,9.75234317779541,-0.00022602440301410239,-0.007139946845921397,-0.0063630465798910395,1.8541326522827148,2019-06-20 14:47:14:980,0.0,0.0,0.0
-0.11820244789123535,0.3395228087902069,9.769105911254883,-0.0004924055468579722,-0.006207613159433436,0.0017615784617661236,1.8600044250488281,2019-06-20 14:47:14:986,0.0,0.0,0.0
-0.10143920034170151,0.31557533144950867,9.807421684265137,-0.0036889792729844113,-0.005142088649076538,-0.00036947065647554515,1.864126205444336,2019-06-20 14:47:14:990,0.0,0.0,0.0
-0.09186020493507385,0.31078583002090454,9.831369400024414,0.0037696928196625274,-0.005674850904254987,0.0006960539514092252,1.870011329650879,2019-06-20 14:47:14:996,0.0,0.0,0.0
-0.03917571157217026,0.2796540856361389,9.800237655639648,-9.283383109216743e-05,-0.0012795617788841308,0.0024275314107763475,1.8741207122802734,2019-06-20 14:47:15:000,0.0,0.0,0.0
-0.036780960857868195,0.33473333716392517,9.781079292297363,0.0005731190285175073,-0.003410611059672253,0.00042967279131070986,1.8800029754638672,2019-06-20 14:47:15:006,0.0,0.0,0.0
-0.04157045856118202,0.2748645842075348,9.785869598388672,0.0027041680492313038,0.0015174401908398898,-0.0010354235079578973,1.8850183486938477,2019-06-20 14:47:15:011,0.0,0.0,0.0
-0.029596710577607155,0.29162782430648804,9.692474365234375,0.003103740000689466,-0.003676992187261477,0.001095625642793062,1.8891215324401855,2019-06-20 14:47:15:015,0.0,0.0,0.0
-0.07749170809984207,0.34191757440567017,9.76431655883789,-0.001557930122233452,-0.0007467995237056817,3.010106944941304e-05,1.8950152397155762,2019-06-20 14:47:15:021,0.0,0.0,0.0
-0.07988645136356354,0.29162782430648804,9.781079292297363,0.0024377869216420794,-0.0010131806512949063,-0.007028999138789776,1.899122714996338,2019-06-20 14:47:15:025,0.0,0.0,0.0
-0.1349657028913498,0.2221800833940506,9.771500587463379,0.0032369305644840782,-0.0040765638786453146,-0.0017013763269309588,1.9041385650634766,2019-06-20 14:47:15:030,0.0,0.0,0.0
-0.0822812020778656,0.29641732573509216,9.869685173034668,0.001372262411285181,0.002716155395028563,-0.0021009480183147955,1.910008430480957,2019-06-20 14:47:15:036,0.0,0.0,0.0
-0.08707070350646973,0.32275956869125366,9.87447452545166,0.0008395001561067318,-0.0024782768530356414,0.00042967279131070986,1.9142322540283203,2019-06-20 14:47:15:040,0.0,0.0,0.0
-0.15891319513320923,0.28923308849334717,9.79305362701416,0.001372262411285181,-0.0015459429064733554,3.010106944941304e-05,1.9201631546020508,2019-06-20 14:47:15:046,0.0,0.0,0.0
-0.10143920034170151,0.33473333716392517,9.759527206420898,0.0020382153602954054,0.0019170118822237267,-0.00010308950450435256,1.9250421524047852,2019-06-20 14:47:15:051,0.0,0.0,0.0
-0.19004493951797485,0.3131805658340454,9.840948104858398,0.0009726907199013442,-0.005142088649076538,-0.004231997299102917,1.9300198554992676,2019-06-20 14:47:15:056,0.0,0.0,0.0
-0.12299194931983948,0.27246981859207153,9.72360610961914,0.0016386436689115682,-0.0026114674168302536,0.0008292445152038374,1.9341230392456055,2019-06-20 14:47:15:060,0.0,0.0,0.0
-0.1541236937046051,0.34910181164741516,9.869685173034668,-0.00022602440301410239,-0.007273137669790334,0.0012288162065876742,1.9400038719177246,2019-06-20 14:47:15:066,0.0,0.0,0.0
-0.051149457693099976,0.36825981736183167,9.896027565002441,0.004568835942355876,0.002050202446018339,0.0021611501531499603,1.9441251754760742,2019-06-20 14:47:15:070,0.0,0.0,0.0
-0.285834938287735,0.2341538369655609,9.852922439575195,0.004036073947251752,0.0021833931398501137,0.007888345046504102,1.9491262435913086,2019-06-20 14:47:15:075,0.0,0.0,0.0
0.006324533838778734,0.3323385715484619,9.71402645111084,0.007765409993575222,-0.0015459429064733554,0.00549091437805243,1.9541206359863281,2019-06-20 14:47:15:080,0.0,0.0,0.0
-0.47262540459632874,0.31797006726264954,9.896027565002441,-0.008617030653533716,-0.0044761355700291515,0.0009624350789984497,1.9600014686584473,2019-06-20 14:47:15:086,0.0,0.0,0.0
0.2122730016708374,0.36107558012008667,9.709237098693848,-0.0032894075816005744,-0.007139946845921397,0.0028271031021601845,1.9641294479370117,2019-06-20 14:47:15:090,0.0,0.0,0.0
-0.42712515592575073,0.10244259983301163,9.979844093322754,0.008164981424884733,0.0004519156154644102,0.006156867457099816,1.9700069427490234,2019-06-20 14:47:15:096,0.0,0.0,0.0
0.14282526075839996,0.4113653004169464,9.704447746276855,0.002970549436894854,0.0009846778706428594,0.0038926276125170823,1.9741277694702148,2019-06-20 14:47:15:100,0.0,0.0,0.0
-0.32894042134284973,0.36825981736183167,9.867290496826172,-0.005420456602314371,0.004447632984432848,0.004159008740106307,1.9791593551635742,2019-06-20 14:47:15:105,0.0,0.0,0.0
-0.010438714176416397,0.21739058196544647,9.704447746276855,0.005101598717682976,-0.00647399428702266,0.008421107301682551,1.9850091934204102,2019-06-20 14:47:15:111,0.0,0.0,0.0
-0.25470319390296936,0.3275490701198578,9.905606269836426,0.0025709774854366916,-0.0006136089599110694,0.007755154222635165,1.9891180992126465,2019-06-20 14:47:15:115,0.0,0.0,0.0
-0.03199145942926407,0.4305233061313629,9.79305362701416,-0.004887694347135921,-0.005408469776665762,0.006156867457099816,1.9950132369995117,2019-06-20 14:47:15:121,0.0,0.0,0.0
-0.15172894299030304,0.1766798496246338,9.87447452545166,0.004169264511046364,-0.004209754442439926,0.004824961819153694,2.0000133514404297,2019-06-20 14:47:15:126,0.0,0.0,0.0
-0.03438621014356613,0.3131805658340454,9.819396018981934,0.003103740000689466,-8.084668035065233e-05,0.004824961819153694,2.0050153732299805,2019-06-20 14:47:15:131,0.0,0.0,0.0
-0.18286068737506866,0.3802335560321808,9.845738410949707,-9.283383109216743e-05,-0.0010131806512949063,0.009486631291890799,2.0091147422790527,2019-06-20 14:47:15:135,0.0,0.0,0.0
-0.00564921461045742,0.29162782430648804,9.706842422485352,0.005101598717682976,-0.003410611059672253,0.01041896549852741,2.015017032623291,2019-06-20 14:47:15:141,0.0,0.0,0.0
-0.2068081945180893,0.34910181164741516,9.817001342773438,4.035674489342885e-05,-0.004875707001338663,0.009619822635908387,2.0200119018554688,2019-06-20 14:47:15:146,0.0,0.0,0.0
-0.0631232038140297,0.3802335560321808,9.831369400024414,-0.0074183153193078805,-0.008072281052558009,0.01641254164950794,2.0241246223449707,2019-06-20 14:47:15:150,0.0,0.0,0.0
-0.022412462159991264,0.2868383228778839,9.83376407623291,0.0048352170699451,-0.002211895725446417,0.014547873236234715,2.030010223388672,2019-06-20 14:47:15:156,0.0,0.0,0.0
-0.17807118594646454,0.2868383228778839,9.86250114440918,-0.0007587866744471969,0.004714014112022072,0.015080635491413166,2.0350122451782227,2019-06-20 14:47:15:161,0.0,0.0,0.0
-0.11101820319890976,0.24373283982276917,9.771500587463379,0.002970549436894854,-0.00021403725227258724,0.01774444676730541,2.039120674133301,2019-06-20 14:47:15:165,0.0,0.0,0.0
-0.3504931628704071,0.2604960799217224,9.838553428649902,0.003103740000689466,-0.0035438016234668654,0.016945303904686387,2.045015335083008,2019-06-20 14:47:15:171,0.0,0.0,0.0
0.054219529032707214,0.41615480184555054,9.761921882629395,-0.0012915489946442272,-0.010736092848598904,0.0168121136009661,2.0491256713867188,2019-06-20 14:47:15:175,0.0,0.0,0.0
-0.29541394114494324,0.20062734186649323,9.984633445739746,0.0012390718474905686,0.0021833931398501137,0.024403976517481975,2.0550127029418945,2019-06-20 14:47:15:181,0.0,0.0,0.0
0.13085152208805084,0.21739058196544647,9.761921882629395,0.008164981424884733,-0.008338662180147232,0.025203118339803696,2.060009002685547,2019-06-20 14:47:15:186,0.0,0.0,0.0
-0.1421499401330948,0.40178632736206055,9.82179069519043,0.0007063095923121196,-0.0006136089599110694,0.026135453586737613,2.0641260147094727,2019-06-20 14:47:15:190,0.0,0.0,0.0
-0.12299194931983948,0.19104833900928497,9.80502700805664,0.007099456914527835,-0.003410611059672253,0.040520033436258436,2.0700087547302246,2019-06-20 14:47:15:196,0.0,0.0,0.0
0.006324533838778734,0.15752184391021729,9.618236541748047,0.01855384592101314,-0.004742516697618376,0.038921749791614994,2.0741376876831055,2019-06-20 14:47:15:200,0.0,0.0,0.0
0.054219529032707214,0.5909715294837952,9.876870155334473,-0.0114140327532949,-0.0052752789527968245,0.042251512586108673,2.0800209045410156,2019-06-20 14:47:15:206,0.0,0.0,0.0
-0.17088694870471954,0.1694955974817276,9.86250114440918,0.008164981424884733,-0.017528811862198457,0.042384703930126263,2.0842161178588867,2019-06-20 14:47:15:210,0.0,0.0,0.0
0.1595885157585144,0.2796540856361389,9.730790138244629,-0.00941617403630139,0.0004519156154644102,0.04531489685375638,2.090230941772461,2019-06-20 14:47:15:216,0.0,0.0,0.0
-0.09425495564937592,0.18146933615207672,9.754737854003906,-0.021136943650227273,0.004980395239611297,0.03479284101361039,2.0950803756713867,2019-06-20 14:47:15:221,0.0,0.0,0.0
-0.338519424200058,-0.3669283390045166,9.682894706726074,0.01415855757586526,-0.0012795617788841308,0.03585836552396729,2.100024700164795,2019-06-20 14:47:15:226,0.0,0.0,0.0
-0.0559389591217041,-0.11069011688232422,9.716421127319336,0.0021714059240900176,-8.084668035065233e-05,0.02853288321489198,2.1041245460510254,2019-06-20 14:47:15:230,0.0,0.0,0.0
-0.20201869308948517,-0.18492735922336578,9.888843536376953,0.010695602397056692,-0.013266712780473562,0.012283633911800632,2.1100597381591797,2019-06-20 14:47:15:236,0.0,0.0,0.0
0.14522001147270203,-0.05800562724471092,9.589499473571777,0.009496887582979506,-0.0028778488044938037,0.005890486329510593,2.115029811859131,2019-06-20 14:47:15:241,0.0,0.0,0.0
-0.29301917552948,0.3993915617465973,10.054080963134766,-0.013278700126270823,-0.00021403725227258724,-0.011024716052628144,2.119119644165039,2019-06-20 14:47:15:245,0.0,0.0,0.0
0.16916751861572266,0.11441635340452194,9.591894149780273,-0.010082126595200126,0.003781679905385461,-0.01621914830069235,2.1250133514404297,2019-06-20 14:47:15:251,0.0,0.0,0.0
-0.2738611698150635,0.13357435166835785,9.639789581298828,0.012027508555151464,-0.003943373314850702,-0.022345914755393166,2.1300106048583984,2019-06-20 14:47:15:256,0.0,0.0,0.0
0.00871928408741951,1.024421215057373,9.95350170135498,-0.01993822987644739,-0.004875707001338663,-0.026341632189380185,2.134122848510742,2019-06-20 14:47:15:260,0.0,0.0,0.0
-0.03917571157217026,0.5334975719451904,9.639789581298828,-0.006086409681361757,-0.010070139249402867,-0.025942060237922022,2.1391191482543945,2019-06-20 14:47:15:265,0.0,0.0,0.0
-0.07509695738554001,0.39460206031799316,9.934343338012695,0.003103740000689466,0.0041812515967692985,-0.013022574769621653,2.145014762878418,2019-06-20 14:47:15:271,0.0,0.0,0.0
0.15240426361560822,0.7777619957923889,9.812211036682129,-0.009682554643741965,-0.006207613159433436,-0.015819577389531488,2.1500120162963867,2019-06-20 14:47:15:276,0.0,0.0,0.0
-0.051149457693099976,0.44249704480171204,9.91279125213623,-0.006885553064129431,0.00018553447162054023,-0.011157907396645732,2.154129981994629,2019-06-20 14:47:15:280,0.0,0.0,0.0
0.3631422519683838,0.6771825551986694,9.740368843078613,-0.017008036952817267,-0.0014127523426787432,-0.020081674390661778,2.1600112915039062,2019-06-20 14:47:15:286,0.0,0.0,0.0
-0.3361246585845947,0.30360156297683716,9.987028121948242,-0.01674165530507939,0.004580823288153135,-0.016085957996972062,2.1650142669677734,2019-06-20 14:47:15:291,0.0,0.0,0.0
0.5235904455184937,-0.029268629848957062,9.429051399230957,0.020818086285744525,0.00018553447162054023,-0.005830284324712591,2.169123649597168,2019-06-20 14:47:15:295,0.0,0.0,0.0
-0.42473042011260986,0.5813925266265869,9.905606269836426,-0.01048169854665829,0.002316583703644726,-0.010092382886288833,2.1750125885009766,2019-06-20 14:47:15:301,0.0,0.0,0.0
0.15719376504421234,0.34191757440567017,9.675710678100586,-0.0036889792729844113,-0.016996049607020006,-0.0031664725286716937,2.1800127029418945,2019-06-20 14:47:15:306,0.0,0.0,0.0
0.03506153076887131,0.02102111279964447,9.766711235046387,0.013093033065508363,-0.007539518797379559,0.0009624350789984497,2.1841282844543457,2019-06-20 14:47:15:310,0.0,0.0,0.0
0.07098277658224106,0.6652087569236755,10.037318229675293,-0.016608465001359103,0.0068450631327358685,-0.009426429287092798,2.190011978149414,2019-06-20 14:47:15:316,0.0,0.0,0.0
0.07816702127456665,0.2221800833940506,9.817001342773438,-0.005420456602314371,0.009908445839937626,-0.004231997299102917,2.1941370964050293,2019-06-20 14:47:15:320,0.0,0.0,0.0
-0.10383395105600357,0.29162782430648804,9.649368286132812,0.011627936603693304,0.005379966670920808,-0.0064962368836113255,2.2000198364257812,2019-06-20 14:47:15:326,0.0,0.0,0.0
-0.1421499401330948,0.5526555180549622,9.692474365234375,-0.01181360366445576,-0.0032774204958776402,-0.007961333345426386,2.2050294876098633,2019-06-20 14:47:15:331,0.0,0.0,0.0
-0.11101820319890976,0.1623113453388214,9.61584186553955,0.0048352170699451,-0.015131381193746784,-0.003566044480129856,2.2100014686584473,2019-06-20 14:47:15:336,0.0,0.0,0.0
-0.036780960857868195,0.31797006726264954,9.924764633178711,0.0057675512765817125,-0.011535235711217928,-0.005830284324712591,2.215024948120117,2019-06-20 14:47:15:341,0.0,0.0,0.0
0.00871928408741951,0.5311027765274048,10.056475639343262,-0.007551505623028167,0.0009846778706428594,-0.007961333345426386,2.2200217247009277,2019-06-20 14:47:15:346,0.0,0.0,0.0
0.07577227801084518,0.3275490701198578,9.840948104858398,0.0003067379009282828,0.00977525553621734,-0.007828142521557448,2.22412109375,2019-06-20 14:47:15:350,0.0,0.0,0.0
-0.17807118594646454,0.3323385715484619,9.91279125213623,-0.0010251678020364214,0.005513157494789746,-0.009026857335634634,2.2291274070739746,2019-06-20 14:47:15:355,0.0,0.0,0.0
-0.10143920034170151,0.44249704480171204,9.697263717651367,-0.002223883071243676,0.0019170118822237267,-0.012623002818163491,2.235020637512207,2019-06-20 14:47:15:361,0.0,0.0,0.0
-0.11341295391321182,0.26528558135032654,9.666131973266602,-0.003156217017805962,-0.007139946845921397,-0.009959191542271246,2.2391204833984375,2019-06-20 14:47:15:365,0.0,0.0,0.0
-0.20201869308948517,0.31557533144950867,9.678105354309082,0.004568835942355876,-0.014065856683389886,-0.01075833544518757,2.244405746459961,2019-06-20 14:47:15:370,0.0,0.0,0.0
-0.012833463959395885,0.5382870435714722,9.963080406188965,-0.007551505623028167,-0.00647399428702266,-0.009426429287092798,2.2500295639038086,2019-06-20 14:47:15:376,0.0,0.0,0.0
-0.017622962594032288,0.44728654623031616,9.972660064697266,-9.283383109216743e-05,-0.0011463712150895187,-0.015819577389531488,2.254122257232666,2019-06-20 14:47:15:380,0.0,0.0,0.0
-0.04157045856118202,0.2940225899219513,9.917580604553223,0.005501170148992487,0.008842921329580727,-0.014620861535157001,2.2600231170654297,2019-06-20 14:47:15:386,0.0,0.0,0.0
-0.03199145942926407,0.44249704480171204,9.79305362701416,4.035674489342885e-05,0.003914870469180074,-0.01368852732852039,2.264136791229248,2019-06-20 14:47:15:390,0.0,0.0,0.0
-0.1613079458475113,0.3730493187904358,9.678105354309082,-9.283383109216743e-05,-0.005541660080386049,-0.009293238983372509,2.270002841949463,2019-06-20 14:47:15:396,0.0,0.0,0.0
-0.09186020493507385,0.20781159400939941,9.642184257507324,0.005101598717682976,-0.014065856683389886,-0.010092382886288833,2.2741246223449707,2019-06-20 14:47:15:400,0.0,0.0,0.0
-0.029596710577607155,0.4496813118457794,9.876870155334473,-9.283383109216743e-05,-0.01246756991785454,-0.011424288004086305,2.280013084411621,2019-06-20 14:47:15:406,0.0,0.0,0.0
0.03027203120291233,0.32994383573532104,9.963080406188965,0.004036073947251752,-0.004609325873749438,-0.007694952217837162,2.2841224670410156,2019-06-20 14:47:15:410,0.0,0.0,0.0
0.0159035325050354,0.21739058196544647,9.8505277633667,0.011494746299973017,0.003382108214001624,-0.005430712373254428,2.290003776550293,2019-06-20 14:47:15:416,0.0,0.0,0.0
-0.0631232038140297,0.32275956869125366,9.881659507751465,0.0035033116920733026,0.010973970350294526,-0.010358763493729408,2.2941274642944336,2019-06-20 14:47:15:420,0.0,0.0,0.0
-0.10622870177030563,0.29641732573509216,9.670921325683594,0.004968407893814039,0.000851487306848247,-0.005963474628432877,2.2991228103637695,2019-06-20 14:47:15:425,0.0,0.0,0.0
-0.11820244789123535,0.2293643355369568,9.68528938293457,0.008964125327801057,-0.015264571497467072,-0.0015681857631363464,2.305037498474121,2019-06-20 14:47:15:431,0.0,0.0,0.0
-0.017622962594032288,0.27725932002067566,9.788264274597168,0.007365838042117059,-0.012334379614134252,-0.003566044480129856,2.3091259002685547,2019-06-20 14:47:15:435,0.0,0.0,0.0
0.006324533838778734,0.2149958312511444,9.888843536376953,0.006033932404170936,-0.0010131806512949063,0.0006960539514092252,2.3150134086608887,2019-06-20 14:47:15:441,0.0,0.0,0.0
-0.008043964393436909,0.22457483410835266,9.89123821258545,0.008697743680063182,0.0035152987777962367,0.002027959589355348,2.319122791290283,2019-06-20 14:47:15:445,0.0,0.0,0.0
-0.11101820319890976,0.3323385715484619,9.79305362701416,0.001372262411285181,0.002716155395028563,0.002693912538365572,2.3250136375427246,2019-06-20 14:47:15:451,0.0,0.0,0.0
-0.04635995998978615,0.31078583002090454,9.63260555267334,0.0027041680492313038,-0.0006136089599110694,0.003493055921133246,2.3291234970092773,2019-06-20 14:47:15:455,0.0,0.0,0.0
-0.14933419227600098,0.2988120913505554,9.737974166870117,0.006300313531760161,-0.013399904124491149,0.009619822635908387,2.3350167274475098,2019-06-20 14:47:15:461,0.0,0.0,0.0
-0.015228213742375374,0.36825981736183167,9.76431655883789,0.007898600297295508,-0.00993694894568258,0.0014951973341768988,2.340010643005371,2019-06-20 14:47:15:466,0.0,0.0,0.0
-0.00564921461045742,0.3514965772628784,9.886448860168457,0.00683307578693861,-0.0003472278323218449,0.015213825795133452,2.3450117111206055,2019-06-20 14:47:15:471,0.0,0.0,0.0
-0.05354420840740204,0.3586808145046234,9.888843536376953,0.0020382153602954054,0.0025829648312339507,0.003493055921133246,2.349123001098633,2019-06-20 14:47:15:475,0.0,0.0,0.0
-0.06791270524263382,0.36825981736183167,9.87447452545166,0.0035033116920733026,0.006179110053688482,0.012683205863258796,2.355013370513916,2019-06-20 14:47:15:481,0.0,0.0,0.0
-0.08946545422077179,0.25810134410858154,9.63260555267334,0.00683307578693861,-0.0052752789527968245,0.01188406196034247,2.3600082397460938,2019-06-20 14:47:15:486,0.0,0.0,0.0
-0.1277814507484436,0.31797006726264954,9.6565523147583,0.0048352170699451,-0.009137805042766256,0.01481425488397259,2.3641252517700195,2019-06-20 14:47:15:490,0.0,0.0,0.0
-0.1349657028913498,0.3538913130760193,9.814606666564941,-0.006352790808950982,-0.010203330593420455,0.010552155802247696,2.370016098022461,2019-06-20 14:47:15:496,0.0,0.0,0.0
-0.11580769717693329,0.15991659462451935,9.83376407623291,0.0020382153602954054,-0.007805899924968783,0.012150443608080345,2.3741273880004883,2019-06-20 14:47:15:500,0.0,0.0,0.0
0.003929784055799246,0.3083910644054413,9.915185928344727,0.006966266610807547,0.00018553447162054023,0.016545731953228227,2.380056381225586,2019-06-20 14:47:15:506,0.0,0.0,0.0
-0.06551795452833176,0.3922073245048523,9.87447452545166,-0.0074183153193078805,0.008443349898271217,0.014681063539955002,2.3850293159484863,2019-06-20 14:47:15:511,0.0,0.0,0.0
-0.07270220667123795,0.24373283982276917,9.706842422485352,-0.0004924055468579722,5.234389563494396e-05,0.015613397746591614,2.389118194580078,2019-06-20 14:47:15:515,0.0,0.0,0.0
-0.13257095217704773,0.2221800833940506,9.761921882629395,0.007632219169706285,-0.00647399428702266,0.017078494208406677,2.394129753112793,2019-06-20 14:47:15:520,0.0,0.0,0.0
-0.0822812020778656,0.4185495674610138,9.826580047607422,-0.0026234547626275127,-0.006607184590742948,0.012949586470699367,2.4000091552734375,2019-06-20 14:47:15:526,0.0,0.0,0.0
-0.10383395105600357,0.18625883758068085,9.838553428649902,-0.005420456602314371,-0.00647399428702266,0.013082776774419656,2.4041194915771484,2019-06-20 14:47:15:530,0.0,0.0,0.0
-0.029596710577607155,0.18146933615207672,9.869685173034668,0.006300313531760161,0.0013842496270452774,0.017478066159864837,2.4100046157836914,2019-06-20 14:47:15:536,0.0,0.0,0.0
-0.06551795452833176,0.3323385715484619,9.91279125213623,-0.0018243112498226766,0.009109302977318602,0.01587977939432949,2.41501522064209,2019-06-20 14:47:15:541,0.0,0.0,0.0
-0.0822812020778656,0.18625883758068085,9.800237655639648,-0.004088550964368248,0.002716155395028563,0.011218109401443733,2.4191250801086426,2019-06-20 14:47:15:545,0.0,0.0,0.0
-0.09904444962739944,0.20781159400939941,9.745158195495605,0.0027041680492313038,5.234389563494396e-05,0.017078494208406677,2.42501163482666,2019-06-20 14:47:15:551,0.0,0.0,0.0
-0.13736045360565186,0.3395228087902069,9.836158752441406,-0.002223883071243676,-0.011002473456039477,0.013349158422157531,2.4291229248046875,2019-06-20 14:47:15:555,0.0,0.0,0.0
-0.04875471070408821,0.1886535882949829,9.843342781066895,0.0019050247965007928,-0.006873565718332173,0.01281639616697908,2.435014247894287,2019-06-20 14:47:15:561,0.0,0.0,0.0
-0.0559389591217041,0.19823259115219116,9.888843536376953,0.004435645638635589,0.003781679905385461,0.016012969698049776,2.4400124549865723,2019-06-20 14:47:15:566,0.0,0.0,0.0
-0.10143920034170151,0.3395228087902069,9.845738410949707,0.003370121128278691,0.004447632984432848,0.00895386903671235,2.4452219009399414,2019-06-20 14:47:15:571,0.0,0.0,0.0
-0.17807118594646454,0.23654858767986298,9.800237655639648,0.0019050247965007928,0.006978253436456156,0.014281492628794142,2.4500532150268555,2019-06-20 14:47:15:576,0.0,0.0,0.0
-0.16849219799041748,0.25091707706451416,9.819396018981934,0.0017718342327061804,0.0012510590632506652,0.012150443608080345,2.4550209045410156,2019-06-20 14:47:15:581,0.0,0.0,0.0
-0.2331504374742508,0.3538913130760193,9.852922439575195,-0.0035557887091897987,-0.008605043307736458,0.013082776774419656,2.4591188430786133,2019-06-20 14:47:15:585,0.0,0.0,0.0
-0.15172894299030304,0.3323385715484619,9.867290496826172,-0.00022602440301410239,-0.0018123241640997428,0.009087060380729938,2.465017795562744,2019-06-20 14:47:15:591,0.0,0.0,0.0
-0.1469394415616989,0.22696958482265472,9.896027565002441,0.00590074210045065,0.002716155395028563,0.010152584891086835,2.470022201538086,2019-06-20 14:47:15:596,0.0,0.0,0.0
-0.15172894299030304,0.3203648328781128,9.893632888793945,0.0007063095923121196,0.0029825365226177876,0.0009624350789984497,2.474167823791504,2019-06-20 14:47:15:600,0.0,0.0,0.0
-0.22357143461704254,0.31557533144950867,9.857711791992188,-0.001557930122233452,-0.0004804183961164572,0.00695601083986749,2.4800243377685547,2019-06-20 14:47:15:606,0.0,0.0,0.0
-0.23554518818855286,0.2868383228778839,9.76431655883789,-0.0026234547626275127,-0.002744658240699191,-0.00036947065647554515,2.485017776489258,2019-06-20 14:47:15:611,0.0,0.0,0.0
-0.21878193318843842,0.3251543343067169,9.824185371398926,-0.00035921498306336,-0.007539518797379559,-0.0019677574545201833,2.490025520324707,2019-06-20 14:47:15:616,0.0,0.0,0.0
-0.1876501888036728,0.2533118426799774,9.881659507751465,-0.0026234547626275127,-0.00021403725227258724,-0.0007690423803686727,2.495142936706543,2019-06-20 14:47:15:621,0.0,0.0,0.0
-0.23075568675994873,0.25091707706451416,9.867290496826172,0.0023045963578474673,-0.0012795617788841308,-0.005430712373254428,2.499173164367676,2019-06-20 14:47:15:625,0.0,0.0,0.0
-0.17567645013332367,0.3012068271636963,9.848133087158203,0.0007063095923121196,0.0004519156154644102,-0.0026337102734932446,2.5050463676452637,2019-06-20 14:47:15:631,0.0,0.0,0.0
-0.20920294523239136,0.30360156297683716,9.788264274597168,-0.002756645326422125,-0.003676992187261477,-0.005563903197123366,2.5100913047790527,2019-06-20 14:47:15:636,0.0,0.0,0.0
-0.2331504374742508,0.3012068271636963,9.745158195495605,0.0003067379009282828,-0.0015459429064733554,-0.005830284324712591,2.5141305923461914,2019-06-20 14:47:15:640,0.0,0.0,0.0
-0.20441344380378723,0.2988120913505554,9.819396018981934,-0.0026234547626275127,-0.00847185248386752,-0.011957050259264756,2.5201053619384766,2019-06-20 14:47:15:646,0.0,0.0,0.0
-0.13257095217704773,0.30360156297683716,9.857711791992188,-0.0010251678020364214,-0.0044761355700291515,-0.0036992350439244686,2.5241355895996094,2019-06-20 14:47:15:650,0.0,0.0,0.0
-0.1421499401330948,0.3251543343067169,9.840948104858398,0.0008395001561067318,-0.0032774204958776402,-0.005164331245665204,2.5300087928771973,2019-06-20 14:47:15:656,0.0,0.0,0.0
-0.12538670003414154,0.26289084553718567,9.845738410949707,0.0011058812836959564,0.0005851061792590224,-0.0048979501180759786,2.5350093841552734,2019-06-20 14:47:15:661,0.0,0.0,0.0
-0.13736045360565186,0.35628607869148254,9.807421684265137,-0.001557930122233452,-0.00021403725227258724,-0.006229855756022102,2.5391221046447754,2019-06-20 14:47:15:665,0.0,0.0,0.0
-0.13975520431995392,0.36107558012008667,9.79305362701416,-0.005287266298594084,-0.00847185248386752,-0.008893667031914347,2.5450100898742676,2019-06-20 14:47:15:671,0.0,0.0,0.0
-0.1469394415616989,0.2676803171634674,9.817001342773438,-0.0006255961106525846,-0.013799476075949313,-0.010358763493729408,2.5491209030151367,2019-06-20 14:47:15:675,0.0,0.0,0.0
-0.07030745595693588,0.3251543343067169,9.836158752441406,-0.005420456602314371,-0.006074422335564498,-0.0156863860455139,2.555008888244629,2019-06-20 14:47:15:681,0.0,0.0,0.0
-0.1086234524846077,0.33712807297706604,9.963080406188965,-0.005420456602314371,0.0032489176502070124,-0.011291097700366019,2.5600051879882812,2019-06-20 14:47:15:686,0.0,0.0,0.0
-0.08707070350646973,0.27246981859207153,9.778684616088867,0.0005731190285175073,0.0007182967430536347,-0.012090240562985041,2.564122200012207,2019-06-20 14:47:15:690,0.0,0.0,0.0
-0.14933419227600098,0.3083910644054413,9.745158195495605,4.035674489342885e-05,-0.0050088978252076,-0.012756194162181081,2.5700063705444336,2019-06-20 14:47:15:696,0.0,0.0,0.0
-0.17088694870471954,0.3012068271636963,9.773895263671875,-0.001557930122233452,-0.010469711200861029,-0.011291097700366019,2.574122428894043,2019-06-20 14:47:15:700,0.0,0.0,0.0
-0.09425495564937592,0.28444358706474304,9.87447452545166,-0.0051540754747251465,-0.009137805042766256,-0.010225573190009121,2.5800061225891113,2019-06-20 14:47:15:706,0.0,0.0,0.0
-0.024807212874293327,0.35628607869148254,9.817001342773438,-9.283383109216743e-05,-0.005408469776665762,-0.006895808835069488,2.585010528564453,2019-06-20 14:47:15:711,0.0,0.0,0.0
-0.08946545422077179,0.3514965772628784,9.881659507751465,-0.001557930122233452,-0.0052752789527968245,-0.011557478307806594,2.5891222953796387,2019-06-20 14:47:15:715,0.0,0.0,0.0
-0.0631232038140297,0.3275490701198578,9.876870155334473,0.0028373588731002413,0.0007182967430536347,-0.010491953797449695,2.595015525817871,2019-06-20 14:47:15:721,0.0,0.0,0.0
-0.0822812020778656,0.34191757440567017,9.800237655639648,0.004702026766224813,-0.0044761355700291515,-0.008893667031914347,2.59912109375,2019-06-20 14:47:15:725,0.0,0.0,0.0
-0.07270220667123795,0.3658650815486908,9.773895263671875,-0.00448812291582641,-0.00647399428702266,-0.015153623790335451,2.6050333976745605,2019-06-20 14:47:15:731,0.0,0.0,0.0
-0.05354420840740204,0.3586808145046234,9.747552871704102,-0.0006255961106525846,-0.006207613159433436,-0.008627285904325124,2.6091232299804688,2019-06-20 14:47:15:735,0.0,0.0,0.0
-0.03917571157217026,0.3538913130760193,9.817001342773438,4.035674489342885e-05,-0.002744658240699191,-0.010491953797449695,2.6150131225585938,2019-06-20 14:47:15:741,0.0,0.0,0.0
-0.008043964393436909,0.34431231021881104,9.838553428649902,-0.0004924055468579722,-0.0004804183961164572,-0.011424288004086305,2.620006561279297,2019-06-20 14:47:15:746,0.0,0.0,0.0
-0.03917571157217026,0.31078583002090454,9.776289939880371,-0.001957501813617289,-0.005941232031844212,-0.01169066965182418,2.6241226196289062,2019-06-20 14:47:15:750,0.0,0.0,0.0
-0.03438621014356613,0.36825981736183167,9.771500587463379,4.035674489342885e-05,-0.004742516697618376,-0.009559619590813083,2.630009651184082,2019-06-20 14:47:15:756,0.0,0.0,0.0
-0.02001771330833435,0.3778388202190399,9.797842979431152,0.00017354732087902514,-0.0038101827510560898,-0.012889384465901366,2.635006904602051,2019-06-20 14:47:15:761,0.0,0.0,0.0
-0.04635995998978615,0.30360156297683716,9.773895263671875,-0.0024902641988329005,-0.007406327973510622,-0.008227714473015612,2.639120578765869,2019-06-20 14:47:15:765,0.0,0.0,0.0
-0.015228213742375374,0.3467070758342743,9.759527206420898,-0.002223883071243676,-0.006207613159433436,-0.0075617613939682245,2.645008087158203,2019-06-20 14:47:15:771,0.0,0.0,0.0
0.011114032939076424,0.3059963285923004,9.800237655639648,-0.0004924055468579722,-0.003676992187261477,-0.008893667031914347,2.6491403579711914,2019-06-20 14:47:15:775,0.0,0.0,0.0
-0.043965209275484085,0.28444358706474304,9.754737854003906,0.004568835942355876,-0.0014127523426787432,-0.0025005197096986324,2.655027389526367,2019-06-20 14:47:15:781,0.0,0.0,0.0
-0.008043964393436909,0.2940225899219513,9.730790138244629,-0.0008919772382418092,-0.0032774204958776402,-0.004764759294207041,2.6591196060180664,2019-06-20 14:47:15:785,0.0,0.0,0.0
0.02308778092265129,0.29162782430648804,9.737974166870117,-0.002889835890216737,-0.004742516697618376,-0.0031664725286716937,2.6650094985961914,2019-06-20 14:47:15:791,0.0,0.0,0.0
0.003929784055799246,0.3059963285923004,9.80502700805664,0.0017718342327061804,-0.0044761355700291515,-0.0034328539163352434,2.669124126434326,2019-06-20 14:47:15:795,0.0,0.0,0.0
-0.02001771330833435,0.32275956869125366,9.745158195495605,-0.002090692377411901,-0.0014127523426787432,-0.01408809927997855,2.675016403198242,2019-06-20 14:47:15:801,0.0,0.0,0.0
0.02308778092265129,0.31078583002090454,9.809816360473633,0.0035033116920733026,0.0024497742674393385,-0.0011686140717525096,2.680008888244629,2019-06-20 14:47:15:806,0.0,0.0,0.0
0.011114032939076424,0.27007508277893066,9.845738410949707,0.001372262411285181,-8.084668035065233e-05,-0.002234138582109408,2.6841230392456055,2019-06-20 14:47:15:810,0.0,0.0,0.0
-0.03199145942926407,0.3395228087902069,9.74276351928711,0.0032369305644840782,-0.0011463712150895187,-0.004764759294207041,2.690007209777832,2019-06-20 14:47:15:816,0.0,0.0,0.0
-0.024807212874293327,0.29162782430648804,9.771500587463379,-0.0036889792729844113,-0.005541660080386049,-0.0019677574545201833,2.694125175476074,2019-06-20 14:47:15:820,0.0,0.0,0.0
0.003929784055799246,0.3059963285923004,9.809816360473633,0.001372262411285181,-0.002744658240699191,-0.0011686140717525096,2.6991305351257324,2019-06-20 14:47:15:825,0.0,0.0,0.0
-0.015228213742375374,0.34191757440567017,9.872079849243164,0.0048352170699451,0.0013842496270452774,-0.0030332819648770815,2.705049514770508,2019-06-20 14:47:15:831,0.0,0.0,0.0
-0.051149457693099976,0.3083910644054413,9.8505277633667,-9.283383109216743e-05,-0.001945514727894355,-0.0014349951993417342,2.710017204284668,2019-06-20 14:47:15:836,0.0,0.0,0.0
-0.00564921461045742,0.32994383573532104,9.80502700805664,0.003103740000689466,0.000851487306848247,-0.0026337102734932446,2.714130401611328,2019-06-20 14:47:15:840,0.0,0.0,0.0
-0.08467595279216766,0.29641732573509216,9.761921882629395,0.0007063095923121196,0.0015174401908398898,0.00042967279131070986,2.7200264930725098,2019-06-20 14:47:15:846,0.0,0.0,0.0
-0.003254464827477932,0.32994383573532104,9.737974166870117,-0.0008919772382418092,0.004048061032974686,-0.000902232944163285,2.724130630493164,2019-06-20 14:47:15:850,0.0,0.0,0.0
-0.10143920034170151,0.2796540856361389,9.773895263671875,0.0025709774854366916,-0.0035438016234668654,-0.0025005197096986324,2.7300305366516113,2019-06-20 14:47:15:856,0.0,0.0,0.0
-0.06791270524263382,0.29641732573509216,9.783474922180176,0.0027041680492313038,-0.010469711200861029,-0.0010354235079578973,2.73502254486084,2019-06-20 14:47:15:861,0.0,0.0,0.0
-0.06551795452833176,0.34431231021881104,9.790658950805664,-0.0026234547626275127,-0.005808041207975274,0.002693912538365572,2.74001407623291,2019-06-20 14:47:15:866,0.0,0.0,0.0
-0.022412462159991264,0.27246981859207153,9.9319486618042,0.001372262411285181,-0.0028778488044938037,0.0013620067703822866,2.7441277503967285,2019-06-20 14:47:15:870,0.0,0.0,0.0
-0.022412462159991264,0.2820488214492798,9.860106468200684,0.0009726907199013442,0.0041812515967692985,0.0028271031021601845,2.7500057220458984,2019-06-20 14:47:15:876,0.0,0.0,0.0
-0.0822812020778656,0.3586808145046234,9.812211036682129,0.0021714059240900176,0.00631230087755742,0.0021611501531499603,2.755011558532715,2019-06-20 14:47:15:881,0.0,0.0,0.0
-0.0822812020778656,0.28923308849334717,9.726000785827637,0.00017354732087902514,-0.0035438016234668654,0.00016329164746684,2.760012149810791,2019-06-20 14:47:15:886,0.0,0.0,0.0
-0.1277814507484436,0.32275956869125366,9.766711235046387,-0.0018243112498226766,-0.008338662180147232,-0.0014349951993417342,2.7650094032287598,2019-06-20 14:47:15:891,0.0,0.0,0.0
-0.051149457693099976,0.36825981736183167,9.836158752441406,-0.0012915489946442272,-0.00993694894568258,0.0029602936659547966,2.7700047492980957,2019-06-20 14:47:15:896,0.0,0.0,0.0
0.0015350345056504011,0.2604960799217224,9.884054183959961,-0.0035557887091897987,-0.004875707001338663,0.004824961819153694,2.774134635925293,2019-06-20 14:47:15:900,0.0,0.0,0.0
-0.03917571157217026,0.2485223412513733,9.915185928344727,0.006433504355629099,0.006711872308866931,0.0033598653573386336,2.779123306274414,2019-06-20 14:47:15:905,0.0,0.0,0.0
-0.08467595279216766,0.3131805658340454,9.797842979431152,0.0023045963578474673,0.004580823288153135,0.004425389867695532,2.78501033782959,2019-06-20 14:47:15:911,0.0,0.0,0.0
-0.12538670003414154,0.3467070758342743,9.730790138244629,-0.001557930122233452,-0.000879990087500294,0.0030934842297494092,2.7891416549682617,2019-06-20 14:47:15:915,0.0,0.0,0.0
-0.1086234524846077,0.3083910644054413,9.716421127319336,0.0012390718474905686,-0.00993694894568258,0.0009624350789984497,2.7941465377807617,2019-06-20 14:47:15:920,0.0,0.0,0.0
-0.051149457693099976,0.27725932002067566,9.860106468200684,0.0007063095923121196,-0.007539518797379559,0.007621963398766227,2.8000221252441406,2019-06-20 14:47:15:926,0.0,0.0,0.0
-0.06551795452833176,0.26528558135032654,9.896027565002441,0.0043024550748409765,0.000851487306848247,0.001628387897971511,2.805048942565918,2019-06-20 14:47:15:931,0.0,0.0,0.0
-0.06551795452833176,0.31557533144950867,9.955896377563477,-0.0007587866744471969,0.003781679905385461,0.005757295505641655,2.809123992919922,2019-06-20 14:47:15:935,0.0,0.0,0.0
-0.09425495564937592,0.31557533144950867,9.802632331848145,0.004968407893814039,0.002849345958823175,0.003493055921133246,2.81502628326416,2019-06-20 14:47:15:941,0.0,0.0,0.0
-0.1613079458475113,0.31797006726264954,9.687684059143066,-0.0030230264540113496,-0.003676992187261477,0.0017615784617661236,2.8191280364990234,2019-06-20 14:47:15:945,0.0,0.0,0.0
-0.1613079458475113,0.31557533144950867,9.74276351928711,-9.283383109216743e-05,-0.009004614739045968,0.005224533250463206,2.824129104614258,2019-06-20 14:47:15:950,0.0,0.0,0.0
-0.14933419227600098,0.3706545829772949,9.80502700805664,-0.0006255961106525846,-0.008338662180147232,0.0012288162065876742,2.8300323486328125,2019-06-20 14:47:15:956,0.0,0.0,0.0
-0.08707070350646973,0.3012068271636963,9.881659507751465,0.0016386436689115682,-0.0023450862892410293,0.0028271031021601845,2.8341407775878906,2019-06-20 14:47:15:960,0.0,0.0,0.0
-0.07988645136356354,0.28923308849334717,9.83376407623291,0.0009726907199013442,0.0007182967430536347,0.0009624350789984497,2.8400068283081055,2019-06-20 14:47:15:966,0.0,0.0,0.0
-0.13017620146274567,0.31078583002090454,9.83376407623291,0.002970549436894854,-0.0006136089599110694,0.0021611501531499603,2.844123363494873,2019-06-20 14:47:15:970,0.0,0.0,0.0
-0.1541236937046051,0.3251543343067169,9.749947547912598,0.0020382153602954054,-0.0024782768530356414,0.006023676633230879,2.8500070571899414,2019-06-20 14:47:15:976,0.0,0.0,0.0
-0.18286068737506866,0.3538913130760193,9.730790138244629,0.0005731190285175073,-0.009004614739045968,0.005091342946742919,2.854123592376709,2019-06-20 14:47:15:980,0.0,0.0,0.0
-0.1086234524846077,0.24612759053707123,9.876870155334473,-0.0018243112498226766,-0.007406327973510622,0.005757295505641655,2.8600072860717773,2019-06-20 14:47:15:986,0.0,0.0,0.0
-0.06791270524263382,0.27007508277893066,9.881659507751465,0.0027041680492313038,-0.0015459429064733554,0.0028271031021601845,2.8650155067443848,2019-06-20 14:47:15:991,0.0,0.0,0.0
-0.07509695738554001,0.3059963285923004,9.886448860168457,0.0015054529750797934,0.0024497742674393385,0.002027959589355348,2.870011329650879,2019-06-20 14:47:15:996,0.0,0.0,0.0
-0.1277814507484436,0.3467070758342743,9.915185928344727,-0.003156217017805962,0.0036484893415908493,0.006023676633230879,2.87412691116333,2019-06-20 14:47:16:000,0.0,0.0,0.0
-0.12059719860553741,0.28923308849334717,9.771500587463379,0.0027041680492313038,-0.0012795617788841308,0.006023676633230879,2.8800125122070312,2019-06-20 14:47:16:006,0.0,0.0,0.0
-0.1613079458475113,0.3131805658340454,9.68528938293457,0.0037696928196625274,-0.005142088649076538,0.0022943408469817354,2.884122371673584,2019-06-20 14:47:16:010,0.0,0.0,0.0
-0.13017620146274567,0.3586808145046234,9.783474922180176,-0.003422598145395187,-0.008605043307736458,0.004292199303900919,2.8900070190429688,2019-06-20 14:47:16:016,0.0,0.0,0.0
-0.04875471070408821,0.27007508277893066,9.876870155334473,-0.001957501813617289,-0.004742516697618376,-0.0034328539163352434,2.8950109481811523,2019-06-20 14:47:16:021,0.0,0.0,0.0
-0.07988645136356354,0.2676803171634674,9.881659507751465,0.005634360972861425,-0.0007467995237056817,0.0029602936659547966,2.900007724761963,2019-06-20 14:47:16:026,0.0,0.0,0.0
-0.09186020493507385,0.34431231021881104,9.795448303222656,0.0008395001561067318,0.001650630754634502,0.0014951973341768988,2.904125213623047,2019-06-20 14:47:16:030,0.0,0.0,0.0
-0.1349657028913498,0.3251543343067169,9.790658950805664,0.0019050247965007928,-0.0014127523426787432,0.002693912538365572,2.910008430480957,2019-06-20 14:47:16:036,0.0,0.0,0.0
-0.0822812020778656,0.27007508277893066,9.745158195495605,0.0007063095923121196,-0.00647399428702266,0.0005628633876146128,2.91501522064209,2019-06-20 14:47:16:041,0.0,0.0,0.0
-0.1277814507484436,0.3083910644054413,9.843342781066895,0.00017354732087902514,-0.010203330593420455,-0.0032996633525406317,2.9200077056884766,2019-06-20 14:47:16:046,0.0,0.0,0.0
-0.08946545422077179,0.3251543343067169,9.778684616088867,0.0009726907199013442,-0.003676992187261477,-0.0007690423803686727,2.924121856689453,2019-06-20 14:47:16:050,0.0,0.0,0.0
-0.08467595279216766,0.3203648328781128,9.905606269836426,0.0019050247965007928,-0.000879990087500294,3.010106944941304e-05,2.9300079345703125,2019-06-20 14:47:16:056,0.0,0.0,0.0
-0.1086234524846077,0.2868383228778839,9.80502700805664,-9.283383109216743e-05,0.004447632984432848,0.006290057760820104,2.9341230392456055,2019-06-20 14:47:16:060,0.0,0.0,0.0
-0.13257095217704773,0.3203648328781128,9.802632331848145,-0.0006255961106525846,-0.00021403725227258724,-0.0011686140717525096,2.9400062561035156,2019-06-20 14:47:16:066,0.0,0.0,0.0
-0.1277814507484436,0.2940225899219513,9.800237655639648,0.0012390718474905686,-0.005808041207975274,-0.0021009480183147955,2.944124698638916,2019-06-20 14:47:16:070,0.0,0.0,0.0
-0.12299194931983948,0.28923308849334717,9.785869598388672,0.0003067379009282828,-0.0026114674168302536,-0.0015681857631363464,2.950007438659668,2019-06-20 14:47:16:076,0.0,0.0,0.0
-0.08467595279216766,0.3059963285923004,9.864895820617676,0.0028373588731002413,-0.0050088978252076,-0.0023673291459040203,2.95412540435791,2019-06-20 14:47:16:080,0.0,0.0,0.0
-0.11580769717693329,0.2868383228778839,9.819396018981934,0.0008395001561067318,-0.0023450862892410293,0.0014951973341768988,2.9591217041015625,2019-06-20 14:47:16:085,0.0,0.0,0.0
-0.14933419227600098,0.2820488214492798,9.790658950805664,0.00043992846472289506,-0.003144229932083028,-0.00023628007642628753,2.965010643005371,2019-06-20 14:47:16:091,0.0,0.0,0.0
-0.11341295391321182,0.31078583002090454,9.788264274597168,0.0035033116920733026,-0.0038101827510560898,0.0012288162065876742,2.9700069427490234,2019-06-20 14:47:16:096,0.0,0.0,0.0
-0.11820244789123535,0.3059963285923004,9.74276351928711,0.0025709774854366916,-0.0052752789527968245,0.0013620067703822866,2.9750099182128906,2019-06-20 14:47:16:101,0.0,0.0,0.0
-0.07988645136356354,0.3131805658340454,9.86250114440918,-0.0012915489946442272,-0.006207613159433436,-0.002234138582109408,2.9791202545166016,2019-06-20 14:47:16:105,0.0,0.0,0.0
-0.0822812020778656,0.2940225899219513,9.898422241210938,-0.0012915489946442272,-0.001945514727894355,0.002027959589355348,2.9850096702575684,2019-06-20 14:47:16:111,0.0,0.0,0.0
-0.09664970636367798,0.32275956869125366,9.876870155334473,0.0025709774854366916,-0.003943373314850702,0.0008292445152038374,2.9891223907470703,2019-06-20 14:47:16:115,0.0,0.0,0.0
-0.08467595279216766,0.29162782430648804,9.845738410949707,0.001372262411285181,-0.0010131806512949063,-0.0048979501180759786,2.995011329650879,2019-06-20 14:47:16:121,0.0,0.0,0.0
-0.09425495564937592,0.28923308849334717,9.82179069519043,-0.0008919772382418092,-0.003410611059672253,0.004691770995284756,2.9991421699523926,2019-06-20 14:47:16:125,0.0,0.0,0.0
-0.14454469084739685,0.31078583002090454,9.812211036682129,-0.002889835890216737,-0.006074422335564498,0.0030934842297494092,3.005051612854004,2019-06-20 14:47:16:131,0.0,0.0,0.0
-0.11580769717693329,0.3059963285923004,9.809816360473633,-9.283383109216743e-05,-0.005142088649076538,-0.005297521549385491,3.009124755859375,2019-06-20 14:47:16:135,0.0,0.0,0.0
-0.06791270524263382,0.31797006726264954,9.814606666564941,0.00017354732087902514,-0.001945514727894355,-0.0014349951993417342,3.0150136947631836,2019-06-20 14:47:16:141,0.0,0.0,0.0
-0.11101820319890976,0.29641732573509216,9.845738410949707,0.0048352170699451,-0.005142088649076538,-0.0011686140717525096,3.01912260055542,2019-06-20 14:47:16:145,0.0,0.0,0.0
-0.0822812020778656,0.31797006726264954,9.828974723815918,0.0025709774854366916,0.0019170118822237267,-0.0021009480183147955,3.025008201599121,2019-06-20 14:47:16:151,0.0,0.0,0.0
-0.09904444962739944,0.33473333716392517,9.838553428649902,-0.0014247395584388394,-0.004875707001338663,-0.005031140421796266,3.0291223526000977,2019-06-20 14:47:16:155,0.0,0.0,0.0
-0.0559389591217041,0.3131805658340454,9.785869598388672,0.0005731190285175073,-0.006873565718332173,-0.0026337102734932446,3.035013198852539,2019-06-20 14:47:16:161,0.0,0.0,0.0
-0.10622870177030563,0.31797006726264954,9.771500587463379,-0.002223883071243676,-0.005142088649076538,-0.0027669008372878568,3.0400099754333496,2019-06-20 14:47:16:166,0.0,0.0,0.0
-0.08946545422077179,0.3323385715484619,9.814606666564941,0.0011058812836959564,-0.0052752789527968245,-0.00010308950450435256,3.044123649597168,2019-06-20 14:47:16:170,0.0,0.0,0.0
-0.051149457693099976,0.2868383228778839,9.852922439575195,-0.0026234547626275127,-0.005541660080386049,-0.00010308950450435256,3.0500059127807617,2019-06-20 14:47:16:176,0.0,0.0,0.0
-0.09425495564937592,0.2940225899219513,9.824185371398926,-9.283383109216743e-05,-0.003144229932083028,-0.0007690423803686727,3.055008888244629,2019-06-20 14:47:16:181,0.0,0.0,0.0
-0.07030745595693588,0.3131805658340454,9.814606666564941,0.0019050247965007928,-0.002211895725446417,0.002027959589355348,3.059122085571289,2019-06-20 14:47:16:185,0.0,0.0,0.0
-0.07509695738554001,0.31557533144950867,9.790658950805664,0.002970549436894854,-0.004875707001338663,0.0012288162065876742,3.064126968383789,2019-06-20 14:47:16:190,0.0,0.0,0.0
-0.06072845682501793,0.3059963285923004,9.790658950805664,0.0032369305644840782,-0.005142088649076538,0.005224533250463206,3.0700058937072754,2019-06-20 14:47:16:196,0.0,0.0,0.0
-0.09664970636367798,0.3083910644054413,9.809816360473633,0.0005731190285175073,-0.005808041207975274,0.0018947690255607357,3.07412052154541,2019-06-20 14:47:16:200,0.0,0.0,0.0
-0.09186020493507385,0.29641732573509216,9.802632331848145,-0.0026234547626275127,-0.0016791336003051302,-0.0013018046355471218,3.080007553100586,2019-06-20 14:47:16:206,0.0,0.0,0.0
-0.1086234524846077,0.29162782430648804,9.817001342773438,-0.001557930122233452,-0.0020787052916889674,-0.0019677574545201833,3.0841240882873535,2019-06-20 14:47:16:210,0.0,0.0,0.0
-0.11101820319890976,0.31078583002090454,9.740368843078613,0.0035033116920733026,-0.0003472278323218449,0.0024275314107763475,3.090017318725586,2019-06-20 14:47:16:216,0.0,0.0,0.0
-0.11820244789123535,0.2868383228778839,9.819396018981934,-0.001158358430849615,-0.0028778488044938037,-0.0014349951993417342,3.094125747680664,2019-06-20 14:47:16:220,0.0,0.0,0.0
-0.10143920034170151,0.32275956869125366,9.817001342773438,0.0039028833834571395,-0.0035438016234668654,-0.0048979501180759786,3.099123001098633,2019-06-20 14:47:16:225,0.0,0.0,0.0
-0.11580769717693329,0.3083910644054413,9.795448303222656,0.0024377869216420794,-0.0040765638786453146,3.010106944941304e-05,3.1050119400024414,2019-06-20 14:47:16:231,0.0,0.0,0.0
-0.11341295391321182,0.3323385715484619,9.879264831542969,0.0016386436689115682,-0.006074422335564498,-0.0011686140717525096,3.110015869140625,2019-06-20 14:47:16:236,0.0,0.0,0.0
-0.09425495564937592,0.3275490701198578,9.910396575927734,0.00017354732087902514,-8.084668035065233e-05,0.0030934842297494092,3.1141252517700195,2019-06-20 14:47:16:240,0.0,0.0,0.0
-0.09425495564937592,0.31797006726264954,9.790658950805664,-0.001158358430849615,-0.0007467995237056817,-0.0021009480183147955,3.119126319885254,2019-06-20 14:47:16:245,0.0,0.0,0.0
-0.09186020493507385,0.2796540856361389,9.790658950805664,0.0027041680492313038,-0.003011039368288416,0.0006960539514092252,3.1250109672546387,2019-06-20 14:47:16:251,0.0,0.0,0.0
-0.12299194931983948,0.3323385715484619,9.82179069519043,0.0007063095923121196,-0.0028778488044938037,0.002693912538365572,3.129122734069824,2019-06-20 14:47:16:255,0.0,0.0,0.0
-0.11341295391321182,0.3083910644054413,9.824185371398926,-0.001557930122233452,-0.005808041207975274,0.0002964822275160976,3.135006904602051,2019-06-20 14:47:16:261,0.0,0.0,0.0
-0.11820244789123535,0.3083910644054413,9.8505277633667,0.0027041680492313038,-0.0052752789527968245,-0.003566044480129856,3.1400065422058105,2019-06-20 14:47:16:266,0.0,0.0,0.0
-0.08946545422077179,0.2748645842075348,9.74276351928711,-0.00022602440301410239,-0.0010131806512949063,0.00016329164746684,3.144125461578369,2019-06-20 14:47:16:270,0.0,0.0,0.0
-0.12059719860553741,0.3131805658340454,9.79305362701416,0.0032369305644840782,0.0012510590632506652,-0.0013018046355471218,3.1500086784362793,2019-06-20 14:47:16:276,0.0,0.0,0.0
-0.10383395105600357,0.32994383573532104,9.781079292297363,0.004702026766224813,-0.0020787052916889674,-0.0017013763269309588,3.1541223526000977,2019-06-20 14:47:16:280,0.0,0.0,0.0
-0.10383395105600357,0.32994383573532104,9.812211036682129,0.0043024550748409765,-0.006074422335564498,-0.0030332819648770815,3.1600050926208496,2019-06-20 14:47:16:286,0.0,0.0,0.0
-0.10622870177030563,0.29641732573509216,9.769105911254883,0.0037696928196625274,-0.0044761355700291515,0.0022943408469817354,3.165012836456299,2019-06-20 14:47:16:291,0.0,0.0,0.0
-0.051149457693099976,0.2796540856361389,9.797842979431152,-0.0018243112498226766,-0.0026114674168302536,-0.0013018046355471218,3.1691322326660156,2019-06-20 14:47:16:295,0.0,0.0,0.0
-0.07749170809984207,0.2988120913505554,9.819396018981934,0.0024377869216420794,-0.0038101827510560898,-0.0014349951993417342,3.175013542175293,2019-06-20 14:47:16:301,0.0,0.0,0.0
-0.10143920034170151,0.2988120913505554,9.795448303222656,-0.0007587866744471969,0.0011178684994560528,-0.006895808835069488,3.1800074577331543,2019-06-20 14:47:16:306,0.0,0.0,0.0
-0.08467595279216766,0.32994383573532104,9.855317115783691,0.0017718342327061804,-0.003144229932083028,-0.0006358518165740604,3.184136390686035,2019-06-20 14:47:16:310,0.0,0.0,0.0
-0.08467595279216766,0.31797006726264954,9.807421684265137,-0.001158358430849615,-0.004209754442439926,0.0008292445152038374,3.190005302429199,2019-06-20 14:47:16:316,0.0,0.0,0.0
-0.07030745595693588,0.3012068271636963,9.802632331848145,0.0023045963578474673,-0.005808041207975274,0.003626246484927858,3.195012092590332,2019-06-20 14:47:16:321,0.0,0.0,0.0
-0.07270220667123795,0.3275490701198578,9.83376407623291,0.003636502255867915,-0.004742516697618376,-0.000902232944163285,3.199122428894043,2019-06-20 14:47:16:325,0.0,0.0,0.0
-0.09664970636367798,0.3131805658340454,9.884054183959961,0.003370121128278691,-0.005808041207975274,-0.002234138582109408,3.2050137519836426,2019-06-20 14:47:16:331,0.0,0.0,0.0
-0.09904444962739944,0.32275956869125366,9.824185371398926,0.0053679798452722005,-0.003410611059672253,-0.005031140421796266,3.210015296936035,2019-06-20 14:47:16:336,0.0,0.0,0.0
-0.08946545422077179,0.2820488214492798,9.761921882629395,0.0011058812836959564,-0.0014127523426787432,0.00042967279131070986,3.215013027191162,2019-06-20 14:47:16:341,0.0,0.0,0.0
-0.06551795452833176,0.31557533144950867,9.788264274597168,0.005501170148992487,-0.0028778488044938037,-0.00010308950450435256,3.2200241088867188,2019-06-20 14:47:16:346,0.0,0.0,0.0
-0.0631232038140297,0.31078583002090454,9.812211036682129,-0.00035921498306336,-0.005674850904254987,-0.0006358518165740604,3.2241287231445312,2019-06-20 14:47:16:350,0.0,0.0,0.0
-0.07988645136356354,0.31797006726264954,9.860106468200684,-0.003822169836779023,-0.005408469776665762,-0.0031664725286716937,3.2300233840942383,2019-06-20 14:47:16:356,0.0,0.0,0.0
-0.06791270524263382,0.3131805658340454,9.888843536376953,-0.0008919772382418092,0.0013842496270452774,-0.004365187862897529,3.2350339889526367,2019-06-20 14:47:16:361,0.0,0.0,0.0
-0.06072845682501793,0.2796540856361389,9.826580047607422,0.0003067379009282828,-0.0028778488044938037,0.0012288162065876742,3.2391371726989746,2019-06-20 14:47:16:365,0.0,0.0,0.0
-0.0822812020778656,0.3203648328781128,9.87447452545166,0.004169264511046364,-0.0024782768530356414,0.0005628633876146128,3.245023727416992,2019-06-20 14:47:16:371,0.0,0.0,0.0
-0.10143920034170151,0.3251543343067169,9.80502700805664,-0.001557930122233452,-0.002744658240699191,0.0012288162065876742,3.249124526977539,2019-06-20 14:47:16:375,0.0,0.0,0.0
-0.07030745595693588,0.31797006726264954,9.800237655639648,-0.0012915489946442272,0.0011178684994560528,0.002027959589355348,3.254134178161621,2019-06-20 14:47:16:380,0.0,0.0,0.0
-0.08467595279216766,0.3251543343067169,9.836158752441406,-0.0004924055468579722,0.0004519156154644102,0.0022943408469817354,3.2600221633911133,2019-06-20 14:47:16:386,0.0,0.0,0.0
-0.09186020493507385,0.2796540856361389,9.812211036682129,0.0025709774854366916,-0.0026114674168302536,0.00016329164746684,3.264134407043457,2019-06-20 14:47:16:390,0.0,0.0,0.0
-0.058333706110715866,0.3131805658340454,9.785869598388672,0.0009726907199013442,-0.0020787052916889674,-0.0031664725286716937,3.2700090408325195,2019-06-20 14:47:16:396,0.0,0.0,0.0
-0.10143920034170151,0.31797006726264954,9.785869598388672,0.003370121128278691,-0.0032774204958776402,0.0009624350789984497,3.274127960205078,2019-06-20 14:47:16:400,0.0,0.0,0.0
-0.0631232038140297,0.3395228087902069,9.75234317779541,0.003636502255867915,-0.003943373314850702,-0.0015681857631363464,3.2800087928771973,2019-06-20 14:47:16:406,0.0,0.0,0.0
-0.09186020493507385,0.27725932002067566,9.82179069519043,0.004435645638635589,-0.0016791336003051302,-0.0014349951993417342,3.2850160598754883,2019-06-20 14:47:16:411,0.0,0.0,0.0
-0.07509695738554001,0.32275956869125366,9.773895263671875,0.0023045963578474673,-0.008871424435325683,-0.0032996633525406317,3.2891249656677246,2019-06-20 14:47:16:415,0.0,0.0,0.0
-0.1086234524846077,0.3467070758342743,9.879264831542969,0.0028373588731002413,0.0011178684994560528,-0.0006358518165740604,3.2941226959228516,2019-06-20 14:47:16:420,0.0,0.0,0.0
-0.008043964393436909,0.3012068271636963,9.730790138244629,0.0053679798452722005,0.002849345958823175,-0.0010354235079578973,3.3000030517578125,2019-06-20 14:47:16:426,0.0,0.0,0.0
-0.13975520431995392,0.2676803171634674,9.766711235046387,-0.0012915489946442272,0.0005851061792590224,0.002027959589355348,3.3041577339172363,2019-06-20 14:47:16:430,0.0,0.0,0.0
-0.13736045360565186,0.36825981736183167,9.70205307006836,0.002970549436894854,-0.009670568338242006,0.004159008740106307,3.3100085258483887,2019-06-20 14:47:16:436,0.0,0.0,0.0
-0.1277814507484436,0.3538913130760193,9.83376407623291,0.001372262411285181,-0.010336520897140742,-0.001834566890725571,3.314143180847168,2019-06-20 14:47:16:440,0.0,0.0,0.0
