ACCELEROMETER X (m/s²),ACCELEROMETER Y (m/s²),ACCELEROMETER Z (m/s²),GYROSCOPE X (rad/s),GYROSCOPE Y (rad/s),GYROSCOPE Z (rad/s),Time since start in ms ,YYYY-MO-DD HH-MI-SS_SSS,MagX,MagY,MagZ
-0.22836093604564667,0.06652135401964188,9.79305362701416,0.0032369305644840782,-0.0024782768530356414,0.0022943408469817354,0.0,2019-06-20 14:49:02:897,0.0,0.0,0.0
-0.2451241910457611,0.03299486264586449,9.790658950805664,0.0009726907199013442,-0.003943373314850702,0.0013620067703822866,0.005878925323486328,2019-06-20 14:49:02:903,0.0,0.0,0.0
-0.19722919166088104,0.06412661075592041,9.838553428649902,0.0019050247965007928,-0.007539518797379559,0.0012288162065876742,0.010031700134277344,2019-06-20 14:49:02:907,0.0,0.0,0.0
-0.2068081945180893,0.06891610473394394,9.814606666564941,-0.0004924055468579722,-0.002744658240699191,0.0014951973341768988,0.015018463134765625,2019-06-20 14:49:02:912,0.0,0.0,0.0
-0.19243969023227692,0.06652135401964188,9.867290496826172,0.0011058812836959564,-0.004342945006234539,0.0013620067703822866,0.020003795623779297,2019-06-20 14:49:02:917,0.0,0.0,0.0
-0.2331504374742508,0.07610035687685013,9.857711791992188,0.0028373588731002413,-0.0026114674168302536,-0.00010308950450435256,0.025896072387695312,2019-06-20 14:49:02:923,0.0,0.0,0.0
-0.21159768104553223,0.08088985830545425,9.809816360473633,0.0024377869216420794,-0.006607184590742948,0.0005628633876146128,0.030006885528564453,2019-06-20 14:49:02:927,0.0,0.0,0.0
-0.22117668390274048,0.05694235861301422,9.848133087158203,0.0017718342327061804,-0.004875707001338663,-0.0005026612202701574,0.03499889373779297,2019-06-20 14:49:02:932,0.0,0.0,0.0
-0.21159768104553223,0.06652135401964188,9.716421127319336,0.0016386436689115682,-0.005808041207975274,0.001095625642793062,0.04089498519897461,2019-06-20 14:49:02:938,0.0,0.0,0.0
-0.1876501888036728,0.04017911106348038,9.824185371398926,0.003103740000689466,-0.003410611059672253,0.0012288162065876742,0.045001983642578125,2019-06-20 14:49:02:942,0.0,0.0,0.0
-0.16609744727611542,0.07610035687685013,9.884054183959961,0.0015054529750797934,-0.0020787052916889674,-0.00010308950450435256,0.05000782012939453,2019-06-20 14:49:02:947,0.0,0.0,0.0
-0.20441344380378723,0.07610035687685013,9.857711791992188,0.0019050247965007928,-0.006207613159433436,-0.002234138582109408,0.055914878845214844,2019-06-20 14:49:02:953,0.0,0.0,0.0
-0.19483444094657898,0.10004784911870956,9.817001342773438,-0.001158358430849615,-0.002744658240699191,0.0038926276125170823,0.06001853942871094,2019-06-20 14:49:02:957,0.0,0.0,0.0
-0.17807118594646454,0.06891610473394394,9.87447452545166,0.0015054529750797934,0.0012510590632506652,0.0022943408469817354,0.06499958038330078,2019-06-20 14:49:02:962,0.0,0.0,0.0
-0.20201869308948517,0.08807410299777985,9.843342781066895,0.0020382153602954054,-0.003943373314850702,0.0033598653573386336,0.07011985778808594,2019-06-20 14:49:02:967,0.0,0.0,0.0
-0.1469394415616989,0.07849510759115219,9.828974723815918,-0.001158358430849615,-0.0020787052916889674,0.0028271031021601845,0.07590866088867188,2019-06-20 14:49:02:973,0.0,0.0,0.0
-0.2139924317598343,0.06173185631632805,9.860106468200684,-0.003422598145395187,-0.004742516697618376,-0.004098806735308305,0.07999706268310547,2019-06-20 14:49:02:977,0.0,0.0,0.0
-0.19722919166088104,0.06891610473394394,9.790658950805664,0.004435645638635589,-0.0011463712150895187,0.001628387897971511,0.08499622344970703,2019-06-20 14:49:02:982,0.0,0.0,0.0
-0.20201869308948517,0.052152857184410095,9.879264831542969,-0.0004924055468579722,-0.0040765638786453146,0.0017615784617661236,0.0900106430053711,2019-06-20 14:49:02:987,0.0,0.0,0.0
-0.21159768104553223,0.06891610473394394,9.817001342773438,-0.003156217017805962,-0.0015459429064733554,-0.000902232944163285,0.09500503540039062,2019-06-20 14:49:02:992,0.0,0.0,0.0
-0.1876501888036728,0.06891610473394394,9.800237655639648,0.00017354732087902514,-0.0028778488044938037,-0.002234138582109408,0.10119438171386719,2019-06-20 14:49:02:998,0.0,0.0,0.0
-0.19483444094657898,0.03299486264586449,9.824185371398926,-0.00035921498306336,-0.0052752789527968245,-0.0010354235079578973,0.10501861572265625,2019-06-20 14:49:03:002,0.0,0.0,0.0
-0.21878193318843842,0.04975811019539833,9.855317115783691,-0.002756645326422125,-0.004609325873749438,0.0008292445152038374,0.11000871658325195,2019-06-20 14:49:03:007,0.0,0.0,0.0
-0.19243969023227692,0.0976531058549881,9.869685173034668,-0.00022602440301410239,-0.0004804183961164572,0.00042967279131070986,0.1158905029296875,2019-06-20 14:49:03:013,0.0,0.0,0.0
-0.17807118594646454,0.08088985830545425,9.845738410949707,-0.001557930122233452,-0.002211895725446417,0.003626246484927858,0.1200246810913086,2019-06-20 14:49:03:017,0.0,0.0,0.0
-0.19722919166088104,0.08328460156917572,9.831369400024414,0.0007063095923121196,-0.007139946845921397,0.0008292445152038374,0.12500429153442383,2019-06-20 14:49:03:022,0.0,0.0,0.0
-0.19004493951797485,0.11441635340452194,9.828974723815918,-0.0026234547626275127,-0.003144229932083028,0.0021611501531499603,0.13000869750976562,2019-06-20 14:49:03:027,0.0,0.0,0.0
-0.19722919166088104,0.04975811019539833,9.824185371398926,-0.0007587866744471969,-0.0018123241640997428,0.0024275314107763475,0.1350088119506836,2019-06-20 14:49:03:032,0.0,0.0,0.0
-0.20441344380378723,0.06412661075592041,9.80502700805664,4.035674489342885e-05,0.002050202446018339,-0.0032996633525406317,0.14000415802001953,2019-06-20 14:49:03:037,0.0,0.0,0.0
-0.2259661853313446,0.06891610473394394,9.790658950805664,-0.00035921498306336,-0.000879990087500294,-0.0019677574545201833,0.14500045776367188,2019-06-20 14:49:03:042,0.0,0.0,0.0
-0.20920294523239136,0.0976531058549881,9.795448303222656,0.003636502255867915,-0.004342945006234539,0.0030934842297494092,0.15001440048217773,2019-06-20 14:49:03:047,0.0,0.0,0.0
-0.1996239423751831,0.10004784911870956,9.83376407623291,0.0021714059240900176,-0.008205471356278294,0.00016329164746684,0.1558971405029297,2019-06-20 14:49:03:053,0.0,0.0,0.0
-0.2068081945180893,0.06412661075592041,9.807421684265137,-0.0004924055468579722,-0.001945514727894355,0.0009624350789984497,0.1600017547607422,2019-06-20 14:49:03:057,0.0,0.0,0.0
-0.21159768104553223,0.059337109327316284,9.802632331848145,-0.0007587866744471969,-0.0028778488044938037,-0.0036992350439244686,0.16589927673339844,2019-06-20 14:49:03:063,0.0,0.0,0.0
-0.19243969023227692,0.08088985830545425,9.82179069519043,0.0043024550748409765,-0.0035438016234668654,0.002693912538365572,0.17000389099121094,2019-06-20 14:49:03:067,0.0,0.0,0.0
-0.22836093604564667,0.05694235861301422,9.83376407623291,0.0017718342327061804,-0.0052752789527968245,0.0022943408469817354,0.17500019073486328,2019-06-20 14:49:03:072,0.0,0.0,0.0
-0.22836093604564667,0.06173185631632805,9.848133087158203,-0.001557930122233452,-0.0023450862892410293,-0.0013018046355471218,0.1808919906616211,2019-06-20 14:49:03:078,0.0,0.0,0.0
-0.22357143461704254,0.08807410299777985,9.855317115783691,-0.0032894075816005744,-0.007805899924968783,0.001628387897971511,0.1849956512451172,2019-06-20 14:49:03:082,0.0,0.0,0.0
-0.20201869308948517,0.06652135401964188,9.795448303222656,0.0019050247965007928,-0.0028778488044938037,-0.0031664725286716937,0.19089126586914062,2019-06-20 14:49:03:088,0.0,0.0,0.0
-0.22117668390274048,0.071310855448246,9.826580047607422,0.0003067379009282828,-0.0040765638786453146,-0.00023628007642628753,0.19513320922851562,2019-06-20 14:49:03:092,0.0,0.0,0.0
-0.24272944033145905,0.05454760789871216,9.826580047607422,-9.283383109216743e-05,-0.0015459429064733554,-0.0010354235079578973,0.20090627670288086,2019-06-20 14:49:03:098,0.0,0.0,0.0
-0.22357143461704254,0.12878485023975372,9.87447452545166,-0.00035921498306336,-8.084668035065233e-05,-0.002234138582109408,0.20500469207763672,2019-06-20 14:49:03:102,0.0,0.0,0.0
-0.23554518818855286,0.052152857184410095,9.781079292297363,-0.004887694347135921,-0.005142088649076538,0.0006960539514092252,0.21110010147094727,2019-06-20 14:49:03:108,0.0,0.0,0.0
-0.21638718247413635,0.09286360442638397,9.778684616088867,-9.283383109216743e-05,-0.002211895725446417,0.0021611501531499603,0.2150287628173828,2019-06-20 14:49:03:112,0.0,0.0,0.0
-0.19483444094657898,0.07610035687685013,9.817001342773438,0.004702026766224813,-0.0035438016234668654,-0.00036947065647554515,0.22000646591186523,2019-06-20 14:49:03:117,0.0,0.0,0.0
-0.20201869308948517,0.052152857184410095,9.788264274597168,4.035674489342885e-05,-0.004609325873749438,0.0024275314107763475,0.22500133514404297,2019-06-20 14:49:03:122,0.0,0.0,0.0
-0.20201869308948517,0.08807410299777985,9.776289939880371,-0.0024902641988329005,0.0021833931398501137,3.010106944941304e-05,0.2308979034423828,2019-06-20 14:49:03:128,0.0,0.0,0.0
-0.2139924317598343,0.07849510759115219,9.817001342773438,0.005101598717682976,-0.0026114674168302536,0.0013620067703822866,0.23500442504882812,2019-06-20 14:49:03:132,0.0,0.0,0.0
-0.24272944033145905,0.071310855448246,9.802632331848145,-0.0026234547626275127,-0.004875707001338663,-0.0025005197096986324,0.2400069236755371,2019-06-20 14:49:03:137,0.0,0.0,0.0
-0.19004493951797485,0.04257386177778244,9.82179069519043,0.003636502255867915,-0.0040765638786453146,0.003226674793544021,0.24499988555908203,2019-06-20 14:49:03:142,0.0,0.0,0.0
-0.2139924317598343,0.06173185631632805,9.795448303222656,0.004968407893814039,0.0015174401908398898,0.0002964822275160976,0.25002384185791016,2019-06-20 14:49:03:147,0.0,0.0,0.0
-0.22357143461704254,0.09046885371208191,9.828974723815918,-0.0004924055468579722,-0.007006756542201109,-0.000902232944163285,0.25589847564697266,2019-06-20 14:49:03:153,0.0,0.0,0.0
-0.20441344380378723,0.08088985830545425,9.80502700805664,-0.0008919772382418092,-0.0023450862892410293,0.0021611501531499603,0.26091861724853516,2019-06-20 14:49:03:158,0.0,0.0,0.0
-0.21878193318843842,0.04736335948109627,9.855317115783691,0.0007063095923121196,-0.006340803463153723,0.0013620067703822866,0.26500654220581055,2019-06-20 14:49:03:162,0.0,0.0,0.0
-0.22357143461704254,0.05694235861301422,9.807421684265137,0.003103740000689466,-0.001945514727894355,-0.0014349951993417342,0.2700052261352539,2019-06-20 14:49:03:167,0.0,0.0,0.0
-0.2139924317598343,0.09286360442638397,9.795448303222656,0.0021714059240900176,-0.010070139249402867,-0.0027669008372878568,0.27588367462158203,2019-06-20 14:49:03:173,0.0,0.0,0.0
-0.19004493951797485,0.071310855448246,9.80502700805664,0.0005731190285175073,-0.005674850904254987,-0.0013018046355471218,0.28000545501708984,2019-06-20 14:49:03:177,0.0,0.0,0.0
-0.19722919166088104,0.09046885371208191,9.790658950805664,0.0011058812836959564,-0.003011039368288416,0.0006960539514092252,0.28589534759521484,2019-06-20 14:49:03:183,0.0,0.0,0.0
-0.1876501888036728,0.08807410299777985,9.852922439575195,0.0003067379009282828,-0.003676992187261477,-0.004365187862897529,0.29000186920166016,2019-06-20 14:49:03:187,0.0,0.0,0.0
-0.1876501888036728,0.09046885371208191,9.855317115783691,0.0021714059240900176,-0.0011463712150895187,0.001095625642793062,0.2958855628967285,2019-06-20 14:49:03:193,0.0,0.0,0.0
-0.1996239423751831,0.10244259983301163,9.884054183959961,0.004036073947251752,-0.005808041207975274,0.001095625642793062,0.30000877380371094,2019-06-20 14:49:03:197,0.0,0.0,0.0
-0.21159768104553223,0.05694235861301422,9.817001342773438,0.0015054529750797934,-0.0023450862892410293,0.00016329164746684,0.30504894256591797,2019-06-20 14:49:03:202,0.0,0.0,0.0
-0.1804659366607666,0.10004784911870956,9.800237655639648,0.004169264511046364,-0.004609325873749438,-0.0027669008372878568,0.31090354919433594,2019-06-20 14:49:03:208,0.0,0.0,0.0
-0.15172894299030304,0.07370560616254807,9.87447452545166,0.0005731190285175073,-0.007539518797379559,-0.0014349951993417342,0.3150191307067871,2019-06-20 14:49:03:212,0.0,0.0,0.0
-0.18286068737506866,0.08807410299777985,9.876870155334473,0.0019050247965007928,-0.002744658240699191,0.0024275314107763475,0.3200082778930664,2019-06-20 14:49:03:217,0.0,0.0,0.0
-0.19483444094657898,0.07849510759115219,9.800237655639648,-0.001557930122233452,-0.0010131806512949063,0.0008292445152038374,0.32589149475097656,2019-06-20 14:49:03:223,0.0,0.0,0.0
-0.24751892685890198,0.04736335948109627,9.80502700805664,-0.001557930122233452,-0.004875707001338663,-0.0021009480183147955,0.33000659942626953,2019-06-20 14:49:03:227,0.0,0.0,0.0
-0.2068081945180893,0.04257386177778244,9.795448303222656,0.0011058812836959564,-0.004609325873749438,0.0017615784617661236,0.33588504791259766,2019-06-20 14:49:03:233,0.0,0.0,0.0
-0.18286068737506866,0.09286360442638397,9.814606666564941,-0.004354932091957473,-0.007539518797379559,0.00016329164746684,0.34000492095947266,2019-06-20 14:49:03:237,0.0,0.0,0.0
-0.19722919166088104,0.08088985830545425,9.800237655639648,-0.0026234547626275127,-0.004742516697618376,0.0024275314107763475,0.34589290618896484,2019-06-20 14:49:03:243,0.0,0.0,0.0
-0.20920294523239136,0.08807410299777985,9.83376407623291,-0.0018243112498226766,-0.0003472278323218449,-0.0025005197096986324,0.350006103515625,2019-06-20 14:49:03:247,0.0,0.0,0.0
-0.21638718247413635,0.10004784911870956,9.828974723815918,-0.0012915489946442272,-0.0020787052916889674,-0.0005026612202701574,0.35591602325439453,2019-06-20 14:49:03:253,0.0,0.0,0.0
-0.19243969023227692,0.08807410299777985,9.781079292297363,-0.0014247395584388394,-0.003410611059672253,3.010106944941304e-05,0.3600029945373535,2019-06-20 14:49:03:257,0.0,0.0,0.0
-0.2068081945180893,0.06652135401964188,9.869685173034668,0.003636502255867915,-0.005408469776665762,0.0018947690255607357,0.36499977111816406,2019-06-20 14:49:03:262,0.0,0.0,0.0
-0.1996239423751831,0.03299486264586449,9.785869598388672,-0.001557930122233452,-0.004209754442439926,-0.0005026612202701574,0.37000560760498047,2019-06-20 14:49:03:267,0.0,0.0,0.0
-0.21638718247413635,0.044968608766794205,9.781079292297363,-0.0023570736350382883,-0.001945514727894355,-0.0011686140717525096,0.3758969306945801,2019-06-20 14:49:03:273,0.0,0.0,0.0
-0.20441344380378723,0.04975811019539833,9.79305362701416,0.0027041680492313038,0.0015174401908398898,-0.0015681857631363464,0.3800010681152344,2019-06-20 14:49:03:277,0.0,0.0,0.0
-0.2331504374742508,0.05694235861301422,9.82179069519043,0.0007063095923121196,-0.00647399428702266,-0.0021009480183147955,0.38589000701904297,2019-06-20 14:49:03:283,0.0,0.0,0.0
-0.18525543808937073,0.044968608766794205,9.812211036682129,-0.0024902641988329005,-0.0010131806512949063,3.010106944941304e-05,0.39000654220581055,2019-06-20 14:49:03:287,0.0,0.0,0.0
-0.20201869308948517,0.03299486264586449,9.852922439575195,-0.0023570736350382883,-0.003943373314850702,0.00016329164746684,0.39589691162109375,2019-06-20 14:49:03:293,0.0,0.0,0.0
-0.1876501888036728,0.08807410299777985,9.824185371398926,0.0028373588731002413,-0.003144229932083028,-0.00036947065647554515,0.4000115394592285,2019-06-20 14:49:03:297,0.0,0.0,0.0
-0.17807118594646454,0.05454760789871216,9.759527206420898,-0.00022602440301410239,-0.0040765638786453146,-0.00010308950450435256,0.4059000015258789,2019-06-20 14:49:03:303,0.0,0.0,0.0
-0.2259661853313446,0.04736335948109627,9.769105911254883,-0.001957501813617289,-0.005808041207975274,-0.003566044480129856,0.410003662109375,2019-06-20 14:49:03:307,0.0,0.0,0.0
-0.22357143461704254,0.07610035687685013,9.83376407623291,-0.00422174152816286,-0.004209754442439926,0.0005628633876146128,0.4150233268737793,2019-06-20 14:49:03:312,0.0,0.0,0.0
-0.20441344380378723,0.071310855448246,9.828974723815918,0.0015054529750797934,-0.00021403725227258724,-0.0005026612202701574,0.42000818252563477,2019-06-20 14:49:03:317,0.0,0.0,0.0
-0.22117668390274048,0.10004784911870956,9.8505277633667,-0.001158358430849615,-0.003676992187261477,-0.0007690423803686727,0.42589473724365234,2019-06-20 14:49:03:323,0.0,0.0,0.0
-0.20201869308948517,0.06652135401964188,9.817001342773438,4.035674489342885e-05,-0.007006756542201109,-0.0027669008372878568,0.43000078201293945,2019-06-20 14:49:03:327,0.0,0.0,0.0
-0.17567645013332367,0.08807410299777985,9.773895263671875,0.0011058812836959564,-0.004209754442439926,0.002027959589355348,0.4349994659423828,2019-06-20 14:49:03:332,0.0,0.0,0.0
-0.21638718247413635,0.06173185631632805,9.867290496826172,0.0007063095923121196,-0.006074422335564498,0.0024275314107763475,0.44001102447509766,2019-06-20 14:49:03:337,0.0,0.0,0.0
-0.22117668390274048,0.04975811019539833,9.8505277633667,-0.00422174152816286,-0.005408469776665762,-0.0010354235079578973,0.4450531005859375,2019-06-20 14:49:03:342,0.0,0.0,0.0
-0.20201869308948517,0.02820536121726036,9.785869598388672,0.0027041680492313038,-0.001945514727894355,-0.002234138582109408,0.45090770721435547,2019-06-20 14:49:03:348,0.0,0.0,0.0
-0.1996239423751831,0.10004784911870956,9.86250114440918,0.0027041680492313038,-0.0023450862892410293,0.0033598653573386336,0.45499610900878906,2019-06-20 14:49:03:352,0.0,0.0,0.0
-0.20201869308948517,0.08088985830545425,9.826580047607422,0.0015054529750797934,-0.0010131806512949063,0.0008292445152038374,0.46089839935302734,2019-06-20 14:49:03:358,0.0,0.0,0.0
-0.24272944033145905,0.04975811019539833,9.812211036682129,4.035674489342885e-05,-0.002744658240699191,-0.0005026612202701574,0.46500301361083984,2019-06-20 14:49:03:362,0.0,0.0,0.0
-0.22117668390274048,0.06173185631632805,9.809816360473633,0.0028373588731002413,-0.004609325873749438,0.005224533250463206,0.4700040817260742,2019-06-20 14:49:03:367,0.0,0.0,0.0
-0.19004493951797485,0.018626363947987556,9.737974166870117,-9.283383109216743e-05,-0.0067403754146118855,0.001628387897971511,0.4750022888183594,2019-06-20 14:49:03:372,0.0,0.0,0.0
-0.2139924317598343,0.09046885371208191,9.817001342773438,0.0005731190285175073,-0.005142088649076538,0.006023676633230879,0.4808998107910156,2019-06-20 14:49:03:378,0.0,0.0,0.0
-0.15891319513320923,0.03538960963487625,9.826580047607422,0.003103740000689466,-0.002744658240699191,0.00549091437805243,0.48589324951171875,2019-06-20 14:49:03:383,0.0,0.0,0.0
-0.17807118594646454,0.07610035687685013,9.788264274597168,-0.0016911206860280642,-0.004609325873749438,0.006423248584689041,0.4900031089782715,2019-06-20 14:49:03:387,0.0,0.0,0.0
-0.19004493951797485,0.07849510759115219,9.788264274597168,-0.00022602440301410239,-0.003410611059672253,0.0012288162065876742,0.4959244728088379,2019-06-20 14:49:03:393,0.0,0.0,0.0
-0.22357143461704254,0.037784360349178314,9.783474922180176,0.001372262411285181,-0.006074422335564498,0.004025818176311695,0.5008916854858398,2019-06-20 14:49:03:398,0.0,0.0,0.0
-0.1996239423751831,0.05454760789871216,9.773895263671875,0.0011058812836959564,-0.005941232031844212,-0.0006358518165740604,0.5049962997436523,2019-06-20 14:49:03:402,0.0,0.0,0.0
-0.20920294523239136,0.052152857184410095,9.814606666564941,-0.0023570736350382883,-0.0023450862892410293,3.010106944941304e-05,0.5108966827392578,2019-06-20 14:49:03:408,0.0,0.0,0.0
-0.19722919166088104,0.071310855448246,9.761921882629395,-0.0030230264540113496,-0.004742516697618376,0.0012288162065876742,0.5150251388549805,2019-06-20 14:49:03:412,0.0,0.0,0.0
-0.24991367757320404,0.0976531058549881,9.848133087158203,0.00043992846472289506,-0.004875707001338663,-0.0014349951993417342,0.5200133323669434,2019-06-20 14:49:03:417,0.0,0.0,0.0
-0.18286068737506866,0.11441635340452194,9.838553428649902,0.00043992846472289506,-0.005674850904254987,-0.00023628007642628753,0.5258970260620117,2019-06-20 14:49:03:423,0.0,0.0,0.0
-0.19004493951797485,0.05454760789871216,9.802632331848145,0.0024377869216420794,-0.005674850904254987,-0.0019677574545201833,0.5299968719482422,2019-06-20 14:49:03:427,0.0,0.0,0.0
-0.2139924317598343,0.10004784911870956,9.843342781066895,0.0005731190285175073,-0.0035438016234668654,0.0006960539514092252,0.5358867645263672,2019-06-20 14:49:03:433,0.0,0.0,0.0
-0.21878193318843842,0.071310855448246,9.814606666564941,0.002970549436894854,-0.003011039368288416,0.0025607219745709597,0.5400257110595703,2019-06-20 14:49:03:437,0.0,0.0,0.0
-0.17088694870471954,0.04736335948109627,9.807421684265137,0.004036073947251752,-0.004209754442439926,0.0009624350789984497,0.5458984375,2019-06-20 14:49:03:443,0.0,0.0,0.0
-0.19004493951797485,0.071310855448246,9.840948104858398,4.035674489342885e-05,-0.005142088649076538,-0.0017013763269309588,0.5500001907348633,2019-06-20 14:49:03:447,0.0,0.0,0.0
-0.17088694870471954,0.0976531058549881,9.886448860168457,-9.283383109216743e-05,-0.004609325873749438,0.002027959589355348,0.5558862686157227,2019-06-20 14:49:03:453,0.0,0.0,0.0
-0.1613079458475113,0.07849510759115219,9.8505277633667,0.0007063095923121196,-0.0006136089599110694,0.00042967279131070986,0.5599956512451172,2019-06-20 14:49:03:457,0.0,0.0,0.0
-0.2068081945180893,0.09286360442638397,9.867290496826172,-0.003156217017805962,-0.0014127523426787432,-0.0005026612202701574,0.5658893585205078,2019-06-20 14:49:03:463,0.0,0.0,0.0
-0.20201869308948517,0.044968608766794205,9.864895820617676,0.0025709774854366916,-0.003410611059672253,-0.0011686140717525096,0.5699958801269531,2019-06-20 14:49:03:467,0.0,0.0,0.0
-0.1469394415616989,0.06412661075592041,9.857711791992188,0.0009726907199013442,-0.0014127523426787432,0.0013620067703822866,0.5750007629394531,2019-06-20 14:49:03:472,0.0,0.0,0.0
-0.1876501888036728,0.059337109327316284,9.82179069519043,0.00043992846472289506,-0.003410611059672253,0.001628387897971511,0.5800085067749023,2019-06-20 14:49:03:477,0.0,0.0,0.0
-0.1996239423751831,0.07610035687685013,9.79305362701416,0.0032369305644840782,-0.0044761355700291515,0.007222391967456715,0.5853619575500488,2019-06-20 14:49:03:482,0.0,0.0,0.0
-0.1876501888036728,0.09286360442638397,9.812211036682129,-0.002223883071243676,5.234389563494396e-05,0.003226674793544021,0.5909128189086914,2019-06-20 14:49:03:488,0.0,0.0,0.0
-0.20201869308948517,0.07610035687685013,9.776289939880371,0.002970549436894854,-0.005674850904254987,0.0005628633876146128,0.5949935913085938,2019-06-20 14:49:03:492,0.0,0.0,0.0
-0.19483444094657898,0.08088985830545425,9.886448860168457,0.003370121128278691,-0.004609325873749438,0.0006960539514092252,0.6008949279785156,2019-06-20 14:49:03:498,0.0,0.0,0.0
-0.2068081945180893,0.09046885371208191,9.790658950805664,-0.002223883071243676,-0.005142088649076538,3.010106944941304e-05,0.6050019264221191,2019-06-20 14:49:03:502,0.0,0.0,0.0
-0.22836093604564667,0.071310855448246,9.83376407623291,-0.0026234547626275127,-0.005674850904254987,0.002027959589355348,0.6100044250488281,2019-06-20 14:49:03:507,0.0,0.0,0.0
-0.20201869308948517,0.011442113667726517,9.840948104858398,-0.002756645326422125,-0.0011463712150895187,0.004292199303900919,0.615025520324707,2019-06-20 14:49:03:512,0.0,0.0,0.0
-0.21159768104553223,0.037784360349178314,9.82179069519043,0.0015054529750797934,-0.005541660080386049,0.004824961819153694,0.6209211349487305,2019-06-20 14:49:03:518,0.0,0.0,0.0
-0.1876501888036728,0.06173185631632805,9.802632331848145,0.0015054529750797934,-0.004742516697618376,-0.0007690423803686727,0.6250114440917969,2019-06-20 14:49:03:522,0.0,0.0,0.0
-0.19243969023227692,0.04736335948109627,9.828974723815918,-0.0030230264540113496,-0.003144229932083028,-0.00023628007642628753,0.6300058364868164,2019-06-20 14:49:03:527,0.0,0.0,0.0
-0.1613079458475113,0.044968608766794205,9.766711235046387,0.006566694659349385,-0.0024782768530356414,-0.0021009480183147955,0.6359076499938965,2019-06-20 14:49:03:533,0.0,0.0,0.0
-0.1876501888036728,0.037784360349178314,9.80502700805664,-0.0006255961106525846,-0.0018123241640997428,-0.001834566890725571,0.6400008201599121,2019-06-20 14:49:03:537,0.0,0.0,0.0
-0.18525543808937073,0.071310855448246,9.828974723815918,0.004568835942355876,-0.003011039368288416,-0.005963474628432877,0.6458868980407715,2019-06-20 14:49:03:543,0.0,0.0,0.0
-0.19722919166088104,0.08328460156917572,9.807421684265137,0.0016386436689115682,-0.0006136089599110694,0.004425389867695532,0.6500034332275391,2019-06-20 14:49:03:547,0.0,0.0,0.0
-0.18525543808937073,0.08088985830545425,9.754737854003906,0.002970549436894854,-0.0050088978252076,-0.0038324256077190803,0.6558904647827148,2019-06-20 14:49:03:553,0.0,0.0,0.0
-0.19004493951797485,0.08567935228347778,9.814606666564941,-0.00035921498306336,-0.004875707001338663,-0.0029000914010824694,0.6599984169006348,2019-06-20 14:49:03:557,0.0,0.0,0.0
-0.2068081945180893,0.08088985830545425,9.797842979431152,-0.003156217017805962,0.0012510590632506652,-0.003965616171513693,0.6649990081787109,2019-06-20 14:49:03:562,0.0,0.0,0.0
-0.19004493951797485,0.06652135401964188,9.817001342773438,-0.002223883071243676,-0.0052752789527968245,0.00016329164746684,0.670008659362793,2019-06-20 14:49:03:567,0.0,0.0,0.0
-0.2068081945180893,0.09525835514068604,9.817001342773438,-0.00022602440301410239,-0.0028778488044938037,-0.0014349951993417342,0.6758890151977539,2019-06-20 14:49:03:573,0.0,0.0,0.0
-0.19483444094657898,0.05454760789871216,9.864895820617676,0.0007063095923121196,-0.004342945006234539,-0.005164331245665204,0.6800127029418945,2019-06-20 14:49:03:577,0.0,0.0,0.0
-0.19483444094657898,0.1239953488111496,9.781079292297363,0.0020382153602954054,-0.005142088649076538,0.0009624350789984497,0.6858911514282227,2019-06-20 14:49:03:583,0.0,0.0,0.0
-0.2068081945180893,0.05694235861301422,9.788264274597168,-0.00035921498306336,-0.0040765638786453146,0.0018947690255607357,0.6901130676269531,2019-06-20 14:49:03:587,0.0,0.0,0.0
-0.2331504374742508,0.08807410299777985,9.83376407623291,-0.001158358430849615,-8.084668035065233e-05,-0.00876047672819406,0.6959009170532227,2019-06-20 14:49:03:593,0.0,0.0,0.0
-0.20201869308948517,0.06652135401964188,9.838553428649902,0.0037696928196625274,-0.009404186690504131,0.0021611501531499603,0.7000026702880859,2019-06-20 14:49:03:597,0.0,0.0,0.0
-0.17807118594646454,0.07610035687685013,9.819396018981934,0.0009726907199013442,-0.0038101827510560898,-0.0019677574545201833,0.7058849334716797,2019-06-20 14:49:03:603,0.0,0.0,0.0
-0.19004493951797485,0.02820536121726036,9.845738410949707,0.0009726907199013442,-0.005142088649076538,-0.007428571090247938,0.7100048065185547,2019-06-20 14:49:03:607,0.0,0.0,0.0
-0.21638718247413635,0.07370560616254807,9.828974723815918,-0.0032894075816005744,-0.0026114674168302536,-0.004365187862897529,0.7150273323059082,2019-06-20 14:49:03:612,0.0,0.0,0.0
-0.21159768104553223,0.06652135401964188,9.814606666564941,-0.003955360400573636,-0.004209754442439926,0.002693912538365572,0.7200069427490234,2019-06-20 14:49:03:617,0.0,0.0,0.0
-0.20441344380378723,0.071310855448246,9.783474922180176,-0.0007587866744471969,-0.000879990087500294,-0.003566044480129856,0.7250003814697266,2019-06-20 14:49:03:622,0.0,0.0,0.0
-0.20441344380378723,0.071310855448246,9.845738410949707,-0.0026234547626275127,-0.0020787052916889674,-0.005031140421796266,0.7309083938598633,2019-06-20 14:49:03:628,0.0,0.0,0.0
-0.21878193318843842,0.08328460156917572,9.848133087158203,-0.001158358430849615,-0.0038101827510560898,-0.004631568990486754,0.7349967956542969,2019-06-20 14:49:03:632,0.0,0.0,0.0
-0.2259661853313446,0.06652135401964188,9.809816360473633,0.003103740000689466,-0.0040765638786453146,-0.0015681857631363464,0.7408952713012695,2019-06-20 14:49:03:638,0.0,0.0,0.0
-0.19483444094657898,0.08328460156917572,9.726000785827637,-0.0008919772382418092,-0.0038101827510560898,-0.004498378166617817,0.7450027465820312,2019-06-20 14:49:03:642,0.0,0.0,0.0
-0.17088694870471954,0.09286360442638397,9.778684616088867,-9.283383109216743e-05,-0.0016791336003051302,0.0056241052019213676,0.7500057220458984,2019-06-20 14:49:03:647,0.0,0.0,0.0
-0.21638718247413635,0.06652135401964188,9.8505277633667,-0.0008919772382418092,-0.003410611059672253,3.010106944941304e-05,0.7558860778808594,2019-06-20 14:49:03:653,0.0,0.0,0.0
-0.16370269656181335,0.0976531058549881,9.790658950805664,0.003103740000689466,-0.003676992187261477,-0.0017013763269309588,0.7600250244140625,2019-06-20 14:49:03:657,0.0,0.0,0.0
-0.16849219799041748,0.0976531058549881,9.802632331848145,-0.003422598145395187,-0.0020787052916889674,-0.00010308950450435256,0.7650041580200195,2019-06-20 14:49:03:662,0.0,0.0,0.0
-0.16609744727611542,0.071310855448246,9.809816360473633,-0.0004924055468579722,-0.0003472278323218449,-0.0005026612202701574,0.7708964347839355,2019-06-20 14:49:03:668,0.0,0.0,0.0
-0.1613079458475113,0.09046885371208191,9.855317115783691,-0.0018243112498226766,-0.0010131806512949063,0.0005628633876146128,0.7751016616821289,2019-06-20 14:49:03:672,0.0,0.0,0.0
-0.19004493951797485,0.06652135401964188,9.838553428649902,0.00017354732087902514,-0.0052752789527968245,-0.004098806735308305,0.7800092697143555,2019-06-20 14:49:03:677,0.0,0.0,0.0
-0.19722919166088104,0.06412661075592041,9.828974723815918,0.0037696928196625274,-0.006340803463153723,0.00042967279131070986,0.7850031852722168,2019-06-20 14:49:03:682,0.0,0.0,0.0
-0.15172894299030304,0.09525835514068604,9.783474922180176,0.0016386436689115682,-0.004342945006234539,0.0014951973341768988,0.7908945083618164,2019-06-20 14:49:03:688,0.0,0.0,0.0
-0.18286068737506866,0.059337109327316284,9.817001342773438,0.004169264511046364,-0.003011039368288416,-0.0034328539163352434,0.7950019836425781,2019-06-20 14:49:03:692,0.0,0.0,0.0
-0.1876501888036728,0.07610035687685013,9.91279125213623,-0.001158358430849615,-0.0038101827510560898,-0.0023673291459040203,0.8000044822692871,2019-06-20 14:49:03:697,0.0,0.0,0.0
-0.1613079458475113,0.08328460156917572,9.824185371398926,0.001372262411285181,-0.0026114674168302536,-0.00010308950450435256,0.8058996200561523,2019-06-20 14:49:03:703,0.0,0.0,0.0
-0.1876501888036728,0.06173185631632805,9.867290496826172,-0.0008919772382418092,-0.0038101827510560898,0.0017615784617661236,0.8100094795227051,2019-06-20 14:49:03:707,0.0,0.0,0.0
-0.1996239423751831,0.06412661075592041,9.781079292297363,0.00043992846472289506,-0.00647399428702266,0.001095625642793062,0.8150248527526855,2019-06-20 14:49:03:712,0.0,0.0,0.0
-0.24033468961715698,0.044968608766794205,9.819396018981934,-0.0024902641988329005,-0.001945514727894355,0.0009624350789984497,0.8200273513793945,2019-06-20 14:49:03:717,0.0,0.0,0.0
-0.2259661853313446,0.08328460156917572,9.857711791992188,-0.0008919772382418092,-0.0012795617788841308,0.0030934842297494092,0.8250217437744141,2019-06-20 14:49:03:722,0.0,0.0,0.0
-0.19722919166088104,0.11920584738254547,9.797842979431152,0.004568835942355876,-0.00021403725227258724,0.0028271031021601845,0.8308954238891602,2019-06-20 14:49:03:728,0.0,0.0,0.0
-0.21159768104553223,0.10004784911870956,9.886448860168457,-0.002756645326422125,-0.0018123241640997428,0.0002964822275160976,0.8349971771240234,2019-06-20 14:49:03:732,0.0,0.0,0.0
-0.1876501888036728,0.04736335948109627,9.864895820617676,-0.0006255961106525846,0.0011178684994560528,0.003493055921133246,0.8400092124938965,2019-06-20 14:49:03:737,0.0,0.0,0.0
-0.23075568675994873,0.02102111279964447,9.809816360473633,0.0005731190285175073,-0.003410611059672253,0.004025818176311695,0.8450040817260742,2019-06-20 14:49:03:742,0.0,0.0,0.0
-0.20201869308948517,0.06652135401964188,9.788264274597168,0.0016386436689115682,-0.003410611059672253,0.0009624350789984497,0.8500080108642578,2019-06-20 14:49:03:747,0.0,0.0,0.0
-0.2068081945180893,0.0976531058549881,9.776289939880371,0.0024377869216420794,-0.0026114674168302536,3.010106944941304e-05,0.8558969497680664,2019-06-20 14:49:03:753,0.0,0.0,0.0
-0.19722919166088104,0.06891610473394394,9.838553428649902,-0.0010251678020364214,-0.0024782768530356414,0.00042967279131070986,0.8600082397460938,2019-06-20 14:49:03:757,0.0,0.0,0.0
-0.1996239423751831,0.059337109327316284,9.838553428649902,0.0016386436689115682,-0.0050088978252076,0.003626246484927858,0.8658866882324219,2019-06-20 14:49:03:763,0.0,0.0,0.0
-0.22836093604564667,0.044968608766794205,9.814606666564941,-0.0016911206860280642,-0.0032774204958776402,0.0009624350789984497,0.8709135055541992,2019-06-20 14:49:03:768,0.0,0.0,0.0
-0.2451241910457611,0.06652135401964188,9.845738410949707,0.0016386436689115682,-0.0020787052916889674,0.0009624350789984497,0.8750014305114746,2019-06-20 14:49:03:772,0.0,0.0,0.0
-0.21159768104553223,0.10723210126161575,9.86250114440918,0.0011058812836959564,-0.0018123241640997428,0.001628387897971511,0.8800082206726074,2019-06-20 14:49:03:777,0.0,0.0,0.0
-0.2068081945180893,0.10483735054731369,9.773895263671875,-0.0008919772382418092,-0.0040765638786453146,0.002027959589355348,0.8850088119506836,2019-06-20 14:49:03:782,0.0,0.0,0.0
-0.23554518818855286,0.06652135401964188,9.809816360473633,0.007099456914527835,-0.007406327973510622,0.0029602936659547966,0.8900070190429688,2019-06-20 14:49:03:787,0.0,0.0,0.0
-0.20920294523239136,0.07370560616254807,9.809816360473633,0.0015054529750797934,-0.0004804183961164572,-0.0007690423803686727,0.8950014114379883,2019-06-20 14:49:03:792,0.0,0.0,0.0
-0.18286068737506866,0.037784360349178314,9.836158752441406,0.0005731190285175073,-0.003011039368288416,-0.0025005197096986324,0.9009017944335938,2019-06-20 14:49:03:798,0.0,0.0,0.0
-0.22117668390274048,0.037784360349178314,9.828974723815918,0.0024377869216420794,-0.0015459429064733554,-0.0017013763269309588,0.9050054550170898,2019-06-20 14:49:03:802,0.0,0.0,0.0
-0.18525543808937073,0.06412661075592041,9.828974723815918,0.0008395001561067318,-0.0028778488044938037,0.0002964822275160976,0.9100065231323242,2019-06-20 14:49:03:807,0.0,0.0,0.0
-0.20201869308948517,0.03299486264586449,9.76431655883789,-0.0012915489946442272,-0.002211895725446417,-0.0011686140717525096,0.9159326553344727,2019-06-20 14:49:03:813,0.0,0.0,0.0
-0.21638718247413635,0.08567935228347778,9.83376407623291,-0.0006255961106525846,-0.007139946845921397,-0.0015681857631363464,0.920008659362793,2019-06-20 14:49:03:817,0.0,0.0,0.0
-0.20441344380378723,0.10962685197591782,9.867290496826172,0.005101598717682976,-0.005674850904254987,-0.0007690423803686727,0.9250020980834961,2019-06-20 14:49:03:822,0.0,0.0,0.0
-0.2139924317598343,0.059337109327316284,9.8505277633667,0.0011058812836959564,-0.00993694894568258,-0.0026337102734932446,0.9308896064758301,2019-06-20 14:49:03:828,0.0,0.0,0.0
-0.18525543808937073,0.08088985830545425,9.840948104858398,0.0021714059240900176,-0.003943373314850702,-0.00010308950450435256,0.93499755859375,2019-06-20 14:49:03:832,0.0,0.0,0.0
-0.23554518818855286,0.05694235861301422,9.817001342773438,0.0019050247965007928,-0.002744658240699191,-0.0005026612202701574,0.9408912658691406,2019-06-20 14:49:03:838,0.0,0.0,0.0
-0.18286068737506866,0.0976531058549881,9.828974723815918,-0.0014247395584388394,-0.0040765638786453146,-0.00023628007642628753,0.9450225830078125,2019-06-20 14:49:03:842,0.0,0.0,0.0
-0.20201869308948517,0.07610035687685013,9.83376407623291,0.0028373588731002413,-0.004875707001338663,-0.00023628007642628753,0.9509077072143555,2019-06-20 14:49:03:848,0.0,0.0,0.0
-0.19243969023227692,0.09525835514068604,9.797842979431152,-0.002223883071243676,-0.0020787052916889674,-0.0010354235079578973,0.9558863639831543,2019-06-20 14:49:03:853,0.0,0.0,0.0
-0.23554518818855286,0.07849510759115219,9.814606666564941,0.0024377869216420794,-0.0044761355700291515,0.0022943408469817354,0.9601039886474609,2019-06-20 14:49:03:857,0.0,0.0,0.0
-0.19722919166088104,0.052152857184410095,9.79305362701416,0.0024377869216420794,-0.0020787052916889674,0.0002964822275160976,0.965911865234375,2019-06-20 14:49:03:863,0.0,0.0,0.0
-0.24033468961715698,0.06173185631632805,9.896027565002441,0.0027041680492313038,-0.00793909022868907,-0.00010308950450435256,0.9700031280517578,2019-06-20 14:49:03:867,0.0,0.0,0.0
-0.21159768104553223,0.08567935228347778,9.812211036682129,0.0012390718474905686,-0.0011463712150895187,-0.005297521549385491,0.9750022888183594,2019-06-20 14:49:03:872,0.0,0.0,0.0
-0.2068081945180893,0.059337109327316284,9.771500587463379,-0.0004924055468579722,-0.0026114674168302536,0.0014951973341768988,0.980898380279541,2019-06-20 14:49:03:878,0.0,0.0,0.0
-0.2139924317598343,0.10723210126161575,9.781079292297363,-0.0016911206860280642,-0.0040765638786453146,-0.0021009480183147955,0.9850034713745117,2019-06-20 14:49:03:882,0.0,0.0,0.0
-0.18525543808937073,0.052152857184410095,9.766711235046387,0.0016386436689115682,-0.0015459429064733554,-0.00010308950450435256,0.9900059700012207,2019-06-20 14:49:03:887,0.0,0.0,0.0
-0.22357143461704254,0.059337109327316284,9.828974723815918,-0.0006255961106525846,-0.005674850904254987,0.003626246484927858,0.9959173202514648,2019-06-20 14:49:03:893,0.0,0.0,0.0
-0.21159768104553223,0.07370560616254807,9.838553428649902,0.0016386436689115682,-0.0023450862892410293,-0.0017013763269309588,1.0000052452087402,2019-06-20 14:49:03:897,0.0,0.0,0.0
-0.19243969023227692,0.08328460156917572,9.783474922180176,0.0028373588731002413,-0.003144229932083028,0.0006960539514092252,1.005882740020752,2019-06-20 14:49:03:903,0.0,0.0,0.0
-0.20920294523239136,0.05694235861301422,9.771500587463379,0.0021714059240900176,-0.0032774204958776402,0.001095625642793062,1.010915756225586,2019-06-20 14:49:03:908,0.0,0.0,0.0
-0.20920294523239136,0.08567935228347778,9.879264831542969,0.0009726907199013442,-0.002744658240699191,0.0038926276125170823,1.0150208473205566,2019-06-20 14:49:03:912,0.0,0.0,0.0
-0.2331504374742508,0.08807410299777985,9.8505277633667,-0.00022602440301410239,-0.0016791336003051302,0.0005628633876146128,1.0208959579467773,2019-06-20 14:49:03:918,0.0,0.0,0.0
-0.22357143461704254,0.07370560616254807,9.828974723815918,-0.002756645326422125,-0.003943373314850702,0.002027959589355348,1.0250020027160645,2019-06-20 14:49:03:922,0.0,0.0,0.0
-0.2139924317598343,0.04017911106348038,9.848133087158203,0.002970549436894854,-0.0038101827510560898,0.0014951973341768988,1.0300054550170898,2019-06-20 14:49:03:927,0.0,0.0,0.0
-0.1876501888036728,0.059337109327316284,9.75234317779541,0.0011058812836959564,-0.006873565718332173,0.0024275314107763475,1.0358872413635254,2019-06-20 14:49:03:933,0.0,0.0,0.0
-0.2331504374742508,0.08807410299777985,9.809816360473633,0.0012390718474905686,-0.0003472278323218449,0.004159008740106307,1.0400099754333496,2019-06-20 14:49:03:937,0.0,0.0,0.0
-0.2068081945180893,0.071310855448246,9.783474922180176,0.0037696928196625274,-0.0050088978252076,0.0022943408469817354,1.0450119972229004,2019-06-20 14:49:03:942,0.0,0.0,0.0
-0.21159768104553223,0.06891610473394394,9.857711791992188,0.006033932404170936,-0.004609325873749438,0.0025607219745709597,1.0500068664550781,2019-06-20 14:49:03:947,0.0,0.0,0.0
-0.17088694870471954,0.06412661075592041,9.852922439575195,-0.0008919772382418092,-0.005674850904254987,0.0033598653573386336,1.0558958053588867,2019-06-20 14:49:03:953,0.0,0.0,0.0
-0.19243969023227692,0.06412661075592041,9.75234317779541,-0.0004924055468579722,-0.003676992187261477,0.0013620067703822866,1.060007095336914,2019-06-20 14:49:03:957,0.0,0.0,0.0
-0.20920294523239136,0.06173185631632805,9.857711791992188,0.0024377869216420794,-0.0007467995237056817,0.007355582271177002,1.065887451171875,2019-06-20 14:49:03:963,0.0,0.0,0.0
-0.20920294523239136,0.07849510759115219,9.83376407623291,0.0017718342327061804,-0.003676992187261477,0.0029602936659547966,1.070004940032959,2019-06-20 14:49:03:967,0.0,0.0,0.0
-0.2259661853313446,0.07370560616254807,9.797842979431152,0.0011058812836959564,-0.0023450862892410293,0.004958152122873981,1.0750055313110352,2019-06-20 14:49:03:972,0.0,0.0,0.0
-0.1876501888036728,0.06173185631632805,9.795448303222656,0.0023045963578474673,-0.0016791336003051302,0.00549091437805243,1.0800065994262695,2019-06-20 14:49:03:977,0.0,0.0,0.0
-0.15651844441890717,0.04736335948109627,9.795448303222656,-0.0016911206860280642,-0.00793909022868907,0.0022943408469817354,1.0859251022338867,2019-06-20 14:49:03:983,0.0,0.0,0.0
-0.1876501888036728,0.11202160269021988,9.817001342773438,0.0009726907199013442,-0.008738234131605394,0.0025607219745709597,1.0909080505371094,2019-06-20 14:49:03:988,0.0,0.0,0.0
-0.1996239423751831,0.04736335948109627,9.817001342773438,0.0020382153602954054,0.0009846778706428594,0.0021611501531499603,1.094998836517334,2019-06-20 14:49:03:992,0.0,0.0,0.0
-0.19483444094657898,0.06652135401964188,9.8505277633667,-0.001158358430849615,-0.003676992187261477,0.0012288162065876742,1.1009235382080078,2019-06-20 14:49:03:998,0.0,0.0,0.0
-0.20441344380378723,0.07610035687685013,9.785869598388672,0.006699885483218323,-0.004342945006234539,0.004691770995284756,1.1050200462341309,2019-06-20 14:49:04:002,0.0,0.0,0.0
-0.19722919166088104,0.07610035687685013,9.800237655639648,0.0019050247965007928,-0.0038101827510560898,0.0013620067703822866,1.1100082397460938,2019-06-20 14:49:04:007,0.0,0.0,0.0
-0.1541236937046051,0.06652135401964188,9.788264274597168,0.0016386436689115682,-0.004609325873749438,0.003626246484927858,1.1150259971618652,2019-06-20 14:49:04:012,0.0,0.0,0.0
-0.19722919166088104,0.04017911106348038,9.864895820617676,-0.00035921498306336,-0.005808041207975274,-0.0019677574545201833,1.120898723602295,2019-06-20 14:49:04:018,0.0,0.0,0.0
-0.22836093604564667,0.08807410299777985,9.76431655883789,0.0028373588731002413,-0.0024782768530356414,0.0033598653573386336,1.1250042915344238,2019-06-20 14:49:04:022,0.0,0.0,0.0
-0.24033468961715698,0.06652135401964188,9.80502700805664,-0.00022602440301410239,-0.0035438016234668654,0.0002964822275160976,1.130894660949707,2019-06-20 14:49:04:028,0.0,0.0,0.0
-0.23554518818855286,0.05454760789871216,9.814606666564941,0.006966266610807547,0.000851487306848247,0.002693912538365572,1.135171890258789,2019-06-20 14:49:04:032,0.0,0.0,0.0
-0.24272944033145905,0.05454760789871216,9.82179069519043,-0.0023570736350382883,-0.0026114674168302536,0.0033598653573386336,1.1414461135864258,2019-06-20 14:49:04:038,0.0,0.0,0.0
-0.2139924317598343,0.11202160269021988,9.893632888793945,-0.002223883071243676,-0.0014127523426787432,-0.0021009480183147955,1.1464624404907227,2019-06-20 14:49:04:043,0.0,0.0,0.0
-0.2068081945180893,0.05694235861301422,9.809816360473633,-0.0024902641988329005,-0.002744658240699191,0.004025818176311695,1.1515693664550781,2019-06-20 14:49:04:048,0.0,0.0,0.0
-0.24033468961715698,0.06412661075592041,9.795448303222656,-0.0026234547626275127,-0.005541660080386049,-0.0011686140717525096,1.1564741134643555,2019-06-20 14:49:04:053,0.0,0.0,0.0
-0.24033468961715698,0.052152857184410095,9.852922439575195,-0.004354932091957473,-0.0020787052916889674,0.0002964822275160976,1.161473274230957,2019-06-20 14:49:04:058,0.0,0.0,0.0
-0.19722919166088104,0.04257386177778244,9.836158752441406,0.001372262411285181,-0.0018123241640997428,-0.0014349951993417342,1.1664628982543945,2019-06-20 14:49:04:063,0.0,0.0,0.0
-0.22117668390274048,0.08807410299777985,9.819396018981934,0.004169264511046364,-0.0023450862892410293,-0.00010308950450435256,1.171480655670166,2019-06-20 14:49:04:068,0.0,0.0,0.0
-0.1996239423751831,0.07849510759115219,9.886448860168457,0.0007063095923121196,-0.0011463712150895187,0.003493055921133246,1.1764650344848633,2019-06-20 14:49:04:073,0.0,0.0,0.0
-0.20201869308948517,0.052152857184410095,9.817001342773438,0.0021714059240900176,5.234389563494396e-05,-0.000902232944163285,1.1815195083618164,2019-06-20 14:49:04:078,0.0,0.0,0.0
-0.21159768104553223,0.07849510759115219,9.819396018981934,-0.00448812291582641,-0.002744658240699191,-0.0010354235079578973,1.186467170715332,2019-06-20 14:49:04:083,0.0,0.0,0.0
-0.21878193318843842,0.06412661075592041,9.814606666564941,0.0028373588731002413,-0.0003472278323218449,-0.00010308950450435256,1.1914787292480469,2019-06-20 14:49:04:088,0.0,0.0,0.0
-0.23075568675994873,0.04736335948109627,9.840948104858398,0.0005731190285175073,-0.006207613159433436,0.002693912538365572,1.196563720703125,2019-06-20 14:49:04:093,0.0,0.0,0.0
-0.19004493951797485,0.07370560616254807,9.843342781066895,-0.001957501813617289,-0.0003472278323218449,-0.0015681857631363464,1.2014904022216797,2019-06-20 14:49:04:098,0.0,0.0,0.0
-0.22357143461704254,0.04736335948109627,9.778684616088867,0.0027041680492313038,0.0013842496270452774,0.002027959589355348,1.2064685821533203,2019-06-20 14:49:04:103,0.0,0.0,0.0
-0.18286068737506866,0.07610035687685013,9.795448303222656,0.0028373588731002413,-0.003676992187261477,-0.001834566890725571,1.2114830017089844,2019-06-20 14:49:04:108,0.0,0.0,0.0
-0.23075568675994873,0.06412661075592041,9.795448303222656,-0.0006255961106525846,-0.0040765638786453146,-0.000902232944163285,1.21649169921875,2019-06-20 14:49:04:113,0.0,0.0,0.0
-0.20441344380378723,0.05454760789871216,9.788264274597168,0.0019050247965007928,-0.0067403754146118855,0.0008292445152038374,1.221470832824707,2019-06-20 14:49:04:118,0.0,0.0,0.0
-0.20920294523239136,0.09046885371208191,9.8505277633667,0.0019050247965007928,-0.003011039368288416,-0.0027669008372878568,1.2264633178710938,2019-06-20 14:49:04:123,0.0,0.0,0.0
-0.2259661853313446,0.06891610473394394,9.845738410949707,0.0032369305644840782,-0.006207613159433436,0.0028271031021601845,1.2315540313720703,2019-06-20 14:49:04:128,0.0,0.0,0.0
-0.19004493951797485,0.05454760789871216,9.87447452545166,0.0007063095923121196,-0.0014127523426787432,0.0017615784617661236,1.236471176147461,2019-06-20 14:49:04:133,0.0,0.0,0.0
-0.1876501888036728,0.023415861651301384,9.82179069519043,-0.0014247395584388394,-0.0032774204958776402,0.0028271031021601845,1.2414741516113281,2019-06-20 14:49:04:138,0.0,0.0,0.0
-0.18525543808937073,0.08088985830545425,9.82179069519043,-0.0006255961106525846,-0.007139946845921397,0.001628387897971511,1.2461137771606445,2019-06-20 14:49:04:143,0.0,0.0,0.0
-0.19483444094657898,0.0976531058549881,9.824185371398926,0.0008395001561067318,-8.084668035065233e-05,-0.00036947065647554515,1.2500076293945312,2019-06-20 14:49:04:147,0.0,0.0,0.0
-0.22836093604564667,0.11202160269021988,9.800237655639648,0.005234789021403263,-0.0014127523426787432,0.0006960539514092252,1.255000114440918,2019-06-20 14:49:04:152,0.0,0.0,0.0
-0.22836093604564667,0.09525835514068604,9.843342781066895,-0.0012915489946442272,-0.005541660080386049,-0.0005026612202701574,1.2600107192993164,2019-06-20 14:49:04:157,0.0,0.0,0.0
-0.1996239423751831,0.08567935228347778,9.831369400024414,0.0015054529750797934,-0.002744658240699191,-0.00010308950450435256,1.2650070190429688,2019-06-20 14:49:04:162,0.0,0.0,0.0
-0.22357143461704254,0.0976531058549881,9.759527206420898,0.0028373588731002413,-0.004875707001338663,0.0025607219745709597,1.270002841949463,2019-06-20 14:49:04:167,0.0,0.0,0.0
-0.1469394415616989,0.08328460156917572,9.771500587463379,0.00017354732087902514,-0.005941232031844212,-0.0007690423803686727,1.2759084701538086,2019-06-20 14:49:04:173,0.0,0.0,0.0
-0.23075568675994873,0.06652135401964188,9.828974723815918,0.0028373588731002413,-0.005808041207975274,0.007089201143587778,1.2800264358520508,2019-06-20 14:49:04:177,0.0,0.0,0.0
-0.19483444094657898,0.07610035687685013,9.75234317779541,0.002970549436894854,-0.003676992187261477,-0.000902232944163285,1.2850022315979004,2019-06-20 14:49:04:182,0.0,0.0,0.0
-0.24751892685890198,0.04975811019539833,9.82179069519043,0.004702026766224813,-0.000879990087500294,-0.004498378166617817,1.2900190353393555,2019-06-20 14:49:04:187,0.0,0.0,0.0
-0.19243969023227692,0.06652135401964188,9.819396018981934,-9.283383109216743e-05,-0.003943373314850702,-0.0011686140717525096,1.2959089279174805,2019-06-20 14:49:04:193,0.0,0.0,0.0
-0.2068081945180893,0.044968608766794205,9.905606269836426,0.0011058812836959564,-0.005941232031844212,-0.001834566890725571,1.3008875846862793,2019-06-20 14:49:04:198,0.0,0.0,0.0
-0.21159768104553223,0.08328460156917572,9.831369400024414,-0.002090692377411901,-0.0014127523426787432,-0.0010354235079578973,1.3049955368041992,2019-06-20 14:49:04:202,0.0,0.0,0.0
-0.1996239423751831,0.07370560616254807,9.824185371398926,-0.0006255961106525846,-0.004875707001338663,0.0021611501531499603,1.3100104331970215,2019-06-20 14:49:04:207,0.0,0.0,0.0
-0.17807118594646454,0.10483735054731369,9.795448303222656,0.007099456914527835,-0.004609325873749438,0.0021611501531499603,1.3158960342407227,2019-06-20 14:49:04:213,0.0,0.0,0.0
-0.19483444094657898,0.023415861651301384,9.807421684265137,0.0012390718474905686,-0.004742516697618376,-0.0019677574545201833,1.3200054168701172,2019-06-20 14:49:04:217,0.0,0.0,0.0
-0.1996239423751831,0.06412661075592041,9.737974166870117,-0.002223883071243676,-0.0024782768530356414,0.0029602936659547966,1.325033187866211,2019-06-20 14:49:04:222,0.0,0.0,0.0
-0.19483444094657898,0.08328460156917572,9.761921882629395,-0.0012915489946442272,0.0032489176502070124,0.004425389867695532,1.330007553100586,2019-06-20 14:49:04:227,0.0,0.0,0.0
-0.2139924317598343,0.08328460156917572,9.824185371398926,-0.003156217017805962,-0.0023450862892410293,0.0018947690255607357,1.3358840942382812,2019-06-20 14:49:04:233,0.0,0.0,0.0
-0.20441344380378723,0.07849510759115219,9.807421684265137,0.0021714059240900176,-0.0003472278323218449,0.001628387897971511,1.3410720825195312,2019-06-20 14:49:04:238,0.0,0.0,0.0
-0.16370269656181335,0.11441635340452194,9.771500587463379,-0.0012915489946442272,-8.084668035065233e-05,0.003493055921133246,1.3451476097106934,2019-06-20 14:49:04:242,0.0,0.0,0.0
-0.17088694870471954,0.10244259983301163,9.824185371398926,-9.283383109216743e-05,-0.0010131806512949063,0.0014951973341768988,1.3501672744750977,2019-06-20 14:49:04:247,0.0,0.0,0.0
-0.20920294523239136,0.04975811019539833,9.860106468200684,0.0025709774854366916,-0.003943373314850702,0.0006960539514092252,1.3551664352416992,2019-06-20 14:49:04:252,0.0,0.0,0.0
-0.19243969023227692,0.08807410299777985,9.872079849243164,-0.00035921498306336,5.234389563494396e-05,0.005224533250463206,1.3601713180541992,2019-06-20 14:49:04:257,0.0,0.0,0.0
-0.2139924317598343,0.04017911106348038,9.812211036682129,-0.0007587866744471969,-0.0024782768530356414,-0.0015681857631363464,1.3651628494262695,2019-06-20 14:49:04:262,0.0,0.0,0.0
-0.16609744727611542,0.07849510759115219,9.867290496826172,0.0024377869216420794,-0.003943373314850702,0.008554297605402838,1.3704442977905273,2019-06-20 14:49:04:267,0.0,0.0,0.0
-0.19004493951797485,0.10244259983301163,9.852922439575195,0.0011058812836959564,-0.009670568338242006,3.010106944941304e-05,1.3759069442749023,2019-06-20 14:49:04:273,0.0,0.0,0.0
-0.18286068737506866,0.02102111279964447,9.776289939880371,-0.0014247395584388394,-0.007006756542201109,-0.0007690423803686727,1.3800039291381836,2019-06-20 14:49:04:277,0.0,0.0,0.0
-0.19004493951797485,0.10483735054731369,9.840948104858398,0.0007063095923121196,-0.0012795617788841308,-0.00036947065647554515,1.385901927947998,2019-06-20 14:49:04:283,0.0,0.0,0.0
-0.20201869308948517,0.06412661075592041,9.852922439575195,-0.002090692377411901,-0.003676992187261477,-0.00023628007642628753,1.3900070190429688,2019-06-20 14:49:04:287,0.0,0.0,0.0
-0.1876501888036728,0.06652135401964188,9.812211036682129,-0.0012915489946442272,-0.001945514727894355,0.0030934842297494092,1.395003318786621,2019-06-20 14:49:04:292,0.0,0.0,0.0
-0.19004493951797485,0.07849510759115219,9.728395462036133,-0.0006255961106525846,-0.003011039368288416,-0.0026337102734932446,1.400008201599121,2019-06-20 14:49:04:297,0.0,0.0,0.0
-0.16609744727611542,0.0976531058549881,9.807421684265137,-0.00022602440301410239,-0.006207613159433436,0.0024275314107763475,1.4058952331542969,2019-06-20 14:49:04:303,0.0,0.0,0.0
-0.19483444094657898,0.08807410299777985,9.831369400024414,0.0037696928196625274,-0.0028778488044938037,-0.0006358518165740604,1.410001277923584,2019-06-20 14:49:04:307,0.0,0.0,0.0
-0.2259661853313446,0.07370560616254807,9.82179069519043,-0.00022602440301410239,-0.0038101827510560898,0.008287916477813613,1.4159212112426758,2019-06-20 14:49:04:313,0.0,0.0,0.0
-0.1876501888036728,0.07370560616254807,9.80502700805664,0.00043992846472289506,-0.0010131806512949063,0.0012288162065876742,1.4200172424316406,2019-06-20 14:49:04:317,0.0,0.0,0.0
-0.20441344380378723,0.071310855448246,9.831369400024414,0.0027041680492313038,-0.0032774204958776402,-0.000902232944163285,1.425001621246338,2019-06-20 14:49:04:322,0.0,0.0,0.0
-0.18525543808937073,0.07849510759115219,9.864895820617676,-0.0006255961106525846,-0.004342945006234539,0.0029602936659547966,1.4300026893615723,2019-06-20 14:49:04:327,0.0,0.0,0.0
-0.20441344380378723,0.08088985830545425,9.864895820617676,0.0020382153602954054,-0.0067403754146118855,0.003626246484927858,1.435905933380127,2019-06-20 14:49:04:333,0.0,0.0,0.0
-0.2068081945180893,0.07849510759115219,9.824185371398926,-0.0023570736350382883,-0.0050088978252076,0.005091342946742919,1.4400010108947754,2019-06-20 14:49:04:337,0.0,0.0,0.0
-0.24272944033145905,0.08807410299777985,9.90321159362793,0.0011058812836959564,-0.003011039368288416,0.001095625642793062,1.4458866119384766,2019-06-20 14:49:04:343,0.0,0.0,0.0
-0.24033468961715698,0.07370560616254807,9.781079292297363,0.0003067379009282828,0.00031872505166979784,0.0009624350789984497,1.4500055313110352,2019-06-20 14:49:04:347,0.0,0.0,0.0
-0.19243969023227692,0.07370560616254807,9.814606666564941,-0.0026234547626275127,-0.004609325873749438,0.001628387897971511,1.455007553100586,2019-06-20 14:49:04:352,0.0,0.0,0.0
-0.21638718247413635,0.0976531058549881,9.814606666564941,0.0035033116920733026,-0.0032774204958776402,0.0014951973341768988,1.4600048065185547,2019-06-20 14:49:04:357,0.0,0.0,0.0
-0.22357143461704254,0.04257386177778244,9.869685173034668,0.003370121128278691,-0.0010131806512949063,-0.0021009480183147955,1.4650402069091797,2019-06-20 14:49:04:362,0.0,0.0,0.0
-0.2139924317598343,0.09525835514068604,9.843342781066895,-9.283383109216743e-05,-0.0050088978252076,3.010106944941304e-05,1.4700088500976562,2019-06-20 14:49:04:367,0.0,0.0,0.0
-0.2259661853313446,0.1311796009540558,9.836158752441406,0.001372262411285181,-0.001945514727894355,0.002027959589355348,1.475886344909668,2019-06-20 14:49:04:373,0.0,0.0,0.0
-0.19243969023227692,0.09525835514068604,9.828974723815918,-0.002090692377411901,-0.00647399428702266,0.0013620067703822866,1.480006217956543,2019-06-20 14:49:04:377,0.0,0.0,0.0
-0.23075568675994873,0.06652135401964188,9.802632331848145,0.0005731190285175073,-0.003144229932083028,0.0028271031021601845,1.4858989715576172,2019-06-20 14:49:04:383,0.0,0.0,0.0
-0.20920294523239136,0.05454760789871216,9.809816360473633,0.003370121128278691,-8.084668035065233e-05,0.002027959589355348,1.489999771118164,2019-06-20 14:49:04:387,0.0,0.0,0.0
-0.22117668390274048,0.09525835514068604,9.836158752441406,-0.001557930122233452,-0.0067403754146118855,0.0012288162065876742,1.4950017929077148,2019-06-20 14:49:04:392,0.0,0.0,0.0
-0.22836093604564667,0.03538960963487625,9.778684616088867,0.0011058812836959564,-0.008871424435325683,0.0014951973341768988,1.5008964538574219,2019-06-20 14:49:04:398,0.0,0.0,0.0
-0.18525543808937073,0.04975811019539833,9.773895263671875,0.002970549436894854,-0.0050088978252076,0.0037594370487224705,1.5050020217895508,2019-06-20 14:49:04:402,0.0,0.0,0.0
-0.21878193318843842,0.071310855448246,9.80502700805664,0.0005731190285175073,-0.0018123241640997428,-0.0005026612202701574,1.511080265045166,2019-06-20 14:49:04:408,0.0,0.0,0.0
-0.22836093604564667,0.09525835514068604,9.80502700805664,-0.00022602440301410239,-0.002211895725446417,-0.0014349951993417342,1.5150079727172852,2019-06-20 14:49:04:412,0.0,0.0,0.0
-0.20920294523239136,0.08088985830545425,9.857711791992188,0.0012390718474905686,-0.0023450862892410293,0.0025607219745709597,1.5200119018554688,2019-06-20 14:49:04:417,0.0,0.0,0.0
-0.17088694870471954,0.044968608766794205,9.783474922180176,0.0005731190285175073,-0.0011463712150895187,0.0014951973341768988,1.5250234603881836,2019-06-20 14:49:04:422,0.0,0.0,0.0
-0.2451241910457611,0.04017911106348038,9.797842979431152,-0.0004924055468579722,-0.0012795617788841308,0.0013620067703822866,1.5309076309204102,2019-06-20 14:49:04:428,0.0,0.0,0.0
-0.2139924317598343,0.052152857184410095,9.855317115783691,0.0037696928196625274,-0.0040765638786453146,0.0009624350789984497,1.5349969863891602,2019-06-20 14:49:04:432,0.0,0.0,0.0
-0.2451241910457611,0.04257386177778244,9.797842979431152,-0.0004924055468579722,-0.002744658240699191,0.001628387897971511,1.540015697479248,2019-06-20 14:49:04:437,0.0,0.0,0.0
-0.20920294523239136,0.052152857184410095,9.840948104858398,-0.0010251678020364214,-0.003676992187261477,0.0014951973341768988,1.5450072288513184,2019-06-20 14:49:04:442,0.0,0.0,0.0
-0.1613079458475113,0.04736335948109627,9.845738410949707,-0.0018243112498226766,-0.0007467995237056817,-0.004631568990486754,1.5500068664550781,2019-06-20 14:49:04:447,0.0,0.0,0.0
-0.17807118594646454,0.06173185631632805,9.80502700805664,-0.00035921498306336,-0.004609325873749438,-0.0011686140717525096,1.5558843612670898,2019-06-20 14:49:04:453,0.0,0.0,0.0
-0.2259661853313446,0.05454760789871216,9.814606666564941,0.002970549436894854,-0.0016791336003051302,-0.0023673291459040203,1.560007095336914,2019-06-20 14:49:04:457,0.0,0.0,0.0
-0.22836093604564667,0.071310855448246,9.797842979431152,-0.00448812291582641,-0.004209754442439926,-0.004231997299102917,1.565028190612793,2019-06-20 14:49:04:462,0.0,0.0,0.0
-0.21638718247413635,0.059337109327316284,9.79305362701416,-0.00022602440301410239,-0.0020787052916889674,0.0025607219745709597,1.5700092315673828,2019-06-20 14:49:04:467,0.0,0.0,0.0
-0.19004493951797485,0.06173185631632805,9.869685173034668,-0.0007587866744471969,-0.0028778488044938037,0.0012288162065876742,1.5750236511230469,2019-06-20 14:49:04:472,0.0,0.0,0.0
-0.19483444094657898,0.09525835514068604,9.82179069519043,-0.0023570736350382883,-0.002211895725446417,-0.00010308950450435256,1.5808954238891602,2019-06-20 14:49:04:478,0.0,0.0,0.0
-0.1876501888036728,0.04975811019539833,9.797842979431152,-0.0010251678020364214,0.0013842496270452774,-0.0014349951993417342,1.585000991821289,2019-06-20 14:49:04:482,0.0,0.0,0.0
-0.20201869308948517,0.116811104118824,9.826580047607422,-0.00448812291582641,-0.0028778488044938037,-0.0023673291459040203,1.59000825881958,2019-06-20 14:49:04:487,0.0,0.0,0.0
-0.1876501888036728,0.06173185631632805,9.840948104858398,0.004036073947251752,-0.0038101827510560898,0.0006960539514092252,1.5950069427490234,2019-06-20 14:49:04:492,0.0,0.0,0.0
-0.1876501888036728,0.0976531058549881,9.740368843078613,0.00017354732087902514,-0.006607184590742948,-0.0015681857631363464,1.600006103515625,2019-06-20 14:49:04:497,0.0,0.0,0.0
-0.1996239423751831,0.071310855448246,9.79305362701416,0.0043024550748409765,-0.006873565718332173,0.001095625642793062,1.605888843536377,2019-06-20 14:49:04:503,0.0,0.0,0.0
-0.21159768104553223,0.08328460156917572,9.843342781066895,-0.002223883071243676,-0.0028778488044938037,-0.00023628007642628753,1.6100072860717773,2019-06-20 14:49:04:507,0.0,0.0,0.0
-0.19243969023227692,0.05694235861301422,9.819396018981934,0.001372262411285181,-0.0015459429064733554,-0.001834566890725571,1.6150074005126953,2019-06-20 14:49:04:512,0.0,0.0,0.0
-0.18525543808937073,0.11202160269021988,9.800237655639648,-0.002889835890216737,-0.002744658240699191,-0.0034328539163352434,1.6200475692749023,2019-06-20 14:49:04:517,0.0,0.0,0.0
-0.21159768104553223,0.116811104118824,9.836158752441406,0.0009726907199013442,-0.0038101827510560898,0.0025607219745709597,1.6259040832519531,2019-06-20 14:49:04:523,0.0,0.0,0.0
-0.19722919166088104,0.07370560616254807,9.867290496826172,0.004702026766224813,-0.002744658240699191,-0.000902232944163285,1.6300048828125,2019-06-20 14:49:04:527,0.0,0.0,0.0
-0.1469394415616989,0.05694235861301422,9.76431655883789,0.0025709774854366916,-0.005142088649076538,0.0009624350789984497,1.6358847618103027,2019-06-20 14:49:04:533,0.0,0.0,0.0
-0.1613079458475113,0.07370560616254807,9.855317115783691,-0.0026234547626275127,-0.004609325873749438,0.001095625642793062,1.640005111694336,2019-06-20 14:49:04:537,0.0,0.0,0.0
-0.17088694870471954,0.08807410299777985,9.809816360473633,0.0027041680492313038,-0.007406327973510622,-0.0005026612202701574,1.6458964347839355,2019-06-20 14:49:04:543,0.0,0.0,0.0
-0.2068081945180893,0.06173185631632805,9.802632331848145,0.0021714059240900176,-0.0016791336003051302,-0.0019677574545201833,1.6500020027160645,2019-06-20 14:49:04:547,0.0,0.0,0.0
-0.18525543808937073,0.06652135401964188,9.819396018981934,0.0024377869216420794,0.0012510590632506652,0.003626246484927858,1.6558866500854492,2019-06-20 14:49:04:553,0.0,0.0,0.0
-0.15651844441890717,0.06412661075592041,9.781079292297363,-0.001158358430849615,-0.006074422335564498,-0.0007690423803686727,1.6600074768066406,2019-06-20 14:49:04:557,0.0,0.0,0.0
-0.19243969023227692,0.05694235861301422,9.778684616088867,0.0011058812836959564,-0.0010131806512949063,-0.0011686140717525096,1.6650056838989258,2019-06-20 14:49:04:562,0.0,0.0,0.0
-0.20201869308948517,0.06652135401964188,9.809816360473633,0.0009726907199013442,-0.0018123241640997428,0.003493055921133246,1.6709060668945312,2019-06-20 14:49:04:568,0.0,0.0,0.0
-0.18286068737506866,0.08567935228347778,9.845738410949707,0.0012390718474905686,-0.0050088978252076,0.00042967279131070986,1.6750144958496094,2019-06-20 14:49:04:572,0.0,0.0,0.0
-0.21878193318843842,0.06891610473394394,9.838553428649902,0.0008395001561067318,-0.003011039368288416,-0.0005026612202701574,1.6809015274047852,2019-06-20 14:49:04:578,0.0,0.0,0.0
-0.22357143461704254,0.06412661075592041,9.840948104858398,0.0024377869216420794,-0.0026114674168302536,0.0005628633876146128,1.6849908828735352,2019-06-20 14:49:04:582,0.0,0.0,0.0
-0.15651844441890717,0.06412661075592041,9.845738410949707,0.0016386436689115682,-0.0015459429064733554,-0.0013018046355471218,1.690901756286621,2019-06-20 14:49:04:588,0.0,0.0,0.0
-0.20441344380378723,0.06652135401964188,9.809816360473633,-9.283383109216743e-05,-0.0023450862892410293,0.0021611501531499603,1.695002555847168,2019-06-20 14:49:04:592,0.0,0.0,0.0
-0.21159768104553223,0.08328460156917572,9.80502700805664,-0.001158358430849615,-0.0032774204958776402,0.002693912538365572,1.7008914947509766,2019-06-20 14:49:04:598,0.0,0.0,0.0
-0.20920294523239136,0.07370560616254807,9.838553428649902,-0.0012915489946442272,-0.002211895725446417,0.002027959589355348,1.7049965858459473,2019-06-20 14:49:04:602,0.0,0.0,0.0
-0.21159768104553223,0.08328460156917572,9.785869598388672,-0.0006255961106525846,-0.002744658240699191,0.0013620067703822866,1.7109832763671875,2019-06-20 14:49:04:608,0.0,0.0,0.0
-0.2259661853313446,0.08807410299777985,9.80502700805664,-0.0016911206860280642,-0.0067403754146118855,-0.00010308950450435256,1.7150344848632812,2019-06-20 14:49:04:612,0.0,0.0,0.0
-0.1996239423751831,0.09525835514068604,9.795448303222656,0.00017354732087902514,-0.0035438016234668654,-0.005297521549385491,1.7208867073059082,2019-06-20 14:49:04:618,0.0,0.0,0.0
-0.22836093604564667,0.09046885371208191,9.783474922180176,-9.283383109216743e-05,-0.004209754442439926,-0.0021009480183147955,1.7249937057495117,2019-06-20 14:49:04:622,0.0,0.0,0.0
-0.18525543808937073,0.07370560616254807,9.83376407623291,-0.0014247395584388394,-0.006074422335564498,-0.0025005197096986324,1.7308979034423828,2019-06-20 14:49:04:628,0.0,0.0,0.0
-0.2331504374742508,0.03299486264586449,9.824185371398926,0.003103740000689466,-0.003410611059672253,-0.000902232944163285,1.7358956336975098,2019-06-20 14:49:04:633,0.0,0.0,0.0
-0.18525543808937073,0.03299486264586449,9.79305362701416,0.0009726907199013442,-0.007006756542201109,0.00016329164746684,1.7399969100952148,2019-06-20 14:49:04:637,0.0,0.0,0.0
-0.1804659366607666,0.07610035687685013,9.75234317779541,-0.0008919772382418092,-0.0016791336003051302,-0.005697093500843653,1.7458772659301758,2019-06-20 14:49:04:643,0.0,0.0,0.0
-0.19722919166088104,0.04257386177778244,9.80502700805664,0.0015054529750797934,-0.0026114674168302536,0.0017615784617661236,1.7500061988830566,2019-06-20 14:49:04:647,0.0,0.0,0.0
-0.19483444094657898,0.07370560616254807,9.857711791992188,-0.00022602440301410239,-0.003943373314850702,-0.0025005197096986324,1.7558965682983398,2019-06-20 14:49:04:653,0.0,0.0,0.0
-0.21159768104553223,0.10004784911870956,9.82179069519043,-0.0010251678020364214,-0.003676992187261477,-0.0006358518165740604,1.7603559494018555,2019-06-20 14:49:04:657,0.0,0.0,0.0
-0.20441344380378723,0.037784360349178314,9.831369400024414,-0.0004924055468579722,-0.005674850904254987,0.0017615784617661236,1.7664384841918945,2019-06-20 14:49:04:663,0.0,0.0,0.0
-0.1804659366607666,0.04017911106348038,9.826580047607422,-0.0016911206860280642,-0.007006756542201109,0.0008292445152038374,1.7714805603027344,2019-06-20 14:49:04:668,0.0,0.0,0.0
-0.21878193318843842,0.06173185631632805,9.82179069519043,0.001372262411285181,-0.0014127523426787432,-0.0006358518165740604,1.7764616012573242,2019-06-20 14:49:04:673,0.0,0.0,0.0
-0.2068081945180893,0.07370560616254807,9.800237655639648,0.0012390718474905686,-0.0020787052916889674,-0.00023628007642628753,1.7815704345703125,2019-06-20 14:49:04:678,0.0,0.0,0.0
-0.21159768104553223,0.11920584738254547,9.778684616088867,-9.283383109216743e-05,-0.0032774204958776402,-0.0026337102734932446,1.7864627838134766,2019-06-20 14:49:04:683,0.0,0.0,0.0
-0.1804659366607666,0.04257386177778244,9.802632331848145,-0.00022602440301410239,-0.007006756542201109,-0.0006358518165740604,1.7914800643920898,2019-06-20 14:49:04:688,0.0,0.0,0.0
-0.17807118594646454,0.023415861651301384,9.869685173034668,-0.00035921498306336,-0.0024782768530356414,-0.0014349951993417342,1.7964673042297363,2019-06-20 14:49:04:693,0.0,0.0,0.0
-0.19243969023227692,0.044968608766794205,9.845738410949707,-0.0012915489946442272,-0.0020787052916889674,0.0013620067703822866,1.8014793395996094,2019-06-20 14:49:04:698,0.0,0.0,0.0
-0.19483444094657898,0.10004784911870956,9.80502700805664,4.035674489342885e-05,-0.005142088649076538,-0.0006358518165740604,1.8064846992492676,2019-06-20 14:49:04:703,0.0,0.0,0.0
-0.20441344380378723,0.10723210126161575,9.840948104858398,4.035674489342885e-05,-0.004742516697618376,-0.0029000914010824694,1.811540126800537,2019-06-20 14:49:04:708,0.0,0.0,0.0
-0.20441344380378723,0.07370560616254807,9.817001342773438,0.0009726907199013442,-0.0035438016234668654,0.00016329164746684,1.8164916038513184,2019-06-20 14:49:04:713,0.0,0.0,0.0
-0.2259661853313446,0.06652135401964188,9.83376407623291,0.00017354732087902514,-0.0050088978252076,0.0028271031021601845,1.8215179443359375,2019-06-20 14:49:04:718,0.0,0.0,0.0
-0.20441344380378723,0.10962685197591782,9.819396018981934,0.0020382153602954054,-0.0035438016234668654,0.0038926276125170823,1.8265581130981445,2019-06-20 14:49:04:723,0.0,0.0,0.0
-0.21159768104553223,0.052152857184410095,9.82179069519043,0.0005731190285175073,-0.0015459429064733554,-0.0030332819648770815,1.831477165222168,2019-06-20 14:49:04:728,0.0,0.0,0.0
-0.22836093604564667,0.071310855448246,9.807421684265137,-0.0023570736350382883,-0.003144229932083028,-0.005963474628432877,1.836465835571289,2019-06-20 14:49:04:733,0.0,0.0,0.0
-0.17807118594646454,0.08567935228347778,9.809816360473633,-0.0018243112498226766,-0.005408469776665762,-0.0021009480183147955,1.8414883613586426,2019-06-20 14:49:04:738,0.0,0.0,0.0
-0.20441344380378723,0.06173185631632805,9.82179069519043,-0.00022602440301410239,-0.004742516697618376,0.001628387897971511,1.8464689254760742,2019-06-20 14:49:04:743,0.0,0.0,0.0
-0.22836093604564667,0.07610035687685013,9.855317115783691,-0.0006255961106525846,-0.003410611059672253,-0.00023628007642628753,1.8514676094055176,2019-06-20 14:49:04:748,0.0,0.0,0.0
-0.1876501888036728,0.044968608766794205,9.795448303222656,-0.00022602440301410239,-0.0018123241640997428,-0.004365187862897529,1.8565526008605957,2019-06-20 14:49:04:753,0.0,0.0,0.0
-0.22357143461704254,0.07370560616254807,9.836158752441406,0.0039028833834571395,-0.005408469776665762,0.0014951973341768988,1.8614797592163086,2019-06-20 14:49:04:758,0.0,0.0,0.0
-0.1996239423751831,0.10483735054731369,9.872079849243164,0.0015054529750797934,-0.004209754442439926,-0.0048979501180759786,1.8664660453796387,2019-06-20 14:49:04:763,0.0,0.0,0.0
-0.1349657028913498,0.07849510759115219,9.831369400024414,0.0028373588731002413,-0.0052752789527968245,0.0017615784617661236,1.871037483215332,2019-06-20 14:49:04:768,0.0,0.0,0.0
-0.16609744727611542,0.071310855448246,9.824185371398926,-0.0018243112498226766,-0.0015459429064733554,0.001628387897971511,1.8750200271606445,2019-06-20 14:49:04:772,0.0,0.0,0.0
-0.21638718247413635,0.07849510759115219,9.797842979431152,0.0011058812836959564,-0.0040765638786453146,0.001095625642793062,1.8800063133239746,2019-06-20 14:49:04:777,0.0,0.0,0.0
-0.19004493951797485,0.08088985830545425,9.778684616088867,0.0027041680492313038,-0.0007467995237056817,0.0037594370487224705,1.8850021362304688,2019-06-20 14:49:04:782,0.0,0.0,0.0
-0.15172894299030304,0.0976531058549881,9.817001342773438,-0.004621313219546697,-0.0040765638786453146,0.0017615784617661236,1.8900117874145508,2019-06-20 14:49:04:787,0.0,0.0,0.0
-0.1804659366607666,0.030600111931562424,9.872079849243164,0.0003067379009282828,0.0004519156154644102,-0.0038324256077190803,1.8958911895751953,2019-06-20 14:49:04:793,0.0,0.0,0.0
-0.19483444094657898,0.08328460156917572,9.800237655639648,0.002970549436894854,-0.003011039368288416,-0.0015681857631363464,1.9008893966674805,2019-06-20 14:49:04:798,0.0,0.0,0.0
-0.22836093604564667,0.08088985830545425,9.819396018981934,0.0016386436689115682,-0.0024782768530356414,0.002693912538365572,1.9050250053405762,2019-06-20 14:49:04:802,0.0,0.0,0.0
-0.18525543808937073,0.09046885371208191,9.845738410949707,0.001372262411285181,-0.0011463712150895187,0.0022943408469817354,1.9109001159667969,2019-06-20 14:49:04:808,0.0,0.0,0.0
-0.18525543808937073,0.09286360442638397,9.807421684265137,0.0019050247965007928,0.0004519156154644102,0.0017615784617661236,1.914999008178711,2019-06-20 14:49:04:812,0.0,0.0,0.0
-0.18286068737506866,0.05694235861301422,9.759527206420898,0.0023045963578474673,-0.0024782768530356414,0.0024275314107763475,1.9200382232666016,2019-06-20 14:49:04:817,0.0,0.0,0.0
-0.17567645013332367,0.11920584738254547,9.908001899719238,-0.00035921498306336,-0.0014127523426787432,0.003226674793544021,1.9250102043151855,2019-06-20 14:49:04:822,0.0,0.0,0.0
-0.21159768104553223,0.08088985830545425,9.86250114440918,0.005101598717682976,-0.0020787052916889674,0.003493055921133246,1.9300017356872559,2019-06-20 14:49:04:827,0.0,0.0,0.0
-0.19722919166088104,0.06891610473394394,9.776289939880371,0.0021714059240900176,-0.0028778488044938037,-0.0027669008372878568,1.935910701751709,2019-06-20 14:49:04:833,0.0,0.0,0.0
-0.21638718247413635,0.06652135401964188,9.802632331848145,0.00017354732087902514,-0.004742516697618376,-0.0017013763269309588,1.940892219543457,2019-06-20 14:49:04:838,0.0,0.0,0.0
-0.19243969023227692,0.04257386177778244,9.884054183959961,-0.002090692377411901,-0.0028778488044938037,-0.0031664725286716937,1.9449963569641113,2019-06-20 14:49:04:842,0.0,0.0,0.0
-0.2068081945180893,0.071310855448246,9.807421684265137,0.0008395001561067318,-0.0010131806512949063,-0.0013018046355471218,1.9508957862854004,2019-06-20 14:49:04:848,0.0,0.0,0.0
-0.2331504374742508,0.06412661075592041,9.788264274597168,0.005234789021403263,-0.0028778488044938037,-0.0007690423803686727,1.9550046920776367,2019-06-20 14:49:04:852,0.0,0.0,0.0
-0.23075568675994873,0.10483735054731369,9.826580047607422,0.0039028833834571395,-0.0004804183961164572,0.003626246484927858,1.9608917236328125,2019-06-20 14:49:04:858,0.0,0.0,0.0
-0.1804659366607666,0.06891610473394394,9.831369400024414,0.0017718342327061804,-0.002744658240699191,0.0017615784617661236,1.965158462524414,2019-06-20 14:49:04:862,0.0,0.0,0.0
-0.21878193318843842,0.04017911106348038,9.838553428649902,0.0027041680492313038,-0.004875707001338663,-0.0031664725286716937,1.9700193405151367,2019-06-20 14:49:04:867,0.0,0.0,0.0
-0.20441344380378723,0.06412661075592041,9.754737854003906,0.0005731190285175073,-0.0011463712150895187,0.001628387897971511,1.9750003814697266,2019-06-20 14:49:04:872,0.0,0.0,0.0
-0.24751892685890198,0.059337109327316284,9.781079292297363,0.0011058812836959564,-0.0026114674168302536,0.001628387897971511,1.980010986328125,2019-06-20 14:49:04:877,0.0,0.0,0.0
-0.2068081945180893,0.11441635340452194,9.788264274597168,0.0003067379009282828,-0.001945514727894355,0.0006960539514092252,1.9850101470947266,2019-06-20 14:49:04:882,0.0,0.0,0.0
-0.20441344380378723,0.06412661075592041,9.843342781066895,-0.001957501813617289,-0.004342945006234539,-0.002234138582109408,1.990004539489746,2019-06-20 14:49:04:887,0.0,0.0,0.0
-0.21159768104553223,0.11441635340452194,9.852922439575195,0.0007063095923121196,-0.003943373314850702,0.0017615784617661236,1.9950017929077148,2019-06-20 14:49:04:892,0.0,0.0,0.0
-0.22836093604564667,0.07370560616254807,9.817001342773438,-0.0032894075816005744,-0.0035438016234668654,-0.0010354235079578973,2.000011444091797,2019-06-20 14:49:04:897,0.0,0.0,0.0
-0.2139924317598343,0.08328460156917572,9.809816360473633,0.003636502255867915,-0.0040765638786453146,0.0006960539514092252,2.0058932304382324,2019-06-20 14:49:04:903,0.0,0.0,0.0
-0.20441344380378723,0.025810612365603447,9.76431655883789,0.003103740000689466,-0.005941232031844212,-0.0013018046355471218,2.010023593902588,2019-06-20 14:49:04:907,0.0,0.0,0.0
-0.20201869308948517,0.05694235861301422,9.848133087158203,0.00017354732087902514,-0.004742516697618376,3.010106944941304e-05,2.015901565551758,2019-06-20 14:49:04:913,0.0,0.0,0.0
-0.19004493951797485,0.08807410299777985,9.845738410949707,-0.0006255961106525846,-0.003011039368288416,-0.0013018046355471218,2.020007610321045,2019-06-20 14:49:04:917,0.0,0.0,0.0
-0.19483444094657898,0.08567935228347778,9.79305362701416,-0.0010251678020364214,-0.0012795617788841308,-0.0031664725286716937,2.0250329971313477,2019-06-20 14:49:04:922,0.0,0.0,0.0
-0.22117668390274048,0.06412661075592041,9.852922439575195,-0.0010251678020364214,-0.0040765638786453146,-0.006096665452301814,2.0300240516662598,2019-06-20 14:49:04:927,0.0,0.0,0.0
-0.20441344380378723,0.071310855448246,9.812211036682129,0.0027041680492313038,-0.003144229932083028,-0.0005026612202701574,2.035000801086426,2019-06-20 14:49:04:932,0.0,0.0,0.0
-0.26188743114471436,0.08088985830545425,9.840948104858398,0.0020382153602954054,-0.006607184590742948,-0.0025005197096986324,2.0400209426879883,2019-06-20 14:49:04:937,0.0,0.0,0.0
-0.20920294523239136,0.071310855448246,9.83376407623291,0.0008395001561067318,-0.0003472278323218449,-0.000902232944163285,2.04500675201416,2019-06-20 14:49:04:942,0.0,0.0,0.0
-0.2259661853313446,0.08328460156917572,9.838553428649902,-9.283383109216743e-05,-0.0018123241640997428,0.0012288162065876742,2.0508875846862793,2019-06-20 14:49:04:948,0.0,0.0,0.0
-0.1996239423751831,0.05454760789871216,9.857711791992188,0.0028373588731002413,-0.006340803463153723,0.00042967279131070986,2.0549979209899902,2019-06-20 14:49:04:952,0.0,0.0,0.0
-0.20441344380378723,0.07849510759115219,9.814606666564941,-0.0008919772382418092,-0.0028778488044938037,-0.0019677574545201833,2.060911178588867,2019-06-20 14:49:04:958,0.0,0.0,0.0
-0.22117668390274048,0.07610035687685013,9.800237655639648,0.002970549436894854,-0.003676992187261477,-0.002234138582109408,2.064999580383301,2019-06-20 14:49:04:962,0.0,0.0,0.0
-0.1996239423751831,0.04736335948109627,9.776289939880371,-0.004354932091957473,0.00018553447162054023,-0.0026337102734932446,2.0708985328674316,2019-06-20 14:49:04:968,0.0,0.0,0.0
-0.19004493951797485,0.071310855448246,9.79305362701416,0.0021714059240900176,-0.006873565718332173,0.001628387897971511,2.0759105682373047,2019-06-20 14:49:04:973,0.0,0.0,0.0
-0.24033468961715698,0.05694235861301422,9.836158752441406,0.00043992846472289506,0.0019170118822237267,-0.0021009480183147955,2.0800085067749023,2019-06-20 14:49:04:977,0.0,0.0,0.0
-0.23793993890285492,0.07849510759115219,9.840948104858398,0.0021714059240900176,-0.005541660080386049,-0.006229855756022102,2.0850048065185547,2019-06-20 14:49:04:982,0.0,0.0,0.0
-0.19722919166088104,0.07849510759115219,9.860106468200684,-0.0016911206860280642,-0.0026114674168302536,-0.0027669008372878568,2.090895175933838,2019-06-20 14:49:04:988,0.0,0.0,0.0
-0.22357143461704254,0.12160059809684753,9.82179069519043,0.0019050247965007928,-0.007539518797379559,-0.006096665452301814,2.0950050354003906,2019-06-20 14:49:04:992,0.0,0.0,0.0
-0.2331504374742508,0.07610035687685013,9.740368843078613,-0.00035921498306336,-0.0014127523426787432,-0.0034328539163352434,2.100005626678467,2019-06-20 14:49:04:997,0.0,0.0,0.0
-0.1732816994190216,0.08088985830545425,9.802632331848145,0.0016386436689115682,-0.003676992187261477,-0.000902232944163285,2.1050076484680176,2019-06-20 14:49:05:002,0.0,0.0,0.0
-0.2068081945180893,0.06891610473394394,9.840948104858398,0.0021714059240900176,-0.0028778488044938037,-0.0021009480183147955,2.110891342163086,2019-06-20 14:49:05:008,0.0,0.0,0.0
-0.18286068737506866,0.06412661075592041,9.836158752441406,0.0008395001561067318,-0.004609325873749438,-0.003965616171513693,2.1149978637695312,2019-06-20 14:49:05:012,0.0,0.0,0.0
-0.20920294523239136,0.10004784911870956,9.809816360473633,-9.283383109216743e-05,-0.006074422335564498,-0.0019677574545201833,2.1200194358825684,2019-06-20 14:49:05:017,0.0,0.0,0.0
-0.16849219799041748,0.09525835514068604,9.80502700805664,-0.0008919772382418092,-0.003676992187261477,-0.0010354235079578973,2.1250085830688477,2019-06-20 14:49:05:022,0.0,0.0,0.0
-0.16609744727611542,0.08088985830545425,9.848133087158203,0.0024377869216420794,-0.0014127523426787432,0.0005628633876146128,2.130183219909668,2019-06-20 14:49:05:027,0.0,0.0,0.0
-0.21159768104553223,0.071310855448246,9.82179069519043,0.0037696928196625274,-0.006074422335564498,0.002693912538365572,2.1350111961364746,2019-06-20 14:49:05:032,0.0,0.0,0.0
-0.2331504374742508,0.12878485023975372,9.819396018981934,0.0011058812836959564,-0.0032774204958776402,-0.0025005197096986324,2.1408891677856445,2019-06-20 14:49:05:038,0.0,0.0,0.0
-0.16849219799041748,0.09286360442638397,9.79305362701416,0.0007063095923121196,-0.005541660080386049,-0.002234138582109408,2.1449995040893555,2019-06-20 14:49:05:042,0.0,0.0,0.0
-0.17807118594646454,0.07610035687685013,9.776289939880371,-0.001557930122233452,-0.006207613159433436,0.0018947690255607357,2.1509151458740234,2019-06-20 14:49:05:048,0.0,0.0,0.0
-0.21878193318843842,0.08328460156917572,9.766711235046387,0.0017718342327061804,-0.0024782768530356414,0.004292199303900919,2.155029296875,2019-06-20 14:49:05:052,0.0,0.0,0.0
-0.1876501888036728,0.06652135401964188,9.83376407623291,-0.0004924055468579722,-0.00793909022868907,0.001095625642793062,2.1608896255493164,2019-06-20 14:49:05:058,0.0,0.0,0.0
-0.21159768104553223,0.052152857184410095,9.826580047607422,-0.0006255961106525846,-0.0044761355700291515,0.001628387897971511,2.1649961471557617,2019-06-20 14:49:05:062,0.0,0.0,0.0
-0.21159768104553223,0.04736335948109627,9.79305362701416,0.004968407893814039,0.0015174401908398898,-0.0029000914010824694,2.1699953079223633,2019-06-20 14:49:05:067,0.0,0.0,0.0
-0.22357143461704254,0.11202160269021988,9.800237655639648,-0.0010251678020364214,-0.003144229932083028,-0.0017013763269309588,2.175006866455078,2019-06-20 14:49:05:072,0.0,0.0,0.0
-0.19722919166088104,0.1239953488111496,9.864895820617676,-9.283383109216743e-05,-0.0024782768530356414,0.0030934842297494092,2.179999351501465,2019-06-20 14:49:05:077,0.0,0.0,0.0
-0.2139924317598343,0.07610035687685013,9.82179069519043,-0.002223883071243676,-0.004609325873749438,-0.00010308950450435256,2.1859068870544434,2019-06-20 14:49:05:083,0.0,0.0,0.0
-0.19722919166088104,0.06412661075592041,9.831369400024414,0.0011058812836959564,-0.006207613159433436,0.0006960539514092252,2.190007209777832,2019-06-20 14:49:05:087,0.0,0.0,0.0
-0.19243969023227692,0.10244259983301163,9.74276351928711,0.0005731190285175073,-0.005142088649076538,0.0002964822275160976,2.195002555847168,2019-06-20 14:49:05:092,0.0,0.0,0.0
-0.2139924317598343,0.04736335948109627,9.757132530212402,-0.002090692377411901,-0.000879990087500294,-0.00036947065647554515,2.2009105682373047,2019-06-20 14:49:05:098,0.0,0.0,0.0
-0.20920294523239136,0.08567935228347778,9.879264831542969,-0.001557930122233452,-0.0012795617788841308,-0.0027669008372878568,2.2049989700317383,2019-06-20 14:49:05:102,0.0,0.0,0.0
-0.18286068737506866,0.09046885371208191,9.826580047607422,0.002970549436894854,-0.005941232031844212,0.004025818176311695,2.210010528564453,2019-06-20 14:49:05:107,0.0,0.0,0.0
-0.2068081945180893,0.07610035687685013,9.807421684265137,0.001372262411285181,-0.004742516697618376,-0.0017013763269309588,2.2150087356567383,2019-06-20 14:49:05:112,0.0,0.0,0.0
-0.1876501888036728,0.06891610473394394,9.82179069519043,0.0009726907199013442,-0.003144229932083028,0.0018947690255607357,2.220008373260498,2019-06-20 14:49:05:117,0.0,0.0,0.0
-0.2139924317598343,0.116811104118824,9.766711235046387,0.0015054529750797934,-0.004342945006234539,0.0006960539514092252,2.225971221923828,2019-06-20 14:49:05:123,0.0,0.0,0.0
-0.1996239423751831,0.08088985830545425,9.790658950805664,0.0021714059240900176,-0.0015459429064733554,-0.0032996633525406317,2.2302193641662598,2019-06-20 14:49:05:127,0.0,0.0,0.0
-0.16849219799041748,0.044968608766794205,9.783474922180176,-0.00022602440301410239,-0.007006756542201109,-0.000902232944163285,2.235109329223633,2019-06-20 14:49:05:132,0.0,0.0,0.0
-0.16849219799041748,0.09525835514068604,9.778684616088867,-0.001158358430849615,-0.006340803463153723,0.003226674793544021,2.240020751953125,2019-06-20 14:49:05:137,0.0,0.0,0.0
-0.18286068737506866,0.071310855448246,9.809816360473633,-0.001957501813617289,-0.006607184590742948,0.0005628633876146128,2.245178699493408,2019-06-20 14:49:05:142,0.0,0.0,0.0
-0.19722919166088104,0.06173185631632805,9.838553428649902,4.035674489342885e-05,-0.003011039368288416,0.00016329164746684,2.250896453857422,2019-06-20 14:49:05:148,0.0,0.0,0.0
-0.20920294523239136,0.05694235861301422,9.838553428649902,0.0027041680492313038,-0.005142088649076538,0.0022943408469817354,2.2549972534179688,2019-06-20 14:49:05:152,0.0,0.0,0.0
-0.24272944033145905,0.07849510759115219,9.812211036682129,0.0011058812836959564,-0.004742516697618376,0.001628387897971511,2.260011672973633,2019-06-20 14:49:05:157,0.0,0.0,0.0
-0.19004493951797485,0.06652135401964188,9.74276351928711,0.0005731190285175073,-0.005941232031844212,3.010106944941304e-05,2.265890598297119,2019-06-20 14:49:05:163,0.0,0.0,0.0
-0.2331504374742508,0.052152857184410095,9.819396018981934,0.0009726907199013442,-0.000879990087500294,0.0033598653573386336,2.2700023651123047,2019-06-20 14:49:05:167,0.0,0.0,0.0
-0.2139924317598343,0.04257386177778244,9.75234317779541,-0.00035921498306336,-0.0004804183961164572,-0.000902232944163285,2.275029182434082,2019-06-20 14:49:05:172,0.0,0.0,0.0
-0.24272944033145905,0.052152857184410095,9.80502700805664,-0.00022602440301410239,-0.0023450862892410293,3.010106944941304e-05,2.2800254821777344,2019-06-20 14:49:05:177,0.0,0.0,0.0
-0.22357143461704254,0.071310855448246,9.773895263671875,-0.0014247395584388394,-0.0003472278323218449,-0.0034328539163352434,2.285001754760742,2019-06-20 14:49:05:182,0.0,0.0,0.0
-0.21159768104553223,0.05694235861301422,9.785869598388672,0.00043992846472289506,-0.002211895725446417,-0.001834566890725571,2.290008544921875,2019-06-20 14:49:05:187,0.0,0.0,0.0
-0.21878193318843842,0.06891610473394394,9.879264831542969,-0.0016911206860280642,-0.003943373314850702,0.0030934842297494092,2.2959108352661133,2019-06-20 14:49:05:193,0.0,0.0,0.0
-0.18286068737506866,0.10483735054731369,9.843342781066895,-0.00035921498306336,-0.004875707001338663,0.002693912538365572,2.300006866455078,2019-06-20 14:49:05:197,0.0,0.0,0.0
-0.21159768104553223,0.05454760789871216,9.83376407623291,0.0012390718474905686,-0.003011039368288416,-0.0026337102734932446,2.304999351501465,2019-06-20 14:49:05:202,0.0,0.0,0.0
-0.2068081945180893,0.059337109327316284,9.884054183959961,0.005101598717682976,-0.0026114674168302536,-0.0007690423803686727,2.310007095336914,2019-06-20 14:49:05:207,0.0,0.0,0.0
-0.21159768104553223,0.07370560616254807,9.848133087158203,0.0011058812836959564,-0.004209754442439926,-0.0015681857631363464,2.3150100708007812,2019-06-20 14:49:05:212,0.0,0.0,0.0
-0.1876501888036728,0.07849510759115219,9.800237655639648,0.0039028833834571395,-0.005674850904254987,-0.0019677574545201833,2.320913791656494,2019-06-20 14:49:05:218,0.0,0.0,0.0
-0.17807118594646454,0.08328460156917572,9.817001342773438,-0.002090692377411901,-0.001945514727894355,-0.0025005197096986324,2.3259172439575195,2019-06-20 14:49:05:223,0.0,0.0,0.0
-0.17807118594646454,0.05454760789871216,9.860106468200684,0.0008395001561067318,-0.002211895725446417,-0.0030332819648770815,2.330005645751953,2019-06-20 14:49:05:227,0.0,0.0,0.0
-0.19004493951797485,0.08328460156917572,9.778684616088867,-0.0006255961106525846,-0.0024782768530356414,-0.0011686140717525096,2.3358840942382812,2019-06-20 14:49:05:233,0.0,0.0,0.0
-0.20201869308948517,0.030600111931562424,9.749947547912598,0.0009726907199013442,-0.0028778488044938037,0.0006960539514092252,2.3409242630004883,2019-06-20 14:49:05:238,0.0,0.0,0.0
-0.23554518818855286,0.07370560616254807,9.778684616088867,0.0035033116920733026,-0.004742516697618376,-0.004631568990486754,2.3450098037719727,2019-06-20 14:49:05:242,0.0,0.0,0.0
-0.18525543808937073,0.08567935228347778,9.785869598388672,-0.0012915489946442272,-0.003144229932083028,-0.0027669008372878568,2.350003719329834,2019-06-20 14:49:05:247,0.0,0.0,0.0
-0.1876501888036728,0.013836863450706005,9.826580047607422,-0.002756645326422125,-0.003943373314850702,0.001095625642793062,2.355884075164795,2019-06-20 14:49:05:253,0.0,0.0,0.0
-0.20201869308948517,0.02820536121726036,9.83376407623291,0.0024377869216420794,-0.0011463712150895187,0.002693912538365572,2.3600101470947266,2019-06-20 14:49:05:257,0.0,0.0,0.0
-0.15651844441890717,0.052152857184410095,9.831369400024414,-0.002889835890216737,-0.003144229932083028,-0.0017013763269309588,2.3658947944641113,2019-06-20 14:49:05:263,0.0,0.0,0.0
-0.2139924317598343,0.06652135401964188,9.812211036682129,0.004435645638635589,-0.003410611059672253,-0.00036947065647554515,2.370011329650879,2019-06-20 14:49:05:267,0.0,0.0,0.0
-0.2331504374742508,0.07610035687685013,9.809816360473633,0.0009726907199013442,-0.006074422335564498,0.001628387897971511,2.375894546508789,2019-06-20 14:49:05:273,0.0,0.0,0.0
-0.18286068737506866,0.044968608766794205,9.802632331848145,-0.0026234547626275127,-0.003144229932083028,-0.00010308950450435256,2.3800034523010254,2019-06-20 14:49:05:277,0.0,0.0,0.0
-0.19243969023227692,0.06891610473394394,9.82179069519043,0.00043992846472289506,-0.0044761355700291515,0.001095625642793062,2.3850460052490234,2019-06-20 14:49:05:282,0.0,0.0,0.0
-0.21638718247413635,0.08567935228347778,9.80502700805664,0.0048352170699451,-0.006207613159433436,-0.000902232944163285,2.3900184631347656,2019-06-20 14:49:05:287,0.0,0.0,0.0
-0.20920294523239136,0.03299486264586449,9.852922439575195,-0.0006255961106525846,-0.003676992187261477,-0.0032996633525406317,2.3949995040893555,2019-06-20 14:49:05:292,0.0,0.0,0.0
-0.18525543808937073,0.04257386177778244,9.819396018981934,0.005634360972861425,-0.0016791336003051302,-0.00010308950450435256,2.4000120162963867,2019-06-20 14:49:05:297,0.0,0.0,0.0
-0.1876501888036728,0.04257386177778244,9.860106468200684,0.00043992846472289506,-0.0035438016234668654,3.010106944941304e-05,2.4050073623657227,2019-06-20 14:49:05:302,0.0,0.0,0.0
-0.20201869308948517,0.06652135401964188,9.778684616088867,-0.0008919772382418092,-0.004875707001338663,0.0012288162065876742,2.410006523132324,2019-06-20 14:49:05:307,0.0,0.0,0.0
-0.18525543808937073,0.08088985830545425,9.795448303222656,0.003103740000689466,-0.0026114674168302536,-0.004231997299102917,2.415261745452881,2019-06-20 14:49:05:312,0.0,0.0,0.0
-0.20441344380378723,0.04975811019539833,9.83376407623291,0.004435645638635589,-0.004875707001338663,-0.0036992350439244686,2.4200258255004883,2019-06-20 14:49:05:317,0.0,0.0,0.0
-0.2139924317598343,0.07370560616254807,9.879264831542969,0.0017718342327061804,-0.0023450862892410293,0.00016329164746684,2.425893783569336,2019-06-20 14:49:05:323,0.0,0.0,0.0
-0.22357143461704254,0.06173185631632805,9.879264831542969,0.0024377869216420794,-0.004742516697618376,-0.0034328539163352434,2.4300031661987305,2019-06-20 14:49:05:327,0.0,0.0,0.0
-0.22357143461704254,0.10004784911870956,9.83376407623291,0.0008395001561067318,-0.006207613159433436,-0.0011686140717525096,2.4359021186828613,2019-06-20 14:49:05:333,0.0,0.0,0.0
-0.16609744727611542,0.059337109327316284,9.819396018981934,0.0015054529750797934,-0.0010131806512949063,-0.0014349951993417342,2.440002918243408,2019-06-20 14:49:05:337,0.0,0.0,0.0
-0.19243969023227692,0.06652135401964188,9.790658950805664,0.0023045963578474673,-0.0028778488044938037,0.0005628633876146128,2.4458847045898438,2019-06-20 14:49:05:343,0.0,0.0,0.0
-0.17567645013332367,0.0976531058549881,9.790658950805664,0.001372262411285181,-0.002211895725446417,0.001628387897971511,2.4500083923339844,2019-06-20 14:49:05:347,0.0,0.0,0.0
-0.21878193318843842,0.10004784911870956,9.867290496826172,-0.0035557887091897987,-0.006607184590742948,-0.0034328539163352434,2.455005168914795,2019-06-20 14:49:05:352,0.0,0.0,0.0
-0.1804659366607666,0.09286360442638397,9.80502700805664,0.0008395001561067318,-0.00021403725227258724,0.001628387897971511,2.4600048065185547,2019-06-20 14:49:05:357,0.0,0.0,0.0
-0.2139924317598343,0.059337109327316284,9.840948104858398,-0.0036889792729844113,-0.003943373314850702,-0.005963474628432877,2.465005874633789,2019-06-20 14:49:05:362,0.0,0.0,0.0
-0.21878193318843842,0.071310855448246,9.785869598388672,-9.283383109216743e-05,-0.0028778488044938037,-0.004498378166617817,2.4708938598632812,2019-06-20 14:49:05:368,0.0,0.0,0.0
-0.19243969023227692,0.037784360349178314,9.776289939880371,-0.0010251678020364214,-0.005541660080386049,-0.004631568990486754,2.4749999046325684,2019-06-20 14:49:05:372,0.0,0.0,0.0
-0.19483444094657898,0.07610035687685013,9.807421684265137,0.001372262411285181,-0.0035438016234668654,-0.0007690423803686727,2.480011463165283,2019-06-20 14:49:05:377,0.0,0.0,0.0
-0.24751892685890198,0.04257386177778244,9.817001342773438,-0.0012915489946442272,-0.0032774204958776402,-0.0031664725286716937,2.48500919342041,2019-06-20 14:49:05:382,0.0,0.0,0.0
-0.20201869308948517,0.09046885371208191,9.83376407623291,-0.0026234547626275127,-0.004742516697618376,-0.0030332819648770815,2.490004062652588,2019-06-20 14:49:05:387,0.0,0.0,0.0
-0.1996239423751831,0.08567935228347778,9.797842979431152,0.0009726907199013442,-0.003676992187261477,0.002693912538365572,2.4949984550476074,2019-06-20 14:49:05:392,0.0,0.0,0.0
-0.21638718247413635,0.10004784911870956,9.778684616088867,0.00017354732087902514,-0.005541660080386049,0.0022943408469817354,2.5008983612060547,2019-06-20 14:49:05:398,0.0,0.0,0.0
-0.20920294523239136,0.052152857184410095,9.864895820617676,-9.283383109216743e-05,0.00031872505166979784,-0.0006358518165740604,2.5050086975097656,2019-06-20 14:49:05:402,0.0,0.0,0.0
-0.23075568675994873,0.0976531058549881,9.790658950805664,-0.0018243112498226766,-0.002744658240699191,0.0005628633876146128,2.510216236114502,2019-06-20 14:49:05:407,0.0,0.0,0.0
-0.1613079458475113,0.08328460156917572,9.812211036682129,-0.0007587866744471969,-0.0003472278323218449,-0.003965616171513693,2.515024185180664,2019-06-20 14:49:05:412,0.0,0.0,0.0
-0.20920294523239136,0.06652135401964188,9.800237655639648,-0.00022602440301410239,-0.005541660080386049,-0.004764759294207041,2.5200042724609375,2019-06-20 14:49:05:417,0.0,0.0,0.0
-0.19004493951797485,0.06652135401964188,9.788264274597168,0.0021714059240900176,-0.0015459429064733554,-0.0017013763269309588,2.5250282287597656,2019-06-20 14:49:05:422,0.0,0.0,0.0
-0.19483444094657898,0.09046885371208191,9.76431655883789,0.0005731190285175073,-0.003011039368288416,-0.0048979501180759786,2.5300254821777344,2019-06-20 14:49:05:427,0.0,0.0,0.0
-0.1613079458475113,0.08567935228347778,9.8505277633667,-0.0018243112498226766,-0.005541660080386049,-0.0013018046355471218,2.535000801086426,2019-06-20 14:49:05:432,0.0,0.0,0.0
-0.19722919166088104,0.06652135401964188,9.795448303222656,0.001372262411285181,-0.0044761355700291515,-0.0014349951993417342,2.540011405944824,2019-06-20 14:49:05:437,0.0,0.0,0.0
-0.23793993890285492,0.09525835514068604,9.881659507751465,0.004169264511046364,-0.0026114674168302536,-0.0019677574545201833,2.54500675201416,2019-06-20 14:49:05:442,0.0,0.0,0.0
-0.2139924317598343,0.08567935228347778,9.934343338012695,-0.0051540754747251465,-0.0032774204958776402,-0.001834566890725571,2.550891399383545,2019-06-20 14:49:05:448,0.0,0.0,0.0
-0.18525543808937073,0.06652135401964188,9.8505277633667,0.0003067379009282828,-0.0038101827510560898,-0.0006358518165740604,2.5549983978271484,2019-06-20 14:49:05:452,0.0,0.0,0.0
-0.22836093604564667,0.05694235861301422,9.812211036682129,0.0011058812836959564,-0.005408469776665762,0.0009624350789984497,2.560906410217285,2019-06-20 14:49:05:458,0.0,0.0,0.0
-0.21878193318843842,0.05454760789871216,9.749947547912598,0.00017354732087902514,0.002050202446018339,-0.003965616171513693,2.5649986267089844,2019-06-20 14:49:05:462,0.0,0.0,0.0
-0.17807118594646454,0.04975811019539833,9.848133087158203,0.0005731190285175073,-0.003011039368288416,-0.0019677574545201833,2.5708980560302734,2019-06-20 14:49:05:468,0.0,0.0,0.0
-0.2139924317598343,0.059337109327316284,9.82179069519043,0.0039028833834571395,-0.008338662180147232,0.0018947690255607357,2.575913429260254,2019-06-20 14:49:05:473,0.0,0.0,0.0
-0.19483444094657898,0.06173185631632805,9.824185371398926,-0.0010251678020364214,-0.0015459429064733554,-0.00023628007642628753,2.580005645751953,2019-06-20 14:49:05:477,0.0,0.0,0.0
-0.23075568675994873,0.071310855448246,9.840948104858398,0.0028373588731002413,-0.003410611059672253,-0.00036947065647554515,2.5858840942382812,2019-06-20 14:49:05:483,0.0,0.0,0.0
-0.13736045360565186,0.09286360442638397,9.855317115783691,0.0009726907199013442,-0.00021403725227258724,-0.0021009480183147955,2.590007781982422,2019-06-20 14:49:05:487,0.0,0.0,0.0
-0.20201869308948517,0.06412661075592041,9.776289939880371,0.0025709774854366916,-0.0015459429064733554,-0.0027669008372878568,2.5950050354003906,2019-06-20 14:49:05:492,0.0,0.0,0.0
-0.20201869308948517,0.07370560616254807,9.812211036682129,0.0020382153602954054,-0.0023450862892410293,0.00016329164746684,2.600005626678467,2019-06-20 14:49:05:497,0.0,0.0,0.0
-0.20920294523239136,0.09046885371208191,9.795448303222656,0.0043024550748409765,-0.0038101827510560898,-0.004098806735308305,2.6050095558166504,2019-06-20 14:49:05:502,0.0,0.0,0.0
-0.21159768104553223,0.04017911106348038,9.852922439575195,0.0023045963578474673,-0.006207613159433436,-0.001834566890725571,2.6108927726745605,2019-06-20 14:49:05:508,0.0,0.0,0.0
-0.23075568675994873,0.04736335948109627,9.852922439575195,0.0017718342327061804,-0.004742516697618376,0.004425389867695532,2.6149983406066895,2019-06-20 14:49:05:512,0.0,0.0,0.0
-0.20920294523239136,0.06412661075592041,9.852922439575195,-0.00035921498306336,-0.0015459429064733554,0.001095625642793062,2.6209068298339844,2019-06-20 14:49:05:518,0.0,0.0,0.0
-0.22357143461704254,0.04736335948109627,9.79305362701416,0.0024377869216420794,-0.002211895725446417,-0.0036992350439244686,2.6259069442749023,2019-06-20 14:49:05:523,0.0,0.0,0.0
-0.18525543808937073,0.07849510759115219,9.778684616088867,0.0009726907199013442,-0.008605043307736458,0.00042967279131070986,2.630002021789551,2019-06-20 14:49:05:527,0.0,0.0,0.0
-0.19004493951797485,0.08567935228347778,9.785869598388672,0.0012390718474905686,-0.0044761355700291515,0.005091342946742919,2.634998321533203,2019-06-20 14:49:05:532,0.0,0.0,0.0
-0.20201869308948517,0.10004784911870956,9.838553428649902,0.0011058812836959564,-0.002211895725446417,-0.0021009480183147955,2.640012741088867,2019-06-20 14:49:05:537,0.0,0.0,0.0
-0.24751892685890198,0.07370560616254807,9.785869598388672,-0.0006255961106525846,-0.0003472278323218449,0.00016329164746684,2.645007610321045,2019-06-20 14:49:05:542,0.0,0.0,0.0
-0.2451241910457611,0.0976531058549881,9.8505277633667,0.0020382153602954054,-0.007006756542201109,0.0013620067703822866,2.650033950805664,2019-06-20 14:49:05:547,0.0,0.0,0.0
-0.16849219799041748,0.08088985830545425,9.814606666564941,0.0037696928196625274,-0.0007467995237056817,-0.0019677574545201833,2.6550254821777344,2019-06-20 14:49:05:552,0.0,0.0,0.0
-0.20201869308948517,0.06412661075592041,9.83376407623291,0.0009726907199013442,-0.0028778488044938037,-0.0014349951993417342,2.660006523132324,2019-06-20 14:49:05:557,0.0,0.0,0.0
-0.24991367757320404,0.08328460156917572,9.773895263671875,0.002970549436894854,-0.0018123241640997428,0.00695601083986749,2.6650118827819824,2019-06-20 14:49:05:562,0.0,0.0,0.0
-0.19004493951797485,0.06412661075592041,9.848133087158203,0.0016386436689115682,-0.0023450862892410293,0.0028271031021601845,2.670027256011963,2019-06-20 14:49:05:567,0.0,0.0,0.0
-0.1876501888036728,0.059337109327316284,9.809816360473633,-0.0007587866744471969,-0.0012795617788841308,-0.0036992350439244686,2.674999237060547,2019-06-20 14:49:05:572,0.0,0.0,0.0
-0.2139924317598343,0.059337109327316284,9.826580047607422,0.0007063095923121196,-0.003410611059672253,0.0028271031021601845,2.6800031661987305,2019-06-20 14:49:05:577,0.0,0.0,0.0
-0.23793993890285492,0.03299486264586449,9.80502700805664,0.001372262411285181,-0.0028778488044938037,-0.00023628007642628753,2.685885429382324,2019-06-20 14:49:05:583,0.0,0.0,0.0
-0.2259661853313446,0.10244259983301163,9.80502700805664,0.0043024550748409765,-0.004342945006234539,0.0014951973341768988,2.69000244140625,2019-06-20 14:49:05:587,0.0,0.0,0.0
-0.16849219799041748,0.04736335948109627,9.769105911254883,-0.0007587866744471969,-0.0018123241640997428,0.0005628633876146128,2.695883274078369,2019-06-20 14:49:05:593,0.0,0.0,0.0
-0.19243969023227692,0.059337109327316284,9.800237655639648,-0.00035921498306336,-0.006074422335564498,-0.0007690423803686727,2.700897693634033,2019-06-20 14:49:05:598,0.0,0.0,0.0
-0.20920294523239136,0.0976531058549881,9.831369400024414,0.006033932404170936,-0.0018123241640997428,0.0029602936659547966,2.705118179321289,2019-06-20 14:49:05:602,0.0,0.0,0.0
-0.21159768104553223,0.052152857184410095,9.857711791992188,0.0023045963578474673,-0.0050088978252076,0.004824961819153694,2.7100305557250977,2019-06-20 14:49:05:607,0.0,0.0,0.0
-0.1732816994190216,0.030600111931562424,9.817001342773438,0.0035033116920733026,-0.001945514727894355,-0.00010308950450435256,2.7159128189086914,2019-06-20 14:49:05:613,0.0,0.0,0.0
-0.2139924317598343,0.052152857184410095,9.831369400024414,0.0005731190285175073,-0.00021403725227258724,0.0014951973341768988,2.7200021743774414,2019-06-20 14:49:05:617,0.0,0.0,0.0
-0.1996239423751831,0.04257386177778244,9.802632331848145,0.00043992846472289506,-0.006207613159433436,-0.0017013763269309588,2.7250099182128906,2019-06-20 14:49:05:622,0.0,0.0,0.0
-0.19483444094657898,0.04975811019539833,9.886448860168457,-0.001158358430849615,-0.004742516697618376,0.0030934842297494092,2.7300195693969727,2019-06-20 14:49:05:627,0.0,0.0,0.0
-0.22117668390274048,0.07370560616254807,9.838553428649902,0.004036073947251752,-0.0006136089599110694,-0.0030332819648770815,2.7350049018859863,2019-06-20 14:49:05:632,0.0,0.0,0.0
-0.16609744727611542,0.06173185631632805,9.864895820617676,0.0012390718474905686,0.00018553447162054023,0.001628387897971511,2.7408924102783203,2019-06-20 14:49:05:638,0.0,0.0,0.0
-0.22836093604564667,0.07849510759115219,9.783474922180176,-9.283383109216743e-05,-0.00647399428702266,-0.0011686140717525096,2.744997978210449,2019-06-20 14:49:05:642,0.0,0.0,0.0
-0.2259661853313446,0.08088985830545425,9.807421684265137,0.0016386436689115682,-0.0035438016234668654,-0.0013018046355471218,2.750899314880371,2019-06-20 14:49:05:648,0.0,0.0,0.0
-0.16849219799041748,0.07610035687685013,9.776289939880371,0.0011058812836959564,-0.0015459429064733554,0.001628387897971511,2.7550058364868164,2019-06-20 14:49:05:652,0.0,0.0,0.0
-0.21159768104553223,0.06652135401964188,9.860106468200684,0.0024377869216420794,-0.001945514727894355,0.0038926276125170823,2.7600088119506836,2019-06-20 14:49:05:657,0.0,0.0,0.0
-0.20441344380378723,0.07370560616254807,9.872079849243164,-0.00022602440301410239,-0.0050088978252076,0.001095625642793062,2.7650041580200195,2019-06-20 14:49:05:662,0.0,0.0,0.0
-0.22357143461704254,0.08088985830545425,9.785869598388672,-0.0023570736350382883,-0.006207613159433436,0.0013620067703822866,2.7702627182006836,2019-06-20 14:49:05:667,0.0,0.0,0.0
-0.23554518818855286,0.07849510759115219,9.809816360473633,0.0025709774854366916,0.00018553447162054023,-0.0032996633525406317,2.7750368118286133,2019-06-20 14:49:05:672,0.0,0.0,0.0
-0.20441344380378723,0.11920584738254547,9.824185371398926,-0.0010251678020364214,-0.003011039368288416,0.00042967279131070986,2.780005931854248,2019-06-20 14:49:05:677,0.0,0.0,0.0
-0.1732816994190216,0.05454760789871216,9.807421684265137,-0.00022602440301410239,-0.0052752789527968245,0.0002964822275160976,2.7858848571777344,2019-06-20 14:49:05:683,0.0,0.0,0.0
-0.20441344380378723,0.07849510759115219,9.843342781066895,-0.0014247395584388394,-0.005808041207975274,-0.00010308950450435256,2.7900094985961914,2019-06-20 14:49:05:687,0.0,0.0,0.0
-0.1996239423751831,0.06173185631632805,9.828974723815918,-0.0018243112498226766,-0.003410611059672253,0.003626246484927858,2.79500675201416,2019-06-20 14:49:05:692,0.0,0.0,0.0
-0.19243969023227692,0.05694235861301422,9.884054183959961,0.0016386436689115682,-0.005674850904254987,-0.00036947065647554515,2.8000059127807617,2019-06-20 14:49:05:697,0.0,0.0,0.0
-0.1996239423751831,0.09046885371208191,9.797842979431152,0.0021714059240900176,-0.0020787052916889674,-0.0005026612202701574,2.805001735687256,2019-06-20 14:49:05:702,0.0,0.0,0.0
-0.22357143461704254,0.06652135401964188,9.790658950805664,-0.0007587866744471969,-0.002744658240699191,-0.0036992350439244686,2.810020923614502,2019-06-20 14:49:05:707,0.0,0.0,0.0
-0.22117668390274048,0.06173185631632805,9.852922439575195,0.003636502255867915,-0.004875707001338663,-0.0007690423803686727,2.8150081634521484,2019-06-20 14:49:05:712,0.0,0.0,0.0
-0.2139924317598343,0.10483735054731369,9.836158752441406,0.0011058812836959564,-0.0012795617788841308,0.005091342946742919,2.820896625518799,2019-06-20 14:49:05:718,0.0,0.0,0.0
-0.20201869308948517,0.06412661075592041,9.824185371398926,-0.0023570736350382883,-0.0023450862892410293,-0.0019677574545201833,2.8250532150268555,2019-06-20 14:49:05:722,0.0,0.0,0.0
-0.22117668390274048,0.04257386177778244,9.908001899719238,0.003103740000689466,-0.003943373314850702,0.0013620067703822866,2.8308920860290527,2019-06-20 14:49:05:728,0.0,0.0,0.0
-0.23075568675994873,0.09286360442638397,9.795448303222656,0.0007063095923121196,-0.005541660080386049,-0.0019677574545201833,2.834998607635498,2019-06-20 14:49:05:732,0.0,0.0,0.0
-0.2139924317598343,0.08567935228347778,9.814606666564941,-9.283383109216743e-05,-0.008871424435325683,-0.002234138582109408,2.8400115966796875,2019-06-20 14:49:05:737,0.0,0.0,0.0
-0.21878193318843842,0.08567935228347778,9.836158752441406,0.0007063095923121196,-0.003676992187261477,0.0024275314107763475,2.845005989074707,2019-06-20 14:49:05:742,0.0,0.0,0.0
-0.21878193318843842,0.07849510759115219,9.781079292297363,-0.002756645326422125,-0.006607184590742948,-0.0017013763269309588,2.850003242492676,2019-06-20 14:49:05:747,0.0,0.0,0.0
-0.20920294523239136,0.052152857184410095,9.857711791992188,0.00017354732087902514,-0.005408469776665762,-0.000902232944163285,2.855001449584961,2019-06-20 14:49:05:752,0.0,0.0,0.0
-0.22357143461704254,0.07610035687685013,9.855317115783691,0.00017354732087902514,-0.0018123241640997428,0.0012288162065876742,2.8600120544433594,2019-06-20 14:49:05:757,0.0,0.0,0.0
-0.19483444094657898,0.059337109327316284,9.852922439575195,0.0032369305644840782,-0.004609325873749438,0.0024275314107763475,2.865009307861328,2019-06-20 14:49:05:762,0.0,0.0,0.0
-0.21878193318843842,0.10483735054731369,9.812211036682129,-0.001158358430849615,-0.0035438016234668654,-0.005563903197123366,2.8700337409973145,2019-06-20 14:49:05:767,0.0,0.0,0.0
-0.19483444094657898,0.10483735054731369,9.843342781066895,0.0028373588731002413,-0.00021403725227258724,-0.0023673291459040203,2.8750219345092773,2019-06-20 14:49:05:772,0.0,0.0,0.0
-0.21638718247413635,0.07610035687685013,9.800237655639648,0.00043992846472289506,-0.0012795617788841308,-0.004631568990486754,2.880007743835449,2019-06-20 14:49:05:777,0.0,0.0,0.0
-0.17807118594646454,0.09046885371208191,9.867290496826172,-0.0010251678020364214,0.0005851061792590224,-0.0007690423803686727,2.8858861923217773,2019-06-20 14:49:05:783,0.0,0.0,0.0
-0.21159768104553223,0.06173185631632805,9.788264274597168,0.00017354732087902514,-0.007539518797379559,0.0033598653573386336,2.8900046348571777,2019-06-20 14:49:05:787,0.0,0.0,0.0
-0.20201869308948517,0.059337109327316284,9.797842979431152,-0.0016911206860280642,-0.006607184590742948,0.002027959589355348,2.8950061798095703,2019-06-20 14:49:05:792,0.0,0.0,0.0
-0.24751892685890198,0.06891610473394394,9.790658950805664,-0.001557930122233452,-0.0007467995237056817,0.0022943408469817354,2.900005340576172,2019-06-20 14:49:05:797,0.0,0.0,0.0
-0.21638718247413635,0.044968608766794205,9.795448303222656,-0.0007587866744471969,-0.0038101827510560898,0.00042967279131070986,2.905000686645508,2019-06-20 14:49:05:802,0.0,0.0,0.0
-0.19243969023227692,0.06652135401964188,9.812211036682129,-0.003822169836779023,-0.0052752789527968245,0.0009624350789984497,2.9109010696411133,2019-06-20 14:49:05:808,0.0,0.0,0.0
-0.1876501888036728,0.08328460156917572,9.757132530212402,0.004568835942355876,-0.0026114674168302536,-0.0013018046355471218,2.9150390625,2019-06-20 14:49:05:812,0.0,0.0,0.0
-0.21159768104553223,0.10004784911870956,9.785869598388672,0.00043992846472289506,-0.002211895725446417,0.002693912538365572,2.9200315475463867,2019-06-20 14:49:05:817,0.0,0.0,0.0
-0.2451241910457611,0.08328460156917572,9.82179069519043,0.0053679798452722005,-0.006340803463153723,0.0024275314107763475,2.9250316619873047,2019-06-20 14:49:05:822,0.0,0.0,0.0
-0.2139924317598343,0.08328460156917572,9.886448860168457,0.004169264511046364,-0.0040765638786453146,0.002693912538365572,2.930891990661621,2019-06-20 14:49:05:828,0.0,0.0,0.0
-0.17088694870471954,0.07370560616254807,9.790658950805664,0.003103740000689466,-0.003676992187261477,0.0013620067703822866,2.9350013732910156,2019-06-20 14:49:05:832,0.0,0.0,0.0
-0.2068081945180893,0.08088985830545425,9.771500587463379,0.0028373588731002413,-0.005941232031844212,0.0006960539514092252,2.9408864974975586,2019-06-20 14:49:05:838,0.0,0.0,0.0
-0.1804659366607666,0.08328460156917572,9.864895820617676,-0.001957501813617289,-0.0018123241640997428,0.0008292445152038374,2.945000171661377,2019-06-20 14:49:05:842,0.0,0.0,0.0
-0.19243969023227692,0.071310855448246,9.845738410949707,0.00043992846472289506,-0.0016791336003051302,0.003226674793544021,2.950018882751465,2019-06-20 14:49:05:847,0.0,0.0,0.0
-0.20201869308948517,0.06173185631632805,9.783474922180176,-0.0008919772382418092,0.00031872505166979784,0.0038926276125170823,2.9550046920776367,2019-06-20 14:49:05:852,0.0,0.0,0.0
-0.2068081945180893,0.071310855448246,9.76431655883789,0.003103740000689466,0.0015174401908398898,0.001095625642793062,2.960895538330078,2019-06-20 14:49:05:858,0.0,0.0,0.0
-0.22357143461704254,0.10244259983301163,9.845738410949707,-0.005420456602314371,0.0004519156154644102,0.0029602936659547966,2.9650049209594727,2019-06-20 14:49:05:862,0.0,0.0,0.0
-0.2139924317598343,0.08567935228347778,9.79305362701416,-0.002223883071243676,-0.0004804183961164572,0.004958152122873981,2.970022201538086,2019-06-20 14:49:05:867,0.0,0.0,0.0
-0.20201869308948517,0.06412661075592041,9.800237655639648,0.0015054529750797934,-0.0026114674168302536,0.002027959589355348,2.975039005279541,2019-06-20 14:49:05:872,0.0,0.0,0.0
-0.23075568675994873,0.05454760789871216,9.745158195495605,-0.001557930122233452,-0.005674850904254987,0.001095625642793062,2.980900764465332,2019-06-20 14:49:05:878,0.0,0.0,0.0
-0.23075568675994873,0.04975811019539833,9.836158752441406,0.0019050247965007928,-0.0032774204958776402,0.00016329164746684,2.9850006103515625,2019-06-20 14:49:05:882,0.0,0.0,0.0
-0.19483444094657898,0.07370560616254807,9.783474922180176,0.0025709774854366916,-0.0003472278323218449,0.006156867457099816,2.99088716506958,2019-06-20 14:49:05:888,0.0,0.0,0.0
-0.22357143461704254,0.05694235861301422,9.828974723815918,-0.001557930122233452,-0.003144229932083028,-0.0019677574545201833,2.995004653930664,2019-06-20 14:49:05:892,0.0,0.0,0.0
-0.1996239423751831,0.07849510759115219,9.800237655639648,0.0012390718474905686,0.0004519156154644102,-0.002234138582109408,3.000889301300049,2019-06-20 14:49:05:898,0.0,0.0,0.0
-0.20920294523239136,0.06173185631632805,9.76431655883789,0.0012390718474905686,-0.0018123241640997428,-0.00023628007642628753,3.005000591278076,2019-06-20 14:49:05:902,0.0,0.0,0.0
-0.2259661853313446,0.07849510759115219,9.828974723815918,0.0039028833834571395,-0.0006136089599110694,-0.0029000914010824694,3.010892868041992,2019-06-20 14:49:05:908,0.0,0.0,0.0
-0.17807118594646454,0.052152857184410095,9.838553428649902,-0.00035921498306336,-0.003676992187261477,0.00042967279131070986,3.0150036811828613,2019-06-20 14:49:05:912,0.0,0.0,0.0
-0.20441344380378723,0.09286360442638397,9.783474922180176,-0.00422174152816286,-0.003011039368288416,0.0013620067703822866,3.020071029663086,2019-06-20 14:49:05:917,0.0,0.0,0.0
-0.16370269656181335,0.0976531058549881,9.80502700805664,0.00017354732087902514,-0.000879990087500294,-0.00023628007642628753,3.0259203910827637,2019-06-20 14:49:05:923,0.0,0.0,0.0
-0.19722919166088104,0.05694235861301422,9.769105911254883,-0.00022602440301410239,-0.0018123241640997428,0.0038926276125170823,3.0300045013427734,2019-06-20 14:49:05:927,0.0,0.0,0.0
-0.1876501888036728,0.05454760789871216,9.785869598388672,0.0027041680492313038,-0.004742516697618376,-0.0017013763269309588,3.035001754760742,2019-06-20 14:49:05:932,0.0,0.0,0.0
-0.20201869308948517,0.09286360442638397,9.759527206420898,0.0053679798452722005,-8.084668035065233e-05,-0.0048979501180759786,3.0408945083618164,2019-06-20 14:49:05:938,0.0,0.0,0.0
-0.21159768104553223,0.06652135401964188,9.848133087158203,0.0023045963578474673,0.0011178684994560528,-0.0023673291459040203,3.045003890991211,2019-06-20 14:49:05:942,0.0,0.0,0.0
-0.22357143461704254,0.030600111931562424,9.83376407623291,-0.0004924055468579722,-0.002744658240699191,0.007089201143587778,3.0508928298950195,2019-06-20 14:49:05:948,0.0,0.0,0.0
-0.2594926953315735,0.052152857184410095,9.872079849243164,-0.002756645326422125,-0.002744658240699191,-0.004231997299102917,3.055002212524414,2019-06-20 14:49:05:952,0.0,0.0,0.0
-0.22117668390274048,0.06652135401964188,9.809816360473633,-0.003422598145395187,-0.0007467995237056817,0.002027959589355348,3.0608997344970703,2019-06-20 14:49:05:958,0.0,0.0,0.0
-0.19722919166088104,0.08567935228347778,9.776289939880371,0.0024377869216420794,-0.003144229932083028,0.0013620067703822866,3.0650792121887207,2019-06-20 14:49:05:962,0.0,0.0,0.0
-0.2259661853313446,0.10962685197591782,9.72360610961914,-0.0010251678020364214,-0.001945514727894355,0.0030934842297494092,3.070899486541748,2019-06-20 14:49:05:968,0.0,0.0,0.0
-0.21159768104553223,0.09046885371208191,9.807421684265137,-0.002889835890216737,-0.005941232031844212,0.001095625642793062,3.0750045776367188,2019-06-20 14:49:05:972,0.0,0.0,0.0
-0.2139924317598343,0.04257386177778244,9.790658950805664,-0.002223883071243676,-0.0003472278323218449,-0.00010308950450435256,3.0809097290039062,2019-06-20 14:49:05:978,0.0,0.0,0.0
-0.16370269656181335,0.06891610473394394,9.812211036682129,0.0017718342327061804,-0.007273137669790334,-0.0005026612202701574,3.0850229263305664,2019-06-20 14:49:05:982,0.0,0.0,0.0
-0.19004493951797485,0.06891610473394394,9.826580047607422,-0.002756645326422125,-0.0010131806512949063,0.0009624350789984497,3.0900063514709473,2019-06-20 14:49:05:987,0.0,0.0,0.0
-0.17567645013332367,0.10483735054731369,9.828974723815918,0.0021714059240900176,-0.0018123241640997428,0.0006960539514092252,3.0950021743774414,2019-06-20 14:49:05:992,0.0,0.0,0.0
-0.21159768104553223,0.10004784911870956,9.867290496826172,0.0015054529750797934,-0.0023450862892410293,-0.0019677574545201833,3.100895404815674,2019-06-20 14:49:05:998,0.0,0.0,0.0
-0.1876501888036728,0.06891610473394394,9.836158752441406,0.0021714059240900176,-0.0011463712150895187,0.004824961819153694,3.1050057411193848,2019-06-20 14:49:06:002,0.0,0.0,0.0
-0.18525543808937073,0.07849510759115219,9.79305362701416,0.0025709774854366916,-0.0026114674168302536,-0.0014349951993417342,3.1100058555603027,2019-06-20 14:49:06:007,0.0,0.0,0.0
-0.1732816994190216,0.06652135401964188,9.83376407623291,-0.0007587866744471969,-0.004209754442439926,-0.00023628007642628753,3.1159133911132812,2019-06-20 14:49:06:013,0.0,0.0,0.0
-0.23554518818855286,0.07370560616254807,9.814606666564941,0.003370121128278691,-0.0004804183961164572,0.0014951973341768988,3.1200075149536133,2019-06-20 14:49:06:017,0.0,0.0,0.0
-0.20201869308948517,0.04975811019539833,9.845738410949707,0.003370121128278691,-0.004209754442439926,0.001095625642793062,3.125910758972168,2019-06-20 14:49:06:023,0.0,0.0,0.0
-0.22117668390274048,0.059337109327316284,9.795448303222656,0.004968407893814039,-0.0067403754146118855,0.005757295505641655,3.130908966064453,2019-06-20 14:49:06:028,0.0,0.0,0.0
-0.2259661853313446,0.08807410299777985,9.802632331848145,-0.0024902641988329005,-0.0040765638786453146,0.0025607219745709597,3.135005474090576,2019-06-20 14:49:06:032,0.0,0.0,0.0
-0.23075568675994873,0.07610035687685013,9.872079849243164,0.0015054529750797934,-0.007406327973510622,0.003626246484927858,3.140896797180176,2019-06-20 14:49:06:038,0.0,0.0,0.0
-0.22357143461704254,0.07849510759115219,9.824185371398926,-9.283383109216743e-05,-0.003144229932083028,0.0008292445152038374,3.145005702972412,2019-06-20 14:49:06:042,0.0,0.0,0.0
-0.1876501888036728,0.09286360442638397,9.790658950805664,0.0020382153602954054,-0.0003472278323218449,-0.000902232944163285,3.150890350341797,2019-06-20 14:49:06:048,0.0,0.0,0.0
-0.20441344380378723,0.059337109327316284,9.836158752441406,0.0009726907199013442,-0.0040765638786453146,-0.0015681857631363464,3.1550064086914062,2019-06-20 14:49:06:052,0.0,0.0,0.0
-0.24272944033145905,0.03299486264586449,9.783474922180176,-0.002090692377411901,-0.0035438016234668654,0.0014951973341768988,3.1600279808044434,2019-06-20 14:49:06:057,0.0,0.0,0.0
-0.22836093604564667,0.018626363947987556,9.840948104858398,0.0003067379009282828,-0.003011039368288416,0.0005628633876146128,3.165898323059082,2019-06-20 14:49:06:063,0.0,0.0,0.0
-0.23075568675994873,0.030600111931562424,9.87447452545166,-0.003822169836779023,-0.003144229932083028,-0.003965616171513693,3.170891761779785,2019-06-20 14:49:06:068,0.0,0.0,0.0
-0.2068081945180893,0.05454760789871216,9.857711791992188,0.003103740000689466,-0.004875707001338663,0.0012288162065876742,3.175020217895508,2019-06-20 14:49:06:072,0.0,0.0,0.0
-0.22357143461704254,0.0976531058549881,9.778684616088867,-0.0012915489946442272,-0.0024782768530356414,0.005224533250463206,3.180898666381836,2019-06-20 14:49:06:078,0.0,0.0,0.0
-0.21159768104553223,0.08567935228347778,9.857711791992188,-0.003156217017805962,-0.0011463712150895187,0.0014951973341768988,3.185001850128174,2019-06-20 14:49:06:082,0.0,0.0,0.0
-0.20920294523239136,0.10004784911870956,9.817001342773438,-0.0010251678020364214,-0.0015459429064733554,0.0008292445152038374,3.1908950805664062,2019-06-20 14:49:06:088,0.0,0.0,0.0
-0.22117668390274048,0.071310855448246,9.83376407623291,-0.00035921498306336,-0.0052752789527968245,-0.0017013763269309588,3.195004940032959,2019-06-20 14:49:06:092,0.0,0.0,0.0
-0.20201869308948517,0.06173185631632805,9.860106468200684,-0.00035921498306336,-0.0012795617788841308,0.002027959589355348,3.200010299682617,2019-06-20 14:49:06:097,0.0,0.0,0.0
-0.1996239423751831,0.07610035687685013,9.814606666564941,-0.001158358430849615,-0.005142088649076538,-0.005164331245665204,3.205904960632324,2019-06-20 14:49:06:103,0.0,0.0,0.0
-0.22357143461704254,0.11920584738254547,9.80502700805664,-0.0018243112498226766,-0.004742516697618376,0.002027959589355348,3.2101030349731445,2019-06-20 14:49:06:107,0.0,0.0,0.0
-0.1876501888036728,0.1239953488111496,9.783474922180176,0.0037696928196625274,-0.0026114674168302536,-0.0007690423803686727,3.215890884399414,2019-06-20 14:49:06:113,0.0,0.0,0.0
-0.1876501888036728,0.030600111931562424,9.795448303222656,4.035674489342885e-05,-0.005674850904254987,-0.004098806735308305,3.2200098037719727,2019-06-20 14:49:06:117,0.0,0.0,0.0
-0.22117668390274048,0.06891610473394394,9.80502700805664,0.0012390718474905686,-0.0035438016234668654,-0.0026337102734932446,3.225043296813965,2019-06-20 14:49:06:122,0.0,0.0,0.0
-0.17567645013332367,0.06173185631632805,9.795448303222656,-0.00035921498306336,-0.003144229932083028,-0.0030332819648770815,3.230889320373535,2019-06-20 14:49:06:128,0.0,0.0,0.0
-0.18525543808937073,0.05694235861301422,9.852922439575195,0.0032369305644840782,0.00031872505166979784,-0.0006358518165740604,3.2350006103515625,2019-06-20 14:49:06:132,0.0,0.0,0.0
-0.2068081945180893,0.06412661075592041,9.838553428649902,-0.0012915489946442272,-0.005541660080386049,-0.00010308950450435256,3.2408957481384277,2019-06-20 14:49:06:138,0.0,0.0,0.0
-0.19722919166088104,0.04017911106348038,9.82179069519043,0.0011058812836959564,-0.005408469776665762,-0.0036992350439244686,3.2450060844421387,2019-06-20 14:49:06:142,0.0,0.0,0.0
-0.23793993890285492,0.06652135401964188,9.836158752441406,0.0027041680492313038,-0.0007467995237056817,0.0009624350789984497,3.250886917114258,2019-06-20 14:49:06:148,0.0,0.0,0.0
-0.22357143461704254,0.07849510759115219,9.812211036682129,0.0037696928196625274,-0.003410611059672253,0.00042967279131070986,3.255032539367676,2019-06-20 14:49:06:152,0.0,0.0,0.0
-0.19722919166088104,0.06412661075592041,9.848133087158203,0.0015054529750797934,-0.0024782768530356414,-0.0030332819648770815,3.260009288787842,2019-06-20 14:49:06:157,0.0,0.0,0.0
-0.16609744727611542,0.07370560616254807,9.759527206420898,-0.001557930122233452,-0.003410611059672253,-0.0013018046355471218,3.2658867835998535,2019-06-20 14:49:06:163,0.0,0.0,0.0
-0.18286068737506866,0.059337109327316284,9.819396018981934,-0.0016911206860280642,-0.004609325873749438,0.0005628633876146128,3.270045757293701,2019-06-20 14:49:06:167,0.0,0.0,0.0
-0.1541236937046051,0.05694235861301422,9.848133087158203,-0.00035921498306336,-0.004875707001338663,3.010106944941304e-05,3.2750110626220703,2019-06-20 14:49:06:172,0.0,0.0,0.0
-0.1876501888036728,0.11202160269021988,9.831369400024414,-0.00448812291582641,-0.005142088649076538,-0.0006358518165740604,3.2800045013427734,2019-06-20 14:49:06:177,0.0,0.0,0.0
-0.20441344380378723,0.06173185631632805,9.87447452545166,-0.002090692377411901,-0.0004804183961164572,0.00042967279131070986,3.285885810852051,2019-06-20 14:49:06:183,0.0,0.0,0.0
-0.1996239423751831,0.05694235861301422,9.817001342773438,0.0023045963578474673,-0.006207613159433436,-0.0031664725286716937,3.2900094985961914,2019-06-20 14:49:06:187,0.0,0.0,0.0
-0.17807118594646454,0.059337109327316284,9.900816917419434,0.0023045963578474673,-0.005541660080386049,0.0006960539514092252,3.2958931922912598,2019-06-20 14:49:06:193,0.0,0.0,0.0
-0.22357143461704254,0.071310855448246,9.845738410949707,-0.00022602440301410239,-0.004342945006234539,-0.00010308950450435256,3.3000240325927734,2019-06-20 14:49:06:197,0.0,0.0,0.0
