ACCELEROMETER X (m/s²),ACCELEROMETER Y (m/s²),ACCELEROMETER Z (m/s²),GYROSCOPE X (rad/s),GYROSCOPE Y (rad/s),GYROSCOPE Z (rad/s),Time since start in ms ,YYYY-MO-DD HH-MI-SS_SSS,MagX,MagY,MagZ
-0.003254464827477932,-0.02208438143134117,9.807421684265137,0.0003067379009282828,-0.0050088978252076,0.003493055921133246,0.0,2019-06-20 14:44:24:179,0.0,0.0,0.0
0.00871928408741951,-0.03405813127756119,9.83376407623291,-0.0030230264540113496,-0.0052752789527968245,-0.000902232944163285,0.004147052764892578,2019-06-20 14:44:24:183,0.0,0.0,0.0
0.0159035325050354,-0.05082137882709503,9.824185371398926,-0.0018243112498226766,-0.003943373314850702,0.0021611501531499603,0.009999275207519531,2019-06-20 14:44:24:189,0.0,0.0,0.0
0.011114032939076424,-0.0005316344322636724,9.852922439575195,-0.001957501813617289,-0.003676992187261477,0.002027959589355348,0.01411294937133789,2019-06-20 14:44:24:193,0.0,0.0,0.0
0.02308778092265129,-0.02208438143134117,9.824185371398926,0.0011058812836959564,-0.0028778488044938037,0.0038926276125170823,0.0200042724609375,2019-06-20 14:44:24:199,0.0,0.0,0.0
0.02308778092265129,-0.007715883664786816,9.769105911254883,-0.002090692377411901,-0.0052752789527968245,-0.0010354235079578973,0.025003433227539062,2019-06-20 14:44:24:204,0.0,0.0,0.0
-0.02720196172595024,-0.02208438143134117,9.817001342773438,0.001372262411285181,-0.004209754442439926,0.0017615784617661236,0.029996871948242188,2019-06-20 14:44:24:209,0.0,0.0,0.0
-0.00564921461045742,-0.053216129541397095,9.766711235046387,-0.0023570736350382883,-0.002744658240699191,0.006556438888409328,0.034110069274902344,2019-06-20 14:44:24:213,0.0,0.0,0.0
-0.02001771330833435,-0.06997937709093094,9.864895820617676,0.0008395001561067318,-0.0028778488044938037,0.0017615784617661236,0.04001808166503906,2019-06-20 14:44:24:219,0.0,0.0,0.0
0.003929784055799246,-0.06518987566232681,9.766711235046387,-0.001158358430849615,-0.0040765638786453146,-0.00036947065647554515,0.04411602020263672,2019-06-20 14:44:24:223,0.0,0.0,0.0
0.003929784055799246,-0.038847628980875015,9.761921882629395,0.0021714059240900176,-0.008072281052558009,0.0017615784617661236,0.049999237060546875,2019-06-20 14:44:24:229,0.0,0.0,0.0
-0.0008597151609137654,-0.038847628980875015,9.790658950805664,0.0032369305644840782,-0.0024782768530356414,-0.0023673291459040203,0.05411815643310547,2019-06-20 14:44:24:233,0.0,0.0,0.0
0.013508782722055912,-0.03405813127756119,9.74276351928711,0.0015054529750797934,-0.007273137669790334,0.003493055921133246,0.0599970817565918,2019-06-20 14:44:24:239,0.0,0.0,0.0
0.018298283219337463,-0.038847628980875015,9.757132530212402,-0.0018243112498226766,-0.000879990087500294,0.0006960539514092252,0.06411075592041016,2019-06-20 14:44:24:243,0.0,0.0,0.0
0.006324533838778734,-0.08434787392616272,9.776289939880371,0.002970549436894854,0.0005851061792590224,-0.004098806735308305,0.07000446319580078,2019-06-20 14:44:24:249,0.0,0.0,0.0
-0.0008597151609137654,-0.026873880997300148,9.826580047607422,0.003103740000689466,-0.003676992187261477,-0.000902232944163285,0.07411575317382812,2019-06-20 14:44:24:253,0.0,0.0,0.0
-0.008043964393436909,-0.06279512494802475,9.819396018981934,0.0007063095923121196,-0.0006136089599110694,0.0033598653573386336,0.08000469207763672,2019-06-20 14:44:24:259,0.0,0.0,0.0
-0.012833463959395885,-0.024479132145643234,9.814606666564941,0.001372262411285181,-0.005941232031844212,0.0018947690255607357,0.08412885665893555,2019-06-20 14:44:24:263,0.0,0.0,0.0
0.013508782722055912,-0.05082137882709503,9.831369400024414,-0.0014247395584388394,-0.0011463712150895187,0.0013620067703822866,0.09000444412231445,2019-06-20 14:44:24:269,0.0,0.0,0.0
-0.04635995998978615,-0.02208438143134117,9.812211036682129,-0.0007587866744471969,-0.0032774204958776402,0.0022943408469817354,0.09411287307739258,2019-06-20 14:44:24:273,0.0,0.0,0.0
-0.0008597151609137654,-0.026873880997300148,9.788264274597168,-0.0018243112498226766,-0.0006136089599110694,0.0021611501531499603,0.10000228881835938,2019-06-20 14:44:24:279,0.0,0.0,0.0
0.032666780054569244,-0.026873880997300148,9.771500587463379,0.0032369305644840782,-0.0024782768530356414,-0.0027669008372878568,0.10414600372314453,2019-06-20 14:44:24:283,0.0,0.0,0.0
0.011114032939076424,-0.060400377959012985,9.82179069519043,0.0024377869216420794,-0.004609325873749438,0.0008292445152038374,0.10998725891113281,2019-06-20 14:44:24:289,0.0,0.0,0.0
-0.04635995998978615,-0.09153212606906891,9.819396018981934,-0.0006255961106525846,-0.004875707001338663,0.0028271031021601845,0.1141061782836914,2019-06-20 14:44:24:293,0.0,0.0,0.0
0.00871928408741951,-0.07476887851953506,9.82179069519043,-0.00022602440301410239,-0.0015459429064733554,-0.0013018046355471218,0.12000465393066406,2019-06-20 14:44:24:299,0.0,0.0,0.0
-0.00564921461045742,-0.038847628980875015,9.828974723815918,0.0003067379009282828,-0.004342945006234539,-0.0030332819648770815,0.124114990234375,2019-06-20 14:44:24:303,0.0,0.0,0.0
0.011114032939076424,-0.06758462637662888,9.819396018981934,0.001372262411285181,-0.0006136089599110694,-0.00036947065647554515,0.13002681732177734,2019-06-20 14:44:24:309,0.0,0.0,0.0
0.05900902673602104,-0.038847628980875015,9.824185371398926,0.0039028833834571395,-0.0050088978252076,-0.0017013763269309588,0.1341400146484375,2019-06-20 14:44:24:313,0.0,0.0,0.0
-0.017622962594032288,-0.05082137882709503,9.769105911254883,0.0009726907199013442,-0.0028778488044938037,-0.0015681857631363464,0.1400012969970703,2019-06-20 14:44:24:319,0.0,0.0,0.0
0.0015350345056504011,-0.026873880997300148,9.776289939880371,-0.004354932091957473,-0.004209754442439926,-0.0029000914010824694,0.14411258697509766,2019-06-20 14:44:24:323,0.0,0.0,0.0
0.013508782722055912,-0.04363713040947914,9.785869598388672,0.0021714059240900176,-0.0011463712150895187,0.0005628633876146128,0.15000343322753906,2019-06-20 14:44:24:329,0.0,0.0,0.0
0.011114032939076424,-0.03405813127756119,9.773895263671875,-0.0012915489946442272,-0.0023450862892410293,0.0013620067703822866,0.15411853790283203,2019-06-20 14:44:24:333,0.0,0.0,0.0
0.020693032070994377,-0.007715883664786816,9.79305362701416,0.0017718342327061804,-0.004742516697618376,-0.004764759294207041,0.15999460220336914,2019-06-20 14:44:24:339,0.0,0.0,0.0
0.0422457791864872,-0.029268629848957062,9.812211036682129,-0.0007587866744471969,-0.0050088978252076,-0.0017013763269309588,0.16411304473876953,2019-06-20 14:44:24:343,0.0,0.0,0.0
0.003929784055799246,-0.026873880997300148,9.836158752441406,0.00043992846472289506,-0.0040765638786453146,-0.0015681857631363464,0.17000484466552734,2019-06-20 14:44:24:349,0.0,0.0,0.0
0.018298283219337463,-0.03405813127756119,9.75234317779541,-9.283383109216743e-05,-0.003943373314850702,0.0005628633876146128,0.1741161346435547,2019-06-20 14:44:24:353,0.0,0.0,0.0
0.032666780054569244,-0.060400377959012985,9.824185371398926,4.035674489342885e-05,-0.0014127523426787432,-0.0006358518165740604,0.17914581298828125,2019-06-20 14:44:24:358,0.0,0.0,0.0
0.05661427602171898,-0.007715883664786816,9.80502700805664,0.0025709774854366916,-0.003676992187261477,0.0006960539514092252,0.18499231338500977,2019-06-20 14:44:24:364,0.0,0.0,0.0
-0.010438714176416397,-0.05561087653040886,9.788264274597168,-0.0018243112498226766,-0.0010131806512949063,0.0008292445152038374,0.19000482559204102,2019-06-20 14:44:24:369,0.0,0.0,0.0
0.011114032939076424,-0.053216129541397095,9.766711235046387,-0.0004924055468579722,0.0005851061792590224,0.0024275314107763475,0.19411754608154297,2019-06-20 14:44:24:373,0.0,0.0,0.0
0.03027203120291233,-0.05082137882709503,9.845738410949707,-0.003822169836779023,-0.003943373314850702,-0.004498378166617817,0.1999950408935547,2019-06-20 14:44:24:379,0.0,0.0,0.0
0.003929784055799246,-0.029268629848957062,9.836158752441406,0.0009726907199013442,-0.008871424435325683,0.0012288162065876742,0.20413923263549805,2019-06-20 14:44:24:383,0.0,0.0,0.0
0.03027203120291233,-0.046031877398490906,9.783474922180176,0.004036073947251752,-0.0011463712150895187,0.005091342946742919,0.21000194549560547,2019-06-20 14:44:24:389,0.0,0.0,0.0
-0.010438714176416397,-0.03645287826657295,9.852922439575195,0.0003067379009282828,-0.0035438016234668654,0.0024275314107763475,0.21411657333374023,2019-06-20 14:44:24:393,0.0,0.0,0.0
0.03027203120291233,-0.060400377959012985,9.817001342773438,0.001372262411285181,-0.0026114674168302536,0.005890486329510593,0.21999740600585938,2019-06-20 14:44:24:399,0.0,0.0,0.0
0.018298283219337463,-0.04842662811279297,9.845738410949707,0.0009726907199013442,-0.004875707001338663,-0.00023628007642628753,0.224151611328125,2019-06-20 14:44:24:403,0.0,0.0,0.0
0.027877280488610268,-0.05561087653040886,9.800237655639648,-0.00035921498306336,-0.0044761355700291515,0.0008292445152038374,0.23000812530517578,2019-06-20 14:44:24:409,0.0,0.0,0.0
0.00871928408741951,-0.029268629848957062,9.769105911254883,-0.0008919772382418092,-0.004742516697618376,-0.000902232944163285,0.2341141700744629,2019-06-20 14:44:24:413,0.0,0.0,0.0
0.003929784055799246,-0.031663380563259125,9.790658950805664,0.004036073947251752,-0.0038101827510560898,0.0021611501531499603,0.23999977111816406,2019-06-20 14:44:24:419,0.0,0.0,0.0
0.020693032070994377,-0.03645287826657295,9.881659507751465,0.0024377869216420794,-0.0035438016234668654,0.0018947690255607357,0.24411487579345703,2019-06-20 14:44:24:423,0.0,0.0,0.0
0.006324533838778734,-0.017294881865382195,9.86250114440918,0.0008395001561067318,0.0011178684994560528,0.005091342946742919,0.24999713897705078,2019-06-20 14:44:24:429,0.0,0.0,0.0
0.025482531636953354,-0.046031877398490906,9.848133087158203,-9.283383109216743e-05,-0.0044761355700291515,0.0013620067703822866,0.25411176681518555,2019-06-20 14:44:24:433,0.0,0.0,0.0
0.011114032939076424,-0.06997937709093094,9.80502700805664,0.0009726907199013442,0.00031872505166979784,-0.0021009480183147955,0.25999927520751953,2019-06-20 14:44:24:439,0.0,0.0,0.0
0.05182477831840515,-0.09392686933279037,9.75234317779541,-0.0007587866744471969,-0.007139946845921397,-0.00036947065647554515,0.2641143798828125,2019-06-20 14:44:24:443,0.0,0.0,0.0
0.02308778092265129,-0.046031877398490906,9.797842979431152,0.0009726907199013442,-0.0024782768530356414,-0.0031664725286716937,0.2700495719909668,2019-06-20 14:44:24:449,0.0,0.0,0.0
0.025482531636953354,-0.03645287826657295,9.83376407623291,0.0007063095923121196,-0.0004804183961164572,-0.0007690423803686727,0.2741422653198242,2019-06-20 14:44:24:453,0.0,0.0,0.0
0.013508782722055912,-0.04363713040947914,9.740368843078613,0.0027041680492313038,-0.006207613159433436,0.0014951973341768988,0.2799973487854004,2019-06-20 14:44:24:459,0.0,0.0,0.0
-0.010438714176416397,-0.03645287826657295,9.776289939880371,-0.00022602440301410239,-0.0012795617788841308,3.010106944941304e-05,0.28411340713500977,2019-06-20 14:44:24:463,0.0,0.0,0.0
0.039851028472185135,-0.01490013301372528,9.800237655639648,-0.0036889792729844113,-0.0026114674168302536,-0.0010354235079578973,0.2899951934814453,2019-06-20 14:44:24:469,0.0,0.0,0.0
0.018298283219337463,-0.09392686933279037,9.783474922180176,-0.0012915489946442272,-0.006074422335564498,-0.0005026612202701574,0.2941160202026367,2019-06-20 14:44:24:473,0.0,0.0,0.0
0.03027203120291233,-0.026873880997300148,9.814606666564941,-0.002223883071243676,-0.0050088978252076,-0.0011686140717525096,0.29999446868896484,2019-06-20 14:44:24:479,0.0,0.0,0.0
-0.022412462159991264,-0.03405813127756119,9.809816360473633,-0.0016911206860280642,-0.0011463712150895187,0.003226674793544021,0.3041391372680664,2019-06-20 14:44:24:483,0.0,0.0,0.0
0.011114032939076424,-0.06758462637662888,9.771500587463379,0.00017354732087902514,-0.004875707001338663,-0.000902232944163285,0.31000423431396484,2019-06-20 14:44:24:489,0.0,0.0,0.0
0.018298283219337463,-0.08434787392616272,9.781079292297363,-0.00022602440301410239,-0.0004804183961164572,0.0009624350789984497,0.3141179084777832,2019-06-20 14:44:24:493,0.0,0.0,0.0
0.025482531636953354,-0.06997937709093094,9.771500587463379,-0.001557930122233452,-0.0020787052916889674,-0.0007690423803686727,0.31914663314819336,2019-06-20 14:44:24:498,0.0,0.0,0.0
-0.00564921461045742,-0.08434787392616272,9.828974723815918,4.035674489342885e-05,-0.0024782768530356414,0.0008292445152038374,0.3250312805175781,2019-06-20 14:44:24:504,0.0,0.0,0.0
-0.010438714176416397,-0.029268629848957062,9.771500587463379,0.0025709774854366916,-0.00647399428702266,-0.005430712373254428,0.3291187286376953,2019-06-20 14:44:24:508,0.0,0.0,0.0
-0.017622962594032288,-0.03405813127756119,9.843342781066895,-0.0016911206860280642,0.0007182967430536347,-0.0019677574545201833,0.3349924087524414,2019-06-20 14:44:24:514,0.0,0.0,0.0
-0.012833463959395885,-0.03405813127756119,9.864895820617676,0.004036073947251752,-0.00021403725227258724,0.002027959589355348,0.34000587463378906,2019-06-20 14:44:24:519,0.0,0.0,0.0
0.020693032070994377,-0.026873880997300148,9.817001342773438,0.0023045963578474673,-0.0040765638786453146,-0.00023628007642628753,0.345001220703125,2019-06-20 14:44:24:524,0.0,0.0,0.0
-0.00564921461045742,-0.019689632579684258,9.749947547912598,0.0019050247965007928,0.00018553447162054023,-0.0015681857631363464,0.34911346435546875,2019-06-20 14:44:24:528,0.0,0.0,0.0
0.0159035325050354,-0.06518987566232681,9.795448303222656,0.0012390718474905686,-0.0003472278323218449,0.0002964822275160976,0.35499095916748047,2019-06-20 14:44:24:534,0.0,0.0,0.0
0.0159035325050354,-0.005321133881807327,9.759527206420898,-9.283383109216743e-05,-0.005408469776665762,-0.0031664725286716937,0.36000490188598633,2019-06-20 14:44:24:539,0.0,0.0,0.0
0.020693032070994377,-0.05800562724471092,9.776289939880371,0.0025709774854366916,-0.004875707001338663,-0.0030332819648770815,0.3641538619995117,2019-06-20 14:44:24:543,0.0,0.0,0.0
0.047035280615091324,-0.05082137882709503,9.769105911254883,-0.0023570736350382883,-0.000879990087500294,0.0005628633876146128,0.37000083923339844,2019-06-20 14:44:24:549,0.0,0.0,0.0
-0.00564921461045742,-0.04842662811279297,9.845738410949707,0.0003067379009282828,0.00018553447162054023,-0.0027669008372878568,0.37411022186279297,2019-06-20 14:44:24:553,0.0,0.0,0.0
0.027877280488610268,-0.012505383230745792,9.848133087158203,0.00043992846472289506,-0.0026114674168302536,-0.001834566890725571,0.37999963760375977,2019-06-20 14:44:24:559,0.0,0.0,0.0
0.027877280488610268,-0.04363713040947914,9.809816360473633,-0.0006255961106525846,5.234389563494396e-05,-0.000902232944163285,0.38411521911621094,2019-06-20 14:44:24:563,0.0,0.0,0.0
0.0015350345056504011,-0.026873880997300148,9.785869598388672,0.0016386436689115682,-0.0050088978252076,0.00016329164746684,0.38999462127685547,2019-06-20 14:44:24:569,0.0,0.0,0.0
0.04464052990078926,-0.038847628980875015,9.857711791992188,-0.0008919772382418092,-0.0003472278323218449,0.0025607219745709597,0.39411163330078125,2019-06-20 14:44:24:573,0.0,0.0,0.0
0.03027203120291233,-0.05082137882709503,9.790658950805664,0.001372262411285181,-0.0038101827510560898,0.0014951973341768988,0.40000200271606445,2019-06-20 14:44:24:579,0.0,0.0,0.0
-0.022412462159991264,-0.026873880997300148,9.848133087158203,-0.002223883071243676,-0.00793909022868907,0.0030934842297494092,0.4041452407836914,2019-06-20 14:44:24:583,0.0,0.0,0.0
0.018298283219337463,-0.031663380563259125,9.809816360473633,0.00043992846472289506,-0.0028778488044938037,-0.00010308950450435256,0.4100608825683594,2019-06-20 14:44:24:589,0.0,0.0,0.0
-0.015228213742375374,-0.031663380563259125,9.74276351928711,-0.002223883071243676,-0.0044761355700291515,3.010106944941304e-05,0.41414690017700195,2019-06-20 14:44:24:593,0.0,0.0,0.0
-0.012833463959395885,-0.026873880997300148,9.809816360473633,0.0016386436689115682,-0.0015459429064733554,0.004425389867695532,0.42000389099121094,2019-06-20 14:44:24:599,0.0,0.0,0.0
-0.003254464827477932,-0.017294881865382195,9.781079292297363,0.0005731190285175073,-0.002211895725446417,0.00042967279131070986,0.42411184310913086,2019-06-20 14:44:24:603,0.0,0.0,0.0
0.047035280615091324,-0.024479132145643234,9.812211036682129,0.003370121128278691,-0.002211895725446417,0.007755154222635165,0.42998790740966797,2019-06-20 14:44:24:609,0.0,0.0,0.0
0.00871928408741951,-0.03645287826657295,9.797842979431152,0.0012390718474905686,-0.0007467995237056817,-0.0027669008372878568,0.4341106414794922,2019-06-20 14:44:24:613,0.0,0.0,0.0
0.027877280488610268,-0.06758462637662888,9.75234317779541,0.0023045963578474673,-0.000879990087500294,-0.0030332819648770815,0.43999385833740234,2019-06-20 14:44:24:619,0.0,0.0,0.0
0.00871928408741951,-0.053216129541397095,9.759527206420898,-0.004354932091957473,-8.084668035065233e-05,0.00042967279131070986,0.4449949264526367,2019-06-20 14:44:24:624,0.0,0.0,0.0
0.027877280488610268,-0.046031877398490906,9.790658950805664,0.0011058812836959564,0.0005851061792590224,0.0024275314107763475,0.45000505447387695,2019-06-20 14:44:24:629,0.0,0.0,0.0
0.013508782722055912,-0.04842662811279297,9.869685173034668,-0.0018243112498226766,-0.0015459429064733554,0.0017615784617661236,0.4550018310546875,2019-06-20 14:44:24:634,0.0,0.0,0.0
0.011114032939076424,-0.029268629848957062,9.83376407623291,0.0020382153602954054,-0.004342945006234539,0.008820678732992063,0.4591217041015625,2019-06-20 14:44:24:638,0.0,0.0,0.0
0.013508782722055912,-0.053216129541397095,9.76431655883789,0.003103740000689466,-0.0023450862892410293,0.005091342946742919,0.46500587463378906,2019-06-20 14:44:24:644,0.0,0.0,0.0
-0.00564921461045742,-0.019689632579684258,9.800237655639648,-0.0008919772382418092,-0.0038101827510560898,0.0013620067703822866,0.4700031280517578,2019-06-20 14:44:24:649,0.0,0.0,0.0
-0.0008597151609137654,-0.029268629848957062,9.749947547912598,0.0048352170699451,-0.006207613159433436,0.0025607219745709597,0.4749927520751953,2019-06-20 14:44:24:654,0.0,0.0,0.0
-0.012833463959395885,-0.04842662811279297,9.80502700805664,0.00017354732087902514,-0.0020787052916889674,-0.0027669008372878568,0.48000526428222656,2019-06-20 14:44:24:659,0.0,0.0,0.0
0.00871928408741951,-0.03405813127756119,9.795448303222656,0.003370121128278691,-0.0028778488044938037,-0.00023628007642628753,0.4841146469116211,2019-06-20 14:44:24:663,0.0,0.0,0.0
0.0015350345056504011,-0.07476887851953506,9.843342781066895,0.0020382153602954054,-0.0004804183961164572,0.0024275314107763475,0.48999691009521484,2019-06-20 14:44:24:669,0.0,0.0,0.0
0.025482531636953354,-0.031663380563259125,9.845738410949707,-0.0026234547626275127,-0.008738234131605394,0.0018947690255607357,0.4941129684448242,2019-06-20 14:44:24:673,0.0,0.0,0.0
0.032666780054569244,-0.03405813127756119,9.80502700805664,0.0011058812836959564,0.0021833931398501137,0.0009624350789984497,0.4999971389770508,2019-06-20 14:44:24:679,0.0,0.0,0.0
0.032666780054569244,-0.06518987566232681,9.74276351928711,-0.00022602440301410239,-0.0024782768530356414,0.001628387897971511,0.504176139831543,2019-06-20 14:44:24:683,0.0,0.0,0.0
0.039851028472185135,-0.04363713040947914,9.852922439575195,-0.0023570736350382883,0.0004519156154644102,-0.0021009480183147955,0.5100173950195312,2019-06-20 14:44:24:689,0.0,0.0,0.0
0.039851028472185135,-0.05561087653040886,9.776289939880371,0.003370121128278691,-0.002211895725446417,0.004025818176311695,0.5141134262084961,2019-06-20 14:44:24:693,0.0,0.0,0.0
0.05661427602171898,-0.04842662811279297,9.82179069519043,0.0025709774854366916,-0.0026114674168302536,0.002027959589355348,0.5199966430664062,2019-06-20 14:44:24:699,0.0,0.0,0.0
0.025482531636953354,-0.0987163707613945,9.831369400024414,0.0005731190285175073,-0.0040765638786453146,-0.0027669008372878568,0.5241141319274902,2019-06-20 14:44:24:703,0.0,0.0,0.0
-0.015228213742375374,-0.046031877398490906,9.785869598388672,0.00017354732087902514,-0.0003472278323218449,0.002027959589355348,0.5299949645996094,2019-06-20 14:44:24:709,0.0,0.0,0.0
-0.0008597151609137654,-0.04124237969517708,9.812211036682129,0.0011058812836959564,-0.004209754442439926,0.002693912538365572,0.5341110229492188,2019-06-20 14:44:24:713,0.0,0.0,0.0
-0.024807212874293327,-0.05082137882709503,9.83376407623291,-0.002223883071243676,-0.007273137669790334,0.006423248584689041,0.5400018692016602,2019-06-20 14:44:24:719,0.0,0.0,0.0
0.011114032939076424,-0.031663380563259125,9.754737854003906,0.0003067379009282828,-0.0024782768530356414,0.0008292445152038374,0.5441169738769531,2019-06-20 14:44:24:723,0.0,0.0,0.0
-0.024807212874293327,-0.05561087653040886,9.869685173034668,0.004169264511046364,-0.003011039368288416,0.001095625642793062,0.5500001907348633,2019-06-20 14:44:24:729,0.0,0.0,0.0
0.013508782722055912,-0.038847628980875015,9.814606666564941,0.0008395001561067318,-0.0028778488044938037,-0.0015681857631363464,0.5550374984741211,2019-06-20 14:44:24:734,0.0,0.0,0.0
-0.00564921461045742,-0.08434787392616272,9.771500587463379,-0.0008919772382418092,-0.0026114674168302536,0.001628387897971511,0.5591192245483398,2019-06-20 14:44:24:738,0.0,0.0,0.0
0.0015350345056504011,-0.060400377959012985,9.766711235046387,-0.0007587866744471969,-0.0012795617788841308,-0.0014349951993417342,0.5649886131286621,2019-06-20 14:44:24:744,0.0,0.0,0.0
-0.008043964393436909,-0.05561087653040886,9.828974723815918,-0.0014247395584388394,-0.0044761355700291515,0.004292199303900919,0.569117546081543,2019-06-20 14:44:24:748,0.0,0.0,0.0
0.013508782722055912,-0.06518987566232681,9.790658950805664,-0.0023570736350382883,0.0015174401908398898,-0.0011686140717525096,0.5749974250793457,2019-06-20 14:44:24:754,0.0,0.0,0.0
0.00871928408741951,-0.03645287826657295,9.781079292297363,0.0015054529750797934,-0.0018123241640997428,0.002027959589355348,0.5791139602661133,2019-06-20 14:44:24:758,0.0,0.0,0.0
0.025482531636953354,-0.04842662811279297,9.771500587463379,-0.0007587866744471969,-0.000879990087500294,0.0013620067703822866,0.5849943161010742,2019-06-20 14:44:24:764,0.0,0.0,0.0
0.011114032939076424,-0.05561087653040886,9.795448303222656,0.0019050247965007928,-0.0016791336003051302,-0.0025005197096986324,0.589116096496582,2019-06-20 14:44:24:768,0.0,0.0,0.0
0.0015350345056504011,-0.031663380563259125,9.800237655639648,0.0024377869216420794,-0.003943373314850702,-0.0030332819648770815,0.595001220703125,2019-06-20 14:44:24:774,0.0,0.0,0.0
0.03027203120291233,-0.019689632579684258,9.773895263671875,-0.003822169836779023,-0.008738234131605394,0.0005628633876146128,0.5991430282592773,2019-06-20 14:44:24:778,0.0,0.0,0.0
0.018298283219337463,-0.03645287826657295,9.83376407623291,-0.0018243112498226766,-0.003410611059672253,0.0014951973341768988,0.6050248146057129,2019-06-20 14:44:24:784,0.0,0.0,0.0
0.006324533838778734,-0.09153212606906891,9.824185371398926,-0.003822169836779023,-0.0012795617788841308,-0.0030332819648770815,0.6091156005859375,2019-06-20 14:44:24:788,0.0,0.0,0.0
0.018298283219337463,-0.026873880997300148,9.802632331848145,0.0028373588731002413,-0.004209754442439926,-0.005430712373254428,0.6149921417236328,2019-06-20 14:44:24:794,0.0,0.0,0.0
0.039851028472185135,-0.029268629848957062,9.819396018981934,0.0007063095923121196,-0.006340803463153723,-0.0026337102734932446,0.6200017929077148,2019-06-20 14:44:24:799,0.0,0.0,0.0
0.013508782722055912,-0.046031877398490906,9.802632331848145,0.0012390718474905686,-0.004342945006234539,-0.00023628007642628753,0.624114990234375,2019-06-20 14:44:24:803,0.0,0.0,0.0
-0.010438714176416397,-0.05561087653040886,9.814606666564941,0.0015054529750797934,-0.006340803463153723,0.003493055921133246,0.6299962997436523,2019-06-20 14:44:24:809,0.0,0.0,0.0
0.006324533838778734,-0.03405813127756119,9.855317115783691,0.0017718342327061804,-0.000879990087500294,-0.0010354235079578973,0.6341133117675781,2019-06-20 14:44:24:813,0.0,0.0,0.0
0.018298283219337463,-0.05561087653040886,9.76431655883789,0.0012390718474905686,0.0011178684994560528,0.004159008740106307,0.6400022506713867,2019-06-20 14:44:24:819,0.0,0.0,0.0
0.013508782722055912,-0.06758462637662888,9.809816360473633,0.004568835942355876,-0.005941232031844212,0.001095625642793062,0.6441164016723633,2019-06-20 14:44:24:823,0.0,0.0,0.0
-0.022412462159991264,-0.029268629848957062,9.819396018981934,0.0003067379009282828,0.002050202446018339,-0.00036947065647554515,0.650019645690918,2019-06-20 14:44:24:829,0.0,0.0,0.0
-0.003254464827477932,-0.046031877398490906,9.749947547912598,0.0024377869216420794,-0.004609325873749438,-0.003566044480129856,0.6541118621826172,2019-06-20 14:44:24:833,0.0,0.0,0.0
0.02308778092265129,-0.04363713040947914,9.840948104858398,0.0016386436689115682,-0.003410611059672253,-0.00010308950450435256,0.660001277923584,2019-06-20 14:44:24:839,0.0,0.0,0.0
0.03506153076887131,-0.04124237969517708,9.872079849243164,0.004169264511046364,-0.003410611059672253,0.0014951973341768988,0.6641192436218262,2019-06-20 14:44:24:843,0.0,0.0,0.0
0.04464052990078926,-0.053216129541397095,9.783474922180176,-0.0023570736350382883,-0.004609325873749438,0.00016329164746684,0.6699943542480469,2019-06-20 14:44:24:849,0.0,0.0,0.0
0.025482531636953354,-0.05800562724471092,9.819396018981934,0.0032369305644840782,-0.006340803463153723,-0.0025005197096986324,0.6741085052490234,2019-06-20 14:44:24:853,0.0,0.0,0.0
0.0015350345056504011,-0.026873880997300148,9.83376407623291,-0.00035921498306336,-0.0016791336003051302,-0.0034328539163352434,0.6800007820129395,2019-06-20 14:44:24:859,0.0,0.0,0.0
0.027877280488610268,-0.05800562724471092,9.75234317779541,-0.0007587866744471969,-0.0044761355700291515,0.001095625642793062,0.6841115951538086,2019-06-20 14:44:24:863,0.0,0.0,0.0
0.03506153076887131,-0.031663380563259125,9.809816360473633,0.0028373588731002413,-0.0007467995237056817,0.0025607219745709597,0.6899967193603516,2019-06-20 14:44:24:869,0.0,0.0,0.0
0.032666780054569244,-0.029268629848957062,9.840948104858398,0.0020382153602954054,-0.0010131806512949063,-0.004498378166617817,0.6941633224487305,2019-06-20 14:44:24:873,0.0,0.0,0.0
0.02308778092265129,-0.04363713040947914,9.773895263671875,0.0012390718474905686,-0.003011039368288416,0.002027959589355348,0.7000026702880859,2019-06-20 14:44:24:879,0.0,0.0,0.0
0.05182477831840515,-0.031663380563259125,9.771500587463379,-0.0010251678020364214,-0.0015459429064733554,-0.001834566890725571,0.7041420936584473,2019-06-20 14:44:24:883,0.0,0.0,0.0
0.03745628148317337,-0.03405813127756119,9.817001342773438,0.003370121128278691,-0.0035438016234668654,0.0012288162065876742,0.709996223449707,2019-06-20 14:44:24:889,0.0,0.0,0.0
0.03506153076887131,-0.04363713040947914,9.80502700805664,-0.004887694347135921,-0.0052752789527968245,-0.0038324256077190803,0.7141151428222656,2019-06-20 14:44:24:893,0.0,0.0,0.0
0.02308778092265129,-0.04124237969517708,9.730790138244629,-0.001158358430849615,-0.005674850904254987,-0.0007690423803686727,0.7199945449829102,2019-06-20 14:44:24:899,0.0,0.0,0.0
0.03745628148317337,-0.03405813127756119,9.754737854003906,-9.283383109216743e-05,-0.003676992187261477,-0.00036947065647554515,0.7241125106811523,2019-06-20 14:44:24:903,0.0,0.0,0.0
-0.010438714176416397,-0.06279512494802475,9.812211036682129,-0.0014247395584388394,5.234389563494396e-05,-0.0048979501180759786,0.7300033569335938,2019-06-20 14:44:24:909,0.0,0.0,0.0
0.00871928408741951,-0.046031877398490906,9.75234317779541,-9.283383109216743e-05,-0.003943373314850702,-0.002234138582109408,0.7341184616088867,2019-06-20 14:44:24:913,0.0,0.0,0.0
0.047035280615091324,-0.05561087653040886,9.800237655639648,-0.0010251678020364214,-0.0016791336003051302,0.0012288162065876742,0.7405624389648438,2019-06-20 14:44:24:919,0.0,0.0,0.0
0.020693032070994377,-0.04363713040947914,9.831369400024414,-0.001158358430849615,-0.0032774204958776402,0.00016329164746684,0.7456064224243164,2019-06-20 14:44:24:924,0.0,0.0,0.0
-0.015228213742375374,-0.017294881865382195,9.828974723815918,-0.0006255961106525846,-0.000879990087500294,0.0005628633876146128,0.7505936622619629,2019-06-20 14:44:24:929,0.0,0.0,0.0
0.0159035325050354,-0.060400377959012985,9.843342781066895,0.00017354732087902514,-0.001945514727894355,-0.0019677574545201833,0.7555813789367676,2019-06-20 14:44:24:934,0.0,0.0,0.0
0.03506153076887131,-0.060400377959012985,9.828974723815918,0.001372262411285181,0.0013842496270452774,3.010106944941304e-05,0.7605972290039062,2019-06-20 14:44:24:939,0.0,0.0,0.0
0.006324533838778734,-0.03405813127756119,9.828974723815918,0.003103740000689466,-0.0012795617788841308,-0.0030332819648770815,0.7655811309814453,2019-06-20 14:44:24:944,0.0,0.0,0.0
0.025482531636953354,-0.03405813127756119,9.778684616088867,0.0011058812836959564,0.00031872505166979784,3.010106944941304e-05,0.7705917358398438,2019-06-20 14:44:24:949,0.0,0.0,0.0
0.00871928408741951,-0.029268629848957062,9.70205307006836,-0.00022602440301410239,0.0007182967430536347,-0.0005026612202701574,0.7755889892578125,2019-06-20 14:44:24:954,0.0,0.0,0.0
0.027877280488610268,-0.06518987566232681,9.82179069519043,0.0023045963578474673,-0.004609325873749438,0.004159008740106307,0.7805995941162109,2019-06-20 14:44:24:959,0.0,0.0,0.0
-0.010438714176416397,-0.04363713040947914,9.867290496826172,0.0037696928196625274,-0.005142088649076538,0.0014951973341768988,0.7856292724609375,2019-06-20 14:44:24:964,0.0,0.0,0.0
0.032666780054569244,-0.06518987566232681,9.757132530212402,-0.0026234547626275127,-0.007006756542201109,-0.0005026612202701574,0.7891402244567871,2019-06-20 14:44:24:968,0.0,0.0,0.0
0.025482531636953354,-0.02208438143134117,9.788264274597168,0.001372262411285181,-0.006207613159433436,-0.0034328539163352434,0.7949962615966797,2019-06-20 14:44:24:974,0.0,0.0,0.0
0.03745628148317337,-0.04363713040947914,9.781079292297363,0.003103740000689466,-0.004209754442439926,0.0013620067703822866,0.7991161346435547,2019-06-20 14:44:24:978,0.0,0.0,0.0
0.0015350345056504011,-0.024479132145643234,9.788264274597168,0.0008395001561067318,-0.0035438016234668654,0.001628387897971511,0.8050241470336914,2019-06-20 14:44:24:984,0.0,0.0,0.0
0.020693032070994377,-0.04363713040947914,9.852922439575195,0.0005731190285175073,-0.0052752789527968245,-0.0015681857631363464,0.809117317199707,2019-06-20 14:44:24:988,0.0,0.0,0.0
0.0015350345056504011,-0.007715883664786816,9.783474922180176,-0.004354932091957473,-0.003943373314850702,-0.007428571090247938,0.8149962425231934,2019-06-20 14:44:24:994,0.0,0.0,0.0
0.0422457791864872,-0.06758462637662888,9.814606666564941,-0.0010251678020364214,-0.0010131806512949063,0.00042967279131070986,0.8200068473815918,2019-06-20 14:44:24:999,0.0,0.0,0.0
0.02308778092265129,-0.0795583724975586,9.790658950805664,-0.0014247395584388394,-0.0020787052916889674,0.0021611501531499603,0.8250036239624023,2019-06-20 14:44:25:004,0.0,0.0,0.0
0.03027203120291233,-0.08195312321186066,9.824185371398926,0.0003067379009282828,5.234389563494396e-05,-0.0019677574545201833,0.8291177749633789,2019-06-20 14:44:25:008,0.0,0.0,0.0
0.02308778092265129,-0.002926384098827839,9.795448303222656,0.0020382153602954054,-0.0020787052916889674,-0.00036947065647554515,0.8350081443786621,2019-06-20 14:44:25:014,0.0,0.0,0.0
0.03745628148317337,-0.04124237969517708,9.812211036682129,0.0023045963578474673,-0.0016791336003051302,3.010106944941304e-05,0.8400058746337891,2019-06-20 14:44:25:019,0.0,0.0,0.0
0.047035280615091324,-0.0005316344322636724,9.838553428649902,0.00043992846472289506,-0.004342945006234539,0.0002964822275160976,0.8441076278686523,2019-06-20 14:44:25:023,0.0,0.0,0.0
0.025482531636953354,-0.053216129541397095,9.771500587463379,0.0027041680492313038,-0.0003472278323218449,0.0013620067703822866,0.8500051498413086,2019-06-20 14:44:25:029,0.0,0.0,0.0
0.020693032070994377,-0.05561087653040886,9.800237655639648,-0.006619171936540206,-0.005541660080386049,0.001628387897971511,0.8541183471679688,2019-06-20 14:44:25:033,0.0,0.0,0.0
0.0159035325050354,-0.038847628980875015,9.802632331848145,0.001372262411285181,-0.003676992187261477,3.010106944941304e-05,0.8591146469116211,2019-06-20 14:44:25:038,0.0,0.0,0.0
0.025482531636953354,-0.019689632579684258,9.855317115783691,0.0027041680492313038,-0.002211895725446417,0.003493055921133246,0.8649954795837402,2019-06-20 14:44:25:044,0.0,0.0,0.0
-0.0008597151609137654,-0.038847628980875015,9.781079292297363,-0.0006255961106525846,-0.0035438016234668654,0.001628387897971511,0.8691182136535645,2019-06-20 14:44:25:048,0.0,0.0,0.0
0.006324533838778734,0.004257864784449339,9.802632331848145,-0.0023570736350382883,-0.003144229932083028,-0.004365187862897529,0.8750019073486328,2019-06-20 14:44:25:054,0.0,0.0,0.0
-0.022412462159991264,-0.01490013301372528,9.795448303222656,-9.283383109216743e-05,-0.005541660080386049,-0.004631568990486754,0.8800849914550781,2019-06-20 14:44:25:059,0.0,0.0,0.0
0.02308778092265129,-0.029268629848957062,9.819396018981934,-0.001957501813617289,-0.002744658240699191,-0.0017013763269309588,0.8850202560424805,2019-06-20 14:44:25:064,0.0,0.0,0.0
0.018298283219337463,-0.03405813127756119,9.814606666564941,-0.003156217017805962,0.000851487306848247,0.002027959589355348,0.8891105651855469,2019-06-20 14:44:25:068,0.0,0.0,0.0
0.013508782722055912,-0.053216129541397095,9.831369400024414,0.001372262411285181,-0.003410611059672253,-0.0026337102734932446,0.894993782043457,2019-06-20 14:44:25:074,0.0,0.0,0.0
-0.008043964393436909,-0.010110633447766304,9.785869598388672,0.0043024550748409765,-0.0011463712150895187,0.00016329164746684,0.8991146087646484,2019-06-20 14:44:25:078,0.0,0.0,0.0
0.027877280488610268,-0.08434787392616272,9.86250114440918,-0.0007587866744471969,-0.003943373314850702,-0.002234138582109408,0.905024528503418,2019-06-20 14:44:25:084,0.0,0.0,0.0
0.025482531636953354,-0.05082137882709503,9.778684616088867,0.00043992846472289506,-0.007139946845921397,-0.0038324256077190803,0.9099974632263184,2019-06-20 14:44:25:089,0.0,0.0,0.0
0.003929784055799246,-0.029268629848957062,9.773895263671875,0.0024377869216420794,-0.005541660080386049,-0.00010308950450435256,0.9141044616699219,2019-06-20 14:44:25:093,0.0,0.0,0.0
0.011114032939076424,-0.046031877398490906,9.781079292297363,-0.0006255961106525846,-0.0012795617788841308,0.0025607219745709597,0.9200048446655273,2019-06-20 14:44:25:099,0.0,0.0,0.0
0.013508782722055912,-0.04363713040947914,9.795448303222656,0.003370121128278691,-0.003011039368288416,0.0006960539514092252,0.9241147041320801,2019-06-20 14:44:25:103,0.0,0.0,0.0
0.039851028472185135,-0.04124237969517708,9.76431655883789,-0.0035557887091897987,-0.005941232031844212,0.0013620067703822866,0.9300222396850586,2019-06-20 14:44:25:109,0.0,0.0,0.0
0.013508782722055912,-0.04842662811279297,9.783474922180176,0.0009726907199013442,-0.003144229932083028,-0.0030332819648770815,0.9341063499450684,2019-06-20 14:44:25:113,0.0,0.0,0.0
0.018298283219337463,-0.01490013301372528,9.788264274597168,-0.0024902641988329005,-0.0007467995237056817,0.001628387897971511,0.9400005340576172,2019-06-20 14:44:25:119,0.0,0.0,0.0
0.006324533838778734,0.006652614567428827,9.790658950805664,-0.0010251678020364214,0.000851487306848247,0.0030934842297494092,0.9441137313842773,2019-06-20 14:44:25:123,0.0,0.0,0.0
0.032666780054569244,-0.06758462637662888,9.797842979431152,0.0043024550748409765,-0.003943373314850702,-0.004764759294207041,0.9499959945678711,2019-06-20 14:44:25:129,0.0,0.0,0.0
0.013508782722055912,-0.005321133881807327,9.75234317779541,-0.0024902641988329005,0.00031872505166979784,0.0009624350789984497,0.9541053771972656,2019-06-20 14:44:25:133,0.0,0.0,0.0
0.032666780054569244,-0.0005316344322636724,9.773895263671875,0.0015054529750797934,-0.0028778488044938037,-0.003965616171513693,0.9600024223327637,2019-06-20 14:44:25:139,0.0,0.0,0.0
0.04464052990078926,-0.06518987566232681,9.785869598388672,0.00043992846472289506,-0.0038101827510560898,0.0029602936659547966,0.964116096496582,2019-06-20 14:44:25:143,0.0,0.0,0.0
-0.008043964393436909,-0.04124237969517708,9.783474922180176,0.0023045963578474673,-0.000879990087500294,0.0008292445152038374,0.9700040817260742,2019-06-20 14:44:25:149,0.0,0.0,0.0
0.0422457791864872,-0.05800562724471092,9.828974723815918,0.00017354732087902514,-0.0020787052916889674,0.0012288162065876742,0.9741249084472656,2019-06-20 14:44:25:153,0.0,0.0,0.0
0.03027203120291233,-0.05561087653040886,9.754737854003906,0.0008395001561067318,-0.0038101827510560898,-0.001834566890725571,0.9799971580505371,2019-06-20 14:44:25:159,0.0,0.0,0.0
0.04464052990078926,-0.04124237969517708,9.819396018981934,0.00017354732087902514,-0.003144229932083028,0.0012288162065876742,0.9841070175170898,2019-06-20 14:44:25:163,0.0,0.0,0.0
0.04464052990078926,-0.017294881865382195,9.82179069519043,0.0028373588731002413,0.0015174401908398898,0.001095625642793062,0.9900026321411133,2019-06-20 14:44:25:169,0.0,0.0,0.0
0.054219529032707214,-0.038847628980875015,9.809816360473633,-0.0012915489946442272,-0.0004804183961164572,-0.005563903197123366,0.9941129684448242,2019-06-20 14:44:25:173,0.0,0.0,0.0
0.0159035325050354,-0.012505383230745792,9.838553428649902,0.0025709774854366916,-0.004209754442439926,-0.0011686140717525096,0.9999942779541016,2019-06-20 14:44:25:179,0.0,0.0,0.0
0.006324533838778734,-0.026873880997300148,9.824185371398926,-0.004887694347135921,0.00031872505166979784,-0.0006358518165740604,1.0041069984436035,2019-06-20 14:44:25:183,0.0,0.0,0.0
-0.008043964393436909,-0.046031877398490906,9.82179069519043,0.0012390718474905686,0.0004519156154644102,3.010106944941304e-05,1.0100040435791016,2019-06-20 14:44:25:189,0.0,0.0,0.0
0.025482531636953354,-0.046031877398490906,9.812211036682129,0.0024377869216420794,-0.0014127523426787432,-0.005031140421796266,1.014113426208496,2019-06-20 14:44:25:193,0.0,0.0,0.0
0.03027203120291233,-0.026873880997300148,9.848133087158203,-0.0023570736350382883,-0.007006756542201109,0.0024275314107763475,1.020050048828125,2019-06-20 14:44:25:199,0.0,0.0,0.0
0.03027203120291233,-0.046031877398490906,9.726000785827637,0.0011058812836959564,-0.0014127523426787432,0.00016329164746684,1.0250229835510254,2019-06-20 14:44:25:204,0.0,0.0,0.0
-0.003254464827477932,-0.024479132145643234,9.824185371398926,0.0024377869216420794,-0.005142088649076538,0.001628387897971511,1.0300016403198242,2019-06-20 14:44:25:209,0.0,0.0,0.0
-0.003254464827477932,-0.06518987566232681,9.82179069519043,0.0025709774854366916,-0.0006136089599110694,-0.00036947065647554515,1.0341072082519531,2019-06-20 14:44:25:213,0.0,0.0,0.0
0.011114032939076424,-0.06279512494802475,9.778684616088867,-0.0032894075816005744,-0.0067403754146118855,-0.0014349951993417342,1.0400018692016602,2019-06-20 14:44:25:219,0.0,0.0,0.0
-0.00564921461045742,-0.05082137882709503,9.814606666564941,0.001372262411285181,0.004048061032974686,0.003226674793544021,1.044112205505371,2019-06-20 14:44:25:223,0.0,0.0,0.0
-0.017622962594032288,-0.03645287826657295,9.855317115783691,0.0012390718474905686,-0.004209754442439926,-0.00036947065647554515,1.0499982833862305,2019-06-20 14:44:25:229,0.0,0.0,0.0
0.02308778092265129,-0.053216129541397095,9.828974723815918,-0.0014247395584388394,-0.003144229932083028,0.001095625642793062,1.0541067123413086,2019-06-20 14:44:25:233,0.0,0.0,0.0
-0.0008597151609137654,-0.04124237969517708,9.800237655639648,-0.0008919772382418092,-0.0012795617788841308,-0.00036947065647554515,1.060002326965332,2019-06-20 14:44:25:239,0.0,0.0,0.0
0.00871928408741951,-0.053216129541397095,9.745158195495605,0.0027041680492313038,-0.0050088978252076,3.010106944941304e-05,1.0641117095947266,2019-06-20 14:44:25:243,0.0,0.0,0.0
0.03506153076887131,-0.060400377959012985,9.745158195495605,-0.0023570736350382883,-0.0004804183961164572,-0.0029000914010824694,1.0700278282165527,2019-06-20 14:44:25:249,0.0,0.0,0.0
0.011114032939076424,-0.04124237969517708,9.785869598388672,0.0009726907199013442,0.0013842496270452774,0.0017615784617661236,1.0750055313110352,2019-06-20 14:44:25:254,0.0,0.0,0.0
0.018298283219337463,-0.046031877398490906,9.795448303222656,0.004169264511046364,-0.005808041207975274,-0.0030332819648770815,1.0791120529174805,2019-06-20 14:44:25:258,0.0,0.0,0.0
0.04464052990078926,-0.04363713040947914,9.754737854003906,0.004568835942355876,-0.003144229932083028,0.0008292445152038374,1.0849885940551758,2019-06-20 14:44:25:264,0.0,0.0,0.0
0.02308778092265129,-0.05082137882709503,9.740368843078613,0.0005731190285175073,-0.0016791336003051302,-0.0013018046355471218,1.0891141891479492,2019-06-20 14:44:25:268,0.0,0.0,0.0
0.03506153076887131,-0.05082137882709503,9.800237655639648,0.0023045963578474673,-0.005408469776665762,0.003226674793544021,1.0950031280517578,2019-06-20 14:44:25:274,0.0,0.0,0.0
0.025482531636953354,-0.05082137882709503,9.86250114440918,-0.001158358430849615,-0.0038101827510560898,0.0013620067703822866,1.0991125106811523,2019-06-20 14:44:25:278,0.0,0.0,0.0
0.025482531636953354,-0.060400377959012985,9.83376407623291,-0.0012915489946442272,-0.0016791336003051302,-0.0019677574545201833,1.1041064262390137,2019-06-20 14:44:25:283,0.0,0.0,0.0
0.025482531636953354,-0.038847628980875015,9.749947547912598,0.0007063095923121196,0.00031872505166979784,-0.0029000914010824694,1.1100029945373535,2019-06-20 14:44:25:289,0.0,0.0,0.0
0.011114032939076424,-0.04124237969517708,9.795448303222656,0.0003067379009282828,-0.0026114674168302536,-0.0019677574545201833,1.1141376495361328,2019-06-20 14:44:25:293,0.0,0.0,0.0
0.032666780054569244,-0.06518987566232681,9.848133087158203,0.004968407893814039,-0.006207613159433436,0.0029602936659547966,1.120009422302246,2019-06-20 14:44:25:299,0.0,0.0,0.0
-0.008043964393436909,-0.06518987566232681,9.814606666564941,-0.0007587866744471969,-0.00647399428702266,-0.0026337102734932446,1.124990463256836,2019-06-20 14:44:25:304,0.0,0.0,0.0
0.03506153076887131,-0.05082137882709503,9.814606666564941,-0.0007587866744471969,0.0012510590632506652,-0.0005026612202701574,1.1291141510009766,2019-06-20 14:44:25:308,0.0,0.0,0.0
0.054219529032707214,-0.072374127805233,9.809816360473633,-0.0018243112498226766,-8.084668035065233e-05,-0.004365187862897529,1.135000228881836,2019-06-20 14:44:25:314,0.0,0.0,0.0
0.0015350345056504011,-0.06279512494802475,9.845738410949707,-0.0004924055468579722,-0.0007467995237056817,-0.001834566890725571,1.139113426208496,2019-06-20 14:44:25:318,0.0,0.0,0.0
0.00871928408741951,-0.06518987566232681,9.740368843078613,-0.0007587866744471969,-0.004209754442439926,-0.005830284324712591,1.1449899673461914,2019-06-20 14:44:25:324,0.0,0.0,0.0
0.020693032070994377,-0.010110633447766304,9.876870155334473,-0.0008919772382418092,-0.0020787052916889674,0.004691770995284756,1.1491127014160156,2019-06-20 14:44:25:328,0.0,0.0,0.0
0.025482531636953354,-0.06279512494802475,9.817001342773438,0.0009726907199013442,-0.0026114674168302536,0.0028271031021601845,1.15411376953125,2019-06-20 14:44:25:333,0.0,0.0,0.0
0.03027203120291233,-0.04124237969517708,9.80502700805664,0.0039028833834571395,-0.002744658240699191,0.004159008740106307,1.1600799560546875,2019-06-20 14:44:25:339,0.0,0.0,0.0
0.05182477831840515,-0.05800562724471092,9.812211036682129,-0.002090692377411901,-0.000879990087500294,-0.00036947065647554515,1.1650209426879883,2019-06-20 14:44:25:344,0.0,0.0,0.0
0.047035280615091324,-0.019689632579684258,9.785869598388672,-0.002756645326422125,-0.0015459429064733554,-0.0010354235079578973,1.169112205505371,2019-06-20 14:44:25:348,0.0,0.0,0.0
0.04464052990078926,-0.02208438143134117,9.812211036682129,0.0053679798452722005,-0.0028778488044938037,-0.006629427707480263,1.1749897003173828,2019-06-20 14:44:25:354,0.0,0.0,0.0
0.0877460241317749,-0.031663380563259125,9.797842979431152,0.001372262411285181,-0.0004804183961164572,-0.0021009480183147955,1.179997444152832,2019-06-20 14:44:25:359,0.0,0.0,0.0
-0.003254464827477932,-0.024479132145643234,9.845738410949707,0.0009726907199013442,-0.0018123241640997428,0.00042967279131070986,1.1841068267822266,2019-06-20 14:44:25:363,0.0,0.0,0.0
0.02308778092265129,-0.017294881865382195,9.747552871704102,-0.003156217017805962,-0.0020787052916889674,-0.0034328539163352434,1.1891107559204102,2019-06-20 14:44:25:368,0.0,0.0,0.0
-0.003254464827477932,-0.02208438143134117,9.790658950805664,0.003636502255867915,-0.0006136089599110694,0.005357724074332143,1.1949915885925293,2019-06-20 14:44:25:374,0.0,0.0,0.0
0.03506153076887131,-0.053216129541397095,9.831369400024414,-0.002090692377411901,-0.004209754442439926,-0.0010354235079578973,1.1991167068481445,2019-06-20 14:44:25:378,0.0,0.0,0.0
0.011114032939076424,-0.04124237969517708,9.785869598388672,0.005101598717682976,-0.0032774204958776402,0.0028271031021601845,1.2049999237060547,2019-06-20 14:44:25:384,0.0,0.0,0.0
0.039851028472185135,-0.05800562724471092,9.843342781066895,-0.0018243112498226766,-0.004875707001338663,-0.0017013763269309588,1.2100181579589844,2019-06-20 14:44:25:389,0.0,0.0,0.0
-0.0008597151609137654,-0.06518987566232681,9.745158195495605,0.0016386436689115682,-0.006074422335564498,-0.0013018046355471218,1.215005874633789,2019-06-20 14:44:25:394,0.0,0.0,0.0
0.04943002760410309,-0.06758462637662888,9.843342781066895,-0.0007587866744471969,-0.003144229932083028,0.0024275314107763475,1.2191133499145508,2019-06-20 14:44:25:398,0.0,0.0,0.0
-0.003254464827477932,-0.031663380563259125,9.838553428649902,0.0028373588731002413,-0.0018123241640997428,0.0022943408469817354,1.2249937057495117,2019-06-20 14:44:25:404,0.0,0.0,0.0
0.039851028472185135,0.0018631152343004942,9.761921882629395,0.0028373588731002413,-0.00647399428702266,0.00695601083986749,1.2291135787963867,2019-06-20 14:44:25:408,0.0,0.0,0.0
0.047035280615091324,-0.06518987566232681,9.79305362701416,-0.001557930122233452,-0.002744658240699191,0.0008292445152038374,1.2349987030029297,2019-06-20 14:44:25:414,0.0,0.0,0.0
0.011114032939076424,-0.03405813127756119,9.788264274597168,0.0012390718474905686,-0.0044761355700291515,-0.0014349951993417342,1.2391119003295898,2019-06-20 14:44:25:418,0.0,0.0,0.0
-0.017622962594032288,-0.05800562724471092,9.826580047607422,0.0008395001561067318,-0.009004614739045968,0.0024275314107763475,1.244110107421875,2019-06-20 14:44:25:423,0.0,0.0,0.0
-0.015228213742375374,-0.08195312321186066,9.759527206420898,-0.0004924055468579722,-0.005142088649076538,-0.005563903197123366,1.2500038146972656,2019-06-20 14:44:25:429,0.0,0.0,0.0
0.006324533838778734,-0.026873880997300148,9.802632331848145,4.035674489342885e-05,-0.0020787052916889674,-0.00023628007642628753,1.255019187927246,2019-06-20 14:44:25:434,0.0,0.0,0.0
0.03506153076887131,-0.03645287826657295,9.8505277633667,-0.003822169836779023,-0.003144229932083028,0.005224533250463206,1.2600116729736328,2019-06-20 14:44:25:439,0.0,0.0,0.0
0.0015350345056504011,-0.026873880997300148,9.761921882629395,0.00043992846472289506,-0.0020787052916889674,-0.00036947065647554515,1.2641057968139648,2019-06-20 14:44:25:443,0.0,0.0,0.0
-0.017622962594032288,-0.0005316344322636724,9.79305362701416,4.035674489342885e-05,0.001650630754634502,0.00016329164746684,1.2699995040893555,2019-06-20 14:44:25:449,0.0,0.0,0.0
-0.022412462159991264,-0.072374127805233,9.749947547912598,-0.00022602440301410239,-0.0040765638786453146,-0.0006358518165740604,1.2741141319274902,2019-06-20 14:44:25:453,0.0,0.0,0.0
0.013508782722055912,-0.046031877398490906,9.814606666564941,0.0008395001561067318,-0.0015459429064733554,0.0012288162065876742,1.2791080474853516,2019-06-20 14:44:25:458,0.0,0.0,0.0
-0.0008597151609137654,-0.017294881865382195,9.80502700805664,0.0019050247965007928,-0.0032774204958776402,-0.0030332819648770815,1.284106731414795,2019-06-20 14:44:25:463,0.0,0.0,0.0
0.027877280488610268,-0.09153212606906891,9.812211036682129,0.004036073947251752,-0.0016791336003051302,-0.0019677574545201833,1.2900028228759766,2019-06-20 14:44:25:469,0.0,0.0,0.0
-0.012833463959395885,-0.017294881865382195,9.814606666564941,0.0009726907199013442,-0.003943373314850702,-0.00010308950450435256,1.2941131591796875,2019-06-20 14:44:25:473,0.0,0.0,0.0
-0.022412462159991264,-0.024479132145643234,9.747552871704102,0.0020382153602954054,-0.0026114674168302536,-0.0025005197096986324,1.3000802993774414,2019-06-20 14:44:25:479,0.0,0.0,0.0
-0.012833463959395885,-0.05082137882709503,9.800237655639648,-0.0004924055468579722,-0.0007467995237056817,0.0012288162065876742,1.3051319122314453,2019-06-20 14:44:25:484,0.0,0.0,0.0
0.00871928408741951,-0.04363713040947914,9.82179069519043,-0.0010251678020364214,-0.003011039368288416,-0.0011686140717525096,1.3100595474243164,2019-06-20 14:44:25:489,0.0,0.0,0.0
-0.015228213742375374,-0.06279512494802475,9.817001342773438,-0.00022602440301410239,-0.004742516697618376,0.0005628633876146128,1.3141098022460938,2019-06-20 14:44:25:493,0.0,0.0,0.0
-0.012833463959395885,-0.046031877398490906,9.761921882629395,-0.00022602440301410239,-0.0024782768530356414,-0.0014349951993417342,1.320002555847168,2019-06-20 14:44:25:499,0.0,0.0,0.0
0.03506153076887131,-0.019689632579684258,9.75234317779541,-0.0014247395584388394,-0.0010131806512949063,-0.0006358518165740604,1.3249969482421875,2019-06-20 14:44:25:504,0.0,0.0,0.0
0.006324533838778734,-0.029268629848957062,9.797842979431152,-0.0012915489946442272,-0.0023450862892410293,-0.0031664725286716937,1.3291130065917969,2019-06-20 14:44:25:508,0.0,0.0,0.0
-0.024807212874293327,-0.03405813127756119,9.76431655883789,-0.0014247395584388394,-0.0023450862892410293,3.010106944941304e-05,1.3349924087524414,2019-06-20 14:44:25:514,0.0,0.0,0.0
0.013508782722055912,-0.04842662811279297,9.831369400024414,-0.0018243112498226766,-0.004342945006234539,-0.004365187862897529,1.3391203880310059,2019-06-20 14:44:25:518,0.0,0.0,0.0
-0.012833463959395885,-0.031663380563259125,9.788264274597168,-0.00035921498306336,-0.007273137669790334,-0.0029000914010824694,1.3449993133544922,2019-06-20 14:44:25:524,0.0,0.0,0.0
0.011114032939076424,-0.038847628980875015,9.788264274597168,0.00043992846472289506,-0.0010131806512949063,-0.0014349951993417342,1.3491764068603516,2019-06-20 14:44:25:528,0.0,0.0,0.0
-0.02001771330833435,-0.04363713040947914,9.800237655639648,-0.001957501813617289,0.0031157270864124,0.0014951973341768988,1.3550071716308594,2019-06-20 14:44:25:534,0.0,0.0,0.0
-0.00564921461045742,-0.060400377959012985,9.817001342773438,0.0061671232280398735,-0.0012795617788841308,0.0002964822275160976,1.3591108322143555,2019-06-20 14:44:25:538,0.0,0.0,0.0
0.02308778092265129,-0.03405813127756119,9.83376407623291,-0.002223883071243676,-0.0014127523426787432,0.0017615784617661236,1.3649921417236328,2019-06-20 14:44:25:544,0.0,0.0,0.0
-0.0008597151609137654,-0.04124237969517708,9.773895263671875,0.0024377869216420794,-0.005408469776665762,-0.000902232944163285,1.370002269744873,2019-06-20 14:44:25:549,0.0,0.0,0.0
0.013508782722055912,-0.06279512494802475,9.824185371398926,0.0015054529750797934,0.0004519156154644102,-0.006096665452301814,1.3741145133972168,2019-06-20 14:44:25:553,0.0,0.0,0.0
0.04464052990078926,-0.026873880997300148,9.848133087158203,0.0016386436689115682,-0.002744658240699191,0.0037594370487224705,1.3799972534179688,2019-06-20 14:44:25:559,0.0,0.0,0.0
-0.012833463959395885,-0.053216129541397095,9.872079849243164,-0.002223883071243676,-0.0014127523426787432,-0.0063630465798910395,1.384106159210205,2019-06-20 14:44:25:563,0.0,0.0,0.0
0.0159035325050354,-0.04842662811279297,9.831369400024414,0.0025709774854366916,-0.0003472278323218449,0.0014951973341768988,1.3900041580200195,2019-06-20 14:44:25:569,0.0,0.0,0.0
0.020693032070994377,-0.060400377959012985,9.745158195495605,-0.0006255961106525846,-0.000879990087500294,-0.0013018046355471218,1.3941864967346191,2019-06-20 14:44:25:573,0.0,0.0,0.0
0.03506153076887131,-0.03645287826657295,9.766711235046387,-0.0030230264540113496,-0.0023450862892410293,-0.0010354235079578973,1.4000205993652344,2019-06-20 14:44:25:579,0.0,0.0,0.0
0.00871928408741951,-0.060400377959012985,9.790658950805664,0.0039028833834571395,-0.0012795617788841308,0.0024275314107763475,1.4041061401367188,2019-06-20 14:44:25:583,0.0,0.0,0.0
0.020693032070994377,-0.05082137882709503,9.89123821258545,0.0025709774854366916,-0.002211895725446417,0.0029602936659547966,1.4100027084350586,2019-06-20 14:44:25:589,0.0,0.0,0.0
-0.0008597151609137654,-0.04842662811279297,9.757132530212402,-0.00035921498306336,0.00018553447162054023,-0.005031140421796266,1.4141130447387695,2019-06-20 14:44:25:593,0.0,0.0,0.0
0.018298283219337463,-0.005321133881807327,9.807421684265137,0.0032369305644840782,-0.0024782768530356414,-0.0017013763269309588,1.419994831085205,2019-06-20 14:44:25:599,0.0,0.0,0.0
-0.010438714176416397,-0.04363713040947914,9.812211036682129,-0.001557930122233452,-0.003011039368288416,0.001095625642793062,1.424107551574707,2019-06-20 14:44:25:603,0.0,0.0,0.0
0.027877280488610268,-0.05800562724471092,9.778684616088867,0.0007063095923121196,-0.006873565718332173,0.0021611501531499603,1.4299931526184082,2019-06-20 14:44:25:609,0.0,0.0,0.0
0.013508782722055912,-0.0795583724975586,9.759527206420898,-0.0014247395584388394,-0.002744658240699191,0.005357724074332143,1.4349908828735352,2019-06-20 14:44:25:614,0.0,0.0,0.0
-0.003254464827477932,-0.06997937709093094,9.838553428649902,-0.0006255961106525846,-0.003676992187261477,0.0008292445152038374,1.4391164779663086,2019-06-20 14:44:25:618,0.0,0.0,0.0
-0.017622962594032288,-0.06758462637662888,9.83376407623291,0.0011058812836959564,-0.0052752789527968245,0.004159008740106307,1.4450569152832031,2019-06-20 14:44:25:624,0.0,0.0,0.0
0.047035280615091324,-0.03645287826657295,9.757132530212402,0.0007063095923121196,-0.0067403754146118855,0.0005628633876146128,1.450000286102295,2019-06-20 14:44:25:629,0.0,0.0,0.0
-0.029596710577607155,-0.0795583724975586,9.778684616088867,0.003370121128278691,-0.0004804183961164572,-0.0011686140717525096,1.4541091918945312,2019-06-20 14:44:25:633,0.0,0.0,0.0
0.0015350345056504011,-0.053216129541397095,9.74276351928711,0.0037696928196625274,0.00031872505166979784,0.004425389867695532,1.4600019454956055,2019-06-20 14:44:25:639,0.0,0.0,0.0
-0.012833463959395885,-0.019689632579684258,9.795448303222656,0.0039028833834571395,-0.0044761355700291515,0.003626246484927858,1.4641132354736328,2019-06-20 14:44:25:643,0.0,0.0,0.0
0.025482531636953354,-0.04842662811279297,9.828974723815918,0.0019050247965007928,-0.0007467995237056817,0.00016329164746684,1.469111442565918,2019-06-20 14:44:25:648,0.0,0.0,0.0
-0.012833463959395885,-0.03645287826657295,9.812211036682129,0.0007063095923121196,-0.001945514727894355,-0.0007690423803686727,1.474104881286621,2019-06-20 14:44:25:653,0.0,0.0,0.0
0.006324533838778734,-0.03405813127756119,9.845738410949707,0.0011058812836959564,-0.004875707001338663,0.004159008740106307,1.4800033569335938,2019-06-20 14:44:25:659,0.0,0.0,0.0
-0.0008597151609137654,-0.005321133881807327,9.79305362701416,0.0015054529750797934,-0.003410611059672253,-0.00023628007642628753,1.4841156005859375,2019-06-20 14:44:25:663,0.0,0.0,0.0
-0.015228213742375374,-0.060400377959012985,9.802632331848145,0.005501170148992487,5.234389563494396e-05,-0.004631568990486754,1.4891386032104492,2019-06-20 14:44:25:668,0.0,0.0,0.0
0.025482531636953354,-0.04842662811279297,9.812211036682129,0.0012390718474905686,-0.002744658240699191,0.004159008740106307,1.4950065612792969,2019-06-20 14:44:25:674,0.0,0.0,0.0
0.020693032070994377,-0.046031877398490906,9.860106468200684,-0.001557930122233452,-0.0035438016234668654,0.001628387897971511,1.4991121292114258,2019-06-20 14:44:25:678,0.0,0.0,0.0
0.0159035325050354,-0.03645287826657295,9.831369400024414,-0.00035921498306336,-0.001945514727894355,-0.0014349951993417342,1.5041122436523438,2019-06-20 14:44:25:683,0.0,0.0,0.0
0.018298283219337463,-0.024479132145643234,9.840948104858398,-0.0006255961106525846,-0.0028778488044938037,0.0008292445152038374,1.510000228881836,2019-06-20 14:44:25:689,0.0,0.0,0.0
-0.029596710577607155,-0.05082137882709503,9.771500587463379,-0.0016911206860280642,-0.0035438016234668654,0.0005628633876146128,1.514112949371338,2019-06-20 14:44:25:693,0.0,0.0,0.0
-0.0008597151609137654,-0.04124237969517708,9.819396018981934,0.00017354732087902514,-0.002211895725446417,-0.0007690423803686727,1.5199928283691406,2019-06-20 14:44:25:699,0.0,0.0,0.0
-0.0008597151609137654,-0.01490013301372528,9.80502700805664,0.0053679798452722005,-0.003011039368288416,-0.0013018046355471218,1.524104118347168,2019-06-20 14:44:25:703,0.0,0.0,0.0
0.04464052990078926,-0.060400377959012985,9.82179069519043,0.0008395001561067318,-0.004875707001338663,0.0014951973341768988,1.5300030708312988,2019-06-20 14:44:25:709,0.0,0.0,0.0
-0.017622962594032288,-0.046031877398490906,9.795448303222656,-0.0010251678020364214,-0.0007467995237056817,0.002027959589355348,1.534111499786377,2019-06-20 14:44:25:713,0.0,0.0,0.0
0.00871928408741951,-0.05082137882709503,9.783474922180176,-0.0007587866744471969,-0.003410611059672253,-0.00036947065647554515,1.5400152206420898,2019-06-20 14:44:25:719,0.0,0.0,0.0
0.006324533838778734,-0.005321133881807327,9.807421684265137,0.0023045963578474673,0.0017838213184291141,0.004425389867695532,1.5441093444824219,2019-06-20 14:44:25:723,0.0,0.0,0.0
0.02308778092265129,-0.01490013301372528,9.826580047607422,0.0011058812836959564,-0.0014127523426787432,0.0030934842297494092,1.5500025749206543,2019-06-20 14:44:25:729,0.0,0.0,0.0
0.03506153076887131,-0.04842662811279297,9.788264274597168,-0.004354932091957473,-0.007139946845921397,-0.002234138582109408,1.5541143417358398,2019-06-20 14:44:25:733,0.0,0.0,0.0
-0.02720196172595024,-0.06758462637662888,9.843342781066895,-0.00035921498306336,-0.0011463712150895187,0.0012288162065876742,1.5599937438964844,2019-06-20 14:44:25:739,0.0,0.0,0.0
0.02308778092265129,-0.06279512494802475,9.781079292297363,-0.00035921498306336,-0.002744658240699191,0.004425389867695532,1.564107894897461,2019-06-20 14:44:25:743,0.0,0.0,0.0
-0.010438714176416397,-0.053216129541397095,9.807421684265137,-0.0014247395584388394,-0.002744658240699191,0.002693912538365572,1.570002555847168,2019-06-20 14:44:25:749,0.0,0.0,0.0
0.00871928408741951,-0.07716362178325653,9.860106468200684,0.0015054529750797934,-0.0018123241640997428,-0.0021009480183147955,1.5741147994995117,2019-06-20 14:44:25:753,0.0,0.0,0.0
0.03027203120291233,-0.005321133881807327,9.807421684265137,-0.006219599985082045,-0.0026114674168302536,3.010106944941304e-05,1.580000877380371,2019-06-20 14:44:25:759,0.0,0.0,0.0
0.013508782722055912,-0.06279512494802475,9.80502700805664,-0.00035921498306336,-0.0024782768530356414,0.003493055921133246,1.5850491523742676,2019-06-20 14:44:25:764,0.0,0.0,0.0
0.011114032939076424,-0.07476887851953506,9.800237655639648,0.0007063095923121196,-0.003011039368288416,-0.0025005197096986324,1.5900039672851562,2019-06-20 14:44:25:769,0.0,0.0,0.0
0.011114032939076424,-0.04842662811279297,9.82179069519043,0.0053679798452722005,-0.0004804183961164572,-0.0027669008372878568,1.594106674194336,2019-06-20 14:44:25:773,0.0,0.0,0.0
0.025482531636953354,-0.01490013301372528,9.819396018981934,0.0020382153602954054,-0.004742516697618376,0.0037594370487224705,1.5999999046325684,2019-06-20 14:44:25:779,0.0,0.0,0.0
0.025482531636953354,-0.01490013301372528,9.82179069519043,-0.003955360400573636,-0.0012795617788841308,-0.003566044480129856,1.604109764099121,2019-06-20 14:44:25:783,0.0,0.0,0.0
0.0159035325050354,-0.0795583724975586,9.74276351928711,-0.0014247395584388394,-0.0028778488044938037,-0.0006358518165740604,1.6091175079345703,2019-06-20 14:44:25:788,0.0,0.0,0.0
-0.010438714176416397,-0.019689632579684258,9.790658950805664,0.00017354732087902514,-0.0012795617788841308,0.0008292445152038374,1.6149930953979492,2019-06-20 14:44:25:794,0.0,0.0,0.0
0.03506153076887131,-0.072374127805233,9.828974723815918,0.001372262411285181,-0.004209754442439926,-0.0017013763269309588,1.6200037002563477,2019-06-20 14:44:25:799,0.0,0.0,0.0
0.047035280615091324,-0.031663380563259125,9.819396018981934,0.0048352170699451,-0.00647399428702266,0.0009624350789984497,1.6241130828857422,2019-06-20 14:44:25:803,0.0,0.0,0.0
0.0015350345056504011,-0.01490013301372528,9.781079292297363,0.0017718342327061804,-0.003943373314850702,0.00042967279131070986,1.6300296783447266,2019-06-20 14:44:25:809,0.0,0.0,0.0
-0.003254464827477932,-0.038847628980875015,9.795448303222656,0.0012390718474905686,-0.0032774204958776402,0.002027959589355348,1.6341257095336914,2019-06-20 14:44:25:813,0.0,0.0,0.0
0.025482531636953354,-0.08913737535476685,9.802632331848145,0.002970549436894854,-0.0044761355700291515,-0.003566044480129856,1.639998435974121,2019-06-20 14:44:25:819,0.0,0.0,0.0
0.03506153076887131,-0.06997937709093094,9.809816360473633,0.0017718342327061804,-0.008205471356278294,0.001628387897971511,1.6441059112548828,2019-06-20 14:44:25:823,0.0,0.0,0.0
0.025482531636953354,-0.026873880997300148,9.769105911254883,0.0009726907199013442,-0.0026114674168302536,-0.005297521549385491,1.6500000953674316,2019-06-20 14:44:25:829,0.0,0.0,0.0
0.025482531636953354,-0.038847628980875015,9.778684616088867,0.00043992846472289506,-0.0023450862892410293,-0.002234138582109408,1.6541128158569336,2019-06-20 14:44:25:833,0.0,0.0,0.0
0.032666780054569244,-0.038847628980875015,9.802632331848145,-0.0023570736350382883,-0.005541660080386049,-0.005297521549385491,1.6599969863891602,2019-06-20 14:44:25:839,0.0,0.0,0.0
0.02308778092265129,-0.031663380563259125,9.776289939880371,0.0009726907199013442,-0.003410611059672253,-0.003566044480129856,1.6641077995300293,2019-06-20 14:44:25:843,0.0,0.0,0.0
0.00871928408741951,-0.046031877398490906,9.807421684265137,0.0015054529750797934,-0.004742516697618376,-0.0063630465798910395,1.6700048446655273,2019-06-20 14:44:25:849,0.0,0.0,0.0
0.03506153076887131,-0.04124237969517708,9.749947547912598,-0.0012915489946442272,-0.0007467995237056817,0.0014951973341768988,1.6741132736206055,2019-06-20 14:44:25:853,0.0,0.0,0.0
0.020693032070994377,-0.06279512494802475,9.730790138244629,0.0003067379009282828,-0.0014127523426787432,0.0017615784617661236,1.6800251007080078,2019-06-20 14:44:25:859,0.0,0.0,0.0
0.00871928408741951,-0.08913737535476685,9.812211036682129,-0.0016911206860280642,-0.0014127523426787432,-0.000902232944163285,1.6849989891052246,2019-06-20 14:44:25:864,0.0,0.0,0.0
0.018298283219337463,-0.04124237969517708,9.790658950805664,0.0011058812836959564,-0.00647399428702266,0.004691770995284756,1.6891117095947266,2019-06-20 14:44:25:868,0.0,0.0,0.0
0.03506153076887131,-0.04124237969517708,9.797842979431152,0.0039028833834571395,-0.001945514727894355,-0.0010354235079578973,1.6949968338012695,2019-06-20 14:44:25:874,0.0,0.0,0.0
-0.022412462159991264,-0.046031877398490906,9.773895263671875,0.0012390718474905686,0.00018553447162054023,-0.0029000914010824694,1.699110984802246,2019-06-20 14:44:25:878,0.0,0.0,0.0
0.03745628148317337,-0.072374127805233,9.86250114440918,0.003103740000689466,-0.006340803463153723,0.004425389867695532,1.7049932479858398,2019-06-20 14:44:25:884,0.0,0.0,0.0
0.039851028472185135,-0.060400377959012985,9.771500587463379,0.0011058812836959564,-0.003676992187261477,-0.004231997299102917,1.7091388702392578,2019-06-20 14:44:25:888,0.0,0.0,0.0
-0.015228213742375374,-0.08913737535476685,9.80502700805664,0.0023045963578474673,0.0015174401908398898,-0.0011686140717525096,1.714996337890625,2019-06-20 14:44:25:894,0.0,0.0,0.0
-0.02720196172595024,-0.04842662811279297,9.735579490661621,-0.001557930122233452,-0.000879990087500294,0.0008292445152038374,1.7200088500976562,2019-06-20 14:44:25:899,0.0,0.0,0.0
0.027877280488610268,-0.04124237969517708,9.778684616088867,-0.0030230264540113496,-0.005674850904254987,0.0038926276125170823,1.724123477935791,2019-06-20 14:44:25:903,0.0,0.0,0.0
0.003929784055799246,-0.04124237969517708,9.771500587463379,-9.283383109216743e-05,0.0004519156154644102,0.0005628633876146128,1.730001449584961,2019-06-20 14:44:25:909,0.0,0.0,0.0
-0.0008597151609137654,-0.05800562724471092,9.797842979431152,0.0037696928196625274,-0.0044761355700291515,-0.0034328539163352434,1.7349910736083984,2019-06-20 14:44:25:914,0.0,0.0,0.0
0.0159035325050354,-0.04363713040947914,9.819396018981934,-0.0012915489946442272,-0.002744658240699191,-0.002234138582109408,1.7391133308410645,2019-06-20 14:44:25:918,0.0,0.0,0.0
0.003929784055799246,-0.04363713040947914,9.797842979431152,0.0011058812836959564,-0.0003472278323218449,-0.0025005197096986324,1.7449989318847656,2019-06-20 14:44:25:924,0.0,0.0,0.0
0.02308778092265129,-0.053216129541397095,9.83376407623291,0.0021714059240900176,-0.003410611059672253,0.0006960539514092252,1.7499957084655762,2019-06-20 14:44:25:929,0.0,0.0,0.0
0.03027203120291233,-0.024479132145643234,9.812211036682129,0.0039028833834571395,-0.004875707001338663,0.0009624350789984497,1.754105567932129,2019-06-20 14:44:25:933,0.0,0.0,0.0
0.027877280488610268,-0.06279512494802475,9.840948104858398,-0.0023570736350382883,-0.0020787052916889674,-0.002234138582109408,1.7600035667419434,2019-06-20 14:44:25:939,0.0,0.0,0.0
0.018298283219337463,-0.05561087653040886,9.766711235046387,-0.0032894075816005744,-0.003676992187261477,-0.0014349951993417342,1.7641181945800781,2019-06-20 14:44:25:943,0.0,0.0,0.0
0.013508782722055912,-0.024479132145643234,9.75234317779541,0.003636502255867915,-0.002211895725446417,0.0002964822275160976,1.7700457572937012,2019-06-20 14:44:25:949,0.0,0.0,0.0
0.0159035325050354,-0.038847628980875015,9.852922439575195,0.0021714059240900176,-0.0014127523426787432,-0.0038324256077190803,1.7750205993652344,2019-06-20 14:44:25:954,0.0,0.0,0.0
0.027877280488610268,-0.026873880997300148,9.838553428649902,0.0015054529750797934,-0.004875707001338663,-0.004764759294207041,1.7791128158569336,2019-06-20 14:44:25:958,0.0,0.0,0.0
0.032666780054569244,-0.024479132145643234,9.826580047607422,-0.0006255961106525846,-0.003676992187261477,-0.004764759294207041,1.7841105461120605,2019-06-20 14:44:25:963,0.0,0.0,0.0
0.003929784055799246,-0.05082137882709503,9.819396018981934,0.0024377869216420794,-0.0050088978252076,-0.00023628007642628753,1.7899999618530273,2019-06-20 14:44:25:969,0.0,0.0,0.0
0.018298283219337463,-0.04842662811279297,9.790658950805664,4.035674489342885e-05,-0.003943373314850702,0.004159008740106307,1.7950000762939453,2019-06-20 14:44:25:974,0.0,0.0,0.0
0.020693032070994377,-0.053216129541397095,9.817001342773438,-0.0012915489946442272,0.0009846778706428594,0.003493055921133246,1.7991089820861816,2019-06-20 14:44:25:978,0.0,0.0,0.0
0.011114032939076424,0.0018631152343004942,9.80502700805664,0.0003067379009282828,0.0005851061792590224,0.001095625642793062,1.8041095733642578,2019-06-20 14:44:25:983,0.0,0.0,0.0
0.05182477831840515,-0.06518987566232681,9.788264274597168,-0.0016911206860280642,-0.0032774204958776402,-0.0019677574545201833,1.8100237846374512,2019-06-20 14:44:25:989,0.0,0.0,0.0
0.0015350345056504011,-0.031663380563259125,9.759527206420898,-0.0004924055468579722,-0.007006756542201109,-0.00036947065647554515,1.8150053024291992,2019-06-20 14:44:25:994,0.0,0.0,0.0
0.013508782722055912,-0.01490013301372528,9.814606666564941,0.0027041680492313038,-0.003144229932083028,-0.0031664725286716937,1.8200926780700684,2019-06-20 14:44:25:999,0.0,0.0,0.0
-0.003254464827477932,-0.007715883664786816,9.807421684265137,-0.0026234547626275127,-0.0024782768530356414,-0.0021009480183147955,1.824117660522461,2019-06-20 14:44:26:003,0.0,0.0,0.0
-0.003254464827477932,-0.04363713040947914,9.824185371398926,-0.0023570736350382883,-0.001945514727894355,-0.0005026612202701574,1.829996109008789,2019-06-20 14:44:26:009,0.0,0.0,0.0
-0.03438621014356613,-0.010110633447766304,9.788264274597168,0.0017718342327061804,-0.004609325873749438,0.0008292445152038374,1.8341045379638672,2019-06-20 14:44:26:013,0.0,0.0,0.0
0.0159035325050354,-0.053216129541397095,9.790658950805664,0.0019050247965007928,-0.004875707001338663,0.0033598653573386336,1.8400030136108398,2019-06-20 14:44:26:019,0.0,0.0,0.0
0.020693032070994377,-0.010110633447766304,9.726000785827637,0.0007063095923121196,-0.0004804183961164572,-0.0005026612202701574,1.8441152572631836,2019-06-20 14:44:26:023,0.0,0.0,0.0
0.0015350345056504011,-0.0795583724975586,9.70205307006836,-0.00035921498306336,-0.0018123241640997428,-0.0032996633525406317,1.849996566772461,2019-06-20 14:44:26:029,0.0,0.0,0.0
0.00871928408741951,-0.05082137882709503,9.80502700805664,0.0003067379009282828,-0.002211895725446417,-0.0015681857631363464,1.8541059494018555,2019-06-20 14:44:26:033,0.0,0.0,0.0
0.05182477831840515,-0.007715883664786816,9.838553428649902,0.00043992846472289506,-0.003410611059672253,-0.00036947065647554515,1.8600034713745117,2019-06-20 14:44:26:039,0.0,0.0,0.0
0.025482531636953354,-0.029268629848957062,9.797842979431152,0.0020382153602954054,-0.002211895725446417,-0.0014349951993417342,1.8641343116760254,2019-06-20 14:44:26:043,0.0,0.0,0.0
0.068588025867939,-0.03645287826657295,9.840948104858398,-0.0006255961106525846,-0.0015459429064733554,0.0009624350789984497,1.8700056076049805,2019-06-20 14:44:26:049,0.0,0.0,0.0
0.00871928408741951,-0.053216129541397095,9.896027565002441,0.001372262411285181,-0.002744658240699191,0.0008292445152038374,1.8741068840026855,2019-06-20 14:44:26:053,0.0,0.0,0.0
-0.003254464827477932,-0.06279512494802475,9.867290496826172,0.0021714059240900176,-0.0010131806512949063,0.007222391967456715,1.8799972534179688,2019-06-20 14:44:26:059,0.0,0.0,0.0
-0.008043964393436909,-0.04842662811279297,9.838553428649902,-0.0023570736350382883,-0.0024782768530356414,0.004691770995284756,1.8849983215332031,2019-06-20 14:44:26:064,0.0,0.0,0.0
0.027877280488610268,-0.019689632579684258,9.852922439575195,0.0003067379009282828,0.000851487306848247,0.0002964822275160976,1.889111042022705,2019-06-20 14:44:26:068,0.0,0.0,0.0
0.03745628148317337,0.009047363884747028,9.778684616088867,0.0009726907199013442,-0.003410611059672253,0.00016329164746684,1.894993782043457,2019-06-20 14:44:26:074,0.0,0.0,0.0
0.0159035325050354,-0.06279512494802475,9.831369400024414,-0.0006255961106525846,-0.003011039368288416,0.0030934842297494092,1.8991155624389648,2019-06-20 14:44:26:078,0.0,0.0,0.0
0.003929784055799246,-0.038847628980875015,9.848133087158203,0.005234789021403263,-0.0050088978252076,-0.0023673291459040203,1.9050006866455078,2019-06-20 14:44:26:084,0.0,0.0,0.0
0.025482531636953354,-0.026873880997300148,9.773895263671875,-0.003422598145395187,-0.007273137669790334,-0.0030332819648770815,1.9091377258300781,2019-06-20 14:44:26:088,0.0,0.0,0.0
-0.00564921461045742,-0.024479132145643234,9.70205307006836,0.0011058812836959564,-0.007273137669790334,0.0028271031021601845,1.9150199890136719,2019-06-20 14:44:26:094,0.0,0.0,0.0
0.0015350345056504011,-0.04842662811279297,9.836158752441406,0.001372262411285181,-0.0011463712150895187,-0.00010308950450435256,1.9199986457824707,2019-06-20 14:44:26:099,0.0,0.0,0.0
-0.015228213742375374,-0.031663380563259125,9.797842979431152,-0.0007587866744471969,-0.004742516697618376,0.0012288162065876742,1.9241065979003906,2019-06-20 14:44:26:103,0.0,0.0,0.0
0.0422457791864872,-0.06997937709093094,9.757132530212402,0.0015054529750797934,-0.001945514727894355,0.0014951973341768988,1.929107666015625,2019-06-20 14:44:26:108,0.0,0.0,0.0
-0.022412462159991264,-0.06279512494802475,9.812211036682129,-0.0007587866744471969,-0.003943373314850702,0.0005628633876146128,1.9349956512451172,2019-06-20 14:44:26:114,0.0,0.0,0.0
0.054219529032707214,-0.06279512494802475,9.809816360473633,-0.0035557887091897987,-8.084668035065233e-05,-0.003566044480129856,1.9399938583374023,2019-06-20 14:44:26:119,0.0,0.0,0.0
0.003929784055799246,-0.07476887851953506,9.790658950805664,-0.0014247395584388394,-0.004742516697618376,-0.00023628007642628753,1.9441051483154297,2019-06-20 14:44:26:123,0.0,0.0,0.0
0.03027203120291233,-0.017294881865382195,9.857711791992188,0.004568835942355876,-0.0018123241640997428,0.0012288162065876742,1.9491157531738281,2019-06-20 14:44:26:128,0.0,0.0,0.0
0.00871928408741951,-0.029268629848957062,9.800237655639648,-0.002223883071243676,-0.0004804183961164572,0.0028271031021601845,1.955000877380371,2019-06-20 14:44:26:134,0.0,0.0,0.0
-0.0008597151609137654,-0.03645287826657295,9.819396018981934,-0.003822169836779023,0.0013842496270452774,-0.0025005197096986324,1.9600543975830078,2019-06-20 14:44:26:139,0.0,0.0,0.0
0.011114032939076424,-0.038847628980875015,9.819396018981934,0.0007063095923121196,-0.0044761355700291515,-0.0032996633525406317,1.9641199111938477,2019-06-20 14:44:26:143,0.0,0.0,0.0
0.03506153076887131,-0.04363713040947914,9.766711235046387,-0.0035557887091897987,-0.005674850904254987,-0.0010354235079578973,1.9699954986572266,2019-06-20 14:44:26:149,0.0,0.0,0.0
0.0159035325050354,-0.05800562724471092,9.819396018981934,0.0025709774854366916,-0.0032774204958776402,0.0012288162065876742,1.9741096496582031,2019-06-20 14:44:26:153,0.0,0.0,0.0
-0.008043964393436909,-0.038847628980875015,9.781079292297363,0.0009726907199013442,-0.003144229932083028,-0.0036992350439244686,1.9800033569335938,2019-06-20 14:44:26:159,0.0,0.0,0.0
0.0159035325050354,-0.026873880997300148,9.831369400024414,0.004702026766224813,-0.0014127523426787432,-0.0017013763269309588,1.9849987030029297,2019-06-20 14:44:26:164,0.0,0.0,0.0
-0.017622962594032288,-0.03645287826657295,9.840948104858398,0.007099456914527835,-0.0014127523426787432,0.003226674793544021,1.989109992980957,2019-06-20 14:44:26:168,0.0,0.0,0.0
0.03745628148317337,-0.053216129541397095,9.817001342773438,0.0011058812836959564,-0.0038101827510560898,3.010106944941304e-05,1.9949922561645508,2019-06-20 14:44:26:174,0.0,0.0,0.0
-0.00564921461045742,-0.046031877398490906,9.840948104858398,0.00043992846472289506,-0.0040765638786453146,-0.004098806735308305,1.9991168975830078,2019-06-20 14:44:26:178,0.0,0.0,0.0
-0.003254464827477932,-0.03405813127756119,9.759527206420898,0.0017718342327061804,-0.0024782768530356414,0.001095625642793062,2.0050249099731445,2019-06-20 14:44:26:184,0.0,0.0,0.0
-0.0008597151609137654,-0.046031877398490906,9.836158752441406,0.00017354732087902514,-0.002211895725446417,-0.0007690423803686727,2.0100297927856445,2019-06-20 14:44:26:189,0.0,0.0,0.0
0.032666780054569244,-0.01490013301372528,9.773895263671875,0.0017718342327061804,-0.006607184590742948,-0.0031664725286716937,2.0141048431396484,2019-06-20 14:44:26:193,0.0,0.0,0.0
0.013508782722055912,-0.053216129541397095,9.797842979431152,0.0007063095923121196,-0.0006136089599110694,0.004025818176311695,2.0200023651123047,2019-06-20 14:44:26:199,0.0,0.0,0.0
0.0159035325050354,-0.03405813127756119,9.802632331848145,-0.00035921498306336,-0.0024782768530356414,0.0005628633876146128,2.0241146087646484,2019-06-20 14:44:26:203,0.0,0.0,0.0
0.0015350345056504011,-0.029268629848957062,9.785869598388672,-0.004887694347135921,-0.0024782768530356414,0.00042967279131070986,2.029994487762451,2019-06-20 14:44:26:209,0.0,0.0,0.0
0.003929784055799246,-0.038847628980875015,9.769105911254883,0.00043992846472289506,-0.002744658240699191,0.003226674793544021,2.034104347229004,2019-06-20 14:44:26:213,0.0,0.0,0.0
-0.012833463959395885,-0.04842662811279297,9.771500587463379,-0.0024902641988329005,-0.0038101827510560898,-0.0014349951993417342,2.0400023460388184,2019-06-20 14:44:26:219,0.0,0.0,0.0
-0.02001771330833435,-0.053216129541397095,9.800237655639648,0.0016386436689115682,-0.0018123241640997428,0.0006960539514092252,2.0441155433654785,2019-06-20 14:44:26:223,0.0,0.0,0.0
-0.02720196172595024,-0.03405813127756119,9.817001342773438,-0.00035921498306336,-0.006074422335564498,-0.004231997299102917,2.050002098083496,2019-06-20 14:44:26:229,0.0,0.0,0.0
0.00871928408741951,-0.01490013301372528,9.802632331848145,-0.002090692377411901,-0.0032774204958776402,0.0008292445152038374,2.055034637451172,2019-06-20 14:44:26:234,0.0,0.0,0.0
0.03027203120291233,-0.019689632579684258,9.83376407623291,-0.00022602440301410239,-0.006607184590742948,-0.0007690423803686727,2.0600013732910156,2019-06-20 14:44:26:239,0.0,0.0,0.0
-0.02001771330833435,-0.03645287826657295,9.776289939880371,-0.003422598145395187,-0.00021403725227258724,0.0056241052019213676,2.0641064643859863,2019-06-20 14:44:26:243,0.0,0.0,0.0
0.032666780054569244,-0.031663380563259125,9.802632331848145,0.0005731190285175073,-0.002211895725446417,0.004292199303900919,2.070000648498535,2019-06-20 14:44:26:249,0.0,0.0,0.0
-0.010438714176416397,-0.04842662811279297,9.795448303222656,0.00043992846472289506,-0.0026114674168302536,-0.0014349951993417342,2.0741138458251953,2019-06-20 14:44:26:253,0.0,0.0,0.0
0.006324533838778734,-0.031663380563259125,9.809816360473633,0.00043992846472289506,0.0011178684994560528,0.007888345046504102,2.07999324798584,2019-06-20 14:44:26:259,0.0,0.0,0.0
0.02308778092265129,-0.012505383230745792,9.757132530212402,0.0011058812836959564,-0.0003472278323218449,-0.001834566890725571,2.084108352661133,2019-06-20 14:44:26:263,0.0,0.0,0.0
0.025482531636953354,-0.053216129541397095,9.783474922180176,-0.0004924055468579722,-0.003011039368288416,0.005224533250463206,2.090003490447998,2019-06-20 14:44:26:269,0.0,0.0,0.0
-0.022412462159991264,-0.06758462637662888,9.80502700805664,0.003370121128278691,-0.005408469776665762,0.0006960539514092252,2.094113826751709,2019-06-20 14:44:26:273,0.0,0.0,0.0
0.061403777450323105,-0.04363713040947914,9.82179069519043,0.0023045963578474673,-0.006074422335564498,-0.0006358518165740604,2.100041389465332,2019-06-20 14:44:26:279,0.0,0.0,0.0
0.0015350345056504011,-0.05800562724471092,9.828974723815918,0.0021714059240900176,-0.0032774204958776402,0.004558580691564469,2.1050095558166504,2019-06-20 14:44:26:284,0.0,0.0,0.0
0.039851028472185135,-0.06997937709093094,9.771500587463379,-0.0012915489946442272,-0.0004804183961164572,0.004558580691564469,2.110018253326416,2019-06-20 14:44:26:289,0.0,0.0,0.0
-0.003254464827477932,-0.04124237969517708,9.788264274597168,-0.0026234547626275127,-0.000879990087500294,-0.0019677574545201833,2.114995002746582,2019-06-20 14:44:26:294,0.0,0.0,0.0
0.018298283219337463,-0.03405813127756119,9.800237655639648,0.003370121128278691,-0.000879990087500294,-0.0023673291459040203,2.119114875793457,2019-06-20 14:44:26:298,0.0,0.0,0.0
0.00871928408741951,-0.03645287826657295,9.838553428649902,-0.003156217017805962,0.0024497742674393385,0.0024275314107763475,2.125000476837158,2019-06-20 14:44:26:304,0.0,0.0,0.0
0.013508782722055912,-0.029268629848957062,9.82179069519043,0.0017718342327061804,-0.0044761355700291515,-0.002234138582109408,2.1291112899780273,2019-06-20 14:44:26:308,0.0,0.0,0.0
0.011114032939076424,-0.05800562724471092,9.8505277633667,0.0009726907199013442,-8.084668035065233e-05,0.0030934842297494092,2.1349916458129883,2019-06-20 14:44:26:314,0.0,0.0,0.0
0.03027203120291233,-0.05561087653040886,9.8505277633667,0.0005731190285175073,-0.0044761355700291515,-0.000902232944163285,2.139118194580078,2019-06-20 14:44:26:318,0.0,0.0,0.0
0.011114032939076424,-0.026873880997300148,9.773895263671875,-0.003422598145395187,-0.0010131806512949063,-0.0029000914010824694,2.145045757293701,2019-06-20 14:44:26:324,0.0,0.0,0.0
0.03506153076887131,-0.06279512494802475,9.824185371398926,-0.0024902641988329005,-0.0044761355700291515,0.0028271031021601845,2.1500167846679688,2019-06-20 14:44:26:329,0.0,0.0,0.0
0.003929784055799246,-0.06758462637662888,9.781079292297363,0.0035033116920733026,0.0019170118822237267,-0.000902232944163285,2.154107093811035,2019-06-20 14:44:26:333,0.0,0.0,0.0
0.03506153076887131,-0.053216129541397095,9.824185371398926,-0.002756645326422125,-0.007139946845921397,0.0013620067703822866,2.1599998474121094,2019-06-20 14:44:26:339,0.0,0.0,0.0
0.0422457791864872,-0.05561087653040886,9.817001342773438,0.0023045963578474673,-0.0004804183961164572,0.0030934842297494092,2.1650009155273438,2019-06-20 14:44:26:344,0.0,0.0,0.0
0.068588025867939,-0.026873880997300148,9.80502700805664,-0.0008919772382418092,-0.003144229932083028,0.00042967279131070986,2.1691107749938965,2019-06-20 14:44:26:348,0.0,0.0,0.0
0.03745628148317337,-0.04363713040947914,9.776289939880371,0.002970549436894854,-0.0024782768530356414,-0.003566044480129856,2.174992561340332,2019-06-20 14:44:26:354,0.0,0.0,0.0
0.04943002760410309,-0.03645287826657295,9.807421684265137,0.0028373588731002413,-0.003011039368288416,0.0029602936659547966,2.179110050201416,2019-06-20 14:44:26:358,0.0,0.0,0.0
0.03745628148317337,-0.046031877398490906,9.766711235046387,0.0039028833834571395,-0.004342945006234539,-0.001834566890725571,2.184995651245117,2019-06-20 14:44:26:364,0.0,0.0,0.0
0.025482531636953354,-0.031663380563259125,9.807421684265137,0.0027041680492313038,-0.0007467995237056817,0.0014951973341768988,2.1899986267089844,2019-06-20 14:44:26:369,0.0,0.0,0.0
0.00871928408741951,-0.04842662811279297,9.831369400024414,0.0008395001561067318,0.00018553447162054023,-0.0005026612202701574,2.1951141357421875,2019-06-20 14:44:26:374,0.0,0.0,0.0
0.027877280488610268,-0.0795583724975586,9.82179069519043,-0.00022602440301410239,-0.001945514727894355,0.0024275314107763475,2.2000203132629395,2019-06-20 14:44:26:379,0.0,0.0,0.0
-0.012833463959395885,-0.06279512494802475,9.817001342773438,-0.0016911206860280642,-0.005541660080386049,0.0017615784617661236,2.2041049003601074,2019-06-20 14:44:26:383,0.0,0.0,0.0
-0.03199145942926407,-0.0005316344322636724,9.80502700805664,0.0023045963578474673,-0.0018123241640997428,0.0021611501531499603,2.2100210189819336,2019-06-20 14:44:26:389,0.0,0.0,0.0
0.04943002760410309,-0.03405813127756119,9.785869598388672,-0.0014247395584388394,-0.0038101827510560898,-0.0032996633525406317,2.2141151428222656,2019-06-20 14:44:26:393,0.0,0.0,0.0
0.039851028472185135,-0.072374127805233,9.812211036682129,0.0003067379009282828,0.000851487306848247,0.0002964822275160976,2.219996452331543,2019-06-20 14:44:26:399,0.0,0.0,0.0
0.011114032939076424,-0.02208438143134117,9.848133087158203,0.001372262411285181,-0.0040765638786453146,0.0024275314107763475,2.2241086959838867,2019-06-20 14:44:26:403,0.0,0.0,0.0
0.006324533838778734,-0.06997937709093094,9.795448303222656,0.0003067379009282828,-0.004209754442439926,-0.002234138582109408,2.230001449584961,2019-06-20 14:44:26:409,0.0,0.0,0.0
-0.008043964393436909,-0.026873880997300148,9.75234317779541,-0.001957501813617289,-0.003943373314850702,0.0056241052019213676,2.2341136932373047,2019-06-20 14:44:26:413,0.0,0.0,0.0
0.0159035325050354,-0.03405813127756119,9.776289939880371,0.0016386436689115682,-0.0015459429064733554,0.001095625642793062,2.2400131225585938,2019-06-20 14:44:26:419,0.0,0.0,0.0
0.020693032070994377,-0.012505383230745792,9.781079292297363,-0.002223883071243676,-0.003943373314850702,-0.0030332819648770815,2.245009422302246,2019-06-20 14:44:26:424,0.0,0.0,0.0
-0.02001771330833435,-0.038847628980875015,9.843342781066895,0.0012390718474905686,-0.0032774204958776402,-0.0017013763269309588,2.2499985694885254,2019-06-20 14:44:26:429,0.0,0.0,0.0
0.006324533838778734,-0.04363713040947914,9.836158752441406,-0.0008919772382418092,-0.005674850904254987,0.0002964822275160976,2.2541069984436035,2019-06-20 14:44:26:433,0.0,0.0,0.0
0.020693032070994377,-0.04363713040947914,9.838553428649902,0.0016386436689115682,-0.002744658240699191,-0.0014349951993417342,2.2600011825561523,2019-06-20 14:44:26:439,0.0,0.0,0.0
-0.02001771330833435,-0.05082137882709503,9.809816360473633,-0.0012915489946442272,-0.004609325873749438,0.0002964822275160976,2.2641167640686035,2019-06-20 14:44:26:443,0.0,0.0,0.0
-0.03438621014356613,-0.024479132145643234,9.737974166870117,-0.0004924055468579722,-0.0035438016234668654,-0.0023673291459040203,2.269993305206299,2019-06-20 14:44:26:449,0.0,0.0,0.0
-0.010438714176416397,-0.031663380563259125,9.80502700805664,-0.0018243112498226766,-0.0006136089599110694,0.002693912538365572,2.274106025695801,2019-06-20 14:44:26:453,0.0,0.0,0.0
-0.008043964393436909,-0.04124237969517708,9.819396018981934,-0.0018243112498226766,-0.003011039368288416,-0.003566044480129856,2.280003547668457,2019-06-20 14:44:26:459,0.0,0.0,0.0
0.020693032070994377,-0.04842662811279297,9.812211036682129,0.0011058812836959564,-0.0038101827510560898,0.0030934842297494092,2.284114360809326,2019-06-20 14:44:26:463,0.0,0.0,0.0
-0.0008597151609137654,-0.06518987566232681,9.90321159362793,-0.0023570736350382883,-0.0020787052916889674,-0.005031140421796266,2.29001522064209,2019-06-20 14:44:26:469,0.0,0.0,0.0
-0.0008597151609137654,-0.024479132145643234,9.855317115783691,-9.283383109216743e-05,-0.0018123241640997428,0.00042967279131070986,2.2941055297851562,2019-06-20 14:44:26:473,0.0,0.0,0.0
0.0159035325050354,-0.007715883664786816,9.886448860168457,-0.002223883071243676,-0.006340803463153723,-0.0026337102734932446,2.3000001907348633,2019-06-20 14:44:26:479,0.0,0.0,0.0
0.006324533838778734,-0.031663380563259125,9.776289939880371,-9.283383109216743e-05,-0.00021403725227258724,-0.0013018046355471218,2.3041133880615234,2019-06-20 14:44:26:483,0.0,0.0,0.0
-0.017622962594032288,-0.03405813127756119,9.824185371398926,4.035674489342885e-05,-0.004342945006234539,-0.0025005197096986324,2.30999755859375,2019-06-20 14:44:26:489,0.0,0.0,0.0
-0.022412462159991264,-0.046031877398490906,9.761921882629395,0.0020382153602954054,-0.004342945006234539,0.0014951973341768988,2.3141069412231445,2019-06-20 14:44:26:493,0.0,0.0,0.0
0.04464052990078926,-0.04124237969517708,9.788264274597168,-0.0014247395584388394,-0.005808041207975274,0.0033598653573386336,2.3200058937072754,2019-06-20 14:44:26:499,0.0,0.0,0.0
0.02308778092265129,-0.01490013301372528,9.790658950805664,0.0020382153602954054,-0.003676992187261477,-0.0010354235079578973,2.324112892150879,2019-06-20 14:44:26:503,0.0,0.0,0.0
0.0159035325050354,-0.017294881865382195,9.852922439575195,-0.0010251678020364214,-0.0038101827510560898,0.004824961819153694,2.3300065994262695,2019-06-20 14:44:26:509,0.0,0.0,0.0
-0.017622962594032288,0.0018631152343004942,9.8505277633667,-0.0036889792729844113,-0.0006136089599110694,0.0025607219745709597,2.3350749015808105,2019-06-20 14:44:26:514,0.0,0.0,0.0
-0.003254464827477932,-0.05800562724471092,9.812211036682129,-0.0008919772382418092,-0.003410611059672253,0.0014951973341768988,2.3391146659851074,2019-06-20 14:44:26:518,0.0,0.0,0.0
0.018298283219337463,-0.03645287826657295,9.795448303222656,-9.283383109216743e-05,-0.0016791336003051302,-0.0013018046355471218,2.344109535217285,2019-06-20 14:44:26:523,0.0,0.0,0.0
0.013508782722055912,-0.05082137882709503,9.824185371398926,-0.004621313219546697,-0.0035438016234668654,-0.0031664725286716937,2.34999942779541,2019-06-20 14:44:26:529,0.0,0.0,0.0
0.02308778092265129,-0.053216129541397095,9.838553428649902,-9.283383109216743e-05,0.0009846778706428594,-0.003566044480129856,2.3541150093078613,2019-06-20 14:44:26:533,0.0,0.0,0.0
0.025482531636953354,-0.02208438143134117,9.802632331848145,-0.0030230264540113496,-0.0044761355700291515,-0.0021009480183147955,2.359999656677246,2019-06-20 14:44:26:539,0.0,0.0,0.0
-0.02001771330833435,-0.06758462637662888,9.826580047607422,0.0037696928196625274,-0.0038101827510560898,-0.0025005197096986324,2.364107131958008,2019-06-20 14:44:26:543,0.0,0.0,0.0
0.00871928408741951,-0.06279512494802475,9.87447452545166,-9.283383109216743e-05,-0.006074422335564498,-0.0025005197096986324,2.370004177093506,2019-06-20 14:44:26:549,0.0,0.0,0.0
0.04943002760410309,-0.04363713040947914,9.819396018981934,0.0020382153602954054,-0.0007467995237056817,-0.0010354235079578973,2.374113082885742,2019-06-20 14:44:26:553,0.0,0.0,0.0
0.03027203120291233,-0.06518987566232681,9.773895263671875,-0.0006255961106525846,-0.0026114674168302536,-0.00023628007642628753,2.3791680335998535,2019-06-20 14:44:26:558,0.0,0.0,0.0
0.0159035325050354,-0.019689632579684258,9.761921882629395,0.0005731190285175073,-0.004609325873749438,0.0017615784617661236,2.385011672973633,2019-06-20 14:44:26:564,0.0,0.0,0.0
0.02308778092265129,-0.03645287826657295,9.809816360473633,-0.002090692377411901,-0.0032774204958776402,0.0024275314107763475,2.389110565185547,2019-06-20 14:44:26:568,0.0,0.0,0.0
-0.029596710577607155,-0.031663380563259125,9.800237655639648,-0.002090692377411901,-0.004875707001338663,-0.000902232944163285,2.394108295440674,2019-06-20 14:44:26:573,0.0,0.0,0.0
0.02308778092265129,-0.06518987566232681,9.797842979431152,-0.00035921498306336,-0.0023450862892410293,0.0006960539514092252,2.4000000953674316,2019-06-20 14:44:26:579,0.0,0.0,0.0
-0.010438714176416397,-0.017294881865382195,9.790658950805664,0.002970549436894854,-0.0052752789527968245,-0.0029000914010824694,2.40411376953125,2019-06-20 14:44:26:583,0.0,0.0,0.0
0.04943002760410309,-0.053216129541397095,9.826580047607422,0.0012390718474905686,0.0015174401908398898,0.0017615784617661236,2.4100213050842285,2019-06-20 14:44:26:589,0.0,0.0,0.0
-0.0008597151609137654,-0.01490013301372528,9.82179069519043,0.0011058812836959564,-0.004209754442439926,-0.00010308950450435256,2.414109230041504,2019-06-20 14:44:26:593,0.0,0.0,0.0
0.003929784055799246,-0.05082137882709503,9.778684616088867,0.0024377869216420794,-0.0023450862892410293,0.0006960539514092252,2.4191179275512695,2019-06-20 14:44:26:598,0.0,0.0,0.0
-0.010438714176416397,-0.060400377959012985,9.785869598388672,0.0008395001561067318,-0.004875707001338663,0.0002964822275160976,2.424996852874756,2019-06-20 14:44:26:604,0.0,0.0,0.0
-0.024807212874293327,-0.038847628980875015,9.757132530212402,0.004036073947251752,-0.0052752789527968245,0.006556438888409328,2.430026054382324,2019-06-20 14:44:26:609,0.0,0.0,0.0
0.039851028472185135,-0.031663380563259125,9.80502700805664,0.00017354732087902514,-0.0040765638786453146,-0.0011686140717525096,2.434107780456543,2019-06-20 14:44:26:613,0.0,0.0,0.0
-0.022412462159991264,-0.024479132145643234,9.855317115783691,-0.001957501813617289,-0.004609325873749438,-0.000902232944163285,2.4400014877319336,2019-06-20 14:44:26:619,0.0,0.0,0.0
0.039851028472185135,-0.03405813127756119,9.788264274597168,0.0012390718474905686,-0.007139946845921397,-0.001834566890725571,2.4441137313842773,2019-06-20 14:44:26:623,0.0,0.0,0.0
0.0422457791864872,-0.053216129541397095,9.761921882629395,0.0008395001561067318,-0.0015459429064733554,0.004159008740106307,2.449995517730713,2019-06-20 14:44:26:629,0.0,0.0,0.0
0.032666780054569244,-0.024479132145643234,9.759527206420898,0.0017718342327061804,0.001650630754634502,0.0017615784617661236,2.454111099243164,2019-06-20 14:44:26:633,0.0,0.0,0.0
-0.017622962594032288,-0.019689632579684258,9.788264274597168,0.00043992846472289506,-0.0003472278323218449,0.00016329164746684,2.4600024223327637,2019-06-20 14:44:26:639,0.0,0.0,0.0
0.05900902673602104,-0.05561087653040886,9.824185371398926,-0.0036889792729844113,-0.0015459429064733554,-0.0017013763269309588,2.4641122817993164,2019-06-20 14:44:26:643,0.0,0.0,0.0
-0.022412462159991264,-0.04842662811279297,9.800237655639648,-0.001957501813617289,-0.0032774204958776402,0.0038926276125170823,2.4691147804260254,2019-06-20 14:44:26:648,0.0,0.0,0.0
0.04943002760410309,-0.002926384098827839,9.817001342773438,0.0019050247965007928,-0.0016791336003051302,0.001095625642793062,2.4750776290893555,2019-06-20 14:44:26:654,0.0,0.0,0.0
0.02308778092265129,-0.05082137882709503,9.809816360473633,0.0032369305644840782,-0.0014127523426787432,-0.0007690423803686727,2.4800057411193848,2019-06-20 14:44:26:659,0.0,0.0,0.0
0.039851028472185135,-0.024479132145643234,9.795448303222656,0.0025709774854366916,0.000851487306848247,0.0018947690255607357,2.4841060638427734,2019-06-20 14:44:26:663,0.0,0.0,0.0
0.011114032939076424,-0.04842662811279297,9.836158752441406,0.0003067379009282828,-0.0011463712150895187,0.0056241052019213676,2.490001678466797,2019-06-20 14:44:26:669,0.0,0.0,0.0
0.013508782722055912,-0.04363713040947914,9.855317115783691,0.004568835942355876,-0.0028778488044938037,0.0018947690255607357,2.494112014770508,2019-06-20 14:44:26:673,0.0,0.0,0.0
0.00871928408741951,-0.01490013301372528,9.788264274597168,0.0003067379009282828,-0.002211895725446417,-0.0015681857631363464,2.499995231628418,2019-06-20 14:44:26:679,0.0,0.0,0.0
-0.024807212874293327,-0.038847628980875015,9.785869598388672,-0.00022602440301410239,-0.0032774204958776402,0.0009624350789984497,2.5049943923950195,2019-06-20 14:44:26:684,0.0,0.0,0.0
0.0159035325050354,-0.05800562724471092,9.838553428649902,0.0048352170699451,-0.0015459429064733554,0.0006960539514092252,2.509115219116211,2019-06-20 14:44:26:688,0.0,0.0,0.0
0.018298283219337463,-0.04842662811279297,9.75234317779541,0.0023045963578474673,-0.0018123241640997428,-0.003965616171513693,2.5150041580200195,2019-06-20 14:44:26:694,0.0,0.0,0.0
0.03027203120291233,-0.06758462637662888,9.80502700805664,0.0003067379009282828,-0.005941232031844212,-0.0026337102734932446,2.5192127227783203,2019-06-20 14:44:26:698,0.0,0.0,0.0
0.006324533838778734,-0.031663380563259125,9.812211036682129,0.0021714059240900176,-0.000879990087500294,-0.0023673291459040203,2.5250186920166016,2019-06-20 14:44:26:704,0.0,0.0,0.0
-0.0008597151609137654,-0.01490013301372528,9.79305362701416,0.0039028833834571395,-0.003410611059672253,0.0024275314107763475,2.529994010925293,2019-06-20 14:44:26:709,0.0,0.0,0.0
0.00871928408741951,-0.026873880997300148,9.76431655883789,-0.0010251678020364214,-0.003144229932083028,-0.004231997299102917,2.5341053009033203,2019-06-20 14:44:26:713,0.0,0.0,0.0
-0.003254464827477932,-0.038847628980875015,9.807421684265137,-0.0010251678020364214,-0.0035438016234668654,-0.0023673291459040203,2.540001392364502,2019-06-20 14:44:26:719,0.0,0.0,0.0
-0.0008597151609137654,-0.026873880997300148,9.80502700805664,-0.003422598145395187,-0.00021403725227258724,-0.0017013763269309588,2.544114112854004,2019-06-20 14:44:26:723,0.0,0.0,0.0
0.020693032070994377,-0.04842662811279297,9.80502700805664,0.00043992846472289506,0.00031872505166979784,0.0037594370487224705,2.549994945526123,2019-06-20 14:44:26:729,0.0,0.0,0.0
-0.0008597151609137654,-0.04363713040947914,9.795448303222656,-0.0008919772382418092,-0.0003472278323218449,-0.0023673291459040203,2.554104804992676,2019-06-20 14:44:26:733,0.0,0.0,0.0
0.018298283219337463,-0.05800562724471092,9.781079292297363,0.0003067379009282828,-0.005808041207975274,-0.0021009480183147955,2.5600075721740723,2019-06-20 14:44:26:739,0.0,0.0,0.0
0.027877280488610268,-0.024479132145643234,9.838553428649902,0.0057675512765817125,-0.0007467995237056817,-0.002234138582109408,2.564115524291992,2019-06-20 14:44:26:743,0.0,0.0,0.0
0.027877280488610268,-0.10350587218999863,9.769105911254883,4.035674489342885e-05,-0.0004804183961164572,0.0018947690255607357,2.570066452026367,2019-06-20 14:44:26:749,0.0,0.0,0.0
-0.017622962594032288,-0.024479132145643234,9.785869598388672,0.0011058812836959564,-0.004742516697618376,0.0013620067703822866,2.5741186141967773,2019-06-20 14:44:26:753,0.0,0.0,0.0
0.018298283219337463,-0.03405813127756119,9.76431655883789,0.0020382153602954054,-0.005408469776665762,0.0009624350789984497,2.5799989700317383,2019-06-20 14:44:26:759,0.0,0.0,0.0
0.006324533838778734,-0.053216129541397095,9.80502700805664,-0.001158358430849615,0.00031872505166979784,-0.0013018046355471218,2.584108352661133,2019-06-20 14:44:26:763,0.0,0.0,0.0
-0.003254464827477932,-0.05800562724471092,9.790658950805664,0.0020382153602954054,-0.001945514727894355,-0.0006358518165740604,2.589999198913574,2019-06-20 14:44:26:769,0.0,0.0,0.0
-0.015228213742375374,-0.019689632579684258,9.745158195495605,-0.002090692377411901,-0.0018123241640997428,-0.0006358518165740604,2.594113826751709,2019-06-20 14:44:26:773,0.0,0.0,0.0
-0.04875471070408821,-0.024479132145643234,9.814606666564941,0.0032369305644840782,-0.0023450862892410293,0.0013620067703822866,2.5999951362609863,2019-06-20 14:44:26:779,0.0,0.0,0.0
-0.012833463959395885,-0.04842662811279297,9.802632331848145,0.0008395001561067318,-0.004875707001338663,-0.0025005197096986324,2.60410737991333,2019-06-20 14:44:26:783,0.0,0.0,0.0
0.011114032939076424,-0.04842662811279297,9.838553428649902,0.0028373588731002413,-0.001945514727894355,0.0033598653573386336,2.610001564025879,2019-06-20 14:44:26:789,0.0,0.0,0.0
0.003929784055799246,-0.038847628980875015,9.826580047607422,-0.00035921498306336,-0.0014127523426787432,0.0021611501531499603,2.615011215209961,2019-06-20 14:44:26:794,0.0,0.0,0.0
-0.02001771330833435,-0.06758462637662888,9.795448303222656,-0.0007587866744471969,0.0011178684994560528,-0.0026337102734932446,2.620004653930664,2019-06-20 14:44:26:799,0.0,0.0,0.0
0.006324533838778734,-0.04124237969517708,9.864895820617676,0.0009726907199013442,-0.0018123241640997428,-0.0019677574545201833,2.6241073608398438,2019-06-20 14:44:26:803,0.0,0.0,0.0
0.027877280488610268,-0.02208438143134117,9.807421684265137,-0.00035921498306336,-0.008205471356278294,-0.0006358518165740604,2.6299996376037598,2019-06-20 14:44:26:809,0.0,0.0,0.0
0.020693032070994377,-0.010110633447766304,9.797842979431152,-0.00035921498306336,-0.0028778488044938037,-0.0023673291459040203,2.6341147422790527,2019-06-20 14:44:26:813,0.0,0.0,0.0
0.0422457791864872,-0.05082137882709503,9.82179069519043,-0.0010251678020364214,-0.0040765638786453146,-0.001834566890725571,2.639995574951172,2019-06-20 14:44:26:819,0.0,0.0,0.0
0.025482531636953354,-0.09392686933279037,9.769105911254883,0.00017354732087902514,-0.006207613159433436,-0.0011686140717525096,2.6441092491149902,2019-06-20 14:44:26:823,0.0,0.0,0.0
-0.015228213742375374,-0.0005316344322636724,9.819396018981934,0.003370121128278691,-0.005142088649076538,0.0005628633876146128,2.6500024795532227,2019-06-20 14:44:26:829,0.0,0.0,0.0
-0.0008597151609137654,-0.031663380563259125,9.802632331848145,4.035674489342885e-05,-0.003676992187261477,-0.0013018046355471218,2.6541128158569336,2019-06-20 14:44:26:833,0.0,0.0,0.0
0.03027203120291233,0.006652614567428827,9.795448303222656,0.001372262411285181,-0.004209754442439926,-0.003965616171513693,2.660231590270996,2019-06-20 14:44:26:839,0.0,0.0,0.0
0.027877280488610268,-0.024479132145643234,9.745158195495605,-0.0010251678020364214,-0.002744658240699191,0.0012288162065876742,2.6641335487365723,2019-06-20 14:44:26:843,0.0,0.0,0.0
0.06379852443933487,-0.017294881865382195,9.788264274597168,0.002970549436894854,-0.0044761355700291515,-0.004498378166617817,2.6700000762939453,2019-06-20 14:44:26:849,0.0,0.0,0.0
0.020693032070994377,-0.02208438143134117,9.759527206420898,0.003636502255867915,-0.001945514727894355,3.010106944941304e-05,2.674107074737549,2019-06-20 14:44:26:853,0.0,0.0,0.0
0.011114032939076424,-0.017294881865382195,9.809816360473633,0.0023045963578474673,-0.0004804183961164572,0.002027959589355348,2.6799936294555664,2019-06-20 14:44:26:859,0.0,0.0,0.0
-0.0008597151609137654,-0.029268629848957062,9.826580047607422,0.0020382153602954054,-0.0011463712150895187,-0.0013018046355471218,2.68410587310791,2019-06-20 14:44:26:863,0.0,0.0,0.0
0.032666780054569244,-0.029268629848957062,9.828974723815918,0.0015054529750797934,-0.003410611059672253,0.0025607219745709597,2.689112663269043,2019-06-20 14:44:26:868,0.0,0.0,0.0
-0.015228213742375374,-0.060400377959012985,9.783474922180176,-0.0014247395584388394,-0.0023450862892410293,0.006556438888409328,2.6949901580810547,2019-06-20 14:44:26:874,0.0,0.0,0.0
0.011114032939076424,-0.0005316344322636724,9.817001342773438,0.0020382153602954054,-0.0032774204958776402,0.0006960539514092252,2.6991162300109863,2019-06-20 14:44:26:878,0.0,0.0,0.0
0.011114032939076424,-0.05800562724471092,9.82179069519043,-0.00035921498306336,-0.0038101827510560898,0.002027959589355348,2.7049970626831055,2019-06-20 14:44:26:884,0.0,0.0,0.0
0.011114032939076424,-0.06279512494802475,9.776289939880371,0.00017354732087902514,-0.004609325873749438,-0.0015681857631363464,2.7100982666015625,2019-06-20 14:44:26:889,0.0,0.0,0.0
0.03027203120291233,-0.031663380563259125,9.761921882629395,-0.0008919772382418092,-0.003144229932083028,0.00016329164746684,2.7150096893310547,2019-06-20 14:44:26:894,0.0,0.0,0.0
-0.012833463959395885,-0.05561087653040886,9.82179069519043,0.0017718342327061804,-0.007672709101099845,0.0021611501531499603,2.719111919403076,2019-06-20 14:44:26:898,0.0,0.0,0.0
0.027877280488610268,-0.04124237969517708,9.807421684265137,-0.0010251678020364214,-0.002211895725446417,0.00042967279131070986,2.724989891052246,2019-06-20 14:44:26:904,0.0,0.0,0.0
-0.012833463959395885,-0.03405813127756119,9.771500587463379,0.0003067379009282828,-0.0028778488044938037,-0.0034328539163352434,2.7300009727478027,2019-06-20 14:44:26:909,0.0,0.0,0.0
0.011114032939076424,-0.05800562724471092,9.718815803527832,-0.001158358430849615,-0.0007467995237056817,0.00042967279131070986,2.7341132164001465,2019-06-20 14:44:26:913,0.0,0.0,0.0
0.018298283219337463,-0.05082137882709503,9.788264274597168,-0.0024902641988329005,-0.004342945006234539,-0.004365187862897529,2.739995002746582,2019-06-20 14:44:26:919,0.0,0.0,0.0
0.0015350345056504011,-0.07476887851953506,9.819396018981934,-0.003422598145395187,-0.0011463712150895187,0.0006960539514092252,2.744107246398926,2019-06-20 14:44:26:923,0.0,0.0,0.0
0.003929784055799246,-0.05561087653040886,9.785869598388672,0.0016386436689115682,-0.0067403754146118855,0.0006960539514092252,2.7500033378601074,2019-06-20 14:44:26:929,0.0,0.0,0.0
-0.024807212874293327,-0.038847628980875015,9.76431655883789,-0.00035921498306336,-0.005674850904254987,-0.000902232944163285,2.755033493041992,2019-06-20 14:44:26:934,0.0,0.0,0.0
0.032666780054569244,-0.026873880997300148,9.778684616088867,-0.00035921498306336,-0.006340803463153723,0.001628387897971511,2.7600183486938477,2019-06-20 14:44:26:939,0.0,0.0,0.0
0.025482531636953354,-0.03405813127756119,9.840948104858398,0.0007063095923121196,-0.003676992187261477,0.0029602936659547966,2.764105796813965,2019-06-20 14:44:26:943,0.0,0.0,0.0
0.027877280488610268,-0.04842662811279297,9.800237655639648,4.035674489342885e-05,-0.0038101827510560898,-0.00010308950450435256,2.7700014114379883,2019-06-20 14:44:26:949,0.0,0.0,0.0
-0.0008597151609137654,-0.031663380563259125,9.860106468200684,-0.0018243112498226766,-0.004742516697618376,-0.0014349951993417342,2.7741141319274902,2019-06-20 14:44:26:953,0.0,0.0,0.0
-0.0008597151609137654,-0.04124237969517708,9.797842979431152,-0.001557930122233452,-0.00021403725227258724,-0.001834566890725571,2.779110908508301,2019-06-20 14:44:26:958,0.0,0.0,0.0
0.00871928408741951,-0.04363713040947914,9.776289939880371,0.0009726907199013442,-0.0032774204958776402,0.0006960539514092252,2.78499174118042,2019-06-20 14:44:26:964,0.0,0.0,0.0
-0.024807212874293327,-0.019689632579684258,9.788264274597168,-0.0032894075816005744,-0.001945514727894355,0.004025818176311695,2.789116859436035,2019-06-20 14:44:26:968,0.0,0.0,0.0
0.020693032070994377,-0.03405813127756119,9.778684616088867,-0.00035921498306336,-0.003943373314850702,0.0024275314107763475,2.7949986457824707,2019-06-20 14:44:26:974,0.0,0.0,0.0
0.0159035325050354,-0.03645287826657295,9.845738410949707,0.0012390718474905686,0.000851487306848247,-0.0036992350439244686,2.8001604080200195,2019-06-20 14:44:26:979,0.0,0.0,0.0
0.018298283219337463,-0.05082137882709503,9.747552871704102,0.0008395001561067318,-0.007273137669790334,-0.006096665452301814,2.8041372299194336,2019-06-20 14:44:26:983,0.0,0.0,0.0
0.03027203120291233,-0.03405813127756119,9.857711791992188,4.035674489342885e-05,-0.0035438016234668654,0.004159008740106307,2.809208869934082,2019-06-20 14:44:26:988,0.0,0.0,0.0
-0.022412462159991264,-0.046031877398490906,9.76431655883789,0.0011058812836959564,-0.0010131806512949063,0.0022943408469817354,2.814408302307129,2019-06-20 14:44:26:993,0.0,0.0,0.0
0.013508782722055912,-0.012505383230745792,9.819396018981934,0.0020382153602954054,-0.0044761355700291515,0.0012288162065876742,2.820034980773926,2019-06-20 14:44:26:999,0.0,0.0,0.0
-0.008043964393436909,-0.03645287826657295,9.740368843078613,-0.0007587866744471969,-0.002744658240699191,0.0018947690255607357,2.824115753173828,2019-06-20 14:44:27:003,0.0,0.0,0.0
-0.02001771330833435,-0.029268629848957062,9.824185371398926,0.0039028833834571395,-0.0023450862892410293,0.0025607219745709597,2.8291120529174805,2019-06-20 14:44:27:008,0.0,0.0,0.0
0.006324533838778734,-0.026873880997300148,9.769105911254883,-0.0004924055468579722,-0.005142088649076538,0.00016329164746684,2.834990978240967,2019-06-20 14:44:27:014,0.0,0.0,0.0
-0.010438714176416397,-0.01490013301372528,9.802632331848145,0.00043992846472289506,-0.0004804183961164572,0.0009624350789984497,2.8399972915649414,2019-06-20 14:44:27:019,0.0,0.0,0.0
0.011114032939076424,-0.007715883664786816,9.82179069519043,-9.283383109216743e-05,0.002050202446018339,-0.0019677574545201833,2.8449954986572266,2019-06-20 14:44:27:024,0.0,0.0,0.0
0.03506153076887131,-0.026873880997300148,9.831369400024414,0.0011058812836959564,-0.003943373314850702,-0.0011686140717525096,2.849135398864746,2019-06-20 14:44:27:028,0.0,0.0,0.0
0.013508782722055912,-0.05082137882709503,9.8505277633667,0.0016386436689115682,-0.0024782768530356414,0.0014951973341768988,2.8549957275390625,2019-06-20 14:44:27:034,0.0,0.0,0.0
0.018298283219337463,-0.04363713040947914,9.790658950805664,0.005234789021403263,-0.0028778488044938037,0.0013620067703822866,2.859114646911621,2019-06-20 14:44:27:038,0.0,0.0,0.0
0.018298283219337463,-0.08913737535476685,9.888843536376953,0.0035033116920733026,-0.004742516697618376,-0.0005026612202701574,2.8649916648864746,2019-06-20 14:44:27:044,0.0,0.0,0.0
-0.008043964393436909,-0.010110633447766304,9.840948104858398,0.0007063095923121196,-0.0032774204958776402,0.0008292445152038374,2.870004653930664,2019-06-20 14:44:27:049,0.0,0.0,0.0
0.011114032939076424,-0.038847628980875015,9.8505277633667,-0.0006255961106525846,-0.004609325873749438,0.001095625642793062,2.874116897583008,2019-06-20 14:44:27:053,0.0,0.0,0.0
0.0159035325050354,-0.06518987566232681,9.809816360473633,0.0003067379009282828,0.0004519156154644102,0.0009624350789984497,2.8799943923950195,2019-06-20 14:44:27:059,0.0,0.0,0.0
0.003929784055799246,-0.04842662811279297,9.826580047607422,4.035674489342885e-05,-0.0016791336003051302,0.001628387897971511,2.884110450744629,2019-06-20 14:44:27:063,0.0,0.0,0.0
0.04464052990078926,-0.03645287826657295,9.797842979431152,-0.004354932091957473,-0.0028778488044938037,0.0022943408469817354,2.8900060653686523,2019-06-20 14:44:27:069,0.0,0.0,0.0
-0.010438714176416397,-0.0795583724975586,9.776289939880371,0.003370121128278691,-0.005674850904254987,-0.0032996633525406317,2.8950281143188477,2019-06-20 14:44:27:074,0.0,0.0,0.0
-0.010438714176416397,-0.05561087653040886,9.886448860168457,0.0023045963578474673,-0.0026114674168302536,0.0009624350789984497,2.8991360664367676,2019-06-20 14:44:27:078,0.0,0.0,0.0
0.013508782722055912,-0.046031877398490906,9.800237655639648,0.00043992846472289506,-0.00021403725227258724,-0.0021009480183147955,2.9049935340881348,2019-06-20 14:44:27:084,0.0,0.0,0.0
0.006324533838778734,-0.038847628980875015,9.812211036682129,-0.003822169836779023,-0.004875707001338663,0.0033598653573386336,2.909119129180908,2019-06-20 14:44:27:088,0.0,0.0,0.0
-0.008043964393436909,-0.05082137882709503,9.836158752441406,0.00043992846472289506,-0.003011039368288416,-0.0029000914010824694,2.9150185585021973,2019-06-20 14:44:27:094,0.0,0.0,0.0
0.0422457791864872,-0.06518987566232681,9.843342781066895,0.0027041680492313038,-0.001945514727894355,0.001095625642793062,2.9191131591796875,2019-06-20 14:44:27:098,0.0,0.0,0.0
0.027877280488610268,-0.024479132145643234,9.812211036682129,-0.0007587866744471969,0.00031872505166979784,-0.001834566890725571,2.9249935150146484,2019-06-20 14:44:27:104,0.0,0.0,0.0
0.03027203120291233,-0.08195312321186066,9.80502700805664,0.0020382153602954054,-0.0024782768530356414,0.0017615784617661236,2.9291181564331055,2019-06-20 14:44:27:108,0.0,0.0,0.0
0.032666780054569244,-0.029268629848957062,9.79305362701416,0.00017354732087902514,-0.0026114674168302536,0.0033598653573386336,2.9349918365478516,2019-06-20 14:44:27:114,0.0,0.0,0.0
-0.010438714176416397,-0.03645287826657295,9.79305362701416,0.0023045963578474673,-0.005808041207975274,-0.0017013763269309588,2.939119338989258,2019-06-20 14:44:27:118,0.0,0.0,0.0
0.006324533838778734,-0.019689632579684258,9.740368843078613,-0.00022602440301410239,-0.006607184590742948,0.0028271031021601845,2.9441423416137695,2019-06-20 14:44:27:123,0.0,0.0,0.0
-0.015228213742375374,-0.06518987566232681,9.795448303222656,0.0019050247965007928,-0.0026114674168302536,0.001628387897971511,2.950000286102295,2019-06-20 14:44:27:129,0.0,0.0,0.0
0.0159035325050354,-0.029268629848957062,9.817001342773438,-0.0035557887091897987,-0.0044761355700291515,0.0002964822275160976,2.9541120529174805,2019-06-20 14:44:27:133,0.0,0.0,0.0
0.027877280488610268,-0.04842662811279297,9.809816360473633,0.0024377869216420794,-0.007672709101099845,-0.0026337102734932446,2.960002899169922,2019-06-20 14:44:27:139,0.0,0.0,0.0
0.039851028472185135,-0.03645287826657295,9.826580047607422,-0.00035921498306336,-0.0044761355700291515,-0.001834566890725571,2.964113235473633,2019-06-20 14:44:27:143,0.0,0.0,0.0
0.018298283219337463,-0.03405813127756119,9.814606666564941,0.0032369305644840782,-0.002744658240699191,0.004025818176311695,2.9699931144714355,2019-06-20 14:44:27:149,0.0,0.0,0.0
-0.012833463959395885,-0.029268629848957062,9.809816360473633,-0.003822169836779023,-0.004875707001338663,0.0029602936659547966,2.9741106033325195,2019-06-20 14:44:27:153,0.0,0.0,0.0
0.032666780054569244,-0.04124237969517708,9.76431655883789,-0.002223883071243676,-0.0032774204958776402,-0.000902232944163285,2.980003833770752,2019-06-20 14:44:27:159,0.0,0.0,0.0
0.03506153076887131,-0.046031877398490906,9.80502700805664,0.00017354732087902514,-0.003410611059672253,-0.00023628007642628753,2.984114646911621,2019-06-20 14:44:27:163,0.0,0.0,0.0
0.003929784055799246,-0.060400377959012985,9.82179069519043,-0.0006255961106525846,-0.005674850904254987,0.0021611501531499603,2.99025297164917,2019-06-20 14:44:27:169,0.0,0.0,0.0
-0.017622962594032288,-0.010110633447766304,9.802632331848145,-9.283383109216743e-05,-0.0006136089599110694,-0.0006358518165740604,2.9942684173583984,2019-06-20 14:44:27:173,0.0,0.0,0.0
0.025482531636953354,-0.024479132145643234,9.802632331848145,-0.00035921498306336,-0.004209754442439926,0.0024275314107763475,2.9992780685424805,2019-06-20 14:44:27:178,0.0,0.0,0.0
-0.022412462159991264,-0.04842662811279297,9.82179069519043,4.035674489342885e-05,-0.005408469776665762,-0.0036992350439244686,3.004272937774658,2019-06-20 14:44:27:183,0.0,0.0,0.0
0.011114032939076424,-0.04363713040947914,9.769105911254883,-0.002223883071243676,-0.005408469776665762,0.0008292445152038374,3.0092830657958984,2019-06-20 14:44:27:188,0.0,0.0,0.0
0.025482531636953354,-0.04842662811279297,9.800237655639648,0.0025709774854366916,-0.0016791336003051302,-0.00023628007642628753,3.0142946243286133,2019-06-20 14:44:27:193,0.0,0.0,0.0
0.006324533838778734,-0.060400377959012985,9.896027565002441,0.0043024550748409765,-0.003676992187261477,0.0009624350789984497,3.019275665283203,2019-06-20 14:44:27:198,0.0,0.0,0.0
0.020693032070994377,-0.04363713040947914,9.785869598388672,-0.0006255961106525846,0.0017838213184291141,-0.0029000914010824694,3.0242743492126465,2019-06-20 14:44:27:203,0.0,0.0,0.0
0.03027203120291233,-0.002926384098827839,9.817001342773438,0.00017354732087902514,-0.003410611059672253,-0.0011686140717525096,3.0292906761169434,2019-06-20 14:44:27:208,0.0,0.0,0.0
0.013508782722055912,-0.03645287826657295,9.831369400024414,0.0012390718474905686,-0.0020787052916889674,0.0037594370487224705,3.034268379211426,2019-06-20 14:44:27:213,0.0,0.0,0.0
-0.015228213742375374,-0.04363713040947914,9.824185371398926,0.002970549436894854,-0.0023450862892410293,0.0028271031021601845,3.03932523727417,2019-06-20 14:44:27:218,0.0,0.0,0.0
0.027877280488610268,-0.038847628980875015,9.828974723815918,-0.002090692377411901,-0.0003472278323218449,0.004425389867695532,3.0442733764648438,2019-06-20 14:44:27:223,0.0,0.0,0.0
0.05182477831840515,-0.04124237969517708,9.855317115783691,0.0009726907199013442,-0.0003472278323218449,0.0024275314107763475,3.049281120300293,2019-06-20 14:44:27:228,0.0,0.0,0.0
-0.0008597151609137654,-0.002926384098827839,9.785869598388672,0.0039028833834571395,0.000851487306848247,0.0018947690255607357,3.0542750358581543,2019-06-20 14:44:27:233,0.0,0.0,0.0
-0.022412462159991264,-0.026873880997300148,9.802632331848145,0.0020382153602954054,0.000851487306848247,0.0025607219745709597,3.0592751502990723,2019-06-20 14:44:27:238,0.0,0.0,0.0
0.013508782722055912,-0.02208438143134117,9.778684616088867,0.0007063095923121196,-0.0010131806512949063,-0.001834566890725571,3.0642709732055664,2019-06-20 14:44:27:243,0.0,0.0,0.0
0.006324533838778734,-0.04842662811279297,9.812211036682129,0.0008395001561067318,-0.0016791336003051302,-0.00036947065647554515,3.069286346435547,2019-06-20 14:44:27:248,0.0,0.0,0.0
0.018298283219337463,-0.05561087653040886,9.838553428649902,0.0012390718474905686,-0.0052752789527968245,0.0030934842297494092,3.0742740631103516,2019-06-20 14:44:27:253,0.0,0.0,0.0
0.003929784055799246,0.0018631152343004942,9.800237655639648,-0.0010251678020364214,0.0004519156154644102,0.00016329164746684,3.0792765617370605,2019-06-20 14:44:27:258,0.0,0.0,0.0
0.003929784055799246,-0.031663380563259125,9.826580047607422,0.0005731190285175073,-0.0012795617788841308,-0.0026337102734932446,3.084273338317871,2019-06-20 14:44:27:263,0.0,0.0,0.0
0.032666780054569244,-0.053216129541397095,9.836158752441406,0.0009726907199013442,-0.0012795617788841308,-0.00010308950450435256,3.089275360107422,2019-06-20 14:44:27:268,0.0,0.0,0.0
0.0159035325050354,-0.072374127805233,9.82179069519043,0.0027041680492313038,-0.0050088978252076,-0.0010354235079578973,3.0943431854248047,2019-06-20 14:44:27:273,0.0,0.0,0.0
-0.03917571157217026,-0.02208438143134117,9.795448303222656,0.0009726907199013442,0.0009846778706428594,-0.002234138582109408,3.0992841720581055,2019-06-20 14:44:27:278,0.0,0.0,0.0
0.018298283219337463,-0.03405813127756119,9.819396018981934,0.0011058812836959564,-0.0026114674168302536,-0.0030332819648770815,3.1042747497558594,2019-06-20 14:44:27:283,0.0,0.0,0.0
-0.02001771330833435,-0.03645287826657295,9.838553428649902,0.0024377869216420794,-0.0015459429064733554,-0.003965616171513693,3.109286308288574,2019-06-20 14:44:27:288,0.0,0.0,0.0
-0.017622962594032288,-0.04842662811279297,9.790658950805664,-0.0024902641988329005,-0.0052752789527968245,0.0008292445152038374,3.114295482635498,2019-06-20 14:44:27:293,0.0,0.0,0.0
0.020693032070994377,-0.0005316344322636724,9.838553428649902,0.00017354732087902514,-0.0016791336003051302,0.0029602936659547966,3.1192755699157715,2019-06-20 14:44:27:298,0.0,0.0,0.0
0.011114032939076424,-0.038847628980875015,9.86250114440918,-0.00022602440301410239,-0.003011039368288416,-0.0017013763269309588,3.1242737770080566,2019-06-20 14:44:27:303,0.0,0.0,0.0
0.0159035325050354,0.004257864784449339,9.819396018981934,0.0024377869216420794,-0.0044761355700291515,-0.00010308950450435256,3.1292901039123535,2019-06-20 14:44:27:308,0.0,0.0,0.0
-0.024807212874293327,-0.024479132145643234,9.809816360473633,-0.0032894075816005744,-0.003011039368288416,-0.0036992350439244686,3.1342716217041016,2019-06-20 14:44:27:313,0.0,0.0,0.0
-0.008043964393436909,-0.06279512494802475,9.82179069519043,-9.283383109216743e-05,0.003382108214001624,0.00016329164746684,3.1393308639526367,2019-06-20 14:44:27:318,0.0,0.0,0.0
0.013508782722055912,-0.005321133881807327,9.802632331848145,-0.002756645326422125,-0.002744658240699191,-0.0036992350439244686,3.145009994506836,2019-06-20 14:44:27:324,0.0,0.0,0.0
0.05182477831840515,-0.02208438143134117,9.812211036682129,-0.00035921498306336,0.00031872505166979784,-0.0014349951993417342,3.149113655090332,2019-06-20 14:44:27:328,0.0,0.0,0.0
0.0159035325050354,-0.06279512494802475,9.817001342773438,-0.0018243112498226766,-0.005808041207975274,-0.00036947065647554515,3.1549925804138184,2019-06-20 14:44:27:334,0.0,0.0,0.0
0.018298283219337463,-0.017294881865382195,9.826580047607422,-0.001957501813617289,-0.003144229932083028,0.0012288162065876742,3.1591153144836426,2019-06-20 14:44:27:338,0.0,0.0,0.0
0.027877280488610268,-0.05082137882709503,9.79305362701416,0.004568835942355876,0.0025829648312339507,0.0002964822275160976,3.1650009155273438,2019-06-20 14:44:27:344,0.0,0.0,0.0
0.003929784055799246,-0.002926384098827839,9.826580047607422,0.003370121128278691,-0.003676992187261477,0.0006960539514092252,3.169114112854004,2019-06-20 14:44:27:348,0.0,0.0,0.0
0.061403777450323105,-0.026873880997300148,9.814606666564941,0.0032369305644840782,-0.0018123241640997428,-0.0032996633525406317,3.1749916076660156,2019-06-20 14:44:27:354,0.0,0.0,0.0
0.003929784055799246,-0.06518987566232681,9.757132530212402,0.0003067379009282828,-0.005142088649076538,0.001628387897971511,3.179997444152832,2019-06-20 14:44:27:359,0.0,0.0,0.0
-0.003254464827477932,-0.04842662811279297,9.802632331848145,0.00043992846472289506,-0.0015459429064733554,0.004292199303900919,3.1850380897521973,2019-06-20 14:44:27:364,0.0,0.0,0.0
0.020693032070994377,-0.029268629848957062,9.730790138244629,-0.0012915489946442272,-0.004742516697618376,-0.00036947065647554515,3.1891307830810547,2019-06-20 14:44:27:368,0.0,0.0,0.0
0.018298283219337463,-0.024479132145643234,9.797842979431152,-9.283383109216743e-05,0.0004519156154644102,-0.0031664725286716937,3.1949939727783203,2019-06-20 14:44:27:374,0.0,0.0,0.0
0.011114032939076424,-0.002926384098827839,9.726000785827637,0.006300313531760161,-0.0026114674168302536,0.0008292445152038374,3.199115753173828,2019-06-20 14:44:27:378,0.0,0.0,0.0
0.020693032070994377,-0.02208438143134117,9.795448303222656,0.0007063095923121196,-0.0028778488044938037,0.0025607219745709597,3.2049999237060547,2019-06-20 14:44:27:384,0.0,0.0,0.0
0.039851028472185135,-0.0795583724975586,9.783474922180176,-0.001158358430849615,-0.0014127523426787432,-0.0048979501180759786,3.2091140747070312,2019-06-20 14:44:27:388,0.0,0.0,0.0
-0.012833463959395885,-0.05800562724471092,9.80502700805664,-0.001557930122233452,-0.0052752789527968245,-0.001834566890725571,3.2150163650512695,2019-06-20 14:44:27:394,0.0,0.0,0.0
0.0015350345056504011,-0.002926384098827839,9.824185371398926,0.0008395001561067318,-0.004209754442439926,-0.0013018046355471218,3.2191200256347656,2019-06-20 14:44:27:398,0.0,0.0,0.0
0.04943002760410309,-0.08913737535476685,9.778684616088867,-0.00035921498306336,-0.003943373314850702,0.0025607219745709597,3.224996566772461,2019-06-20 14:44:27:404,0.0,0.0,0.0
0.006324533838778734,0.006652614567428827,9.795448303222656,0.005501170148992487,0.0021833931398501137,0.0022943408469817354,3.229116439819336,2019-06-20 14:44:27:408,0.0,0.0,0.0
0.00871928408741951,-0.04363713040947914,9.872079849243164,-0.0008919772382418092,-0.0023450862892410293,0.004558580691564469,3.2350358963012695,2019-06-20 14:44:27:414,0.0,0.0,0.0
0.006324533838778734,-0.053216129541397095,9.855317115783691,-0.0036889792729844113,-0.0040765638786453146,-0.004365187862897529,3.2391366958618164,2019-06-20 14:44:27:418,0.0,0.0,0.0
0.047035280615091324,-0.03405813127756119,9.802632331848145,0.0016386436689115682,-0.004742516697618376,-0.0014349951993417342,3.245001792907715,2019-06-20 14:44:27:424,0.0,0.0,0.0
0.027877280488610268,-0.026873880997300148,9.797842979431152,0.0016386436689115682,-0.003410611059672253,0.005091342946742919,3.249113082885742,2019-06-20 14:44:27:428,0.0,0.0,0.0
0.0015350345056504011,-0.026873880997300148,9.778684616088867,-0.0008919772382418092,-0.003676992187261477,-0.0036992350439244686,3.2549924850463867,2019-06-20 14:44:27:434,0.0,0.0,0.0
0.013508782722055912,-0.072374127805233,9.828974723815918,-0.0016911206860280642,0.0005851061792590224,-0.00023628007642628753,3.2600088119506836,2019-06-20 14:44:27:439,0.0,0.0,0.0
-0.015228213742375374,-0.06279512494802475,9.771500587463379,0.0016386436689115682,-0.003676992187261477,0.0008292445152038374,3.2641124725341797,2019-06-20 14:44:27:443,0.0,0.0,0.0
0.0159035325050354,-0.038847628980875015,9.790658950805664,0.0023045963578474673,-0.004342945006234539,0.0009624350789984497,3.270000457763672,2019-06-20 14:44:27:449,0.0,0.0,0.0
