ACCELEROMETER X (m/s²),ACCELEROMETER Y (m/s²),ACCELEROMETER Z (m/s²),GYROSCOPE X (rad/s),GYROSCOPE Y (rad/s),GYROSCOPE Z (rad/s),Time since start in ms ,YYYY-MO-DD HH-MI-SS_SSS
-0.07822450250387192,-0.19446085393428802,9.823892593383789,0.0012770312556999051,0.002997587023817288,0.0029939909761227054,0.0,2019-06-18 15:19:47:953
-0.10456674546003342,-0.16572386026382446,9.80473518371582,0.002209365202262191,0.0031307775876119005,-6.939229186431566e-05,0.004120826721191406,2019-06-18 15:19:47:957
-0.05188225209712982,-0.1968556046485901,9.809524536132812,0.0010106500630920993,-0.0008649395863007935,-0.0010017262628085697,0.010026931762695312,2019-06-18 15:19:47:963
-0.06385599821805954,-0.16572386026382446,9.900525093078613,0.00021150663156048962,0.004063111534174186,0.0001969888601068769,0.014115333557128906,2019-06-18 15:19:47:967
-0.061461251229047775,-0.1561448574066162,9.838261604309082,-5.487451634704159e-05,0.004063111534174186,0.0001969888601068769,0.019995689392089844,2019-06-18 15:19:47:973
-0.039908502250909805,-0.15375012159347534,9.744866371154785,0.0018097935108783545,0.0027312058962280636,-0.0003357734438355082,0.02500152587890625,2019-06-18 15:19:47:978
-0.10217199474573135,-0.17769761383533478,9.77599811553955,-0.003917400992364299,0.0023316342048442266,0.0001969888601068769,0.03005218505859375,2019-06-18 15:19:47:983
-0.08301399648189545,-0.15853960812091827,9.852629661560059,0.0036744614040029266,0.003796730406584962,0.0019284663357286445,0.03413105010986328,2019-06-18 15:19:47:987
-0.05188225209712982,-0.15135537087917328,9.8167085647583,0.00620508211610056,-0.0011313207138900182,0.007788851532803074,0.039994239807128906,2019-06-18 15:19:47:993
-0.08301399648189545,-0.15375012159347534,9.826288223266602,0.0008774594992974871,0.008458400399470718,0.002860800412328093,0.044116973876953125,2019-06-18 15:19:47:997
-0.09498775005340576,-0.1968556046485901,9.893341064453125,0.0008774594992974871,0.0027312058962280636,-0.0026000132233996607,0.05001258850097656,2019-06-18 15:19:48:003
-0.07343500107526779,-0.1896713674068451,9.83347225189209,0.002209365202262191,0.004462683485632349,0.003926324922684992,0.05412864685058594,2019-06-18 15:19:48:007
-0.08780349791049957,-0.17530286312103271,9.80473518371582,0.0018097935108783545,0.0021984436410496144,0.001528894514307645,0.05999469757080078,2019-06-18 15:19:48:013
-0.05906650051474571,-0.14896062016487122,9.814313888549805,-0.0016531614078558903,0.0007333473092717165,0.0008629416953345836,0.06500244140625,2019-06-18 15:19:48:018
-0.04469800367951393,-0.1968556046485901,9.8167085647583,-0.0016531614078558903,0.003397158715201125,0.0003301794401561345,0.06911945343017578,2019-06-18 15:19:48:022
-0.047092754393815994,-0.14177636802196503,9.838261604309082,0.0030085085850298653,-0.000598558458711569,0.0040595154864796045,0.07500839233398438,2019-06-18 15:19:48:028
-0.07343500107526779,-0.1705133616924286,9.86220932006836,0.001143840691905293,0.004595873789352636,0.002860800412328093,0.07912635803222656,2019-06-18 15:19:48:032
-0.04948750138282776,-0.14896062016487122,9.838261604309082,0.00154341238328913,-0.0003321772986130537,0.001528894514307645,0.084991455078125,2019-06-18 15:19:48:038
-0.05667174980044365,-0.117828868329525,9.80473518371582,-0.0025854953544181764,0.004196302097968799,0.0013957039505130327,0.08911323547363281,2019-06-18 15:19:48:042
-0.061461251229047775,-0.14896062016487122,9.823892593383789,0.0023425557660568036,0.004729064613221573,0.0069897081500354,0.0950164794921875,2019-06-18 15:19:48:048
-0.061461251229047775,-0.1633291095495224,9.847840309143066,0.0032748897126190896,0.0006001567454771042,0.0001969888601068769,0.09912681579589844,2019-06-18 15:19:48:052
-0.05906650051474571,-0.17530286312103271,9.809524536132812,0.004473605046844925,0.0024648247686388392,0.0003301794401561345,0.10499238967895508,2019-06-18 15:19:48:058
-0.054277002811431885,-0.2016451060771942,9.828682899475098,0.001143840691905293,0.0020652529472178394,-0.002999584914783498,0.1091156005859375,2019-06-18 15:19:48:062
-0.05188225209712982,-0.17290811240673065,9.766419410705566,-0.0003212556723818955,0.003530349278995737,0.00166208520813942,0.11499881744384766,2019-06-18 15:19:48:068
-0.05667174980044365,-0.17769761383533478,9.878972053527832,0.0007442689355028748,0.00033377558537858905,-0.0008685356990139574,0.11917495727539062,2019-06-18 15:19:48:072
-0.08540874719619751,-0.18009236454963684,9.864603996276855,0.0019429840746729666,0.0061941605548879826,-0.003931918861345784,0.12500524520874023,2019-06-18 15:19:48:078
-0.07343500107526779,-0.15375012159347534,9.795156478881836,0.0003446972116097473,-0.0016640829690684673,0.0004633700039507468,0.1291217803955078,2019-06-18 15:19:48:082
-0.03751375526189804,-0.1561448574066162,9.802340507507324,0.0018097935108783545,0.0009997284368609412,-0.00486425280790807,0.13500404357910156,2019-06-18 15:19:48:088
-0.0662507489323616,-0.1824871152639389,9.826288223266602,-0.0023191142268289516,0.0023316342048442266,0.002061656899523257,0.13912630081176758,2019-06-18 15:19:48:092
-0.07343500107526779,-0.16572386026382446,9.840656280517578,0.0012770312556999051,0.0020652529472178394,-0.0037987282975511715,0.1450057029724121,2019-06-18 15:19:48:098
-0.07104025036096573,-0.17530286312103271,9.831077575683594,-0.0011203991526774412,0.0032639681514065122,0.000996132259129196,0.15000581741333008,2019-06-18 15:19:48:103
-0.05906650051474571,-0.1369868665933609,9.835866928100586,-0.0040505915561589115,0.001798871819628615,-0.000735345135219345,0.15411996841430664,2019-06-18 15:19:48:107
-0.05667174980044365,-0.14177636802196503,9.807129859924316,0.0023425557660568036,0.003796730406584962,0.0003301794401561345,0.1600027084350586,2019-06-18 15:19:48:113
-0.09498775005340576,-0.15853960812091827,9.787971496582031,-0.0027186859182127886,0.0025980153324334514,-0.0008685356990139574,0.16500186920166016,2019-06-18 15:19:48:118
-0.05667174980044365,-0.17769761383533478,9.802340507507324,0.0003446972116097473,0.005794589123578471,-0.0008685356990139574,0.16913700103759766,2019-06-18 15:19:48:122
-0.08061924576759338,-0.21361885964870453,9.807129859924316,-0.0032514481733912377,-0.0013977018414792427,0.002860800412328093,0.1750020980834961,2019-06-18 15:19:48:128
-0.018355756998062134,-0.18727661669254303,9.866998672485352,-0.0008540179600696353,-0.0020636546604523042,0.0005965605677453591,0.1791214942932129,2019-06-18 15:19:48:132
-0.06864549964666367,-0.1705133616924286,9.84544563293457,-0.0036510198647750746,0.0024648247686388392,-0.0024668226596050486,0.18500995635986328,2019-06-18 15:19:48:138
-0.05906650051474571,-0.1824871152639389,9.787971496582031,0.00154341238328913,0.00486225491694186,0.002461228460869931,0.18912649154663086,2019-06-18 15:19:48:142
-0.06864549964666367,-0.15375012159347534,9.773603439331055,0.0006110783717082625,6.739442934373515e-05,0.0012625133867184206,0.19499921798706055,2019-06-18 15:19:48:148
-0.08780349791049957,-0.12501311302185059,9.828682899475098,0.0028753180212352527,0.003397158715201125,-0.001934060274389437,0.19911813735961914,2019-06-18 15:19:48:152
-0.06385599821805954,-0.19925035536289215,9.759234428405762,0.0034080802764137014,0.0032639681514065122,-0.0022004415320158242,0.20500469207763672,2019-06-18 15:19:48:158
-0.07104025036096573,-0.16811861097812653,9.843050956726074,-0.0020527330992397273,6.739442934373515e-05,-0.0020672508381840496,0.20911884307861328,2019-06-18 15:19:48:162
-0.07822450250387192,-0.16093435883522034,9.831077575683594,0.0006110783717082625,0.0025980153324334514,-0.0010017262628085697,0.21501398086547852,2019-06-18 15:19:48:168
-0.04948750138282776,-0.1968556046485901,9.8167085647583,0.002209365202262191,-0.006192562658233936,0.00166208520813942,0.21912002563476562,2019-06-18 15:19:48:172
-0.05188225209712982,-0.17530286312103271,9.785576820373535,0.003541270840208314,0.0021984436410496144,-0.0041982999889350085,0.22505903244018555,2019-06-18 15:19:48:178
-0.06864549964666367,-0.18727661669254303,9.768814086914062,0.0014102218194945173,-0.0027296074794253655,0.003793134358890379,0.2291393280029297,2019-06-18 15:19:48:182
-0.04469800367951393,-0.1824871152639389,9.843050956726074,-0.00045444623617650777,-0.0009981301500954058,-0.0011349168916217633,0.23500299453735352,2019-06-18 15:19:48:188
-0.04948750138282776,-0.15375012159347534,9.8167085647583,0.0034080802764137014,0.003397158715201125,0.0013957039505130327,0.2391185760498047,2019-06-18 15:19:48:192
-0.05906650051474571,-0.18727661669254303,9.797551155090332,0.0026089368936460283,0.0015324906920393903,0.007389279581344911,0.24499988555908203,2019-06-18 15:19:48:198
-0.06385599821805954,-0.22319786250591278,9.86220932006836,-0.0008540179600696353,-0.0008649395863007935,-0.005130633935497294,0.24911832809448242,2019-06-18 15:19:48:202
-0.06385599821805954,-0.12501311302185059,9.771208763122559,0.001676602947083742,0.0002005850053293314,0.0004633700039507468,0.25499916076660156,2019-06-18 15:19:48:208
-0.03511900454759598,-0.18727661669254303,9.756839752197266,0.00021150663156048962,-0.00046536786240766596,0.002061656899523257,0.25913572311401367,2019-06-18 15:19:48:212
-0.04230325296521187,-0.18727661669254303,9.773603439331055,-0.00018806509233263786,-0.001530892405273855,0.0007297511315399715,0.2650022506713867,2019-06-18 15:19:48:218
-0.04230325296521187,-0.1561448574066162,9.8167085647583,0.0019429840746729666,0.00486225491694186,0.0013957039505130327,0.26912879943847656,2019-06-18 15:19:48:222
-0.07582975178956985,-0.15375012159347534,9.76402473449707,0.001143840691905293,0.0027312058962280636,0.000996132259129196,0.2749977111816406,2019-06-18 15:19:48:228
-0.08780349791049957,-0.20643460750579834,9.847840309143066,0.0019429840746729666,0.0004669661491732013,0.0013957039505130327,0.2791147232055664,2019-06-18 15:19:48:232
-0.1309089958667755,-0.15375012159347534,9.756839752197266,-0.0015199708440612782,0.00033377558537858905,-0.0012681074554163755,0.2849998474121094,2019-06-18 15:19:48:238
-0.07582975178956985,-0.16572386026382446,9.821497917175293,0.004873176478154437,0.001399300128244778,0.0011293228229238084,0.28911876678466797,2019-06-18 15:19:48:242
-0.08301399648189545,-0.12022361904382706,9.814313888549805,-0.00045444623617650777,0.0007333473092717165,0.004459087177863441,0.2949981689453125,2019-06-18 15:19:48:248
-0.07822450250387192,-0.15853960812091827,9.886157035827637,0.0024757463298514157,0.005128636044531084,0.003793134358890379,0.2991342544555664,2019-06-18 15:19:48:252
-0.09738249331712723,-0.17290811240673065,9.840656280517578,-0.0016531614078558903,0.003796730406584962,-0.001934060274389437,0.30412769317626953,2019-06-18 15:19:48:257
-0.09498775005340576,-0.1705133616924286,9.838261604309082,0.004473605046844925,0.002864396460022676,-0.004997443631777007,0.3100004196166992,2019-06-18 15:19:48:263
-0.07822450250387192,-0.19446085393428802,9.792760848999023,0.004207223659181376,0.0002005850053293314,0.002061656899523257,0.3150200843811035,2019-06-18 15:19:48:268
-0.08780349791049957,-0.16093435883522034,9.823892593383789,-0.0023191142268289516,0.0024648247686388392,0.0012625133867184206,0.3200058937072754,2019-06-18 15:19:48:273
-0.07822450250387192,-0.17530286312103271,9.840656280517578,-0.0007208273962750229,0.0049954457408107975,0.003393562667506543,0.3250002861022949,2019-06-18 15:19:48:278
-0.10217199474573135,-0.18727661669254303,9.75444507598877,0.0027421274574406405,0.0004669661491732013,-0.0012681074554163755,0.32914066314697266,2019-06-18 15:19:48:282
-0.06385599821805954,-0.14656586945056915,9.852629661560059,0.0012770312556999051,-0.0011313207138900182,-0.0027332037871942733,0.33499956130981445,2019-06-18 15:19:48:288
-0.09977724403142929,-0.18488186597824097,9.809524536132812,0.0008774594992974871,0.0027312058962280636,0.003926324922684992,0.33912086486816406,2019-06-18 15:19:48:292
-0.05906650051474571,-0.17530286312103271,9.838261604309082,-0.0015199708440612782,-6.579614257819981e-05,-0.0022004415320158242,0.34500837326049805,2019-06-18 15:19:48:298
-0.0925929993391037,-0.14656586945056915,9.823892593383789,0.002076174638467579,0.0031307775876119005,-0.001934060274389437,0.3491239547729492,2019-06-18 15:19:48:302
-0.04948750138282776,-0.17290811240673065,9.732892990112305,-0.00018806509233263786,0.004329492661763411,0.0007297511315399715,0.3550262451171875,2019-06-18 15:19:48:308
-0.07582975178956985,-0.16572386026382446,9.809524536132812,-0.0007208273962750229,-6.579614257819981e-05,-0.0023336320958104364,0.36002111434936523,2019-06-18 15:19:48:313
-0.06385599821805954,-0.2016451060771942,9.814313888549805,0.00021150663156048962,-6.579614257819981e-05,-0.001934060274389437,0.3650026321411133,2019-06-18 15:19:48:318
-0.04469800367951393,-0.17290811240673065,9.785576820373535,-0.004716544635206299,0.0009997284368609412,-0.0012681074554163755,0.36912012100219727,2019-06-18 15:19:48:322
-0.08540874719619751,-0.13938161730766296,9.778392791748047,-0.0016531614078558903,0.0024648247686388392,-0.0023336320958104364,0.3750014305114746,2019-06-18 15:19:48:328
-0.06385599821805954,-0.14177636802196503,9.807129859924316,0.00473998617443415,0.005927779427298759,0.0035267532313011545,0.3791217803955078,2019-06-18 15:19:48:332
-0.039908502250909805,-0.16093435883522034,9.84544563293457,-5.487451634704159e-05,0.006060970251167696,0.002061656899523257,0.38500070571899414,2019-06-18 15:19:48:338
-0.05667174980044365,-0.18009236454963684,9.840656280517578,-5.487451634704159e-05,-0.00046536786240766596,0.0031271815399173176,0.38911867141723633,2019-06-18 15:19:48:342
-0.054277002811431885,-0.19446085393428802,9.792760848999023,0.0023425557660568036,-0.0009981301500954058,0.002328037897075319,0.3950080871582031,2019-06-18 15:19:48:348
-0.05906650051474571,-0.16572386026382446,9.819103240966797,-0.0008540179600696353,0.0002005850053293314,0.0003301794401561345,0.4000225067138672,2019-06-18 15:19:48:353
-0.09019824862480164,-0.16811861097812653,9.783182144165039,0.001676602947083742,0.0011329190006555533,0.0012625133867184206,0.4041309356689453,2019-06-18 15:19:48:357
-0.0925929993391037,-0.15375012159347534,9.778392791748047,-0.004450163507617074,0.003397158715201125,-0.0018008697105948246,0.41000986099243164,2019-06-18 15:19:48:363
-0.05188225209712982,-0.17530286312103271,9.790366172790527,0.0004778877754043595,0.00033377558537858905,-0.0022004415320158242,0.4141244888305664,2019-06-18 15:19:48:367
-0.05906650051474571,-0.15375012159347534,9.86220932006836,0.0007442689355028748,0.0002005850053293314,0.0008629416953345836,0.42000246047973633,2019-06-18 15:19:48:373
-0.07822450250387192,-0.13459211587905884,9.819103240966797,-5.487451634704159e-05,0.001798871819628615,0.0004633700039507468,0.4241199493408203,2019-06-18 15:19:48:377
-0.039908502250909805,-0.2016451060771942,9.83347225189209,-0.00018806509233263786,0.002864396460022676,-0.0015344885830056003,0.43002796173095703,2019-06-18 15:19:48:383
-0.0925929993391037,-0.18488186597824097,9.878972053527832,0.0030085085850298653,0.0016656812558340024,0.0001969888601068769,0.43502235412597656,2019-06-18 15:19:48:388
-0.06864549964666367,-0.1633291095495224,9.86220932006836,-0.0005876368324804107,0.001399300128244778,-0.0008685356990139574,0.43912220001220703,2019-06-18 15:19:48:392
-0.04230325296521187,-0.17769761383533478,9.766419410705566,0.0023425557660568036,0.0008665378730663289,-0.00020258286378625062,0.44500255584716797,2019-06-18 15:19:48:398
-0.04948750138282776,-0.15375012159347534,9.888551712036133,0.0010106500630920993,0.004063111534174186,0.0001969888601068769,0.44912052154541016,2019-06-18 15:19:48:402
-0.02314525656402111,-0.1968556046485901,9.807129859924316,0.0027421274574406405,0.0020652529472178394,0.0012625133867184206,0.4549989700317383,2019-06-18 15:19:48:408
-0.061461251229047775,-0.1705133616924286,9.83347225189209,0.003141699148824477,0.004729064613221573,0.0027276098485334807,0.4591236114501953,2019-06-18 15:19:48:412
-0.09738249331712723,-0.15375012159347534,9.787971496582031,0.001143840691905293,0.001798871819628615,-0.0016676791468002124,0.46500253677368164,2019-06-18 15:19:48:418
-0.07104025036096573,-0.19206610321998596,9.809524536132812,0.0019429840746729666,-6.579614257819981e-05,0.0021948473332807066,0.4700050354003906,2019-06-18 15:19:48:423
-0.05188225209712982,-0.14177636802196503,9.866998672485352,0.0028753180212352527,0.0020652529472178394,-0.0010017262628085697,0.4741191864013672,2019-06-18 15:19:48:427
-0.05906650051474571,-0.14896062016487122,9.759234428405762,-0.0032514481733912377,0.005261826868400022,0.0017952757719340324,0.48001527786254883,2019-06-18 15:19:48:433
-0.054277002811431885,-0.18727661669254303,9.807129859924316,-0.0023191142268289516,0.0036635398427903496,0.0013957039505130327,0.484130859375,2019-06-18 15:19:48:437
-0.032724253833293915,-0.17530286312103271,9.761629104614258,-0.0012535897164720534,0.0011329190006555533,6.379828412128062e-05,0.4900045394897461,2019-06-18 15:19:48:443
-0.030329504981637,-0.14656586945056915,9.773603439331055,0.0003446972116097473,0.003796730406584962,-0.0008685356990139574,0.4941234588623047,2019-06-18 15:19:48:447
-0.061461251229047775,-0.13938161730766296,9.785576820373535,0.0003446972116097473,0.0053950171721203095,0.0012625133867184206,0.5000038146972656,2019-06-18 15:19:48:453
-0.09498775005340576,-0.16093435883522034,9.773603439331055,0.00021150663156048962,0.0039299209703795735,0.0001969888601068769,0.5041208267211914,2019-06-18 15:19:48:457
-0.020750505849719048,-0.1824871152639389,9.783182144165039,-0.0013867802802666658,0.0020652529472178394,0.0007297511315399715,0.510004997253418,2019-06-18 15:19:48:463
-0.07582975178956985,-0.1968556046485901,9.814313888549805,-0.0003212556723818955,0.0015324906920393903,6.379828412128062e-05,0.5141153335571289,2019-06-18 15:19:48:467
-0.09498775005340576,-0.15135537087917328,9.855024337768555,0.0007442689355028748,0.0016656812558340024,0.0007297511315399715,0.5200047492980957,2019-06-18 15:19:48:473
-0.09738249331712723,-0.15853960812091827,9.847840309143066,0.00021150663156048962,0.0016656812558340024,-0.0027332037871942733,0.5241570472717285,2019-06-18 15:19:48:477
-0.07343500107526779,-0.14656586945056915,9.749655723571777,0.00154341238328913,0.004595873789352636,0.003793134358890379,0.5300302505493164,2019-06-18 15:19:48:483
-0.08301399648189545,-0.1824871152639389,9.809524536132812,-0.0020527330992397273,0.0008665378730663289,0.0008629416953345836,0.5350222587585449,2019-06-18 15:19:48:488
-0.04230325296521187,-0.15135537087917328,9.802340507507324,-0.0005876368324804107,0.0031307775876119005,0.0005965605677453591,0.5391197204589844,2019-06-18 15:19:48:492
-0.06385599821805954,-0.15853960812091827,9.847840309143066,0.00154341238328913,0.002997587023817288,0.0012625133867184206,0.5449981689453125,2019-06-18 15:19:48:498
-0.07582975178956985,-0.19206610321998596,9.84544563293457,0.0026089368936460283,-0.0020636546604523042,-0.005796587014544681,0.5491223335266113,2019-06-18 15:19:48:502
-0.08540874719619751,-0.16572386026382446,9.826288223266602,-0.0005876368324804107,0.0032639681514065122,0.0025944190246645436,0.5550012588500977,2019-06-18 15:19:48:508
-0.08061924576759338,-0.16093435883522034,9.850234985351562,0.0012770312556999051,0.001399300128244778,-0.0027332037871942733,0.5591192245483398,2019-06-18 15:19:48:512
-0.061461251229047775,-0.1824871152639389,9.807129859924316,0.001676602947083742,-6.579614257819981e-05,-6.939229186431566e-05,0.5649981498718262,2019-06-18 15:19:48:518
-0.06864549964666367,-0.16811861097812653,9.840656280517578,-0.004450163507617074,0.0015324906920393903,0.0035267532313011545,0.5691342353820801,2019-06-18 15:19:48:522
-0.09498775005340576,-0.1824871152639389,9.890946388244629,-0.0013867802802666658,0.0032639681514065122,-0.0036655377337565594,0.5750131607055664,2019-06-18 15:19:48:528
-0.08061924576759338,-0.17530286312103271,9.83347225189209,0.003940842531592151,0.0023316342048442266,-0.000735345135219345,0.5791406631469727,2019-06-18 15:19:48:532
-0.09019824862480164,-0.1968556046485901,9.771208763122559,-0.0028518764820074007,0.0053950171721203095,-0.0006021545714247328,0.5850005149841309,2019-06-18 15:19:48:538
-0.08780349791049957,-0.18009236454963684,9.83347225189209,-0.00045444623617650777,0.0031307775876119005,-0.0036655377337565594,0.5891170501708984,2019-06-18 15:19:48:542
-0.11654049158096313,-0.15135537087917328,9.857419967651367,-5.487451634704159e-05,0.003397158715201125,0.001528894514307645,0.5949997901916504,2019-06-18 15:19:48:548
-0.05188225209712982,-0.19206610321998596,9.807129859924316,0.0012770312556999051,-0.0012645112776846303,-0.004597871680318845,0.5991182327270508,2019-06-18 15:19:48:552
-0.11414574086666107,-0.17769761383533478,9.783182144165039,0.00154341238328913,-0.0007317490225061812,0.0008629416953345836,0.6049995422363281,2019-06-18 15:19:48:558
-0.08540874719619751,-0.16093435883522034,9.766419410705566,0.0018097935108783545,-0.0009981301500954058,0.000996132259129196,0.6091194152832031,2019-06-18 15:19:48:562
-0.06864549964666367,-0.1633291095495224,9.799945831298828,-0.0012535897164720534,6.739442934373515e-05,-0.0008685356990139574,0.6150312423706055,2019-06-18 15:19:48:568
-0.05906650051474571,-0.18488186597824097,9.766419410705566,0.0023425557660568036,0.0049954457408107975,-0.005530205886955456,0.6191325187683105,2019-06-18 15:19:48:572
-0.09019824862480164,-0.13459211587905884,9.840656280517578,0.00154341238328913,0.0002005850053293314,0.0003301794401561345,0.6241378784179688,2019-06-18 15:19:48:577
-0.10696149617433548,-0.17290811240673065,9.857419967651367,0.00021150663156048962,-0.0024632263518361407,-0.0010017262628085697,0.6300239562988281,2019-06-18 15:19:48:583
-0.10456674546003342,-0.1705133616924286,9.819103240966797,-0.0007208273962750229,0.0023316342048442266,0.0004633700039507468,0.6341209411621094,2019-06-18 15:19:48:587
-0.0662507489323616,-0.19446085393428802,9.802340507507324,0.0008774594992974871,0.0008665378730663289,-0.0028663943509888855,0.6400022506713867,2019-06-18 15:19:48:593
-0.061461251229047775,-0.14896062016487122,9.835866928100586,0.0004778877754043595,0.005261826868400022,0.0011293228229238084,0.6441245079040527,2019-06-18 15:19:48:597
-0.054277002811431885,-0.16811861097812653,9.83347225189209,0.00473998617443415,0.0021984436410496144,-0.0028663943509888855,0.6500005722045898,2019-06-18 15:19:48:603
-0.09019824862480164,-0.16811861097812653,9.768814086914062,-0.0017863519716505025,-0.0011313207138900182,-6.939229186431566e-05,0.654120922088623,2019-06-18 15:19:48:607
-0.0925929993391037,-0.18727661669254303,9.8167085647583,7.831605963855469e-05,0.0025980153324334514,0.001528894514307645,0.6600136756896973,2019-06-18 15:19:48:613
-0.04230325296521187,-0.18488186597824097,9.850234985351562,0.0028753180212352527,0.004729064613221573,0.0001969888601068769,0.6650471687316895,2019-06-18 15:19:48:618
-0.047092754393815994,-0.16093435883522034,9.84544563293457,-0.0013867802802666658,0.0004669661491732013,-0.0004689640076301205,0.6691274642944336,2019-06-18 15:19:48:622
-0.05906650051474571,-0.18727661669254303,9.847840309143066,0.0023425557660568036,0.0031307775876119005,-0.0006021545714247328,0.6750011444091797,2019-06-18 15:19:48:628
-0.05667174980044365,-0.1705133616924286,9.857419967651367,0.003141699148824477,0.003530349278995737,-0.0026000132233996607,0.6791200637817383,2019-06-18 15:19:48:632
-0.04948750138282776,-0.15375012159347534,9.814313888549805,0.0050063673020233745,0.0025980153324334514,-0.0003357734438355082,0.6849989891052246,2019-06-18 15:19:48:638
-0.04469800367951393,-0.16093435883522034,9.852629661560059,0.0019429840746729666,0.0007333473092717165,0.0012625133867184206,0.69000244140625,2019-06-18 15:19:48:643
-0.06385599821805954,-0.17290811240673065,9.855024337768555,0.0028753180212352527,-0.0013977018414792427,-0.0011349168916217633,0.6941208839416504,2019-06-18 15:19:48:647
-0.030329504981637,-0.1824871152639389,9.768814086914062,0.0027421274574406405,0.002997587023817288,0.001528894514307645,0.7000055313110352,2019-06-18 15:19:48:653
-0.032724253833293915,-0.18488186597824097,9.799945831298828,0.0003446972116097473,0.0036635398427903496,0.00166208520813942,0.7041425704956055,2019-06-18 15:19:48:657
-0.05906650051474571,-0.1369868665933609,9.814313888549805,0.001676602947083742,0.001798871819628615,0.001528894514307645,0.710019588470459,2019-06-18 15:19:48:663
-0.05906650051474571,-0.12022361904382706,9.799945831298828,0.0023425557660568036,-6.579614257819981e-05,0.003393562667506543,0.7141280174255371,2019-06-18 15:19:48:667
-0.05906650051474571,-0.18488186597824097,9.771208763122559,0.0023425557660568036,0.001399300128244778,-0.0018008697105948246,0.7200021743774414,2019-06-18 15:19:48:673
-0.0662507489323616,-0.14896062016487122,9.778392791748047,0.0032748897126190896,0.0019320623834232272,-0.0016676791468002124,0.7241225242614746,2019-06-18 15:19:48:677
-0.06864549964666367,-0.13219736516475677,9.8167085647583,-0.0020527330992397273,-0.0007317490225061812,-0.0008685356990139574,0.7300262451171875,2019-06-18 15:19:48:683
-0.03751375526189804,-0.1633291095495224,9.8167085647583,-0.0003212556723818955,0.0015324906920393903,0.002328037897075319,0.7341213226318359,2019-06-18 15:19:48:687
-0.04948750138282776,-0.15853960812091827,9.802340507507324,0.00021150663156048962,0.0027312058962280636,0.000996132259129196,0.7400045394897461,2019-06-18 15:19:48:693
-0.07582975178956985,-0.14177636802196503,9.783182144165039,-0.0003212556723818955,-0.004194703941240426,-6.939229186431566e-05,0.7441225051879883,2019-06-18 15:19:48:697
-0.08540874719619751,-0.1705133616924286,9.83347225189209,0.0018097935108783545,-0.000598558458711569,-0.0003357734438355082,0.7500019073486328,2019-06-18 15:19:48:703
-0.07104025036096573,-0.15853960812091827,9.807129859924316,-5.487451634704159e-05,0.0036635398427903496,-0.005130633935497294,0.7541427612304688,2019-06-18 15:19:48:707
-0.08301399648189545,-0.15853960812091827,9.828682899475098,-0.00018806509233263786,-0.00299598860701459,-0.0011349168916217633,0.7600092887878418,2019-06-18 15:19:48:713
-0.10217199474573135,-0.19206610321998596,9.8167085647583,-0.0008540179600696353,0.00033377558537858905,-0.000735345135219345,0.7641849517822266,2019-06-18 15:19:48:717
-0.020750505849719048,-0.15135537087917328,9.787971496582031,0.0024757463298514157,0.0007333473092717165,-0.00020258286378625062,0.7705144882202148,2019-06-18 15:19:48:724
-0.11414574086666107,-0.15375012159347534,9.783182144165039,0.004340414222975988,0.005794589123578471,0.0027276098485334807,0.7750167846679688,2019-06-18 15:19:48:728
-0.07582975178956985,-0.17290811240673065,9.807129859924316,-0.0027186859182127886,0.004063111534174186,-0.0031327754785781103,0.7791147232055664,2019-06-18 15:19:48:732
-0.06385599821805954,-0.1633291095495224,9.826288223266602,0.001143840691905293,0.0023316342048442266,-0.0012681074554163755,0.7849960327148438,2019-06-18 15:19:48:738
-0.07343500107526779,-0.18488186597824097,9.843050956726074,0.001143840691905293,0.0023316342048442266,-0.0022004415320158242,0.7900018692016602,2019-06-18 15:19:48:743
-0.07582975178956985,-0.17290811240673065,9.828682899475098,0.0023425557660568036,-6.579614257819981e-05,0.0005965605677453591,0.7941179275512695,2019-06-18 15:19:48:747
-0.06385599821805954,-0.16093435883522034,9.802340507507324,-0.0005876368324804107,0.0023316342048442266,0.004592277481583728,0.8000497817993164,2019-06-18 15:19:48:753
-0.08540874719619751,-0.18009236454963684,9.86220932006836,-0.0012535897164720534,0.0011329190006555533,-0.004065109425140397,0.8041162490844727,2019-06-18 15:19:48:757
-0.09738249331712723,-0.19446085393428802,9.847840309143066,0.003141699148824477,0.0031307775876119005,0.0019284663357286445,0.8100070953369141,2019-06-18 15:19:48:763
-0.06864549964666367,-0.18727661669254303,9.838261604309082,0.002209365202262191,0.0027312058962280636,0.0011293228229238084,0.8141155242919922,2019-06-18 15:19:48:767
-0.04230325296521187,-0.16093435883522034,9.83347225189209,-0.006448021704461933,-0.0021968452242469164,0.002061656899523257,0.8199996948242188,2019-06-18 15:19:48:773
-0.06864549964666367,-0.20403985679149628,9.826288223266602,0.004340414222975988,0.0020652529472178394,-0.0018008697105948246,0.8241081237792969,2019-06-18 15:19:48:777
-0.08540874719619751,-0.18488186597824097,9.787971496582031,-0.0032514481733912377,0.0012661095644501657,0.0011293228229238084,0.8300228118896484,2019-06-18 15:19:48:783
-0.08301399648189545,-0.1369868665933609,9.840656280517578,0.004207223659181376,0.0008665378730663289,0.0040595154864796045,0.8341197967529297,2019-06-18 15:19:48:787
-0.05906650051474571,-0.17769761383533478,9.823892593383789,0.0027421274574406405,0.0027312058962280636,0.0013957039505130327,0.8400068283081055,2019-06-18 15:19:48:793
-0.0662507489323616,-0.1896713674068451,9.780787467956543,0.0026089368936460283,0.0039299209703795735,0.008321613787981522,0.8450403213500977,2019-06-18 15:19:48:798
-0.1261194944381714,-0.14177636802196503,9.847840309143066,-0.0005876368324804107,0.0024648247686388392,0.0007297511315399715,0.8500213623046875,2019-06-18 15:19:48:803
-0.08301399648189545,-0.18488186597824097,9.840656280517578,-0.0008540179600696353,0.0039299209703795735,0.0029939909761227054,0.8541135787963867,2019-06-18 15:19:48:807
-0.06385599821805954,-0.1896713674068451,9.749655723571777,0.00154341238328913,-6.579614257819981e-05,0.0021948473332807066,0.8599958419799805,2019-06-18 15:19:48:813
-0.0925929993391037,-0.1441711187362671,9.809524536132812,0.0012770312556999051,0.001399300128244778,-0.0032659660423727224,0.8641161918640137,2019-06-18 15:19:48:817
-0.061461251229047775,-0.15853960812091827,9.823892593383789,-0.004849734938926585,0.003796730406584962,0.0004633700039507468,0.8700017929077148,2019-06-18 15:19:48:823
-0.08540874719619751,-0.19446085393428802,9.787971496582031,0.0027421274574406405,0.0019320623834232272,0.0027276098485334807,0.8741097450256348,2019-06-18 15:19:48:827
-0.08061924576759338,-0.18727661669254303,9.811919212341309,0.002076174638467579,0.001399300128244778,0.004858658609172953,0.8800005912780762,2019-06-18 15:19:48:833
-0.09977724403142929,-0.18727661669254303,9.821497917175293,0.0006110783717082625,0.002997587023817288,-0.0004689640076301205,0.8844213485717773,2019-06-18 15:19:48:838
-0.07822450250387192,-0.14896062016487122,9.785576820373535,0.0004778877754043595,0.0004669661491732013,-0.0015344885830056003,0.8900232315063477,2019-06-18 15:19:48:843
-0.07582975178956985,-0.17530286312103271,9.80473518371582,-0.0013867802802666658,-0.0003321772986130537,-0.0012681074554163755,0.8941121101379395,2019-06-18 15:19:48:847
-0.032724253833293915,-0.16572386026382446,9.814313888549805,-0.0032514481733912377,0.003530349278995737,0.0007297511315399715,0.8999996185302734,2019-06-18 15:19:48:853
-0.032724253833293915,-0.17769761383533478,9.831077575683594,-0.0019195425354451149,-6.579614257819981e-05,-0.005530205886955456,0.9041171073913574,2019-06-18 15:19:48:857
-0.08540874719619751,-0.18727661669254303,9.807129859924316,0.004074033095386763,0.0008665378730663289,0.005125040256910827,0.9100003242492676,2019-06-18 15:19:48:863
-0.09738249331712723,-0.2088293582201004,9.84544563293457,0.0008774594992974871,0.0031307775876119005,0.00326037210371193,0.9141092300415039,2019-06-18 15:19:48:867
-0.05667174980044365,-0.17769761383533478,9.823892593383789,-0.00045444623617650777,-0.0016640829690684673,-0.0018008697105948246,0.9200010299682617,2019-06-18 15:19:48:873
-0.061461251229047775,-0.15375012159347534,9.886157035827637,0.001143840691905293,0.0036635398427903496,0.004459087177863441,0.9250020980834961,2019-06-18 15:19:48:878
-0.09498775005340576,-0.18727661669254303,9.869393348693848,-0.0005876368324804107,0.0032639681514065122,-0.0018008697105948246,0.9300284385681152,2019-06-18 15:19:48:883
-0.08780349791049957,-0.18727661669254303,9.809524536132812,0.004473605046844925,-0.0012645112776846303,0.00166208520813942,0.9341211318969727,2019-06-18 15:19:48:887
-0.061461251229047775,-0.14656586945056915,9.83347225189209,-0.0032514481733912377,0.00033377558537858905,0.0008629416953345836,0.9400081634521484,2019-06-18 15:19:48:893
-0.0662507489323616,-0.15375012159347534,9.778392791748047,0.004873176478154437,0.004196302097968799,0.00326037210371193,0.9449958801269531,2019-06-18 15:19:48:898
-0.09977724403142929,-0.16093435883522034,9.84544563293457,0.003141699148824477,0.003397158715201125,0.0003301794401561345,0.949103832244873,2019-06-18 15:19:48:902
-0.07822450250387192,-0.15375012159347534,9.847840309143066,-0.003118257609596625,0.008991162654649167,0.0011293228229238084,0.9550018310546875,2019-06-18 15:19:48:908
-0.07343500107526779,-0.16093435883522034,9.84544563293457,-0.002452304790623564,-0.002862798043219978,-0.0010017262628085697,0.9600038528442383,2019-06-18 15:19:48:913
-0.047092754393815994,-0.15853960812091827,9.850234985351562,-0.003917400992364299,-0.00046536786240766596,0.001528894514307645,0.9641056060791016,2019-06-18 15:19:48:917
-0.04948750138282776,-0.1824871152639389,9.802340507507324,0.004873176478154437,0.0021984436410496144,0.005657802512089276,0.9699983596801758,2019-06-18 15:19:48:923
-0.04948750138282776,-0.22559259831905365,9.802340507507324,0.0036744614040029266,0.0016656812558340024,-0.0012681074554163755,0.974118709564209,2019-06-18 15:19:48:927
-0.06864549964666367,-0.1441711187362671,9.771208763122559,0.0007442689355028748,0.003397158715201125,0.00326037210371193,0.9800224304199219,2019-06-18 15:19:48:933
-0.07104025036096573,-0.16811861097812653,9.807129859924316,0.001143840691905293,-6.579614257819981e-05,-0.001934060274389437,0.9841108322143555,2019-06-18 15:19:48:937
-0.07582975178956985,-0.15853960812091827,9.752050399780273,0.003541270840208314,0.0031307775876119005,0.0031271815399173176,0.9899978637695312,2019-06-18 15:19:48:943
-0.054277002811431885,-0.1824871152639389,9.80473518371582,-0.0007208273962750229,0.0019320623834232272,0.0003301794401561345,0.9941143989562988,2019-06-18 15:19:48:947
-0.09498775005340576,-0.16572386026382446,9.809524536132812,0.001143840691905293,0.004063111534174186,0.003659943795095767,1.0000028610229492,2019-06-18 15:19:48:953
-0.06385599821805954,-0.13938161730766296,9.84544563293457,-0.0011203991526774412,0.0031307775876119005,-0.002999584914783498,1.0041074752807617,2019-06-18 15:19:48:957
-0.054277002811431885,-0.1968556046485901,9.790366172790527,0.002076174638467579,0.0025980153324334514,-0.0020672508381840496,1.0099992752075195,2019-06-18 15:19:48:963
-0.061461251229047775,-0.15853960812091827,9.843050956726074,0.001143840691905293,0.0053950171721203095,0.0005965605677453591,1.014115810394287,2019-06-18 15:19:48:967
-0.07343500107526779,-0.1705133616924286,9.814313888549805,0.004473605046844925,0.002997587023817288,0.002061656899523257,1.020197868347168,2019-06-18 15:19:48:973
-0.0662507489323616,-0.17530286312103271,9.835866928100586,-0.00018806509233263786,0.0027312058962280636,0.0011293228229238084,1.024134635925293,2019-06-18 15:19:48:977
-0.08780349791049957,-0.19446085393428802,9.864603996276855,-0.0015199708440612782,0.00686011363393537,0.002860800412328093,1.0300049781799316,2019-06-18 15:19:48:983
-0.07582975178956985,-0.17769761383533478,9.835866928100586,0.0007442689355028748,0.002864396460022676,0.0003301794401561345,1.0341072082519531,2019-06-18 15:19:48:987
-0.03751375526189804,-0.20643460750579834,9.787971496582031,0.003141699148824477,0.0015324906920393903,-0.0018008697105948246,1.0399999618530273,2019-06-18 15:19:48:993
-0.06864549964666367,-0.17290811240673065,9.83347225189209,7.831605963855469e-05,0.0016656812558340024,0.0025944190246645436,1.0441179275512695,2019-06-18 15:19:48:997
-0.07582975178956985,-0.18727661669254303,9.847840309143066,-0.0005876368324804107,0.00486225491694186,0.0021948473332807066,1.050004005432129,2019-06-18 15:19:49:003
-0.07582975178956985,-0.16572386026382446,9.761629104614258,-0.0003212556723818955,0.0025980153324334514,0.002328037897075319,1.0541062355041504,2019-06-18 15:19:49:007
-0.047092754393815994,-0.21122410893440247,9.797551155090332,0.0010106500630920993,0.0019320623834232272,0.0019284663357286445,1.060046672821045,2019-06-18 15:19:49:013
-0.054277002811431885,-0.1968556046485901,9.912498474121094,-0.006181640576872708,0.0004669661491732013,0.0013957039505130327,1.0641469955444336,2019-06-18 15:19:49:017
-0.04948750138282776,-0.16093435883522034,9.819103240966797,-0.0003212556723818955,0.0020652529472178394,0.003659943795095767,1.0700149536132812,2019-06-18 15:19:49:023
-0.061461251229047775,-0.17290811240673065,9.826288223266602,0.0003446972116097473,0.0004669661491732013,0.002328037897075319,1.0741071701049805,2019-06-18 15:19:49:027
-0.027934754267334938,-0.16572386026382446,9.797551155090332,7.831605963855469e-05,0.00486225491694186,0.0003301794401561345,1.0799970626831055,2019-06-18 15:19:49:033
-0.061461251229047775,-0.15853960812091827,9.795156478881836,-0.0019195425354451149,0.0009997284368609412,-0.0031327754785781103,1.0850028991699219,2019-06-18 15:19:49:038
-0.07343500107526779,-0.16093435883522034,9.795156478881836,-0.0008540179600696353,-0.00299598860701459,0.0012625133867184206,1.0900020599365234,2019-06-18 15:19:49:043
-0.08780349791049957,-0.17769761383533478,9.797551155090332,-0.0017863519716505025,0.005128636044531084,0.0004633700039507468,1.0941071510314941,2019-06-18 15:19:49:047
-0.06385599821805954,-0.18488186597824097,9.819103240966797,0.0008774594992974871,6.739442934373515e-05,0.004858658609172953,1.1000008583068848,2019-06-18 15:19:49:053
-0.030329504981637,-0.17530286312103271,9.747261047363281,-0.0009872085238642476,0.0023316342048442266,-0.0014012980192109879,1.1041183471679688,2019-06-18 15:19:49:057
-0.06864549964666367,-0.16572386026382446,9.821497917175293,0.001143840691905293,-6.579614257819981e-05,0.0052582305606311145,1.1100225448608398,2019-06-18 15:19:49:063
-0.05188225209712982,-0.15135537087917328,9.773603439331055,-0.0019195425354451149,0.003397158715201125,0.001528894514307645,1.114114761352539,2019-06-18 15:19:49:067
-0.08061924576759338,-0.2016451060771942,9.821497917175293,0.0008774594992974871,0.005661398299709534,-0.004597871680318845,1.1199951171875,2019-06-18 15:19:49:073
-0.07822450250387192,-0.17769761383533478,9.814313888549805,0.0018097935108783545,-0.000598558458711569,0.0005965605677453591,1.1250009536743164,2019-06-18 15:19:49:078
-0.08301399648189545,-0.1441711187362671,9.843050956726074,-0.0009872085238642476,0.0007333473092717165,0.0012625133867184206,1.1291170120239258,2019-06-18 15:19:49:082
-0.07343500107526779,-0.19206610321998596,9.787971496582031,-0.0005876368324804107,0.0012661095644501657,-0.0003357734438355082,1.1349964141845703,2019-06-18 15:19:49:088
-0.06864549964666367,-0.1705133616924286,9.840656280517578,0.0012770312556999051,0.0025980153324334514,0.0008629416953345836,1.1391067504882812,2019-06-18 15:19:49:092
-0.047092754393815994,-0.14896062016487122,9.847840309143066,0.0027421274574406405,0.0036635398427903496,0.0003301794401561345,1.1450042724609375,2019-06-18 15:19:49:098
-0.05667174980044365,-0.18009236454963684,9.795156478881836,0.0028753180212352527,-0.0012645112776846303,-0.0018008697105948246,1.1500043869018555,2019-06-18 15:19:49:103
-0.04230325296521187,-0.1705133616924286,9.857419967651367,-0.0009872085238642476,0.0024648247686388392,0.004192706050274216,1.1550512313842773,2019-06-18 15:19:49:108
-0.032724253833293915,-0.1705133616924286,9.838261604309082,0.0008774594992974871,-0.00019898671856379607,0.0005965605677453591,1.160008430480957,2019-06-18 15:19:49:113
-0.07582975178956985,-0.15853960812091827,9.86220932006836,0.005139557605743661,-0.0019304640966576916,0.003393562667506543,1.164107322692871,2019-06-18 15:19:49:117
-0.06385599821805954,-0.1824871152639389,9.84544563293457,0.0004778877754043595,0.003397158715201125,0.0005965605677453591,1.1699981689453125,2019-06-18 15:19:49:123
-0.0662507489323616,-0.15853960812091827,9.881366729736328,-5.487451634704159e-05,-6.579614257819981e-05,0.0003301794401561345,1.175004482269287,2019-06-18 15:19:49:128
-0.04230325296521187,-0.17530286312103271,9.850234985351562,0.0010106500630920993,0.0031307775876119005,0.0027276098485334807,1.1800012588500977,2019-06-18 15:19:49:133
-0.09019824862480164,-0.17530286312103271,9.895735740661621,7.831605963855469e-05,0.0023316342048442266,-0.0032659660423727224,1.184107780456543,2019-06-18 15:19:49:137
-0.05667174980044365,-0.1633291095495224,9.819103240966797,-0.0028518764820074007,0.001798871819628615,0.002461228460869931,1.1900005340576172,2019-06-18 15:19:49:143
-0.06385599821805954,-0.1633291095495224,9.831077575683594,-0.00045444623617650777,0.004063111534174186,-0.0031327754785781103,1.1941184997558594,2019-06-18 15:19:49:147
-0.05906650051474571,-0.16811861097812653,9.850234985351562,0.0018097935108783545,0.0031307775876119005,-0.0036655377337565594,1.2000322341918945,2019-06-18 15:19:49:153
-0.07104025036096573,-0.16572386026382446,9.814313888549805,-0.0028518764820074007,0.0004669661491732013,-0.003399156606167335,1.204111099243164,2019-06-18 15:19:49:157
-0.10696149617433548,-0.16572386026382446,9.855024337768555,-0.0003212556723818955,0.00033377558537858905,-0.0014012980192109879,1.2099976539611816,2019-06-18 15:19:49:163
-0.07822450250387192,-0.15853960812091827,9.8167085647583,-0.004450163507617074,0.001798871819628615,-0.0035323471699619468,1.214116096496582,2019-06-18 15:19:49:167
-0.05188225209712982,-0.18727661669254303,9.80473518371582,0.0008774594992974871,0.0006001567454771042,-0.0023336320958104364,1.2199993133544922,2019-06-18 15:19:49:173
-0.07343500107526779,-0.16093435883522034,9.871788024902344,-0.0011203991526774412,0.004063111534174186,-0.0008685356990139574,1.2241077423095703,2019-06-18 15:19:49:177
-0.05667174980044365,-0.1633291095495224,9.80473518371582,0.0023425557660568036,-0.0009981301500954058,0.00326037210371193,1.2300000190734863,2019-06-18 15:19:49:183
-0.09498775005340576,-0.16811861097812653,9.819103240966797,7.831605963855469e-05,0.0021984436410496144,0.0011293228229238084,1.2341194152832031,2019-06-18 15:19:49:187
-0.0662507489323616,-0.15853960812091827,9.802340507507324,7.831605963855469e-05,0.004329492661763411,-0.005130633935497294,1.240128517150879,2019-06-18 15:19:49:193
-0.09738249331712723,-0.1968556046485901,9.778392791748047,0.0004778877754043595,0.004595873789352636,-0.0006021545714247328,1.2441368103027344,2019-06-18 15:19:49:197
-0.03751375526189804,-0.13938161730766296,9.783182144165039,-0.00018806509233263786,0.002997587023817288,-0.0010017262628085697,1.2500038146972656,2019-06-18 15:19:49:203
-0.047092754393815994,-0.18009236454963684,9.8167085647583,-0.0005876368324804107,0.00033377558537858905,0.0031271815399173176,1.2541084289550781,2019-06-18 15:19:49:207
-0.11654049158096313,-0.17769761383533478,9.828682899475098,0.002209365202262191,-6.579614257819981e-05,0.000996132259129196,1.260000228881836,2019-06-18 15:19:49:213
-0.04948750138282776,-0.20643460750579834,9.759234428405762,0.002076174638467579,0.0024648247686388392,0.00166208520813942,1.2641181945800781,2019-06-18 15:19:49:217
-0.047092754393815994,-0.1705133616924286,9.838261604309082,0.0007442689355028748,0.0020652529472178394,0.00166208520813942,1.270002841949463,2019-06-18 15:19:49:223
-0.08301399648189545,-0.1561448574066162,9.8167085647583,0.00021150663156048962,0.0007333473092717165,0.0013957039505130327,1.274106502532959,2019-06-18 15:19:49:227
-0.06385599821805954,-0.16572386026382446,9.75444507598877,0.0024757463298514157,0.0009997284368609412,-0.004065109425140397,1.2800025939941406,2019-06-18 15:19:49:233
-0.05188225209712982,-0.18009236454963684,9.86220932006836,-0.0008540179600696353,-0.00046536786240766596,-0.0015344885830056003,1.2841386795043945,2019-06-18 15:19:49:237
-0.09498775005340576,-0.18488186597824097,9.850234985351562,-0.0008540179600696353,-0.00046536786240766596,0.0025944190246645436,1.2900190353393555,2019-06-18 15:19:49:243
-0.032724253833293915,-0.18488186597824097,9.792760848999023,-0.0020527330992397273,-0.001530892405273855,0.003793134358890379,1.2941131591796875,2019-06-18 15:19:49:247
-0.07343500107526779,-0.18009236454963684,9.847840309143066,0.0010106500630920993,0.004729064613221573,-0.0028663943509888855,1.3000001907348633,2019-06-18 15:19:49:253
-0.0662507489323616,-0.21122410893440247,9.895735740661621,-0.0008540179600696353,-0.0008649395863007935,-0.0008685356990139574,1.3041167259216309,2019-06-18 15:19:49:257
-0.04948750138282776,-0.17530286312103271,9.807129859924316,0.00154341238328913,-0.0003321772986130537,-0.00020258286378625062,1.30999755859375,2019-06-18 15:19:49:263
-0.07104025036096573,-0.14896062016487122,9.840656280517578,0.0032748897126190896,0.004729064613221573,-0.0026000132233996607,1.3149909973144531,2019-06-18 15:19:49:268
-0.06864549964666367,-0.2016451060771942,9.80473518371582,7.831605963855469e-05,0.003530349278995737,0.0013957039505130327,1.3199996948242188,2019-06-18 15:19:49:273
-0.08540874719619751,-0.1633291095495224,9.783182144165039,-0.0008540179600696353,0.0006001567454771042,-0.0020672508381840496,1.324117660522461,2019-06-18 15:19:49:277
-0.07104025036096573,-0.1896713674068451,9.752050399780273,-0.0008540179600696353,0.0039299209703795735,0.004325896614068829,1.3300271034240723,2019-06-18 15:19:49:283
-0.07582975178956985,-0.15135537087917328,9.811919212341309,-0.00018806509233263786,0.004462683485632349,0.0003301794401561345,1.3350706100463867,2019-06-18 15:19:49:288
-0.13330374658107758,-0.1441711187362671,9.799945831298828,0.00154341238328913,-0.0025964169156307533,-0.005263824759366232,1.3391189575195312,2019-06-18 15:19:49:292
-0.04948750138282776,-0.18488186597824097,9.864603996276855,0.00473998617443415,0.0008665378730663289,-0.0016676791468002124,1.3449921607971191,2019-06-18 15:19:49:298
-0.025540005415678024,-0.18727661669254303,9.811919212341309,0.0030085085850298653,0.0027312058962280636,-0.0014012980192109879,1.349106788635254,2019-06-18 15:19:49:302
-0.07822450250387192,-0.15375012159347534,9.80473518371582,0.0007442689355028748,0.003397158715201125,-0.0004689640076301205,1.3549995422363281,2019-06-18 15:19:49:308
-0.05667174980044365,-0.12501311302185059,9.828682899475098,0.00021150663156048962,0.003530349278995737,-0.0003357734438355082,1.3591151237487793,2019-06-18 15:19:49:312
-0.05906650051474571,-0.16572386026382446,9.819103240966797,7.831605963855469e-05,0.002864396460022676,-6.939229186431566e-05,1.3649959564208984,2019-06-18 15:19:49:318
-0.07582975178956985,-0.13219736516475677,9.809524536132812,0.0050063673020233745,-0.0007317490225061812,0.003793134358890379,1.3699979782104492,2019-06-18 15:19:49:323
-0.07343500107526779,-0.17530286312103271,9.847840309143066,0.003940842531592151,0.0019320623834232272,0.0007297511315399715,1.3741178512573242,2019-06-18 15:19:49:327
-0.06385599821805954,-0.1561448574066162,9.8167085647583,0.0004778877754043595,-0.000598558458711569,-0.0003357734438355082,1.3800339698791504,2019-06-18 15:19:49:333
-0.07343500107526779,-0.16572386026382446,9.8167085647583,-0.0035178293009804624,0.0007333473092717165,0.0017952757719340324,1.3841075897216797,2019-06-18 15:19:49:337
-0.0662507489323616,-0.15135537087917328,9.823892593383789,0.002209365202262191,0.0006001567454771042,-0.000735345135219345,1.3891105651855469,2019-06-18 15:19:49:342
-0.03511900454759598,-0.16093435883522034,9.80473518371582,0.001676602947083742,0.0039299209703795735,0.002328037897075319,1.3950042724609375,2019-06-18 15:19:49:348
-0.07582975178956985,-0.20643460750579834,9.847840309143066,-0.0013867802802666658,0.007792447840571981,0.0029939909761227054,1.3991127014160156,2019-06-18 15:19:49:352
-0.06385599821805954,-0.17530286312103271,9.83347225189209,0.0019429840746729666,0.0036635398427903496,0.0019284663357286445,1.4049897193908691,2019-06-18 15:19:49:358
-0.047092754393815994,-0.12740786373615265,9.850234985351562,0.0004778877754043595,0.004729064613221573,-0.0010017262628085697,1.4091072082519531,2019-06-18 15:19:49:362
-0.07343500107526779,-0.19206610321998596,9.840656280517578,0.0024757463298514157,0.0006001567454771042,-0.0018008697105948246,1.415003776550293,2019-06-18 15:19:49:368
-0.054277002811431885,-0.14656586945056915,9.917288780212402,0.003141699148824477,0.0011329190006555533,0.0004633700039507468,1.4191131591796875,2019-06-18 15:19:49:372
-0.05906650051474571,-0.16093435883522034,9.83347225189209,0.0004778877754043595,0.0006001567454771042,0.000996132259129196,1.4250240325927734,2019-06-18 15:19:49:378
-0.08540874719619751,-0.14896062016487122,9.826288223266602,-0.0028518764820074007,-0.0012645112776846303,-0.0018008697105948246,1.4300060272216797,2019-06-18 15:19:49:383
-0.08301399648189545,-0.14177636802196503,9.795156478881836,-0.0007208273962750229,0.0031307775876119005,0.0001969888601068769,1.4341278076171875,2019-06-18 15:19:49:387
-0.07343500107526779,-0.1968556046485901,9.807129859924316,0.00021150663156048962,0.0019320623834232272,-0.0004689640076301205,1.4391098022460938,2019-06-18 15:19:49:392
-0.06864549964666367,-0.1824871152639389,9.823892593383789,-0.0008540179600696353,0.0021984436410496144,-0.0027332037871942733,1.4449996948242188,2019-06-18 15:19:49:398
-0.08061924576759338,-0.1561448574066162,9.792760848999023,-0.0011203991526774412,0.0019320623834232272,-0.0016676791468002124,1.4499998092651367,2019-06-18 15:19:49:403
-0.07104025036096573,-0.1705133616924286,9.80473518371582,0.0038076519677975387,0.003796730406584962,-0.00020258286378625062,1.4549951553344727,2019-06-18 15:19:49:408
-0.09977724403142929,-0.17769761383533478,9.811919212341309,0.0006110783717082625,0.0015324906920393903,-0.0028663943509888855,1.4591073989868164,2019-06-18 15:19:49:412
-0.09498775005340576,-0.1896713674068451,9.83347225189209,0.0003446972116097473,0.003530349278995737,0.0007297511315399715,1.4650297164916992,2019-06-18 15:19:49:418
-0.04948750138282776,-0.17530286312103271,9.759234428405762,-0.0027186859182127886,0.0025980153324334514,-0.0011349168916217633,1.469132900238037,2019-06-18 15:19:49:422
-0.09738249331712723,-0.16572386026382446,9.749655723571777,0.0010106500630920993,0.004063111534174186,-0.0024668226596050486,1.474987506866455,2019-06-18 15:19:49:428
-0.0925929993391037,-0.17290811240673065,9.826288223266602,-0.007247165607378258,0.0007333473092717165,0.0019284663357286445,1.4791035652160645,2019-06-18 15:19:49:432
-0.0662507489323616,-0.1824871152639389,9.831077575683594,0.0032748897126190896,0.0009997284368609412,0.0029939909761227054,1.4850025177001953,2019-06-18 15:19:49:438
-0.0662507489323616,-0.15853960812091827,9.828682899475098,-0.0033846387371858503,0.001399300128244778,-0.004997443631777007,1.4891133308410645,2019-06-18 15:19:49:442
-0.032724253833293915,-0.1633291095495224,9.797551155090332,-0.0005876368324804107,6.739442934373515e-05,-0.000735345135219345,1.4949917793273926,2019-06-18 15:19:49:448
-0.04948750138282776,-0.17290811240673065,9.811919212341309,-0.0023191142268289516,0.0016656812558340024,-0.0015344885830056003,1.5,2019-06-18 15:19:49:453
-0.07104025036096573,-0.1561448574066162,9.823892593383789,0.0003446972116097473,0.0012661095644501657,0.003393562667506543,1.5041165351867676,2019-06-18 15:19:49:457
-0.047092754393815994,-0.15375012159347534,9.76402473449707,-0.00018806509233263786,0.006060970251167696,0.004592277481583728,1.5102615356445312,2019-06-18 15:19:49:464
-0.08540874719619751,-0.13459211587905884,9.778392791748047,0.002076174638467579,0.004729064613221573,0.002061656899523257,1.5141348838806152,2019-06-18 15:19:49:467
-0.07104025036096573,-0.14177636802196503,9.888551712036133,0.0012770312556999051,0.0008665378730663289,-0.0037987282975511715,1.5200023651123047,2019-06-18 15:19:49:473
-0.07822450250387192,-0.17290811240673065,9.809524536132812,0.00021150663156048962,0.0027312058962280636,0.0027276098485334807,1.5241069793701172,2019-06-18 15:19:49:477
-0.08061924576759338,-0.16811861097812653,9.83347225189209,-0.0008540179600696353,0.0016656812558340024,-0.0027332037871942733,1.5299978256225586,2019-06-18 15:19:49:483
-0.09498775005340576,-0.18009236454963684,9.77599811553955,0.002209365202262191,-6.579614257819981e-05,-0.0015344885830056003,1.5349993705749512,2019-06-18 15:19:49:488
-0.054277002811431885,-0.1633291095495224,9.847840309143066,0.0012770312556999051,0.00033377558537858905,-0.0020672508381840496,1.5400009155273438,2019-06-18 15:19:49:493
-0.05188225209712982,-0.14896062016487122,9.790366172790527,-0.0005876368324804107,0.002997587023817288,0.000996132259129196,1.5441083908081055,2019-06-18 15:19:49:497
-0.09738249331712723,-0.13938161730766296,9.826288223266602,-0.00511611606651581,0.002864396460022676,0.0027276098485334807,1.5501890182495117,2019-06-18 15:19:49:503
-0.03751375526189804,-0.16811861097812653,9.838261604309082,0.002209365202262191,0.004729064613221573,-0.0037987282975511715,1.5541601181030273,2019-06-18 15:19:49:507
-0.0925929993391037,-0.14896062016487122,9.866998672485352,-0.0016531614078558903,-0.0008649395863007935,0.002461228460869931,1.5600147247314453,2019-06-18 15:19:49:513
-0.08061924576759338,-0.17530286312103271,9.840656280517578,0.00154341238328913,0.001798871819628615,-0.0016676791468002124,1.5641107559204102,2019-06-18 15:19:49:517
-0.047092754393815994,-0.13219736516475677,9.783182144165039,-0.0019195425354451149,-0.0007317490225061812,0.003393562667506543,1.569995403289795,2019-06-18 15:19:49:523
-0.054277002811431885,-0.117828868329525,9.83347225189209,0.002209365202262191,-0.0011313207138900182,-0.0004689640076301205,1.5750012397766113,2019-06-18 15:19:49:528
-0.06864549964666367,-0.1705133616924286,9.850234985351562,0.0006110783717082625,0.0020652529472178394,0.0025944190246645436,1.5800023078918457,2019-06-18 15:19:49:533
-0.0662507489323616,-0.17290811240673065,9.807129859924316,0.0008774594992974871,0.0027312058962280636,6.379828412128062e-05,1.5841064453125,2019-06-18 15:19:49:537
-0.013566257432103157,-0.17530286312103271,9.838261604309082,0.001143840691905293,0.003796730406584962,0.002461228460869931,1.590001106262207,2019-06-18 15:19:49:543
-0.06385599821805954,-0.14177636802196503,9.850234985351562,-0.0011203991526774412,0.004329492661763411,0.0007297511315399715,1.594186782836914,2019-06-18 15:19:49:547
-0.032724253833293915,-0.1561448574066162,9.840656280517578,0.00021150663156048962,0.0019320623834232272,-0.0004689640076301205,1.600022315979004,2019-06-18 15:19:49:553
-0.08061924576759338,-0.20643460750579834,9.756839752197266,-0.0035178293009804624,0.00486225491694186,-0.00020258286378625062,1.6050090789794922,2019-06-18 15:19:49:558
-0.09019824862480164,-0.12261836975812912,9.826288223266602,-0.0013867802802666658,0.0004669661491732013,-0.0022004415320158242,1.609114646911621,2019-06-18 15:19:49:562
-0.0925929993391037,-0.1561448574066162,9.8167085647583,0.0026089368936460283,0.001399300128244778,-0.0004689640076301205,1.6150035858154297,2019-06-18 15:19:49:568
-0.061461251229047775,-0.16572386026382446,9.799945831298828,-0.0005876368324804107,0.004063111534174186,0.001528894514307645,1.620002269744873,2019-06-18 15:19:49:573
-0.10217199474573135,-0.14656586945056915,9.819103240966797,-0.003118257609596625,0.0021984436410496144,0.003393562667506543,1.625,2019-06-18 15:19:49:578
-0.07343500107526779,-0.1369868665933609,9.831077575683594,0.0018097935108783545,0.0020652529472178394,-0.0024668226596050486,1.6300077438354492,2019-06-18 15:19:49:583
-0.07822450250387192,-0.1441711187362671,9.847840309143066,0.0003446972116097473,0.0015324906920393903,-0.0011349168916217633,1.6350250244140625,2019-06-18 15:19:49:588
-0.07104025036096573,-0.15135537087917328,9.814313888549805,-0.003118257609596625,0.0002005850053293314,0.003393562667506543,1.6400127410888672,2019-06-18 15:19:49:593
-0.07582975178956985,-0.1633291095495224,9.878972053527832,0.0014102218194945173,0.0011329190006555533,0.0012625133867184206,1.644120216369629,2019-06-18 15:19:49:597
-0.047092754393815994,-0.16811861097812653,9.843050956726074,0.002209365202262191,0.0032639681514065122,0.0004633700039507468,1.6500086784362793,2019-06-18 15:19:49:603
-0.09738249331712723,-0.1896713674068451,9.826288223266602,0.00154341238328913,0.004329492661763411,-0.0008685356990139574,1.6550006866455078,2019-06-18 15:19:49:608
-0.07582975178956985,-0.16811861097812653,9.864603996276855,0.004074033095386763,0.0016656812558340024,0.0003301794401561345,1.660003662109375,2019-06-18 15:19:49:613
-0.08780349791049957,-0.16572386026382446,9.876577377319336,-0.0021859236630343394,0.001399300128244778,-0.001934060274389437,1.6650004386901855,2019-06-18 15:19:49:618
-0.03511900454759598,-0.18009236454963684,9.799945831298828,-0.0011203991526774412,0.0049954457408107975,-6.939229186431566e-05,1.6700019836425781,2019-06-18 15:19:49:623
-0.09738249331712723,-0.1561448574066162,9.898130416870117,0.003541270840208314,0.0011329190006555533,-0.0006021545714247328,1.674117088317871,2019-06-18 15:19:49:627
-0.0662507489323616,-0.18009236454963684,9.809524536132812,0.001143840691905293,0.0024648247686388392,-0.0023336320958104364,1.6800041198730469,2019-06-18 15:19:49:633
-0.06864549964666367,-0.15853960812091827,9.84544563293457,-0.0011203991526774412,-0.0023300357880415286,-0.0028663943509888855,1.684117317199707,2019-06-18 15:19:49:637
-0.09738249331712723,-0.1896713674068451,9.785576820373535,-0.0009872085238642476,0.001798871819628615,0.002461228460869931,1.6891355514526367,2019-06-18 15:19:49:642
-0.08780349791049957,-0.18727661669254303,9.787971496582031,0.0032748897126190896,0.0019320623834232272,0.002860800412328093,1.6950082778930664,2019-06-18 15:19:49:648
-0.08780349791049957,-0.20403985679149628,9.744866371154785,0.0026089368936460283,0.002997587023817288,-0.0023336320958104364,1.7000060081481934,2019-06-18 15:19:49:653
-0.08301399648189545,-0.17290811240673065,9.80473518371582,0.002076174638467579,-0.0003321772986130537,-0.004464681376598559,1.705000877380371,2019-06-18 15:19:49:658
-0.06385599821805954,-0.16093435883522034,9.831077575683594,0.001676602947083742,0.005528207995989247,-0.0020672508381840496,1.7091174125671387,2019-06-18 15:19:49:662
-0.09019824862480164,-0.1561448574066162,9.814313888549805,0.0028753180212352527,-0.005659800403055486,-0.0012681074554163755,1.7150006294250488,2019-06-18 15:19:49:668
-0.12372474372386932,-0.14896062016487122,9.797551155090332,-0.0021859236630343394,0.0036635398427903496,-0.005530205886955456,1.7191143035888672,2019-06-18 15:19:49:672
-0.07822450250387192,-0.1824871152639389,9.807129859924316,-0.0037842104285696868,0.0009997284368609412,-0.0018008697105948246,1.725003719329834,2019-06-18 15:19:49:678
-0.1189352422952652,-0.15375012159347534,9.783182144165039,-0.0012535897164720534,6.739442934373515e-05,-0.0008685356990139574,1.7300410270690918,2019-06-18 15:19:49:683
-0.047092754393815994,-0.1633291095495224,9.792760848999023,-0.00018806509233263786,0.007392875889113818,0.005790992815809564,1.7341556549072266,2019-06-18 15:19:49:687
-0.09738249331712723,-0.16811861097812653,9.840656280517578,0.001676602947083742,0.002864396460022676,-0.0022004415320158242,1.740004539489746,2019-06-18 15:19:49:693
-0.054277002811431885,-0.14896062016487122,9.809524536132812,-0.00045444623617650777,0.0012661095644501657,-0.00020258286378625062,1.7441139221191406,2019-06-18 15:19:49:697
-0.05906650051474571,-0.16093435883522034,9.83347225189209,-0.00045444623617650777,0.001399300128244778,0.00166208520813942,1.750004768371582,2019-06-18 15:19:49:703
-0.09738249331712723,-0.1561448574066162,9.785576820373535,-0.004583353811337361,-0.001530892405273855,-0.0010017262628085697,1.7550034523010254,2019-06-18 15:19:49:708
-0.030329504981637,-0.1561448574066162,9.768814086914062,0.0008774594992974871,0.004729064613221573,-0.000735345135219345,1.7600078582763672,2019-06-18 15:19:49:713
-0.032724253833293915,-0.15853960812091827,9.828682899475098,0.004207223659181376,0.001798871819628615,-0.0032659660423727224,1.765000343322754,2019-06-18 15:19:49:718
-0.09498775005340576,-0.17769761383533478,9.838261604309082,-0.0025854953544181764,0.005261826868400022,-0.0008685356990139574,1.7700080871582031,2019-06-18 15:19:49:723
-0.07343500107526779,-0.14896062016487122,9.802340507507324,0.0014102218194945173,0.0020652529472178394,0.005524611688220339,1.774125576019287,2019-06-18 15:19:49:727
-0.07343500107526779,-0.1298026144504547,9.785576820373535,0.0008774594992974871,0.0032639681514065122,0.0004633700039507468,1.7800188064575195,2019-06-18 15:19:49:733
-0.054277002811431885,-0.13938161730766296,9.826288223266602,0.0018097935108783545,0.0036635398427903496,0.003926324922684992,1.7850050926208496,2019-06-18 15:19:49:738
-0.09019824862480164,-0.1561448574066162,9.799945831298828,-0.0025854953544181764,-0.001530892405273855,-0.0015344885830056003,1.7891120910644531,2019-06-18 15:19:49:742
-0.07343500107526779,-0.14656586945056915,9.809524536132812,0.0014102218194945173,0.0012661095644501657,0.002461228460869931,1.7950019836425781,2019-06-18 15:19:49:748
-0.10217199474573135,-0.16093435883522034,9.811919212341309,0.003141699148824477,0.001798871819628615,0.000996132259129196,1.8000030517578125,2019-06-18 15:19:49:753
-0.07104025036096573,-0.16093435883522034,9.838261604309082,-0.0009872085238642476,0.003530349278995737,-0.0012681074554163755,1.8041167259216309,2019-06-18 15:19:49:757
-0.07104025036096573,-0.13459211587905884,9.890946388244629,0.0006110783717082625,0.0012661095644501657,-0.0015344885830056003,1.8100075721740723,2019-06-18 15:19:49:763
-0.07582975178956985,-0.14656586945056915,9.838261604309082,0.0027421274574406405,0.0006001567454771042,-0.001934060274389437,1.8150019645690918,2019-06-18 15:19:49:768
-0.09738249331712723,-0.15135537087917328,9.802340507507324,0.0012770312556999051,0.0023316342048442266,-0.0006021545714247328,1.8200130462646484,2019-06-18 15:19:49:773
-0.08061924576759338,-0.1633291095495224,9.787971496582031,-0.0036510198647750746,-0.00046536786240766596,0.0011293228229238084,1.8241233825683594,2019-06-18 15:19:49:777
-0.061461251229047775,-0.15135537087917328,9.831077575683594,-0.0009872085238642476,0.003397158715201125,0.0013957039505130327,1.8300023078918457,2019-06-18 15:19:49:783
-0.06385599821805954,-0.16572386026382446,9.857419967651367,0.001676602947083742,0.0039299209703795735,-0.0004689640076301205,1.8341388702392578,2019-06-18 15:19:49:787
-0.07822450250387192,-0.17290811240673065,9.773603439331055,-0.0003212556723818955,0.004063111534174186,0.004325896614068829,1.8400063514709473,2019-06-18 15:19:49:793
-0.08301399648189545,-0.2423558533191681,9.826288223266602,0.0012770312556999051,0.001399300128244778,-0.0035323471699619468,1.8450031280517578,2019-06-18 15:19:49:798
-0.07343500107526779,-0.15375012159347534,9.869393348693848,-0.0016531614078558903,0.004462683485632349,-0.0018008697105948246,1.8500070571899414,2019-06-18 15:19:49:803
-0.061461251229047775,-0.17290811240673065,9.83347225189209,0.0012770312556999051,0.0016656812558340024,0.00166208520813942,1.8541193008422852,2019-06-18 15:19:49:807
-0.05667174980044365,-0.15853960812091827,9.744866371154785,-0.0028518764820074007,0.003397158715201125,0.003659943795095767,1.8600049018859863,2019-06-18 15:19:49:813
-0.07104025036096573,-0.1561448574066162,9.869393348693848,0.00021150663156048962,0.0053950171721203095,0.00792204183652336,1.8650188446044922,2019-06-18 15:19:49:818
-0.025540005415678024,-0.14896062016487122,9.878972053527832,0.0024757463298514157,0.003796730406584962,-0.00020258286378625062,1.870016098022461,2019-06-18 15:19:49:823
-0.07582975178956985,-0.1705133616924286,9.80473518371582,0.0010106500630920993,-0.003928322813651202,0.0017952757719340324,1.8741064071655273,2019-06-18 15:19:49:827
-0.09019824862480164,-0.1441711187362671,9.795156478881836,0.0026089368936460283,-0.000598558458711569,-0.0024668226596050486,1.8800039291381836,2019-06-18 15:19:49:833
-0.047092754393815994,-0.19446085393428802,9.835866928100586,0.001676602947083742,0.0031307775876119005,-0.0006021545714247328,1.8841228485107422,2019-06-18 15:19:49:837
-0.039908502250909805,-0.19206610321998596,9.749655723571777,-0.0035178293009804624,-0.00019898671856379607,-0.0027332037871942733,1.889115810394287,2019-06-18 15:19:49:842
-0.061461251229047775,-0.16093435883522034,9.819103240966797,0.0012770312556999051,0.002997587023817288,0.0025944190246645436,1.8949999809265137,2019-06-18 15:19:49:848
-0.0662507489323616,-0.17290811240673065,9.773603439331055,0.0003446972116097473,0.0008665378730663289,0.0027276098485334807,1.8991155624389648,2019-06-18 15:19:49:852
-0.06864549964666367,-0.18009236454963684,9.814313888549805,0.0032748897126190896,0.00033377558537858905,0.001528894514307645,1.905003547668457,2019-06-18 15:19:49:858
-0.03511900454759598,-0.16811861097812653,9.814313888549805,0.0028753180212352527,0.0016656812558340024,-0.0015344885830056003,1.9091148376464844,2019-06-18 15:19:49:862
-0.039908502250909805,-0.1561448574066162,9.811919212341309,-0.0025854953544181764,0.0011329190006555533,0.0001969888601068769,1.91414213180542,2019-06-18 15:19:49:867
-0.08061924576759338,-0.15853960812091827,9.821497917175293,-0.0016531614078558903,0.0032639681514065122,0.0027276098485334807,1.9200048446655273,2019-06-18 15:19:49:873
-0.047092754393815994,-0.17530286312103271,9.76402473449707,0.00154341238328913,-0.0007317490225061812,0.000996132259129196,1.925002098083496,2019-06-18 15:19:49:878
-0.08540874719619751,-0.16093435883522034,9.802340507507324,0.0008774594992974871,0.0008665378730663289,-0.004065109425140397,1.9291152954101562,2019-06-18 15:19:49:882
-0.08540874719619751,-0.16811861097812653,9.878972053527832,7.831605963855469e-05,0.005927779427298759,-0.005130633935497294,1.9350261688232422,2019-06-18 15:19:49:888
-0.07343500107526779,-0.1561448574066162,9.809524536132812,-5.487451634704159e-05,0.004196302097968799,-0.0003357734438355082,1.940004825592041,2019-06-18 15:19:49:893
-0.08061924576759338,-0.16093435883522034,9.878972053527832,0.0007442689355028748,0.0007333473092717165,-0.0035323471699619468,1.9450006484985352,2019-06-18 15:19:49:898
-0.06864549964666367,-0.1824871152639389,9.799945831298828,0.004207223659181376,0.0015324906920393903,-6.939229186431566e-05,1.9500112533569336,2019-06-18 15:19:49:903
-0.06864549964666367,-0.22080311179161072,9.826288223266602,0.0018097935108783545,0.0025980153324334514,0.0013957039505130327,1.954117774963379,2019-06-18 15:19:49:907
-0.08301399648189545,-0.1633291095495224,9.814313888549805,0.0003446972116097473,0.005794589123578471,0.0011293228229238084,1.9600276947021484,2019-06-18 15:19:49:913
-0.05906650051474571,-0.19206610321998596,9.790366172790527,-0.004849734938926585,0.0027312058962280636,0.0017952757719340324,1.9650154113769531,2019-06-18 15:19:49:918
-0.05667174980044365,-0.15853960812091827,9.843050956726074,0.0010106500630920993,0.00033377558537858905,0.0021948473332807066,1.9700040817260742,2019-06-18 15:19:49:923
-0.04948750138282776,-0.18009236454963684,9.819103240966797,0.001676602947083742,0.01032306881274394,-0.001934060274389437,1.9750032424926758,2019-06-18 15:19:49:928
-0.061461251229047775,-0.15375012159347534,9.881366729736328,-0.005382497194105034,0.0008665378730663289,0.0004633700039507468,1.9791131019592285,2019-06-18 15:19:49:932
-0.0662507489323616,-0.18727661669254303,9.780787467956543,-0.00045444623617650777,0.0004669661491732013,-0.0028663943509888855,1.9850010871887207,2019-06-18 15:19:49:938
-0.10456674546003342,-0.17290811240673065,9.792760848999023,0.0018097935108783545,0.002864396460022676,-0.0016676791468002124,1.9900054931640625,2019-06-18 15:19:49:943
-0.05667174980044365,-0.14656586945056915,9.819103240966797,-0.00018806509233263786,-0.0020636546604523042,0.0035267532313011545,1.99436616897583,2019-06-18 15:19:49:948
-0.047092754393815994,-0.16811861097812653,9.826288223266602,0.0003446972116097473,-0.0023300357880415286,-0.0028663943509888855,2.000516414642334,2019-06-18 15:19:49:954
-0.07822450250387192,-0.19446085393428802,9.811919212341309,0.0008774594992974871,-0.0008649395863007935,0.0021948473332807066,2.004133701324463,2019-06-18 15:19:49:957
-0.07582975178956985,-0.14896062016487122,9.886157035827637,0.0007442689355028748,0.004196302097968799,0.0005965605677453591,2.0100011825561523,2019-06-18 15:19:49:963
-0.07822450250387192,-0.17769761383533478,9.7352876663208,0.0004778877754043595,0.004595873789352636,6.379828412128062e-05,2.014110565185547,2019-06-18 15:19:49:967
-0.039908502250909805,-0.14177636802196503,9.783182144165039,0.0019429840746729666,0.001399300128244778,-0.000735345135219345,2.0199966430664062,2019-06-18 15:19:49:973
-0.08540874719619751,-0.18009236454963684,9.771208763122559,0.0008774594992974871,0.0024648247686388392,0.001528894514307645,2.024106979370117,2019-06-18 15:19:49:977
-0.11414574086666107,-0.14656586945056915,9.761629104614258,-0.0023191142268289516,0.004196302097968799,0.0021948473332807066,2.0299882888793945,2019-06-18 15:19:49:983
-0.10696149617433548,-0.14177636802196503,9.831077575683594,0.0012770312556999051,6.739442934373515e-05,-0.0022004415320158242,2.034107208251953,2019-06-18 15:19:49:987
-0.06385599821805954,-0.1896713674068451,9.761629104614258,0.0019429840746729666,0.0019320623834232272,-0.0024668226596050486,2.039999485015869,2019-06-18 15:19:49:993
-0.07104025036096573,-0.1705133616924286,9.907709121704102,0.0008774594992974871,0.0016656812558340024,0.0017952757719340324,2.0441083908081055,2019-06-18 15:19:49:997
-0.06385599821805954,-0.1633291095495224,9.835866928100586,-0.0025854953544181764,0.0027312058962280636,-0.0006021545714247328,2.050002098083496,2019-06-18 15:19:50:003
-0.07822450250387192,-0.17769761383533478,9.811919212341309,-0.0012535897164720534,0.0006001567454771042,-0.000735345135219345,2.05411434173584,2019-06-18 15:19:50:007
-0.09738249331712723,-0.15135537087917328,9.792760848999023,0.004606795350565213,0.0012661095644501657,0.0019284663357286445,2.060007095336914,2019-06-18 15:19:50:013
-0.08780349791049957,-0.19925035536289215,9.881366729736328,-0.004716544635206299,0.005927779427298759,0.0027276098485334807,2.0650086402893066,2019-06-18 15:19:50:018
-0.03511900454759598,-0.14177636802196503,9.87418270111084,0.0007442689355028748,0.004329492661763411,-0.0010017262628085697,2.069112777709961,2019-06-18 15:19:50:022
-0.08301399648189545,-0.1633291095495224,9.8167085647583,-0.0015199708440612782,0.0020652529472178394,-0.0022004415320158242,2.0749893188476562,2019-06-18 15:19:50:028
-0.054277002811431885,-0.17530286312103271,9.809524536132812,0.0010106500630920993,0.0009997284368609412,-0.000735345135219345,2.0791072845458984,2019-06-18 15:19:50:032
-0.05906650051474571,-0.14177636802196503,9.814313888549805,-0.00511611606651581,0.002997587023817288,-0.0020672508381840496,2.084995746612549,2019-06-18 15:19:50:038
-0.04948750138282776,-0.1705133616924286,9.785576820373535,-0.0013867802802666658,0.0012661095644501657,0.0007297511315399715,2.0900087356567383,2019-06-18 15:19:50:043
-0.05906650051474571,-0.14656586945056915,9.8167085647583,0.0019429840746729666,0.003397158715201125,-0.0011349168916217633,2.0941295623779297,2019-06-18 15:19:50:047
-0.08780349791049957,-0.1441711187362671,9.857419967651367,-0.0019195425354451149,0.0008665378730663289,-0.0028663943509888855,2.0999975204467773,2019-06-18 15:19:50:053
-0.06385599821805954,-0.13938161730766296,9.864603996276855,0.0006110783717082625,0.0015324906920393903,0.0019284663357286445,2.1041197776794434,2019-06-18 15:19:50:057
-0.0662507489323616,-0.17530286312103271,9.8167085647583,-0.0012535897164720534,0.004196302097968799,0.0003301794401561345,2.110001564025879,2019-06-18 15:19:50:063
-0.032724253833293915,-0.15135537087917328,9.83347225189209,0.0010106500630920993,0.004729064613221573,0.0001969888601068769,2.114996910095215,2019-06-18 15:19:50:068
-0.08061924576759338,-0.14896062016487122,9.807129859924316,-0.0019195425354451149,0.0031307775876119005,0.0035267532313011545,2.119112014770508,2019-06-18 15:19:50:072
-0.054277002811431885,-0.17530286312103271,9.807129859924316,0.001143840691905293,0.0012661095644501657,-0.000735345135219345,2.124995708465576,2019-06-18 15:19:50:078
-0.08061924576759338,-0.15375012159347534,9.778392791748047,-0.0013867802802666658,0.003796730406584962,-6.939229186431566e-05,2.130000114440918,2019-06-18 15:19:50:083
-0.061461251229047775,-0.15853960812091827,9.785576820373535,-0.0015199708440612782,0.003397158715201125,-0.0006021545714247328,2.1341137886047363,2019-06-18 15:19:50:087
-0.05188225209712982,-0.1896713674068451,9.790366172790527,0.002076174638467579,0.0036635398427903496,0.004192706050274216,2.140011787414551,2019-06-18 15:19:50:093
-0.09019824862480164,-0.16093435883522034,9.771208763122559,-0.0025854953544181764,-0.0009981301500954058,-0.0036655377337565594,2.1450071334838867,2019-06-18 15:19:50:098
-0.05906650051474571,-0.14656586945056915,9.823892593383789,-0.0011203991526774412,-0.0020636546604523042,-6.939229186431566e-05,2.1491222381591797,2019-06-18 15:19:50:102
-0.04230325296521187,-0.1298026144504547,9.785576820373535,-0.0025854953544181764,0.0032639681514065122,-0.0012681074554163755,2.154998779296875,2019-06-18 15:19:50:108
-0.07822450250387192,-0.1968556046485901,9.783182144165039,-0.0025854953544181764,0.004329492661763411,-0.0041982999889350085,2.1591129302978516,2019-06-18 15:19:50:112
-0.061461251229047775,-0.1298026144504547,9.766419410705566,0.0018097935108783545,0.005528207995989247,0.0005965605677453591,2.1649951934814453,2019-06-18 15:19:50:118
-0.061461251229047775,-0.16093435883522034,9.807129859924316,-0.0020527330992397273,0.0032639681514065122,0.0017952757719340324,2.169999122619629,2019-06-18 15:19:50:123
-0.12132999300956726,-0.13219736516475677,9.83347225189209,0.0018097935108783545,-0.001530892405273855,0.0021948473332807066,2.174112319946289,2019-06-18 15:19:50:127
-0.054277002811431885,-0.1633291095495224,9.802340507507324,-0.003118257609596625,0.0019320623834232272,0.000996132259129196,2.1799983978271484,2019-06-18 15:19:50:133
-0.08061924576759338,-0.17769761383533478,9.797551155090332,-0.0023191142268289516,0.0020652529472178394,0.0012625133867184206,2.1841206550598145,2019-06-18 15:19:50:137
-0.04948750138282776,-0.15135537087917328,9.8167085647583,-0.0005876368324804107,0.0006001567454771042,0.0004633700039507468,2.1900033950805664,2019-06-18 15:19:50:143
-0.06864549964666367,-0.15135537087917328,9.850234985351562,0.0030085085850298653,0.004462683485632349,-0.0003357734438355082,2.1941308975219727,2019-06-18 15:19:50:147
-0.10456674546003342,-0.1561448574066162,9.826288223266602,0.0024757463298514157,0.0024648247686388392,6.379828412128062e-05,2.200000762939453,2019-06-18 15:19:50:153
-0.07343500107526779,-0.16811861097812653,9.838261604309082,-0.0009872085238642476,0.002997587023817288,-0.0006021545714247328,2.204113483428955,2019-06-18 15:19:50:157
-0.07582975178956985,-0.1369868665933609,9.828682899475098,-0.0036510198647750746,0.0032639681514065122,-0.0003357734438355082,2.2100019454956055,2019-06-18 15:19:50:163
-0.06385599821805954,-0.17290811240673065,9.871788024902344,0.0019429840746729666,0.0053950171721203095,-0.0018008697105948246,2.2141175270080566,2019-06-18 15:19:50:167
-0.05906650051474571,-0.17530286312103271,9.826288223266602,7.831605963855469e-05,0.003796730406584962,0.0019284663357286445,2.2199959754943848,2019-06-18 15:19:50:173
-0.054277002811431885,-0.15135537087917328,9.843050956726074,-5.487451634704159e-05,-0.0013977018414792427,-0.001934060274389437,2.2249956130981445,2019-06-18 15:19:50:178
-0.04469800367951393,-0.16093435883522034,9.823892593383789,0.005405938733332886,-0.0021968452242469164,0.0017952757719340324,2.2291150093078613,2019-06-18 15:19:50:182
-0.0662507489323616,-0.1561448574066162,9.787971496582031,-0.0007208273962750229,0.0061941605548879826,0.0011293228229238084,2.2349982261657715,2019-06-18 15:19:50:188
-0.061461251229047775,-0.17290811240673065,9.778392791748047,0.0012770312556999051,-6.579614257819981e-05,0.0003301794401561345,2.2391161918640137,2019-06-18 15:19:50:192
-0.08301399648189545,-0.18009236454963684,9.850234985351562,0.0003446972116097473,-0.0017972735328630795,6.379828412128062e-05,2.244999885559082,2019-06-18 15:19:50:198
-0.10456674546003342,-0.16093435883522034,9.761629104614258,0.00154341238328913,-0.0024632263518361407,-0.0016676791468002124,2.2500009536743164,2019-06-18 15:19:50:203
-0.05906650051474571,-0.1896713674068451,9.792760848999023,-0.0011203991526774412,0.002864396460022676,-0.003399156606167335,2.2541165351867676,2019-06-18 15:19:50:207
-0.04948750138282776,-0.16572386026382446,9.790366172790527,0.0026089368936460283,0.0016656812558340024,0.006190564767267726,2.259997844696045,2019-06-18 15:19:50:213
-0.07343500107526779,-0.17290811240673065,9.857419967651367,0.0032748897126190896,0.0007333473092717165,0.003393562667506543,2.2641239166259766,2019-06-18 15:19:50:217
-0.06385599821805954,-0.18488186597824097,9.855024337768555,0.0018097935108783545,0.0019320623834232272,0.0004633700039507468,2.2705421447753906,2019-06-18 15:19:50:224
-0.061461251229047775,-0.13459211587905884,9.783182144165039,0.0012770312556999051,0.0006001567454771042,-0.002999584914783498,2.274139404296875,2019-06-18 15:19:50:227
-0.05188225209712982,-0.1824871152639389,9.831077575683594,-0.0036510198647750746,0.003530349278995737,-0.0016676791468002124,2.279999256134033,2019-06-18 15:19:50:233
-0.10217199474573135,-0.1561448574066162,9.84544563293457,-0.0013867802802666658,0.001798871819628615,-0.00020258286378625062,2.284116744995117,2019-06-18 15:19:50:237
-0.08780349791049957,-0.20403985679149628,9.864603996276855,0.0004778877754043595,0.0032639681514065122,0.005790992815809564,2.290003776550293,2019-06-18 15:19:50:243
-0.09977724403142929,-0.2016451060771942,9.831077575683594,0.0006110783717082625,0.0036635398427903496,-0.000735345135219345,2.2949914932250977,2019-06-18 15:19:50:248
-0.09498775005340576,-0.14896062016487122,9.864603996276855,0.0008774594992974871,0.004196302097968799,-0.0008685356990139574,2.2991065979003906,2019-06-18 15:19:50:252
-0.04469800367951393,-0.17530286312103271,9.811919212341309,-0.0003212556723818955,0.0020652529472178394,0.007655660708934136,2.304995059967041,2019-06-18 15:19:50:258
-0.09019824862480164,-0.19446085393428802,9.850234985351562,-0.0019195425354451149,0.0002005850053293314,0.0004633700039507468,2.309113025665283,2019-06-18 15:19:50:262
-0.0662507489323616,-0.1441711187362671,9.799945831298828,0.0007442689355028748,0.004729064613221573,0.002328037897075319,2.315035820007324,2019-06-18 15:19:50:268
-0.027934754267334938,-0.18727661669254303,9.823892593383789,-0.00045444623617650777,-0.0023300357880415286,-0.00020258286378625062,2.3200197219848633,2019-06-18 15:19:50:273
-0.10217199474573135,-0.1824871152639389,9.864603996276855,-0.00018806509233263786,6.739442934373515e-05,-0.0022004415320158242,2.324988842010498,2019-06-18 15:19:50:278
-0.07582975178956985,-0.16572386026382446,9.732892990112305,0.0018097935108783545,-0.0017972735328630795,-0.0008685356990139574,2.330021858215332,2019-06-18 15:19:50:283
-0.06385599821805954,-0.17290811240673065,9.790366172790527,0.0012770312556999051,-0.0011313207138900182,-6.939229186431566e-05,2.334990978240967,2019-06-18 15:19:50:288
-0.09977724403142929,-0.17769761383533478,9.797551155090332,0.0032748897126190896,0.0012661095644501657,-0.0041982999889350085,2.3391075134277344,2019-06-18 15:19:50:292
-0.061461251229047775,-0.1896713674068451,9.80473518371582,0.0028753180212352527,0.00686011363393537,-0.0018008697105948246,2.3449974060058594,2019-06-18 15:19:50:298
-0.04469800367951393,-0.16811861097812653,9.783182144165039,-0.0003212556723818955,-0.0013977018414792427,0.0001969888601068769,2.3491129875183105,2019-06-18 15:19:50:302
-0.07104025036096573,-0.16093435883522034,9.850234985351562,0.004340414222975988,0.0036635398427903496,0.002461228460869931,2.3549880981445312,2019-06-18 15:19:50:308
-0.05188225209712982,-0.16811861097812653,9.771208763122559,-0.0003212556723818955,-0.0024632263518361407,-0.004597871680318845,2.359999656677246,2019-06-18 15:19:50:313
-0.039908502250909805,-0.16811861097812653,9.811919212341309,-0.0003212556723818955,0.0032639681514065122,-0.0008685356990139574,2.36411190032959,2019-06-18 15:19:50:317
-0.04230325296521187,-0.18009236454963684,9.84544563293457,0.002076174638467579,0.0032639681514065122,0.006323755070988013,2.369994640350342,2019-06-18 15:19:50:323
-0.06864549964666367,-0.18727661669254303,9.787971496582031,0.0014102218194945173,0.0006001567454771042,-0.0003357734438355082,2.374135971069336,2019-06-18 15:19:50:327
-0.07582975178956985,-0.13938161730766296,9.761629104614258,0.004074033095386763,0.0011329190006555533,0.0004633700039507468,2.3799991607666016,2019-06-18 15:19:50:333
-0.08540874719619751,-0.19925035536289215,9.821497917175293,0.004340414222975988,0.0015324906920393903,0.003659943795095767,2.384988784790039,2019-06-18 15:19:50:338
-0.04230325296521187,-0.16572386026382446,9.838261604309082,0.0036744614040029266,-0.0016640829690684673,0.003793134358890379,2.3891048431396484,2019-06-18 15:19:50:342
-0.09977724403142929,-0.18727661669254303,9.752050399780273,0.0034080802764137014,0.0002005850053293314,0.002061656899523257,2.3949966430664062,2019-06-18 15:19:50:348
-0.03511900454759598,-0.1824871152639389,9.814313888549805,0.0003446972116097473,0.003530349278995737,0.0021948473332807066,2.3991127014160156,2019-06-18 15:19:50:352
-0.03511900454759598,-0.15375012159347534,9.838261604309082,0.003141699148824477,0.001399300128244778,0.0007297511315399715,2.4050121307373047,2019-06-18 15:19:50:358
-0.05667174980044365,-0.13219736516475677,9.831077575683594,-0.0032514481733912377,0.002997587023817288,-0.000735345135219345,2.4100141525268555,2019-06-18 15:19:50:363
-0.047092754393815994,-0.16572386026382446,9.819103240966797,0.003141699148824477,-0.0003321772986130537,-6.939229186431566e-05,2.415019989013672,2019-06-18 15:19:50:368
-0.06385599821805954,-0.14177636802196503,9.859814643859863,-0.0040505915561589115,-0.0011313207138900182,-0.0023336320958104364,2.420015811920166,2019-06-18 15:19:50:373
-0.061461251229047775,-0.1561448574066162,9.843050956726074,0.003141699148824477,-0.001530892405273855,0.001528894514307645,2.4241065979003906,2019-06-18 15:19:50:377
-0.032724253833293915,-0.17530286312103271,9.831077575683594,-0.0025854953544181764,0.0015324906920393903,0.002328037897075319,2.42999267578125,2019-06-18 15:19:50:383
-0.05906650051474571,-0.17769761383533478,9.847840309143066,0.0008774594992974871,0.0016656812558340024,-0.0014012980192109879,2.4341049194335938,2019-06-18 15:19:50:387
-0.054277002811431885,-0.16093435883522034,9.823892593383789,-0.002452304790623564,-0.0016640829690684673,-0.0026000132233996607,2.43911075592041,2019-06-18 15:19:50:392
-0.05188225209712982,-0.15375012159347534,9.797551155090332,0.00021150663156048962,-0.0003321772986130537,0.0012625133867184206,2.444991111755371,2019-06-18 15:19:50:398
-0.05667174980044365,-0.1561448574066162,9.807129859924316,0.001676602947083742,0.0020652529472178394,-0.0028663943509888855,2.449106216430664,2019-06-18 15:19:50:402
-0.039908502250909805,-0.17530286312103271,9.785576820373535,-0.0028518764820074007,0.0032639681514065122,-0.004065109425140397,2.4550113677978516,2019-06-18 15:19:50:408
-0.08540874719619751,-0.17530286312103271,9.855024337768555,0.0014102218194945173,0.0012661095644501657,6.379828412128062e-05,2.4591140747070312,2019-06-18 15:19:50:412
-0.11654049158096313,-0.18727661669254303,9.840656280517578,-0.0007208273962750229,0.0020652529472178394,0.001528894514307645,2.4650001525878906,2019-06-18 15:19:50:418
-0.09738249331712723,-0.21122410893440247,9.768814086914062,-0.0015199708440612782,-0.00046536786240766596,-0.004597871680318845,2.469119071960449,2019-06-18 15:19:50:422
-0.10696149617433548,-0.1896713674068451,9.749655723571777,0.001676602947083742,0.0007333473092717165,0.0027276098485334807,2.4749956130981445,2019-06-18 15:19:50:428
-0.10217199474573135,-0.1561448574066162,9.821497917175293,0.0008774594992974871,0.0021984436410496144,0.00166208520813942,2.4799976348876953,2019-06-18 15:19:50:433
-0.07343500107526779,-0.17769761383533478,9.828682899475098,0.0004778877754043595,0.0020652529472178394,0.0007297511315399715,2.484109878540039,2019-06-18 15:19:50:437
-0.05667174980044365,-0.18009236454963684,9.823892593383789,0.002209365202262191,0.0031307775876119005,0.0005965605677453591,2.490015983581543,2019-06-18 15:19:50:443
-0.1117509976029396,-0.15853960812091827,9.826288223266602,-0.0013867802802666658,0.0016656812558340024,-0.0012681074554163755,2.494168281555176,2019-06-18 15:19:50:447
-0.09977724403142929,-0.1705133616924286,9.826288223266602,-0.0029850670458020133,-0.0003321772986130537,-0.0011349168916217633,2.500014305114746,2019-06-18 15:19:50:453
-0.08780349791049957,-0.16572386026382446,9.790366172790527,0.0019429840746729666,0.0032639681514065122,-0.0012681074554163755,2.5041093826293945,2019-06-18 15:19:50:457
-0.08061924576759338,-0.1705133616924286,9.83347225189209,-0.0021859236630343394,0.0020652529472178394,-0.000735345135219345,2.5100202560424805,2019-06-18 15:19:50:463
-0.06864549964666367,-0.1705133616924286,9.814313888549805,0.0007442689355028748,0.0002005850053293314,-0.00020258286378625062,2.514110565185547,2019-06-18 15:19:50:467
-0.10217199474573135,-0.1824871152639389,9.778392791748047,-0.0008540179600696353,-0.0020636546604523042,0.0040595154864796045,2.519991874694824,2019-06-18 15:19:50:473
-0.061461251229047775,-0.13219736516475677,9.823892593383789,0.0024757463298514157,0.0031307775876119005,-0.0011349168916217633,2.52500057220459,2019-06-18 15:19:50:478
-0.047092754393815994,-0.19446085393428802,9.823892593383789,0.001676602947083742,-0.0017972735328630795,-0.0008685356990139574,2.5291147232055664,2019-06-18 15:19:50:482
-0.04948750138282776,-0.1705133616924286,9.871788024902344,0.005539129557201824,0.0027312058962280636,-0.0004689640076301205,2.534987449645996,2019-06-18 15:19:50:488
-0.08061924576759338,-0.17769761383533478,9.855024337768555,0.003541270840208314,0.002864396460022676,0.00326037210371193,2.540048599243164,2019-06-18 15:19:50:493
-0.08301399648189545,-0.13938161730766296,9.835866928100586,-0.0028518764820074007,0.0024648247686388392,-0.000735345135219345,2.545016288757324,2019-06-18 15:19:50:498
-0.047092754393815994,-0.1705133616924286,9.83347225189209,0.00154341238328913,0.004063111534174186,-0.003399156606167335,2.5502891540527344,2019-06-18 15:19:50:504
-0.06385599821805954,-0.18727661669254303,9.871788024902344,0.0010106500630920993,0.002997587023817288,0.002328037897075319,2.555020332336426,2019-06-18 15:19:50:508
-0.054277002811431885,-0.19925035536289215,9.83347225189209,0.0007442689355028748,-0.00019898671856379607,0.0011293228229238084,2.559114456176758,2019-06-18 15:19:50:512
-0.06864549964666367,-0.12740786373615265,9.819103240966797,-0.0007208273962750229,-0.00046536786240766596,0.0012625133867184206,2.5649914741516113,2019-06-18 15:19:50:518
-0.039908502250909805,-0.1824871152639389,9.850234985351562,-0.0017863519716505025,0.004462683485632349,0.0031271815399173176,2.5699939727783203,2019-06-18 15:19:50:523
-0.10696149617433548,-0.18488186597824097,9.778392791748047,0.005139557605743661,0.0006001567454771042,-0.0004689640076301205,2.5749988555908203,2019-06-18 15:19:50:528
-0.07104025036096573,-0.19206610321998596,9.797551155090332,-0.0007208273962750229,0.0061941605548879826,0.0019284663357286445,2.5799994468688965,2019-06-18 15:19:50:533
-0.09019824862480164,-0.15135537087917328,9.811919212341309,-0.0005876368324804107,0.0011329190006555533,-0.0004689640076301205,2.5841050148010254,2019-06-18 15:19:50:537
-0.06864549964666367,-0.1968556046485901,9.819103240966797,0.0018097935108783545,0.00033377558537858905,-0.0037987282975511715,2.590022087097168,2019-06-18 15:19:50:543
-0.10935624688863754,-0.15135537087917328,9.814313888549805,-0.002452304790623564,0.0020652529472178394,0.004325896614068829,2.594109535217285,2019-06-18 15:19:50:547
-0.08780349791049957,-0.17769761383533478,9.821497917175293,0.0018097935108783545,0.001399300128244778,-0.0010017262628085697,2.6001148223876953,2019-06-18 15:19:50:553
-0.05906650051474571,-0.16093435883522034,9.797551155090332,7.831605963855469e-05,0.003530349278995737,-0.0006021545714247328,2.6041245460510254,2019-06-18 15:19:50:557
-0.09738249331712723,-0.15375012159347534,9.823892593383789,0.0024757463298514157,0.0020652529472178394,0.0012625133867184206,2.6100006103515625,2019-06-18 15:19:50:563
-0.08540874719619751,-0.19446085393428802,9.795156478881836,0.0003446972116097473,0.0008665378730663289,0.002860800412328093,2.6141185760498047,2019-06-18 15:19:50:567
-0.07582975178956985,-0.2016451060771942,9.785576820373535,0.0004778877754043595,6.739442934373515e-05,0.0025944190246645436,2.620002269744873,2019-06-18 15:19:50:573
-0.09977724403142929,-0.14656586945056915,9.768814086914062,-0.003118257609596625,0.0015324906920393903,0.004459087177863441,2.624117851257324,2019-06-18 15:19:50:577
-0.04230325296521187,-0.16811861097812653,9.850234985351562,0.0032748897126190896,0.0039299209703795735,-0.001934060274389437,2.63002872467041,2019-06-18 15:19:50:583
-0.06864549964666367,-0.1441711187362671,9.828682899475098,0.0003446972116097473,0.0016656812558340024,-0.0020672508381840496,2.6350207328796387,2019-06-18 15:19:50:588
-0.08061924576759338,-0.13219736516475677,9.802340507507324,7.831605963855469e-05,0.0036635398427903496,0.0008629416953345836,2.6391382217407227,2019-06-18 15:19:50:592
-0.07343500107526779,-0.18009236454963684,9.792760848999023,0.003141699148824477,0.0025980153324334514,0.0005965605677453591,2.6450061798095703,2019-06-18 15:19:50:598
-0.07104025036096573,-0.18009236454963684,9.821497917175293,0.0030085085850298653,-0.0003321772986130537,-0.0028663943509888855,2.6491193771362305,2019-06-18 15:19:50:602
-0.07343500107526779,-0.14177636802196503,9.795156478881836,0.0026089368936460283,0.0015324906920393903,0.002328037897075319,2.6549973487854004,2019-06-18 15:19:50:608
-0.0662507489323616,-0.15853960812091827,9.83347225189209,0.001676602947083742,6.739442934373515e-05,-0.0011349168916217633,2.659116744995117,2019-06-18 15:19:50:612
-0.0662507489323616,-0.2016451060771942,9.864603996276855,-0.0013867802802666658,0.0007333473092717165,0.0021948473332807066,2.6649980545043945,2019-06-18 15:19:50:618
-0.05667174980044365,-0.1369868665933609,9.847840309143066,0.0010106500630920993,0.002997587023817288,-0.0022004415320158242,2.6691179275512695,2019-06-18 15:19:50:622
-0.032724253833293915,-0.1896713674068451,9.847840309143066,0.005272748429612599,0.0007333473092717165,-0.0024668226596050486,2.675011157989502,2019-06-18 15:19:50:628
-0.013566257432103157,-0.13938161730766296,9.84544563293457,0.0007442689355028748,0.0032639681514065122,0.00326037210371193,2.6791257858276367,2019-06-18 15:19:50:632
-0.061461251229047775,-0.21840836107730865,9.809524536132812,0.0034080802764137014,0.0011329190006555533,-0.0006021545714247328,2.684999465942383,2019-06-18 15:19:50:638
-0.09498775005340576,-0.14896062016487122,9.850234985351562,0.0008774594992974871,0.0007333473092717165,6.379828412128062e-05,2.689131736755371,2019-06-18 15:19:50:642
-0.06864549964666367,-0.14656586945056915,9.823892593383789,0.004473605046844925,0.0032639681514065122,-0.0014012980192109879,2.694997787475586,2019-06-18 15:19:50:648
-0.07582975178956985,-0.1705133616924286,9.840656280517578,0.004207223659181376,0.002864396460022676,0.003926324922684992,2.7000041007995605,2019-06-18 15:19:50:653
-0.07104025036096573,-0.18488186597824097,9.809524536132812,-0.0017863519716505025,-0.000598558458711569,6.379828412128062e-05,2.7041187286376953,2019-06-18 15:19:50:657
-0.027934754267334938,-0.15853960812091827,9.826288223266602,0.0028753180212352527,0.005528207995989247,-0.0014012980192109879,2.7099990844726562,2019-06-18 15:19:50:663
-0.04948750138282776,-0.18488186597824097,9.80473518371582,-0.00018806509233263786,0.0025980153324334514,-0.001934060274389437,2.714999198913574,2019-06-18 15:19:50:668
-0.04469800367951393,-0.16572386026382446,9.787971496582031,0.004074033095386763,-0.0024632263518361407,-0.0006021545714247328,2.7191295623779297,2019-06-18 15:19:50:672
-0.04469800367951393,-0.15853960812091827,9.86220932006836,0.001143840691905293,0.003530349278995737,-0.000735345135219345,2.725008010864258,2019-06-18 15:19:50:678
-0.047092754393815994,-0.1824871152639389,9.831077575683594,-0.0019195425354451149,0.0025980153324334514,-0.0012681074554163755,2.7291183471679688,2019-06-18 15:19:50:682
-0.07582975178956985,-0.19925035536289215,9.809524536132812,0.0010106500630920993,0.008458400399470718,0.007256089277624623,2.735011577606201,2019-06-18 15:19:50:688
-0.039908502250909805,-0.20403985679149628,9.80473518371582,0.0023425557660568036,-0.000598558458711569,-0.0003357734438355082,2.7400336265563965,2019-06-18 15:19:50:693
-0.06385599821805954,-0.1441711187362671,9.843050956726074,-0.003118257609596625,-0.0011313207138900182,0.003659943795095767,2.7441210746765137,2019-06-18 15:19:50:697
-0.0662507489323616,-0.17290811240673065,9.799945831298828,0.005805510684791048,0.005261826868400022,-0.0014012980192109879,2.750001907348633,2019-06-18 15:19:50:703
-0.07582975178956985,-0.17290811240673065,9.809524536132812,0.00021150663156048962,0.003796730406584962,-0.0022004415320158242,2.754119873046875,2019-06-18 15:19:50:707
-0.054277002811431885,-0.1705133616924286,9.797551155090332,0.001676602947083742,0.005528207995989247,0.004192706050274216,2.7599973678588867,2019-06-18 15:19:50:713
-0.07822450250387192,-0.15375012159347534,9.759234428405762,0.0007442689355028748,0.0039299209703795735,0.0031271815399173176,2.7650256156921387,2019-06-18 15:19:50:718
-0.08540874719619751,-0.1824871152639389,9.895735740661621,-0.00018806509233263786,0.0008665378730663289,0.0052582305606311145,2.7691187858581543,2019-06-18 15:19:50:722
-0.05906650051474571,-0.17769761383533478,9.859814643859863,0.0030085085850298653,0.007392875889113818,-0.000735345135219345,2.775010108947754,2019-06-18 15:19:50:728
-0.05188225209712982,-0.17530286312103271,9.811919212341309,0.004074033095386763,-0.0025964169156307533,0.0021948473332807066,2.779128074645996,2019-06-18 15:19:50:732
-0.09977724403142929,-0.14177636802196503,9.761629104614258,0.0003446972116097473,-0.00019898671856379607,-0.0015344885830056003,2.7850027084350586,2019-06-18 15:19:50:738
-0.05188225209712982,-0.17769761383533478,9.749655723571777,0.0014102218194945173,0.005261826868400022,-0.00020258286378625062,2.790005683898926,2019-06-18 15:19:50:743
-0.07104025036096573,-0.16811861097812653,9.866998672485352,0.0014102218194945173,-6.579614257819981e-05,-0.0014012980192109879,2.794118881225586,2019-06-18 15:19:50:747
-0.05906650051474571,-0.19925035536289215,9.86220932006836,0.0006110783717082625,0.0012661095644501657,-0.0003357734438355082,2.7999978065490723,2019-06-18 15:19:50:753
-0.09019824862480164,-0.18488186597824097,9.831077575683594,-0.0013867802802666658,0.005128636044531084,0.0069897081500354,2.805034637451172,2019-06-18 15:19:50:758
-0.07104025036096573,-0.13219736516475677,9.840656280517578,0.0010106500630920993,-0.0012645112776846303,-0.0011349168916217633,2.81002140045166,2019-06-18 15:19:50:763
-0.05188225209712982,-0.16572386026382446,9.8167085647583,0.0014102218194945173,6.739442934373515e-05,-0.0022004415320158242,2.814119338989258,2019-06-18 15:19:50:767
-0.06385599821805954,-0.17530286312103271,9.831077575683594,-0.0005876368324804107,0.0009997284368609412,-0.003399156606167335,2.8200039863586426,2019-06-18 15:19:50:773
-0.054277002811431885,-0.13459211587905884,9.809524536132812,0.0036744614040029266,0.002997587023817288,0.0007297511315399715,2.82412052154541,2019-06-18 15:19:50:777
-0.1117509976029396,-0.1968556046485901,9.823892593383789,-0.0020527330992397273,0.0009997284368609412,0.00166208520813942,2.8300037384033203,2019-06-18 15:19:50:783
-0.0662507489323616,-0.15135537087917328,9.814313888549805,0.005672319860922111,0.004729064613221573,-0.001934060274389437,2.8341188430786133,2019-06-18 15:19:50:787
-0.054277002811431885,-0.14656586945056915,9.866998672485352,-0.0040505915561589115,0.00033377558537858905,-0.0006021545714247328,2.8400211334228516,2019-06-18 15:19:50:793
-0.06385599821805954,-0.18488186597824097,9.802340507507324,-0.0017863519716505025,0.0011329190006555533,0.0011293228229238084,2.845000743865967,2019-06-18 15:19:50:798
-0.061461251229047775,-0.18009236454963684,9.802340507507324,-0.0009872085238642476,0.0020652529472178394,0.0040595154864796045,2.8491578102111816,2019-06-18 15:19:50:802
-0.03751375526189804,-0.1896713674068451,9.771208763122559,-0.0011203991526774412,0.002997587023817288,0.002461228460869931,2.8550119400024414,2019-06-18 15:19:50:808
-0.09738249331712723,-0.15853960812091827,9.819103240966797,-0.00018806509233263786,0.0007333473092717165,-0.0016676791468002124,2.8600082397460938,2019-06-18 15:19:50:813
-0.07582975178956985,-0.16093435883522034,9.864603996276855,-0.0017863519716505025,0.0024648247686388392,-0.0004689640076301205,2.865018844604492,2019-06-18 15:19:50:818
-0.03751375526189804,-0.17769761383533478,9.799945831298828,-0.0016531614078558903,0.002864396460022676,0.003926324922684992,2.8691182136535645,2019-06-18 15:19:50:822
-0.08540874719619751,-0.13219736516475677,9.823892593383789,-0.0027186859182127886,0.0012661095644501657,0.0001969888601068769,2.874997138977051,2019-06-18 15:19:50:828
-0.07343500107526779,-0.15853960812091827,9.799945831298828,0.0032748897126190896,0.0012661095644501657,0.0011293228229238084,2.879117965698242,2019-06-18 15:19:50:832
-0.054277002811431885,-0.18488186597824097,9.807129859924316,-0.0017863519716505025,0.004462683485632349,-0.002999584914783498,2.8849987983703613,2019-06-18 15:19:50:838
-0.09738249331712723,-0.1633291095495224,9.871788024902344,-0.0008540179600696353,0.0004669661491732013,0.0008629416953345836,2.8891172409057617,2019-06-18 15:19:50:842
-0.032724253833293915,-0.1561448574066162,9.819103240966797,0.0010106500630920993,0.0039299209703795735,0.0005965605677453591,2.895014762878418,2019-06-18 15:19:50:848
-0.0925929993391037,-0.20403985679149628,9.807129859924316,-0.0017863519716505025,0.0019320623834232272,0.0007297511315399715,2.8991241455078125,2019-06-18 15:19:50:852
-0.061461251229047775,-0.1896713674068451,9.821497917175293,7.831605963855469e-05,0.005927779427298759,0.006856517326166462,2.905001163482666,2019-06-18 15:19:50:858
-0.061461251229047775,-0.1369868665933609,9.797551155090332,-0.004716544635206299,-0.0020636546604523042,0.0001969888601068769,2.910022735595703,2019-06-18 15:19:50:863
-0.08780349791049957,-0.12740786373615265,9.823892593383789,-0.0019195425354451149,0.0023316342048442266,0.0005965605677453591,2.914120674133301,2019-06-18 15:19:50:867
-0.07104025036096573,-0.16811861097812653,9.83347225189209,0.00154341238328913,0.0025980153324334514,0.004725468305452665,2.920008659362793,2019-06-18 15:19:50:873
-0.08780349791049957,-0.16572386026382446,9.819103240966797,-0.0012535897164720534,0.0019320623834232272,-0.005130633935497294,2.9241228103637695,2019-06-18 15:19:50:877
-0.0925929993391037,-0.14896062016487122,9.807129859924316,0.002209365202262191,-0.0025964169156307533,-0.0006021545714247328,2.9300003051757812,2019-06-18 15:19:50:883
-0.0662507489323616,-0.14177636802196503,9.869393348693848,7.831605963855469e-05,0.0023316342048442266,0.002061656899523257,2.9341182708740234,2019-06-18 15:19:50:887
-0.09498775005340576,-0.1633291095495224,9.821497917175293,0.0006110783717082625,0.0027312058962280636,0.0005965605677453591,2.9400200843811035,2019-06-18 15:19:50:893
-0.09019824862480164,-0.1824871152639389,9.922078132629395,0.0027421274574406405,6.739442934373515e-05,-0.000735345135219345,2.9441213607788086,2019-06-18 15:19:50:897
-0.08540874719619751,-0.15375012159347534,9.814313888549805,0.0026089368936460283,-0.0009981301500954058,6.379828412128062e-05,2.9500226974487305,2019-06-18 15:19:50:903
-0.09498775005340576,-0.17290811240673065,9.823892593383789,0.0019429840746729666,-0.000598558458711569,-0.0008685356990139574,2.9541306495666504,2019-06-18 15:19:50:907
-0.05667174980044365,-0.17530286312103271,9.86220932006836,-0.0012535897164720534,0.007526066192834106,-0.0027332037871942733,2.960000514984131,2019-06-18 15:19:50:913
-0.05667174980044365,-0.18009236454963684,9.799945831298828,-0.0011203991526774412,0.0009997284368609412,0.003926324922684992,2.964120864868164,2019-06-18 15:19:50:917
-0.10696149617433548,-0.18727661669254303,9.821497917175293,-0.0016531614078558903,-0.0003321772986130537,-0.0023336320958104364,2.969999313354492,2019-06-18 15:19:50:923
-0.05667174980044365,-0.17530286312103271,9.92447280883789,0.0030085085850298653,0.002997587023817288,0.0031271815399173176,2.974123001098633,2019-06-18 15:19:50:927
-0.08061924576759338,-0.17290811240673065,9.843050956726074,0.003940842531592151,0.006993303937655657,0.0021948473332807066,2.9800024032592773,2019-06-18 15:19:50:933
-0.025540005415678024,-0.1705133616924286,9.797551155090332,-0.002452304790623564,0.0016656812558340024,-0.0004689640076301205,2.9850215911865234,2019-06-18 15:19:50:938
-0.030329504981637,-0.2016451060771942,9.807129859924316,0.00154341238328913,0.0011329190006555533,0.0001969888601068769,2.9891176223754883,2019-06-18 15:19:50:942
-0.08061924576759338,-0.19446085393428802,9.802340507507324,0.0018097935108783545,0.003530349278995737,0.003393562667506543,2.9950056076049805,2019-06-18 15:19:50:948
-0.04469800367951393,-0.17530286312103271,9.807129859924316,0.0003446972116097473,0.004329492661763411,0.001528894514307645,3.000006675720215,2019-06-18 15:19:50:953
-0.08540874719619751,-0.1824871152639389,9.828682899475098,0.0010106500630920993,0.0024648247686388392,-0.0020672508381840496,3.004117965698242,2019-06-18 15:19:50:957
-0.06385599821805954,-0.1633291095495224,9.807129859924316,0.0027421274574406405,0.002864396460022676,-0.0022004415320158242,3.0100021362304688,2019-06-18 15:19:50:963
-0.06864549964666367,-0.1824871152639389,9.821497917175293,-0.0012535897164720534,0.0011329190006555533,0.00166208520813942,3.014120101928711,2019-06-18 15:19:50:967
-0.04948750138282776,-0.1441711187362671,9.790366172790527,0.0024757463298514157,-0.0012645112776846303,0.003793134358890379,3.0199995040893555,2019-06-18 15:19:50:973
-0.0662507489323616,-0.15135537087917328,9.859814643859863,0.0030085085850298653,0.0007333473092717165,0.000996132259129196,3.025050640106201,2019-06-18 15:19:50:978
-0.09738249331712723,-0.1369868665933609,9.850234985351562,0.0003446972116097473,0.0008665378730663289,-0.0010017262628085697,3.0291337966918945,2019-06-18 15:19:50:982
-0.08540874719619751,-0.19925035536289215,9.8167085647583,0.0028753180212352527,0.0020652529472178394,0.000996132259129196,3.0349998474121094,2019-06-18 15:19:50:988
-0.08061924576759338,-0.16572386026382446,9.838261604309082,-0.00018806509233263786,-0.0020636546604523042,-0.0032659660423727224,3.0391387939453125,2019-06-18 15:19:50:992
-0.054277002811431885,-0.1441711187362671,9.843050956726074,-0.0003212556723818955,0.0024648247686388392,0.006190564767267726,3.0450005531311035,2019-06-18 15:19:50:998
-0.08780349791049957,-0.15135537087917328,9.910103797912598,0.0008774594992974871,0.0025980153324334514,-0.0018008697105948246,3.0491209030151367,2019-06-18 15:19:51:002
-0.04948750138282776,-0.1824871152639389,9.787971496582031,0.0026089368936460283,0.0032639681514065122,-0.0016676791468002124,3.0549988746643066,2019-06-18 15:19:51:008
-0.03511900454759598,-0.13219736516475677,9.831077575683594,-0.00018806509233263786,0.0023316342048442266,0.00166208520813942,3.059115409851074,2019-06-18 15:19:51:012
-0.05667174980044365,-0.1369868665933609,9.778392791748047,0.0036744614040029266,0.0020652529472178394,0.0029939909761227054,3.064995765686035,2019-06-18 15:19:51:018
-0.07582975178956985,-0.15853960812091827,9.826288223266602,-0.0007208273962750229,0.002864396460022676,-0.0006021545714247328,3.0691375732421875,2019-06-18 15:19:51:022
-0.07343500107526779,-0.1896713674068451,9.826288223266602,0.0032748897126190896,0.0006001567454771042,-0.0022004415320158242,3.075009822845459,2019-06-18 15:19:51:028
-0.0662507489323616,-0.1561448574066162,9.780787467956543,0.004207223659181376,-0.0011313207138900182,-0.0024668226596050486,3.079115867614746,2019-06-18 15:19:51:032
-0.054277002811431885,-0.15135537087917328,9.790366172790527,0.004873176478154437,0.0006001567454771042,-0.0004689640076301205,3.085015296936035,2019-06-18 15:19:51:038
-0.08780349791049957,-0.13459211587905884,9.831077575683594,0.002209365202262191,0.0020652529472178394,0.000996132259129196,3.0891170501708984,2019-06-18 15:19:51:042
-0.10696149617433548,-0.18727661669254303,9.84544563293457,-0.0008540179600696353,0.0002005850053293314,-0.0010017262628085697,3.094996929168701,2019-06-18 15:19:51:048
-0.05906650051474571,-0.16093435883522034,9.876577377319336,-0.0012535897164720534,0.003397158715201125,0.0017952757719340324,3.099119186401367,2019-06-18 15:19:51:052
-0.061461251229047775,-0.14656586945056915,9.866998672485352,0.001676602947083742,0.001798871819628615,-0.0018008697105948246,3.1049962043762207,2019-06-18 15:19:51:058
-0.0662507489323616,-0.14177636802196503,9.838261604309082,-0.0029850670458020133,0.008857972350928878,-0.0011349168916217633,3.1091156005859375,2019-06-18 15:19:51:062
-0.06385599821805954,-0.1561448574066162,9.855024337768555,-0.0033846387371858503,-0.00019898671856379607,0.003393562667506543,3.1150007247924805,2019-06-18 15:19:51:068
-0.07104025036096573,-0.17290811240673065,9.857419967651367,0.0034080802764137014,-0.000598558458711569,-0.0016676791468002124,3.1191225051879883,2019-06-18 15:19:51:072
-0.1452774852514267,-0.14656586945056915,9.80473518371582,-0.0028518764820074007,0.0008665378730663289,0.0003301794401561345,3.124997615814209,2019-06-18 15:19:51:078
-0.08061924576759338,-0.13459211587905884,9.768814086914062,-0.0003212556723818955,-0.0008649395863007935,0.000996132259129196,3.130013942718506,2019-06-18 15:19:51:083
-0.0925929993391037,-0.17530286312103271,9.859814643859863,0.0019429840746729666,0.0007333473092717165,-6.939229186431566e-05,3.134126663208008,2019-06-18 15:19:51:087
-0.10935624688863754,-0.1824871152639389,9.787971496582031,0.0010106500630920993,0.001399300128244778,-0.000735345135219345,3.140026569366455,2019-06-18 15:19:51:093
-0.06385599821805954,-0.2016451060771942,9.898130416870117,0.0003446972116097473,-0.00019898671856379607,0.0025944190246645436,3.1450042724609375,2019-06-18 15:19:51:098
-0.07582975178956985,-0.15375012159347534,9.84544563293457,7.831605963855469e-05,0.002997587023817288,0.002461228460869931,3.1491150856018066,2019-06-18 15:19:51:102
-0.07343500107526779,-0.1633291095495224,9.840656280517578,0.00021150663156048962,0.0012661095644501657,-0.0004689640076301205,3.154998302459717,2019-06-18 15:19:51:108
-0.07582975178956985,-0.15853960812091827,9.823892593383789,-0.0019195425354451149,0.0009997284368609412,-0.0026000132233996607,3.15911865234375,2019-06-18 15:19:51:112
-0.06864549964666367,-0.17769761383533478,9.859814643859863,-0.0012535897164720534,-0.00299598860701459,-0.001934060274389437,3.1650028228759766,2019-06-18 15:19:51:118
-0.061461251229047775,-0.1633291095495224,9.831077575683594,0.004074033095386763,0.0008665378730663289,0.0021948473332807066,3.1691160202026367,2019-06-18 15:19:51:122
-0.06385599821805954,-0.15375012159347534,9.814313888549805,0.00021150663156048962,-0.00046536786240766596,0.0021948473332807066,3.1750130653381348,2019-06-18 15:19:51:128
-0.09019824862480164,-0.12022361904382706,9.8167085647583,-0.00045444623617650777,0.00033377558537858905,0.0017952757719340324,3.1791296005249023,2019-06-18 15:19:51:132
-0.047092754393815994,-0.18009236454963684,9.852629661560059,0.0050063673020233745,0.006460541682477208,-0.00020258286378625062,3.184999465942383,2019-06-18 15:19:51:138
-0.08061924576759338,-0.16572386026382446,9.783182144165039,-0.0025854953544181764,-0.0021968452242469164,-0.0011349168916217633,3.189117431640625,2019-06-18 15:19:51:142
-0.05906650051474571,-0.18009236454963684,9.809524536132812,0.0010106500630920993,0.0053950171721203095,6.379828412128062e-05,3.194998264312744,2019-06-18 15:19:51:148
-0.054277002811431885,-0.17769761383533478,9.795156478881836,0.0027421274574406405,0.0015324906920393903,-0.0003357734438355082,3.2000045776367188,2019-06-18 15:19:51:153
-0.05188225209712982,-0.15853960812091827,9.819103240966797,0.0027421274574406405,0.0021984436410496144,0.002860800412328093,3.204136848449707,2019-06-18 15:19:51:157
-0.04230325296521187,-0.1561448574066162,9.859814643859863,0.00021150663156048962,0.0015324906920393903,-0.0016676791468002124,3.2100014686584473,2019-06-18 15:19:51:163
-0.027934754267334938,-0.18727661669254303,9.773603439331055,-0.00045444623617650777,-0.0011313207138900182,-0.003931918861345784,3.2141199111938477,2019-06-18 15:19:51:167
-0.04948750138282776,-0.15375012159347534,9.802340507507324,-0.0005876368324804107,0.0002005850053293314,-0.0035323471699619468,3.2200217247009277,2019-06-18 15:19:51:173
-0.08301399648189545,-0.16811861097812653,9.778392791748047,-0.00045444623617650777,0.0016656812558340024,0.0035267532313011545,3.2241334915161133,2019-06-18 15:19:51:177
-0.09498775005340576,-0.1705133616924286,9.792760848999023,-0.0016531614078558903,0.0004669661491732013,0.0008629416953345836,3.2300033569335938,2019-06-18 15:19:51:183
-0.039908502250909805,-0.1968556046485901,9.819103240966797,0.005405938733332886,0.005528207995989247,0.0004633700039507468,3.2341184616088867,2019-06-18 15:19:51:187
-0.054277002811431885,-0.16572386026382446,9.821497917175293,0.00473998617443415,0.001399300128244778,0.00499184943304189,3.2400217056274414,2019-06-18 15:19:51:193
-0.061461251229047775,-0.1633291095495224,9.838261604309082,0.0028753180212352527,0.0015324906920393903,-0.0008685356990139574,3.2441234588623047,2019-06-18 15:19:51:197
-0.06864549964666367,-0.15853960812091827,9.83347225189209,0.001143840691905293,0.005128636044531084,0.0029939909761227054,3.2500123977661133,2019-06-18 15:19:51:203
-0.04230325296521187,-0.1705133616924286,9.876577377319336,0.0028753180212352527,0.005128636044531084,-0.004464681376598559,3.254117488861084,2019-06-18 15:19:51:207
-0.09738249331712723,-0.1441711187362671,9.807129859924316,0.001143840691905293,0.0024648247686388392,0.002061656899523257,3.2599992752075195,2019-06-18 15:19:51:213
-0.07822450250387192,-0.1705133616924286,9.8167085647583,0.002076174638467579,0.005261826868400022,-0.0015344885830056003,3.2641215324401855,2019-06-18 15:19:51:217
-0.06864549964666367,-0.1705133616924286,9.864603996276855,-0.0015199708440612782,0.0021984436410496144,-0.0008685356990139574,3.2700119018554688,2019-06-18 15:19:51:223
-0.09498775005340576,-0.15375012159347534,9.850234985351562,-0.0036510198647750746,0.0021984436410496144,0.001528894514307645,3.2750110626220703,2019-06-18 15:19:51:228
-0.06864549964666367,-0.17530286312103271,9.835866928100586,-0.0003212556723818955,-0.0012645112776846303,-0.0026000132233996607,3.2800045013427734,2019-06-18 15:19:51:233
-0.054277002811431885,-0.15853960812091827,9.773603439331055,0.0014102218194945173,0.001798871819628615,0.0001969888601068769,3.2850022315979004,2019-06-18 15:19:51:238
-0.039908502250909805,-0.15375012159347534,9.797551155090332,0.003541270840208314,0.0049954457408107975,0.00326037210371193,3.289133071899414,2019-06-18 15:19:51:242
-0.06385599821805954,-0.17530286312103271,9.847840309143066,-0.0012535897164720534,0.0036635398427903496,0.0003301794401561345,3.295009136199951,2019-06-18 15:19:51:248
-0.07582975178956985,-0.14656586945056915,9.859814643859863,-0.0011203991526774412,0.0016656812558340024,0.0040595154864796045,3.2991175651550293,2019-06-18 15:19:51:252
-0.061461251229047775,-0.1441711187362671,9.807129859924316,0.0004778877754043595,0.002997587023817288,-0.0011349168916217633,3.304997444152832,2019-06-18 15:19:51:258
-0.07822450250387192,-0.16093435883522034,9.843050956726074,-0.00018806509233263786,0.004462683485632349,0.002461228460869931,3.3091211318969727,2019-06-18 15:19:51:262
-0.05906650051474571,-0.18488186597824097,9.847840309143066,0.0027421274574406405,0.0012661095644501657,-0.004464681376598559,3.315002918243408,2019-06-18 15:19:51:268
-0.0662507489323616,-0.17290811240673065,9.797551155090332,-0.0019195425354451149,0.0036635398427903496,0.001528894514307645,3.319124221801758,2019-06-18 15:19:51:272
-0.07582975178956985,-0.15135537087917328,9.881366729736328,0.0014102218194945173,0.0053950171721203095,0.004325896614068829,3.3249974250793457,2019-06-18 15:19:51:278
-0.09019824862480164,-0.1633291095495224,9.840656280517578,-0.00018806509233263786,-0.0003321772986130537,0.00326037210371193,3.3300061225891113,2019-06-18 15:19:51:283
-0.09738249331712723,-0.1441711187362671,9.831077575683594,0.003541270840208314,0.0021984436410496144,0.000996132259129196,3.334138870239258,2019-06-18 15:19:51:287
-0.11414574086666107,-0.1705133616924286,9.84544563293457,-0.0012535897164720534,0.008724781527059942,-0.0003357734438355082,3.3400096893310547,2019-06-18 15:19:51:293
-0.04469800367951393,-0.17530286312103271,9.828682899475098,-0.0005876368324804107,0.001798871819628615,0.00166208520813942,3.344122886657715,2019-06-18 15:19:51:297
-0.08061924576759338,-0.2088293582201004,9.797551155090332,0.001143840691905293,0.001399300128244778,0.00792204183652336,3.3500003814697266,2019-06-18 15:19:51:303
-0.07343500107526779,-0.18727661669254303,9.790366172790527,0.0028753180212352527,0.0023316342048442266,-0.0008685356990139574,3.3541183471679688,2019-06-18 15:19:51:307
-0.061461251229047775,-0.1824871152639389,9.790366172790527,-0.0021859236630343394,-0.00446108506882965,0.003393562667506543,3.36000919342041,2019-06-18 15:19:51:313
-0.09019824862480164,-0.14896062016487122,9.857419967651367,0.001676602947083742,0.0009997284368609412,-0.0016676791468002124,3.3650035858154297,2019-06-18 15:19:51:318
-0.061461251229047775,-0.1441711187362671,9.886157035827637,-0.00018806509233263786,0.0036635398427903496,0.002061656899523257,3.36911678314209,2019-06-18 15:19:51:322
-0.0925929993391037,-0.1441711187362671,9.780787467956543,0.0019429840746729666,0.006060970251167696,-0.0020672508381840496,3.375,2019-06-18 15:19:51:328
-0.10935624688863754,-0.1561448574066162,9.8167085647583,-0.0007208273962750229,0.004595873789352636,0.0040595154864796045,3.3791251182556152,2019-06-18 15:19:51:332
-0.08540874719619751,-0.1561448574066162,9.821497917175293,-0.003917400992364299,0.003796730406584962,0.0005965605677453591,3.3850011825561523,2019-06-18 15:19:51:338
-0.09019824862480164,-0.12501311302185059,9.807129859924316,0.0028753180212352527,0.006993303937655657,0.004192706050274216,3.389115810394287,2019-06-18 15:19:51:342
-0.05188225209712982,-0.18727661669254303,9.740077018737793,-0.0008540179600696353,0.0027312058962280636,0.004325896614068829,3.3949966430664062,2019-06-18 15:19:51:348
-0.06385599821805954,-0.1824871152639389,9.766419410705566,-0.0020527330992397273,0.0025980153324334514,0.0001969888601068769,3.3991169929504395,2019-06-18 15:19:51:352
-0.11414574086666107,-0.14896062016487122,9.831077575683594,0.0027421274574406405,0.0002005850053293314,-0.0010017262628085697,3.4050045013427734,2019-06-18 15:19:51:358
-0.07822450250387192,-0.16093435883522034,9.814313888549805,-0.00045444623617650777,0.0015324906920393903,0.0003301794401561345,3.4091224670410156,2019-06-18 15:19:51:362
-0.12132999300956726,-0.17769761383533478,9.869393348693848,-0.0028518764820074007,0.001399300128244778,-0.0023336320958104364,3.4149975776672363,2019-06-18 15:19:51:368
-0.07343500107526779,-0.16811861097812653,9.799945831298828,0.001143840691905293,0.0004669661491732013,0.003793134358890379,3.4191184043884277,2019-06-18 15:19:51:372
-0.08061924576759338,-0.1968556046485901,9.826288223266602,0.006604654067558721,0.0016656812558340024,0.006190564767267726,3.4250001907348633,2019-06-18 15:19:51:378
-0.05906650051474571,-0.2016451060771942,9.847840309143066,-0.0016531614078558903,0.003530349278995737,-0.006196158445854193,3.4291210174560547,2019-06-18 15:19:51:382
-0.05906650051474571,-0.1441711187362671,9.795156478881836,-0.0021859236630343394,0.0016656812558340024,-0.0003357734438355082,3.434997081756592,2019-06-18 15:19:51:388
-0.09738249331712723,-0.17530286312103271,9.883761405944824,-0.0019195425354451149,0.0009997284368609412,-0.0012681074554163755,3.4391183853149414,2019-06-18 15:19:51:392
-0.09738249331712723,-0.1968556046485901,9.8167085647583,-0.0020527330992397273,-0.0003321772986130537,0.0001969888601068769,3.4449996948242188,2019-06-18 15:19:51:398
-0.07104025036096573,-0.13459211587905884,9.8167085647583,0.002209365202262191,0.0032639681514065122,-0.000735345135219345,3.4500155448913574,2019-06-18 15:19:51:403
-0.07582975178956985,-0.17290811240673065,9.80473518371582,0.002076174638467579,0.0015324906920393903,0.004725468305452665,3.4550046920776367,2019-06-18 15:19:51:408
-0.07343500107526779,-0.16572386026382446,9.847840309143066,0.0007442689355028748,0.0049954457408107975,0.0005965605677453591,3.459117889404297,2019-06-18 15:19:51:412
-0.05188225209712982,-0.1705133616924286,9.790366172790527,0.0006110783717082625,0.00486225491694186,-0.0014012980192109879,3.465001106262207,2019-06-18 15:19:51:418
-0.054277002811431885,-0.16572386026382446,9.787971496582031,-0.003917400992364299,0.0011329190006555533,-0.0003357734438355082,3.470022678375244,2019-06-18 15:19:51:423
-0.05667174980044365,-0.18727661669254303,9.857419967651367,0.0003446972116097473,0.004196302097968799,-0.000735345135219345,3.474116325378418,2019-06-18 15:19:51:427
-0.05188225209712982,-0.18009236454963684,9.840656280517578,0.00154341238328913,0.008591591223339655,-0.0008685356990139574,3.4800024032592773,2019-06-18 15:19:51:433
-0.06385599821805954,-0.17769761383533478,9.835866928100586,-0.00018806509233263786,0.00486225491694186,0.00166208520813942,3.48500394821167,2019-06-18 15:19:51:438
-0.05906650051474571,-0.17290811240673065,9.819103240966797,-0.0020527330992397273,0.0011329190006555533,0.0013957039505130327,3.4891180992126465,2019-06-18 15:19:51:442
-0.061461251229047775,-0.1824871152639389,9.766419410705566,-0.0033846387371858503,0.0011329190006555533,0.0017952757719340324,3.495011329650879,2019-06-18 15:19:51:448
-0.08540874719619751,-0.18009236454963684,9.864603996276855,-0.0005876368324804107,-0.0017972735328630795,0.007256089277624623,3.4991283416748047,2019-06-18 15:19:51:452
-0.08780349791049957,-0.1561448574066162,9.811919212341309,-0.0003212556723818955,0.0008665378730663289,6.379828412128062e-05,3.505000114440918,2019-06-18 15:19:51:458
-0.04230325296521187,-0.16572386026382446,9.821497917175293,0.0028753180212352527,-0.000598558458711569,-0.0020672508381840496,3.50911808013916,2019-06-18 15:19:51:462
-0.0925929993391037,-0.18009236454963684,9.77599811553955,0.0030085085850298653,0.0036635398427903496,-0.005796587014544681,3.5150089263916016,2019-06-18 15:19:51:468
-0.07104025036096573,-0.18009236454963684,9.783182144165039,0.004340414222975988,-0.0011313207138900182,0.003659943795095767,3.5191164016723633,2019-06-18 15:19:51:472
-0.07104025036096573,-0.1633291095495224,9.799945831298828,0.0018097935108783545,0.0039299209703795735,-0.001934060274389437,3.5250015258789062,2019-06-18 15:19:51:478
