ACCELEROMETER X (m/s²),ACCELEROMETER Y (m/s²),ACCELEROMETER Z (m/s²),GYROSCOPE X (rad/s),GYROSCOPE Y (rad/s),GYROSCOPE Z (rad/s),Time since start in ms ,YYYY-MO-DD HH-MI-SS_SSS,MagX,MagY,MagZ
-0.05659512057900429,0.09873313456773758,9.8961763381958,-0.0028342954576236743,-0.002346018655696882,-0.002076707400722757,0.0,2019-06-20 11:07:14:048,0.0,0.0,0.0
-0.0494108721613884,0.06520663946866989,9.824334144592285,0.0006286595261291513,-0.0028787809108753314,5.4341754091863145e-05,0.0049915313720703125,2019-06-20 11:07:14:053,0.0,0.0,0.0
-0.008700125850737095,0.10831213742494583,9.769254684448242,-0.0020351519448188384,-0.006208545265814964,0.0044496308753990575,0.010030269622802734,2019-06-20 11:07:14:058,0.0,0.0,0.0
-0.06617411971092224,0.10112788528203964,9.850675582885742,-0.00429939165936441,-0.008739166237986921,-0.0027426603497329814,0.014995574951171875,2019-06-20 11:07:14:063,0.0,0.0,0.0
-0.05659512057900429,0.05562764033675194,9.87462329864502,0.0006286595261291513,-0.0016800658367238208,-0.001943516836928145,0.019997119903564453,2019-06-20 11:07:14:068,0.0,0.0,0.0
0.0008788731647655368,0.10591738671064377,9.778833389282227,-0.0025679143300344504,-0.006474926393404189,0.0028513438497893852,0.024983882904052734,2019-06-20 11:07:14:073,0.0,0.0,0.0
-0.02306862361729145,0.09633838385343552,9.83391284942627,-0.0011028179982565524,-0.007806832031350311,0.0013862475180114872,0.029995441436767578,2019-06-20 11:07:14:078,0.0,0.0,0.0
-0.027858123183250427,0.07957513630390167,9.867439270019531,0.0010282312175129882,-0.0012804941453399838,-0.004607328502931879,0.03499412536621094,2019-06-20 11:07:14:083,0.0,0.0,0.0
-0.05180561915040016,0.10591738671064377,9.76446533203125,-0.0008364368056487465,-0.010470643307242556,-0.0008779922615526655,0.039998531341552734,2019-06-20 11:07:14:088,0.0,0.0,0.0
-0.01588437519967556,0.10831213742494583,9.81714916229248,-0.0015023896896403893,-0.007940022855219248,0.0007202946340198446,0.04499483108520508,2019-06-20 11:07:14:093,0.0,0.0,0.0
-0.07096362113952637,0.07239089161157608,9.867439270019531,-0.0007032462418541342,-0.0063417360896839015,-0.002476279222143757,0.04999876022338867,2019-06-20 11:07:14:098,0.0,0.0,0.0
-0.039831873029470444,0.09154888242483139,9.802781105041504,-0.001369199125845777,0.0009837455692055877,0.001652628645600712,0.05499458312988281,2019-06-20 11:07:14:103,0.0,0.0,0.0
-0.0063053760677576065,0.06520663946866989,9.759675025939941,0.0003622783660306361,-0.004477067676410679,0.001652628645600712,0.0599980354309082,2019-06-20 11:07:14:108,0.0,0.0,0.0
0.0032736228313297033,0.09873313456773758,9.83391284942627,0.002892899305693304,-0.006608117217273125,-0.0016771357093389207,0.06499433517456055,2019-06-20 11:07:14:113,0.0,0.0,0.0
-0.061384618282318115,0.04844339191913605,9.841096878051758,0.0004954689298252484,-0.0026123997832861066,0.005381964561887018,0.06999826431274414,2019-06-20 11:07:14:118,0.0,0.0,0.0
-0.032647620886564255,0.10112788528203964,9.790806770324707,0.0007618500899237635,-0.004477067676410679,0.00018753233007745944,0.0749974250793457,2019-06-20 11:07:14:123,0.0,0.0,0.0
0.022431619465351105,0.09154888242483139,9.752490997314453,-0.00017048393791174905,-0.009937881052064107,0.005781536513345181,0.07999897003173828,2019-06-20 11:07:14:128,0.0,0.0,0.0
-0.08293736726045609,0.08915413916110992,9.843491554260254,0.0006286595261291513,-0.00540940188304729,0.002318581594610936,0.08499574661254883,2019-06-20 11:07:14:133,0.0,0.0,0.0
-0.0494108721613884,0.09394363313913345,9.807570457458496,9.58972140594435e-05,-0.003411543426128106,0.0015194380818060996,0.08999872207641602,2019-06-20 11:07:14:138,0.0,0.0,0.0
-0.008700125850737095,0.11310163140296936,9.781228065490723,9.58972140594435e-05,-0.009671500444623534,-0.0016771357093389207,0.09499502182006836,2019-06-20 11:07:14:143,0.0,0.0,0.0
-0.0685688704252243,0.07478563487529755,9.912939071655273,-0.004166201095569797,-0.009138738189445085,0.0031177249773786096,0.09999704360961914,2019-06-20 11:07:14:148,0.0,0.0,0.0
-0.054200369864702225,0.08915413916110992,9.888992309570312,0.002360137050514855,0.0036475569751349963,-0.0012775640179550837,0.1049952507019043,2019-06-20 11:07:14:153,0.0,0.0,0.0
-0.05180561915040016,0.09154888242483139,9.838702201843262,0.0018273746652992433,-0.005143020755458065,5.4341754091863145e-05,0.11007404327392578,2019-06-20 11:07:14:158,0.0,0.0,0.0
-0.05180561915040016,0.10591738671064377,9.771649360656738,-0.004166201095569797,-0.007806832031350311,-0.00021203939381566809,0.11508798599243164,2019-06-20 11:07:14:163,0.0,0.0,0.0
-0.06617411971092224,0.10112788528203964,9.93688678741455,-0.001369199125845777,-0.004477067676410679,-0.002609469785938369,0.12000608444213867,2019-06-20 11:07:14:168,0.0,0.0,0.0
-0.0063053760677576065,0.09873313456773758,9.809965133666992,-0.001369199125845777,-0.00540940188304729,0.0008534851978144569,0.12499570846557617,2019-06-20 11:07:14:173,0.0,0.0,0.0
0.005668372381478548,0.12747013568878174,9.783622741699219,-3.7293361926152775e-05,-0.004876639627868841,-0.0007448016977580532,0.13002634048461914,2019-06-20 11:07:14:178,0.0,0.0,0.0
-0.07096362113952637,0.08915413916110992,9.819543838500977,-0.0008364368056487465,-0.005808973834505452,0.0013862475180114872,0.13500165939331055,2019-06-20 11:07:14:183,0.0,0.0,0.0
-0.054200369864702225,0.07957513630390167,9.80517578125,0.0011614218463261818,-0.004343877372690392,-0.002476279222143757,0.13999700546264648,2019-06-20 11:07:14:188,0.0,0.0,0.0
0.06793186813592911,0.09873313456773758,9.769254684448242,0.002892899305693304,-0.008739166237986921,-0.0006116111339634409,0.14500188827514648,2019-06-20 11:07:14:193,0.0,0.0,0.0
-0.05659512057900429,0.08915413916110992,9.790806770324707,-0.0023015332024452257,-0.006741307520993413,-7.884882189373314e-05,0.15001726150512695,2019-06-20 11:07:14:198,0.0,0.0,0.0
-0.061384618282318115,0.09154888242483139,9.81714916229248,-0.0017687708172296136,-0.003011971474669944,-0.004474137679062942,0.15500259399414062,2019-06-20 11:07:14:203,0.0,0.0,0.0
-0.025463374331593513,0.07957513630390167,9.771649360656738,-0.0031006765852128995,-0.005942164138225739,-0.00021203939381566809,0.1600022315979004,2019-06-20 11:07:14:208,0.0,0.0,0.0
0.005668372381478548,0.07239089161157608,9.75488567352295,0.0004954689298252484,-0.009405118796885659,-0.0016771357093389207,0.1649947166442871,2019-06-20 11:07:14:213,0.0,0.0,0.0
-0.09012161195278168,0.06999614089727402,9.869833946228027,0.00022908778598137848,-0.0008809224539561469,0.0020522003369845485,0.1700000762939453,2019-06-20 11:07:14:218,0.0,0.0,0.0
-0.0063053760677576065,0.08196988701820374,9.824334144592285,-0.0020351519448188384,-0.0040774962451011676,-0.0011443734541604713,0.17499399185180664,2019-06-20 11:07:14:223,0.0,0.0,0.0
0.005668372381478548,0.09873313456773758,9.797991752624512,0.0003622783660306361,-0.005808973834505452,-0.001943516836928145,0.18000555038452148,2019-06-20 11:07:14:228,0.0,0.0,0.0
-0.061384618282318115,0.09154888242483139,9.867439270019531,-0.0031006765852128995,-0.0075404509037610866,0.004183249487735508,0.1849956512451172,2019-06-20 11:07:14:233,0.0,0.0,0.0
-0.054200369864702225,0.060417141765356064,9.831518173217773,-0.00043686508175561897,-0.0020796375281076575,-0.003275422604911431,0.1900029182434082,2019-06-20 11:07:14:238,0.0,0.0,0.0
-0.0063053760677576065,0.10112788528203964,9.788412094116211,-0.0003036745179610067,-0.006208545265814964,0.003916868360146284,0.1949915885925293,2019-06-20 11:07:14:243,0.0,0.0,0.0
-0.03504237160086632,0.1035226359963417,9.838702201843262,-0.0005700556780595219,-0.007274069776171861,0.0021853910308163235,0.20000123977661133,2019-06-20 11:07:14:248,0.0,0.0,0.0
-0.025463374331593513,0.053232889622449875,9.848280906677246,-0.0023015332024452257,-0.0011473035815453717,5.4341754091863145e-05,0.20499658584594727,2019-06-20 11:07:14:253,0.0,0.0,0.0
-0.04222662001848221,0.07957513630390167,9.814754486083984,-0.0027011048938290626,-0.008073213158939536,0.0011198663904222626,0.2100367546081543,2019-06-20 11:07:14:258,0.0,0.0,0.0
0.005668372381478548,0.13225963711738586,9.831518173217773,0.0011614218463261818,-0.006474926393404189,0.002718153285994773,0.2150254249572754,2019-06-20 11:07:14:263,0.0,0.0,0.0
-0.018279124051332474,0.12747013568878174,9.862649917602539,-0.0008364368056487465,-0.004210686808895779,-0.004607328502931879,0.22000551223754883,2019-06-20 11:07:14:268,0.0,0.0,0.0
-0.07814786583185196,0.038864392787218094,9.87462329864502,0.003292470997077141,-0.0028787809108753314,0.0028513438497893852,0.22499942779541016,2019-06-20 11:07:14:273,0.0,0.0,0.0
0.005668372381478548,0.12747013568878174,9.821938514709473,-0.0031006765852128995,-0.004210686808895779,-0.002875850913527594,0.23000049591064453,2019-06-20 11:07:14:278,0.0,0.0,0.0
-0.09970061480998993,0.12028588354587555,9.814754486083984,-0.0023015332024452257,-0.005009829931589127,0.0011198663904222626,0.23499441146850586,2019-06-20 11:07:14:283,0.0,0.0,0.0
-0.0757531151175499,0.06999614089727402,9.836307525634766,9.58972140594435e-05,0.00031779271772323556,0.001652628645600712,0.23999452590942383,2019-06-20 11:07:14:288,0.0,0.0,0.0
0.017642121762037277,0.1035226359963417,9.819543838500977,0.0031592804332825283,-0.007407260600040799,-0.00047842053765953795,0.24498891830444336,2019-06-20 11:07:14:293,0.0,0.0,0.0
-0.04222662001848221,0.11789113283157349,9.80517578125,-0.0016355802534350015,-0.008605975414117985,0.0007202946340198446,0.2500014305114746,2019-06-20 11:07:14:298,0.0,0.0,0.0
-0.05659512057900429,0.10831213742494583,9.922518730163574,-0.0011028179982565524,-0.0003481601662684072,-0.0035418037325006552,0.25499868392944336,2019-06-20 11:07:14:303,0.0,0.0,0.0
0.017642121762037277,0.08915413916110992,9.771649360656738,0.0003622783660306361,-0.008073213158939536,-0.002875850913527594,0.2599959373474121,2019-06-20 11:07:14:308,0.0,0.0,0.0
0.008063122630119324,0.1107068806886673,9.862649917602539,0.0003622783660306361,-0.004610258500279616,0.0028513438497893852,0.2649979591369629,2019-06-20 11:07:14:313,0.0,0.0,0.0
-0.03025287203490734,0.07718038558959961,9.824334144592285,0.0004954689298252484,-0.002346018655696882,0.002318581594610936,0.27001094818115234,2019-06-20 11:07:14:318,0.0,0.0,0.0
-0.020673874765634537,0.15860188007354736,9.812359809875488,0.0018273746652992433,-0.00048135073006301944,5.4341754091863145e-05,0.274996280670166,2019-06-20 11:07:14:323,0.0,0.0,0.0
-0.0494108721613884,0.1370491236448288,9.73572826385498,-0.00576448812117947,-0.003411543426128106,0.001652628645600712,0.28011083602905273,2019-06-20 11:07:14:328,0.0,0.0,0.0
-0.11167436093091965,0.10831213742494583,9.812359809875488,-0.0025679143300344504,-0.004477067676410679,-0.0036749942962952674,0.28502798080444336,2019-06-20 11:07:14:333,0.0,0.0,0.0
-0.05659512057900429,0.07478563487529755,9.745306968688965,-0.002434723766239838,-0.00887235654170721,5.4341754091863145e-05,0.29000139236450195,2019-06-20 11:07:14:338,0.0,0.0,0.0
-0.039831873029470444,-0.023399099707603455,9.77643871307373,-0.001369199125845777,-0.010071072396081696,0.0011198663904222626,0.2949995994567871,2019-06-20 11:07:14:343,0.0,0.0,0.0
-0.061384618282318115,0.06760139018297195,9.860255241394043,0.003292470997077141,-0.00687449834486235,0.004982393130577507,0.30000734329223633,2019-06-20 11:07:14:348,0.0,0.0,0.0
-0.0757531151175499,0.11789113283157349,9.886597633361816,0.003958423816050202,-0.0015468752729292082,0.005115583434297794,0.304995059967041,2019-06-20 11:07:14:353,0.0,0.0,0.0
0.02003687061369419,0.1825493723154068,9.831518173217773,-0.0009696273694433586,-0.0008809224539561469,0.0009866757616090692,0.31003427505493164,2019-06-20 11:07:14:358,0.0,0.0,0.0
-0.027858123183250427,0.12747013568878174,9.797991752624512,-0.003899819967980573,0.001516507824384037,-0.001011182825347278,0.31499481201171875,2019-06-20 11:07:14:363,0.0,0.0,0.0
-0.04222662001848221,0.05083814263343811,9.786017417907715,-0.004965344738411796,-8.177901429721461e-05,0.0017858192093953241,0.32001161575317383,2019-06-20 11:07:14:368,0.0,0.0,0.0
-0.0685688704252243,0.03646964207291603,9.795597076416016,-0.0009696273694433586,-0.004343877372690392,0.003916868360146284,0.3249993324279785,2019-06-20 11:07:14:373,0.0,0.0,0.0
-0.0757531151175499,0.1370491236448288,9.740517616271973,0.002360137050514855,-0.01380040818233084,0.0013862475180114872,0.3300032615661621,2019-06-20 11:07:14:378,0.0,0.0,0.0
-0.061384618282318115,0.17775987088680267,9.77643871307373,-0.0020351519448188384,-0.011269787210158881,-0.004474137679062942,0.33499574661254883,2019-06-20 11:07:14:383,0.0,0.0,0.0
-0.011094875633716583,0.12747013568878174,9.865044593811035,-0.0020351519448188384,-0.00887235654170721,-0.002609469785938369,0.3399996757507324,2019-06-20 11:07:14:388,0.0,0.0,0.0
0.0008788731647655368,0.07478563487529755,9.809965133666992,-0.00017048393791174905,-0.004343877372690392,0.005648345689476243,0.34466123580932617,2019-06-20 11:07:14:393,0.0,0.0,0.0
0.051168616861104965,0.046048641204833984,9.848280906677246,0.004624376895097589,0.0023156513371888733,0.0007202946340198446,0.3494720458984375,2019-06-20 11:07:14:398,0.0,0.0,0.0
-0.011094875633716583,0.1107068806886673,9.836307525634766,0.0016941841015046311,0.003114794719956547,-0.002076707400722757,0.3544430732727051,2019-06-20 11:07:14:403,0.0,0.0,0.0
-0.07335836440324783,0.13225963711738586,9.865044593811035,-0.0023015332024452257,0.003114794719956547,0.0013862475180114872,0.3585333824157715,2019-06-20 11:07:14:407,0.0,0.0,0.0
-0.01588437519967556,0.1370491236448288,9.783622741699219,0.0010282312175129882,-0.004876639627868841,-0.00021203939381566809,0.364408016204834,2019-06-20 11:07:14:413,0.0,0.0,0.0
-0.039831873029470444,0.07718038558959961,9.757280349731445,-0.004965344738411796,-0.013933598486051128,-0.00047842053765953795,0.3685431480407715,2019-06-20 11:07:14:417,0.0,0.0,0.0
-0.04462137073278427,0.019706394523382187,9.831518173217773,-0.00043686508175561897,-0.00980469074834382,0.0020522003369845485,0.37443113327026367,2019-06-20 11:07:14:423,0.0,0.0,0.0
-0.01588437519967556,0.0843646377325058,9.872228622436523,0.0015609935377100185,-0.007673641727630024,0.0019190097731899363,0.3785395622253418,2019-06-20 11:07:14:427,0.0,0.0,0.0
0.0008788731647655368,0.17057561874389648,9.850675582885742,-0.0021683425086134506,-0.0075404509037610866,-0.0015439451455443083,0.384432315826416,2019-06-20 11:07:14:433,0.0,0.0,0.0
-0.04222662001848221,0.12028588354587555,9.879412651062012,-0.004166201095569797,-8.177901429721461e-05,0.000320722910126717,0.38945436477661133,2019-06-20 11:07:14:438,0.0,0.0,0.0
-0.020673874765634537,0.09633838385343552,9.81714916229248,-0.004565772786953634,0.003247985283751159,-0.003941375423884492,0.39353227615356445,2019-06-20 11:07:14:442,0.0,0.0,0.0
-0.0685688704252243,0.05562764033675194,9.809965133666992,0.0004954689298252484,-0.0016800658367238208,0.004183249487735508,0.3985323905944824,2019-06-20 11:07:14:447,0.0,0.0,0.0
-0.0063053760677576065,0.06760139018297195,9.690227508544922,-0.002434723766239838,-0.0003481601662684072,-0.002476279222143757,0.4044170379638672,2019-06-20 11:07:14:453,0.0,0.0,0.0
-0.05898986756801605,0.1107068806886673,9.783622741699219,-0.00043686508175561897,-0.008605975414117985,-0.0011443734541604713,0.40855836868286133,2019-06-20 11:07:14:457,0.0,0.0,0.0
-0.11646386235952377,0.11549638211727142,9.769254684448242,-3.7293361926152775e-05,-0.008739166237986921,0.001652628645600712,0.4135298728942871,2019-06-20 11:07:14:462,0.0,0.0,0.0
-0.039831873029470444,0.12507538497447968,9.857860565185547,0.001294612410120794,-0.010204262699801982,0.00045391347392132933,0.41941261291503906,2019-06-20 11:07:14:468,0.0,0.0,0.0
-0.03504237160086632,0.14662812650203705,9.948861122131348,-0.0019019613810242262,-0.00887235654170721,0.0028513438497893852,0.42353296279907227,2019-06-20 11:07:14:472,0.0,0.0,0.0
-0.054200369864702225,0.13465438783168793,9.865044593811035,-0.0012360085620511645,-0.0019464469643130453,0.000320722910126717,0.4285392761230469,2019-06-20 11:07:14:477,0.0,0.0,0.0
0.015247371047735214,0.10112788528203964,9.872228622436523,-0.006297250376357919,-0.0022128280919022697,0.001652628645600712,0.4344158172607422,2019-06-20 11:07:14:483,0.0,0.0,0.0
-0.0494108721613884,0.04125914350152016,9.795597076416016,-0.002967486021418287,0.000717364441616363,0.0020522003369845485,0.4385361671447754,2019-06-20 11:07:14:487,0.0,0.0,0.0
-0.06617411971092224,0.0316801443696022,9.795597076416016,0.0006286595261291513,-0.0012804941453399838,0.0011198663904222626,0.44353580474853516,2019-06-20 11:07:14:492,0.0,0.0,0.0
-0.008700125850737095,0.1562071293592453,9.723753929138184,-3.7293361926152775e-05,-0.00540940188304729,0.002718153285994773,0.4494204521179199,2019-06-20 11:07:14:498,0.0,0.0,0.0
-0.05180561915040016,0.17057561874389648,9.788412094116211,0.00022908778598137848,-0.009671500444623534,-0.00034522997386492567,0.454434871673584,2019-06-20 11:07:14:503,0.0,0.0,0.0
-0.0757531151175499,0.08915413916110992,9.853070259094238,-0.0031006765852128995,-0.007806832031350311,-0.0006116111339634409,0.4585433006286621,2019-06-20 11:07:14:507,0.0,0.0,0.0
-0.0015158765017986298,0.02210114523768425,9.788412094116211,-0.00017048393791174905,-0.008472785110397698,-0.001410754581749696,0.4635491371154785,2019-06-20 11:07:14:512,0.0,0.0,0.0
0.010457871481776237,0.038864392787218094,9.87462329864502,-0.0009696273694433586,-0.009271928493165372,0.0035172966687624465,0.4694228172302246,2019-06-20 11:07:14:518,0.0,0.0,0.0
-0.003910626284778118,0.11549638211727142,9.979992866516113,0.002360137050514855,-0.005542592706916228,0.000320722910126717,0.4735274314880371,2019-06-20 11:07:14:522,0.0,0.0,0.0
0.012852621264755726,0.1562071293592453,9.905755043029785,-0.0012360085620511645,0.003114794719956547,0.001253056954216875,0.47853565216064453,2019-06-20 11:07:14:527,0.0,0.0,0.0
0.012852621264755726,0.12507538497447968,9.797991752624512,-0.0032338671490075113,-0.0015468752729292082,-0.0012775640179550837,0.4844183921813965,2019-06-20 11:07:14:533,0.0,0.0,0.0
-0.018279124051332474,0.08915413916110992,9.79320240020752,-0.0036334388403913486,-0.003011971474669944,0.004716012002988282,0.4885377883911133,2019-06-20 11:07:14:537,0.0,0.0,0.0
-0.08054261654615402,0.04844339191913605,9.81714916229248,0.002360137050514855,-0.0031451620384645557,0.0024517721584055483,0.4945387840270996,2019-06-20 11:07:14:543,0.0,0.0,0.0
-0.047016121447086334,0.12507538497447968,9.747701644897461,0.002360137050514855,-0.003411543426128106,-0.0016771357093389207,0.4994215965270996,2019-06-20 11:07:14:548,0.0,0.0,0.0
0.0008788731647655368,0.14662812650203705,9.747701644897461,-0.0027011048938290626,-0.011003405562421005,0.0011198663904222626,0.5035252571105957,2019-06-20 11:07:14:552,0.0,0.0,0.0
-0.03025287203490734,0.13944387435913086,9.927308082580566,-0.003500248276596736,-0.0019464469643130453,-0.0030090414773222057,0.5085368156433105,2019-06-20 11:07:14:557,0.0,0.0,0.0
0.017642121762037277,0.060417141765356064,9.891386985778809,0.0006286595261291513,-0.003411543426128106,0.004716012002988282,0.5144190788269043,2019-06-20 11:07:14:563,0.0,0.0,0.0
0.024826370179653168,0.04125914350152016,9.750096321105957,-0.0016355802534350015,0.000717364441616363,-0.0023430886583491444,0.5185408592224121,2019-06-20 11:07:14:567,0.0,0.0,0.0
-0.03743712231516838,0.09154888242483139,9.84588623046875,0.003958423816050202,-0.0018132564005184332,0.0021853910308163235,0.523529052734375,2019-06-20 11:07:14:572,0.0,0.0,0.0
-0.06377936899662018,0.16099663078784943,9.807570457458496,-0.0027011048938290626,-8.177901429721461e-05,-0.005539662189419839,0.5294146537780762,2019-06-20 11:07:14:578,0.0,0.0,0.0
0.005668372381478548,0.17297036945819855,9.733333587646484,-0.002967486021418287,-0.003944305681306555,-7.884882189373314e-05,0.5335335731506348,2019-06-20 11:07:14:582,0.0,0.0,0.0
-0.05898986756801605,0.07957513630390167,9.77643871307373,-0.0003036745179610067,-0.011269787210158881,-0.0031422320411168183,0.5394201278686523,2019-06-20 11:07:14:588,0.0,0.0,0.0
-0.054200369864702225,0.07478563487529755,9.836307525634766,0.002892899305693304,-0.008339594286528761,0.005515155385755957,0.5435323715209961,2019-06-20 11:07:14:592,0.0,0.0,0.0
0.02003687061369419,0.07478563487529755,9.912939071655273,0.003958423816050202,-0.007673641727630024,0.002318581594610936,0.5494179725646973,2019-06-20 11:07:14:598,0.0,0.0,0.0
0.04637911915779114,0.1562071293592453,9.788412094116211,-0.0011028179982565524,-0.008339594286528761,0.004183249487735508,0.5535340309143066,2019-06-20 11:07:14:602,0.0,0.0,0.0
-0.032647620886564255,0.09873313456773758,9.860255241394043,-0.0021683425086134506,-0.0020796375281076575,-0.002875850913527594,0.5585379600524902,2019-06-20 11:07:14:607,0.0,0.0,0.0
-0.02306862361729145,0.11310163140296936,9.836307525634766,-0.00043686508175561897,-0.0024792092194914944,-0.0011443734541604713,0.564415454864502,2019-06-20 11:07:14:613,0.0,0.0,0.0
-0.008700125850737095,0.06999614089727402,9.742912292480469,-0.0008364368056487465,-0.0040774962451011676,0.003384106104967834,0.5685334205627441,2019-06-20 11:07:14:617,0.0,0.0,0.0
-0.08293736726045609,0.053232889622449875,9.81714916229248,9.58972140594435e-05,-0.004610258500279616,0.003384106104967834,0.5744185447692871,2019-06-20 11:07:14:623,0.0,0.0,0.0
-0.08054261654615402,0.10831213742494583,9.821938514709473,0.0015609935377100185,-0.009005546845427497,0.0037836777963516713,0.5785341262817383,2019-06-20 11:07:14:627,0.0,0.0,0.0
0.03440536931157112,0.15381237864494324,9.750096321105957,-0.0007032462418541342,-0.011935739769057619,0.0007202946340198446,0.5844168663024902,2019-06-20 11:07:14:633,0.0,0.0,0.0
0.04637911915779114,0.09154888242483139,9.865044593811035,0.0008950406537183759,-0.007806832031350311,0.0021853910308163235,0.588533878326416,2019-06-20 11:07:14:637,0.0,0.0,0.0
0.010457871481776237,0.034074895083904266,9.898571014404297,0.0014278029739154064,0.0005841738778217508,0.0007202946340198446,0.5935354232788086,2019-06-20 11:07:14:642,0.0,0.0,0.0
0.10385310649871826,0.10831213742494583,9.709385871887207,0.003958423816050202,0.00737689276138414,0.00018753233007745944,0.5994172096252441,2019-06-20 11:07:14:648,0.0,0.0,0.0
-0.020673874765634537,0.14423337578773499,9.80517578125,-0.0003036745179610067,-0.004343877372690392,0.0025849627222001605,0.6035366058349609,2019-06-20 11:07:14:652,0.0,0.0,0.0
-0.12364811450242996,0.1753651201725006,9.932097434997559,-0.0017687708172296136,0.0016496983881786492,0.001253056954216875,0.6085352897644043,2019-06-20 11:07:14:657,0.0,0.0,0.0
-0.06377936899662018,0.1035226359963417,9.709385871887207,-0.0028342954576236743,-0.007673641727630024,-0.001943516836928145,0.6144180297851562,2019-06-20 11:07:14:663,0.0,0.0,0.0
-0.03743712231516838,0.07478563487529755,9.704596519470215,-0.0015023896896403893,-0.01273488367197394,0.0024517721584055483,0.618537425994873,2019-06-20 11:07:14:667,0.0,0.0,0.0
-0.047016121447086334,-0.006635851226747036,9.888992309570312,0.0003622783660306361,-0.012601692327956352,0.004050058923940896,0.6235342025756836,2019-06-20 11:07:14:672,0.0,0.0,0.0
-0.08293736726045609,0.06520663946866989,9.96562385559082,0.003292470997077141,-0.004610258500279616,0.002718153285994773,0.6285367012023926,2019-06-20 11:07:14:677,0.0,0.0,0.0
0.008063122630119324,0.189733624458313,9.900965690612793,0.0008950406537183759,-0.0016800658367238208,-0.00034522997386492567,0.6344132423400879,2019-06-20 11:07:14:683,0.0,0.0,0.0
0.06793186813592911,0.1633913815021515,9.802781105041504,-0.0017687708172296136,0.003780747538929608,-0.003275422604911431,0.6385369300842285,2019-06-20 11:07:14:687,0.0,0.0,0.0
-0.05180561915040016,0.02928539365530014,9.857860565185547,-0.00429939165936441,0.0033811758475457716,-0.00047842053765953795,0.6435351371765137,2019-06-20 11:07:14:692,0.0,0.0,0.0
-0.1284376084804535,0.010127396322786808,9.706991195678711,0.006755425915811386,-0.004210686808895779,0.0037836777963516713,0.6494183540344238,2019-06-20 11:07:14:698,0.0,0.0,0.0
-0.08054261654615402,0.11789113283157349,9.728543281555176,0.0007618500899237635,-0.012202121416795494,0.007912585534058977,0.6535334587097168,2019-06-20 11:07:14:702,0.0,0.0,0.0
-0.05659512057900429,0.23283912241458893,9.831518173217773,-0.0019019613810242262,-0.013400836230872678,-0.00021203939381566809,0.659416675567627,2019-06-20 11:07:14:708,0.0,0.0,0.0
-0.025463374331593513,0.19691787660121918,9.87462329864502,-0.006297250376357919,-0.011136596906438593,-0.006738377523645676,0.6644387245178223,2019-06-20 11:07:14:713,0.0,0.0,0.0
0.029615869745612144,0.04365389049053192,9.848280906677246,-0.0023015332024452257,-0.008739166237986921,0.0005871040702252323,0.6685419082641602,2019-06-20 11:07:14:717,0.0,0.0,0.0
0.04637911915779114,-0.02100434899330139,9.8961763381958,-0.0009696273694433586,0.0013833172605894246,0.0028513438497893852,0.6744294166564941,2019-06-20 11:07:14:723,0.0,0.0,0.0
-0.018279124051332474,0.06281188875436783,9.886597633361816,0.005290329453996326,0.003780747538929608,0.005515155385755957,0.6785340309143066,2019-06-20 11:07:14:727,0.0,0.0,0.0
-0.05659512057900429,0.2160758674144745,9.80517578125,-0.0017687708172296136,-0.0003481601662684072,-0.002476279222143757,0.6844072341918945,2019-06-20 11:07:14:733,0.0,0.0,0.0
-0.04462137073278427,0.21847061812877655,9.759675025939941,-0.0025679143300344504,-0.0031451620384645557,-0.00034522997386492567,0.6885333061218262,2019-06-20 11:07:14:737,0.0,0.0,0.0
-0.1284376084804535,0.06520663946866989,9.788412094116211,-0.0023015332024452257,-0.011136596906438593,-0.004074565987679104,0.6944179534912109,2019-06-20 11:07:14:743,0.0,0.0,0.0
-0.05898986756801605,-0.044951844960451126,9.797991752624512,-0.00043686508175561897,-0.013933598486051128,-0.0007448016977580532,0.6985344886779785,2019-06-20 11:07:14:747,0.0,0.0,0.0
0.012852621264755726,0.05562764033675194,9.807570457458496,0.00848690298506702,-0.016996981713401534,0.0017858192093953241,0.7035279273986816,2019-06-20 11:07:14:752,0.0,0.0,0.0
-0.027858123183250427,0.18494412302970886,9.900965690612793,0.0004954689298252484,-0.007806832031350311,0.003250915541173222,0.7085537910461426,2019-06-20 11:07:14:757,0.0,0.0,0.0
-0.02306862361729145,0.15860188007354736,9.958439826965332,-0.001369199125845777,0.00271522302857271,-0.002476279222143757,0.7144160270690918,2019-06-20 11:07:14:763,0.0,0.0,0.0
0.017642121762037277,0.09154888242483139,9.867439270019531,-0.005364916169721308,0.0016496983881786492,-0.004607328502931879,0.7185273170471191,2019-06-20 11:07:14:767,0.0,0.0,0.0
-0.04222662001848221,-0.013820100575685501,9.759675025939941,0.0003622783660306361,-0.005143020755458065,5.4341754091863145e-05,0.7244110107421875,2019-06-20 11:07:14:773,0.0,0.0,0.0
-0.08772686868906021,0.00294314743950963,9.788412094116211,0.004757567198817876,-0.001413684709134596,0.0007202946340198446,0.7285284996032715,2019-06-20 11:07:14:777,0.0,0.0,0.0
-0.12604285776615143,0.16099663078784943,9.73572826385498,-0.0009696273694433586,-0.0026123997832861066,0.002718153285994773,0.7335257530212402,2019-06-20 11:07:14:782,0.0,0.0,0.0
-0.03743712231516838,0.19212837517261505,9.718964576721191,-0.005897678424899758,-0.014999122996408026,-0.0027426603497329814,0.7394013404846191,2019-06-20 11:07:14:788,0.0,0.0,0.0
-0.05898986756801605,0.08675938844680786,9.826728820800781,-0.0020351519448188384,-0.010737024954980431,-0.007271139778824124,0.7435212135314941,2019-06-20 11:07:14:792,0.0,0.0,0.0
-0.05659512057900429,-0.009030601009726524,9.920124053955078,0.006489044788222161,-0.005276211059178353,0.0007202946340198446,0.7494134902954102,2019-06-20 11:07:14:798,0.0,0.0,0.0
0.05595811456441879,0.04365389049053192,9.790806770324707,0.0014278029739154064,-0.003011971474669944,0.0009866757616090692,0.7535338401794434,2019-06-20 11:07:14:802,0.0,0.0,0.0
0.005668372381478548,0.1753651201725006,9.831518173217773,-0.002967486021418287,0.003247985283751159,0.0015194380818060996,0.7594170570373535,2019-06-20 11:07:14:808,0.0,0.0,0.0
-0.0757531151175499,0.1562071293592453,9.824334144592285,-0.005498106993590246,0.003247985283751159,0.0020522003369845485,0.7635350227355957,2019-06-20 11:07:14:812,0.0,0.0,0.0
-0.03504237160086632,0.1035226359963417,9.730938911437988,-0.007895537141893267,-0.0022128280919022697,-0.0015439451455443083,0.7694191932678223,2019-06-20 11:07:14:818,0.0,0.0,0.0
-0.03025287203490734,0.04844339191913605,9.690227508544922,-0.0028342954576236743,-0.007673641727630024,0.005381964561887018,0.7735347747802734,2019-06-20 11:07:14:822,0.0,0.0,0.0
-0.08293736726045609,0.038864392787218094,9.862649917602539,0.006755425915811386,-0.005942164138225739,0.005515155385755957,0.7794189453125,2019-06-20 11:07:14:828,0.0,0.0,0.0
-0.08054261654615402,0.14183862507343292,9.872228622436523,0.002892899305693304,-0.006474926393404189,-7.884882189373314e-05,0.7835302352905273,2019-06-20 11:07:14:832,0.0,0.0,0.0
0.03919486701488495,0.18494412302970886,9.819543838500977,0.0015609935377100185,-0.009271928493165372,-0.004474137679062942,0.7894196510314941,2019-06-20 11:07:14:838,0.0,0.0,0.0
0.0032736228313297033,0.17057561874389648,9.929702758789062,-0.005364916169721308,-0.006608117217273125,-0.002609469785938369,0.7935352325439453,2019-06-20 11:07:14:842,0.0,0.0,0.0
-0.01588437519967556,0.04365389049053192,9.939281463623047,-0.0011028179982565524,0.004979462613081119,0.0007202946340198446,0.7994208335876465,2019-06-20 11:07:14:848,0.0,0.0,0.0
-0.0015158765017986298,0.04844339191913605,9.819543838500977,0.005689901405454487,-0.0016800658367238208,-0.00034522997386492567,0.8035321235656738,2019-06-20 11:07:14:852,0.0,0.0,0.0
0.005668372381478548,0.10831213742494583,9.750096321105957,0.00382523325225559,-0.005276211059178353,0.0035172966687624465,0.8094401359558105,2019-06-20 11:07:14:858,0.0,0.0,0.0
-0.10688485950231552,0.15860188007354736,9.862649917602539,-0.006430440680078206,-0.007007688648582638,-7.884882189373314e-05,0.8135361671447754,2019-06-20 11:07:14:862,0.0,0.0,0.0
-0.047016121447086334,0.12747013568878174,9.718964576721191,-0.0007032462418541342,-0.009271928493165372,0.000320722910126717,0.8194231986999512,2019-06-20 11:07:14:868,0.0,0.0,0.0
-0.03025287203490734,0.06760139018297195,9.67346477508545,-0.0016355802534350015,-0.008605975414117985,0.001253056954216875,0.8244175910949707,2019-06-20 11:07:14:873,0.0,0.0,0.0
-0.027858123183250427,0.04844339191913605,9.829123497009277,0.002892899305693304,-0.010204262699801982,5.4341754091863145e-05,0.8285365104675293,2019-06-20 11:07:14:877,0.0,0.0,0.0
-0.032647620886564255,0.09154888242483139,9.927308082580566,0.0014278029739154064,-0.0026123997832861066,0.0024517721584055483,0.8345780372619629,2019-06-20 11:07:14:883,0.0,0.0,0.0
0.0032736228313297033,0.18015462160110474,9.857860565185547,-0.004166201095569797,-0.005542592706916228,0.0013862475180114872,0.8387227058410645,2019-06-20 11:07:14:887,0.0,0.0,0.0
0.017642121762037277,0.21128636598587036,9.881807327270508,-0.0028342954576236743,-0.0011473035815453717,-0.005273281061830615,0.8441181182861328,2019-06-20 11:07:14:892,0.0,0.0,0.0
-0.032647620886564255,0.06281188875436783,9.908149719238281,-0.0023015332024452257,0.000717364441616363,-0.0011443734541604713,0.8482351303100586,2019-06-20 11:07:14:896,0.0,0.0,0.0
-0.03743712231516838,0.04365389049053192,9.84588623046875,0.0024933276143094675,-0.0020796375281076575,0.00431644005153012,0.8540940284729004,2019-06-20 11:07:14:902,0.0,0.0,0.0
-0.039831873029470444,0.10591738671064377,9.778833389282227,0.0010282312175129882,-0.012868073975694228,0.005381964561887018,0.858069896697998,2019-06-20 11:07:14:906,0.0,0.0,0.0
-0.09970061480998993,0.17297036945819855,9.857860565185547,-0.0007032462418541342,-0.003944305681306555,0.003250915541173222,0.8643708229064941,2019-06-20 11:07:14:912,0.0,0.0,0.0
-0.09012161195278168,0.12268063426017761,9.85546588897705,-0.0032338671490075113,-0.006474926393404189,-0.004074565987679104,0.8679018020629883,2019-06-20 11:07:14:916,0.0,0.0,0.0
0.022431619465351105,0.09154888242483139,9.790806770324707,-0.0031006765852128995,-0.009405118796885659,-0.0031422320411168183,0.873664379119873,2019-06-20 11:07:14:922,0.0,0.0,0.0
-0.025463374331593513,0.02928539365530014,9.886597633361816,-0.003899819967980573,-0.004210686808895779,0.002718153285994773,0.8786840438842773,2019-06-20 11:07:14:927,0.0,0.0,0.0
-0.0494108721613884,0.07718038558959961,9.826728820800781,-0.0005700556780595219,0.00018460213767397795,0.0035172966687624465,0.8836827278137207,2019-06-20 11:07:14:932,0.0,0.0,0.0
-0.020673874765634537,0.14183862507343292,9.809965133666992,-0.0019019613810242262,-0.0012804941453399838,0.0028513438497893852,0.8886828422546387,2019-06-20 11:07:14:937,0.0,0.0,0.0
-0.011094875633716583,0.1633913815021515,9.769254684448242,-0.00429939165936441,-0.005143020755458065,-0.004340947115268329,0.8936820030212402,2019-06-20 11:07:14:942,0.0,0.0,0.0
-0.09970061480998993,0.12268063426017761,9.831518173217773,0.0011614218463261818,-0.003944305681306555,-0.0008779922615526655,0.8986830711364746,2019-06-20 11:07:14:947,0.0,0.0,0.0
-0.07814786583185196,0.058022391051054,9.742912292480469,-0.0005700556780595219,-0.007007688648582638,0.0021853910308163235,0.9036831855773926,2019-06-20 11:07:14:952,0.0,0.0,0.0
-0.03743712231516838,0.07718038558959961,9.759675025939941,0.004624376895097589,-0.012868073975694228,0.0011198663904222626,0.9086852073669434,2019-06-20 11:07:14:957,0.0,0.0,0.0
-0.03504237160086632,0.08915413916110992,9.800386428833008,-0.001369199125845777,-0.0038111151175119424,0.0025849627222001605,0.9136872291564941,2019-06-20 11:07:14:962,0.0,0.0,0.0
-0.032647620886564255,0.12268063426017761,9.884202003479004,-0.0005700556780595219,-0.003011971474669944,-0.0006116111339634409,0.9186844825744629,2019-06-20 11:07:14:967,0.0,0.0,0.0
0.024826370179653168,0.10112788528203964,9.786017417907715,-0.005498106993590246,-0.0015468752729292082,-0.00380818486008988,0.9237351417541504,2019-06-20 11:07:14:972,0.0,0.0,0.0
-0.020673874765634537,0.07239089161157608,9.836307525634766,-0.003766629404185961,-0.0028787809108753314,0.002984534413583997,0.9294247627258301,2019-06-20 11:07:14:978,0.0,0.0,0.0
-0.05180561915040016,0.04365389049053192,9.905755043029785,0.0011614218463261818,0.0019160795157678737,0.0013862475180114872,0.9344029426574707,2019-06-20 11:07:14:983,0.0,0.0,0.0
-0.003910626284778118,0.0843646377325058,9.747701644897461,-0.0008364368056487465,-0.003944305681306555,-0.0006116111339634409,0.9385190010070801,2019-06-20 11:07:14:987,0.0,0.0,0.0
-0.054200369864702225,0.12268063426017761,9.742912292480469,-0.0028342954576236743,-0.014599551044949864,-0.001011182825347278,0.9444127082824707,2019-06-20 11:07:14:993,0.0,0.0,0.0
-0.0757531151175499,0.09873313456773758,9.905755043029785,-0.0003036745179610067,-0.004210686808895779,0.0017858192093953241,0.9494028091430664,2019-06-20 11:07:14:998,0.0,0.0,0.0
0.008063122630119324,0.08675938844680786,9.795597076416016,0.0011614218463261818,-0.00887235654170721,0.0020522003369845485,0.9535183906555176,2019-06-20 11:07:15:002,0.0,0.0,0.0
0.03440536931157112,0.1035226359963417,9.80517578125,-0.0009696273694433586,-0.009005546845427497,0.0007202946340198446,0.9594073295593262,2019-06-20 11:07:15:008,0.0,0.0,0.0
-0.02306862361729145,0.10831213742494583,9.850675582885742,-0.003899819967980573,0.0013833172605894246,-0.0042077565514737165,0.963533878326416,2019-06-20 11:07:15:012,0.0,0.0,0.0
-0.0494108721613884,0.13225963711738586,9.869833946228027,-0.003367057712802124,-0.0011473035815453717,-0.00380818486008988,0.9694356918334961,2019-06-20 11:07:15:018,0.0,0.0,0.0
0.0008788731647655368,0.1035226359963417,9.824334144592285,0.00022908778598137848,-0.0018132564005184332,0.0008534851978144569,0.9744067192077637,2019-06-20 11:07:15:023,0.0,0.0,0.0
-0.09730586409568787,0.06281188875436783,9.821938514709473,-0.0031006765852128995,-0.008206403982808473,-0.006205615268467226,0.9794192314147949,2019-06-20 11:07:15:028,0.0,0.0,0.0
-0.08533211797475815,0.08675938844680786,9.843491554260254,-0.0015023896896403893,-0.006741307520993413,0.0008534851978144569,0.9835357666015625,2019-06-20 11:07:15:032,0.0,0.0,0.0
-0.0757531151175499,0.1107068806886673,9.797991752624512,0.0024933276143094675,-0.009005546845427497,0.0008534851978144569,0.9885354042053223,2019-06-20 11:07:15:037,0.0,0.0,0.0
0.015247371047735214,0.09873313456773758,9.786017417907715,-0.0017687708172296136,-0.012468502024236066,-0.002609469785938369,0.9944090843200684,2019-06-20 11:07:15:043,0.0,0.0,0.0
-0.03025287203490734,0.10112788528203964,9.908149719238281,0.0031592804332825283,-0.0022128280919022697,-0.00021203939381566809,0.9994168281555176,2019-06-20 11:07:15:048,0.0,0.0,0.0
-0.047016121447086334,0.053232889622449875,9.884202003479004,0.003425661560871753,5.141156168838168e-05,0.0005871040702252323,1.0035276412963867,2019-06-20 11:07:15:052,0.0,0.0,0.0
0.051168616861104965,0.07239089161157608,9.802781105041504,-0.00017048393791174905,-0.0038111151175119424,0.003250915541173222,1.009416103363037,2019-06-20 11:07:15:058,0.0,0.0,0.0
-0.047016121447086334,0.09154888242483139,9.829123497009277,-0.0036334388403913486,-0.001413684709134596,-0.0034086131687060426,1.0135259628295898,2019-06-20 11:07:15:062,0.0,0.0,0.0
-0.0949111133813858,0.14183862507343292,9.850675582885742,0.0031592804332825283,-8.177901429721461e-05,0.0021853910308163235,1.019413948059082,2019-06-20 11:07:15:068,0.0,0.0,0.0
-0.047016121447086334,0.12268063426017761,9.797991752624512,-0.0016355802534350015,-8.177901429721461e-05,0.001652628645600712,1.0235295295715332,2019-06-20 11:07:15:072,0.0,0.0,0.0
-0.04462137073278427,0.09154888242483139,9.79320240020752,-0.001369199125845777,-0.009937881052064107,-0.00034522997386492567,1.0285320281982422,2019-06-20 11:07:15:077,0.0,0.0,0.0
-0.08054261654615402,0.04365389049053192,9.877017974853516,0.0035588521246663657,-0.00687449834486235,0.004716012002988282,1.0344157218933105,2019-06-20 11:07:15:083,0.0,0.0,0.0
-0.020673874765634537,0.10831213742494583,9.843491554260254,-0.001369199125845777,-0.004610258500279616,0.001253056954216875,1.038529872894287,2019-06-20 11:07:15:087,0.0,0.0,0.0
0.051168616861104965,0.09394363313913345,9.814754486083984,-0.0023015332024452257,-0.004477067676410679,-0.0034086131687060426,1.044416904449463,2019-06-20 11:07:15:093,0.0,0.0,0.0
-0.03025287203490734,0.0843646377325058,9.900965690612793,-0.001369199125845777,0.0017828889519732613,0.005648345689476243,1.0494170188903809,2019-06-20 11:07:15:098,0.0,0.0,0.0
-0.04222662001848221,0.10112788528203964,9.843491554260254,-0.0017687708172296136,-0.00048135073006301944,0.003384106104967834,1.0535273551940918,2019-06-20 11:07:15:102,0.0,0.0,0.0
-0.011094875633716583,0.046048641204833984,9.757280349731445,0.0020937557928884677,-0.004477067676410679,0.0008534851978144569,1.059420108795166,2019-06-20 11:07:15:108,0.0,0.0,0.0
-0.047016121447086334,0.053232889622449875,9.781228065490723,-0.0016355802534350015,-0.010603834651260146,0.0036504872325570587,1.0635285377502441,2019-06-20 11:07:15:112,0.0,0.0,0.0
-0.07335836440324783,0.12028588354587555,9.807570457458496,-0.0003036745179610067,-0.007673641727630024,0.001253056954216875,1.0694165229797363,2019-06-20 11:07:15:118,0.0,0.0,0.0
-0.03504237160086632,0.15141762793064117,9.769254684448242,-0.0025679143300344504,-0.0015468752729292082,-0.0008779922615526655,1.0735282897949219,2019-06-20 11:07:15:122,0.0,0.0,0.0
-0.0015158765017986298,0.09633838385343552,9.797991752624512,-0.0003036745179610067,-0.009671500444623534,-0.00047842053765953795,1.0794191360473633,2019-06-20 11:07:15:128,0.0,0.0,0.0
0.008063122630119324,0.04844339191913605,9.872228622436523,-0.0015023896896403893,-0.0028787809108753314,-0.0015439451455443083,1.0835280418395996,2019-06-20 11:07:15:132,0.0,0.0,0.0
-0.0063053760677576065,0.10591738671064377,9.853070259094238,0.0008950406537183759,0.000717364441616363,0.0025849627222001605,1.0894217491149902,2019-06-20 11:07:15:138,0.0,0.0,0.0
-0.01588437519967556,0.13465438783168793,9.860255241394043,-0.00017048393791174905,0.0020492700795624857,0.0005871040702252323,1.0935287475585938,2019-06-20 11:07:15:142,0.0,0.0,0.0
-0.04222662001848221,0.16818088293075562,9.867439270019531,0.0010282312175129882,-0.0028787809108753314,0.002718153285994773,1.0994181632995605,2019-06-20 11:07:15:148,0.0,0.0,0.0
-0.0757531151175499,0.05083814263343811,9.841096878051758,-0.0021683425086134506,-0.0028787809108753314,-0.002875850913527594,1.104414463043213,2019-06-20 11:07:15:153,0.0,0.0,0.0
-0.025463374331593513,0.08915413916110992,9.778833389282227,0.0020937557928884677,-0.004876639627868841,0.004183249487735508,1.1085309982299805,2019-06-20 11:07:15:157,0.0,0.0,0.0
-0.013489625416696072,0.07957513630390167,9.841096878051758,-0.001369199125845777,-0.013667216838313253,-0.0006116111339634409,1.114417552947998,2019-06-20 11:07:15:163,0.0,0.0,0.0
-0.06377936899662018,0.07239089161157608,9.898571014404297,0.0003622783660306361,-0.006608117217273125,0.000320722910126717,1.1185317039489746,2019-06-20 11:07:15:167,0.0,0.0,0.0
0.005668372381478548,0.11789113283157349,9.814754486083984,0.0003622783660306361,0.00031779271772323556,-0.0031422320411168183,1.1244139671325684,2019-06-20 11:07:15:173,0.0,0.0,0.0
0.012852621264755726,0.11549638211727142,9.788412094116211,-0.0031006765852128995,-0.007940022855219248,-0.0035418037325006552,1.1285319328308105,2019-06-20 11:07:15:177,0.0,0.0,0.0
-0.07096362113952637,0.12028588354587555,9.908149719238281,0.0014278029739154064,-0.003411543426128106,-0.00380818486008988,1.1345057487487793,2019-06-20 11:07:15:183,0.0,0.0,0.0
-0.05898986756801605,0.07718038558959961,9.807570457458496,0.0003622783660306361,-8.177901429721461e-05,-0.0018103262731335328,1.1394314765930176,2019-06-20 11:07:15:188,0.0,0.0,0.0
-0.008700125850737095,0.0843646377325058,9.781228065490723,-0.001369199125845777,-0.011003405562421005,0.002318581594610936,1.1444053649902344,2019-06-20 11:07:15:193,0.0,0.0,0.0
-0.020673874765634537,0.15860188007354736,9.797991752624512,0.0031592804332825283,-0.0056757830106365145,-0.0018103262731335328,1.1485271453857422,2019-06-20 11:07:15:197,0.0,0.0,0.0
-0.08772686868906021,0.07718038558959961,9.886597633361816,-0.0027011048938290626,-0.003011971474669944,0.0008534851978144569,1.1544127464294434,2019-06-20 11:07:15:203,0.0,0.0,0.0
0.0032736228313297033,0.10112788528203964,9.771649360656738,0.00382523325225559,-0.007407260600040799,5.4341754091863145e-05,1.1594157218933105,2019-06-20 11:07:15:208,0.0,0.0,0.0
0.02722111903131008,0.1035226359963417,9.809965133666992,-0.0020351519448188384,-0.00887235654170721,-0.0011443734541604713,1.163525104522705,2019-06-20 11:07:15:212,0.0,0.0,0.0
-0.054200369864702225,0.08915413916110992,9.872228622436523,-0.0023015332024452257,-0.0024792092194914944,-0.0007448016977580532,1.1694145202636719,2019-06-20 11:07:15:218,0.0,0.0,0.0
-0.020673874765634537,0.1562071293592453,9.850675582885742,-0.001369199125845777,0.0020492700795624857,-0.005406471885699552,1.1735286712646484,2019-06-20 11:07:15:222,0.0,0.0,0.0
0.008063122630119324,0.09633838385343552,9.745306968688965,-0.0019019613810242262,-0.004610258500279616,-0.00034522997386492567,1.1787080764770508,2019-06-20 11:07:15:227,0.0,0.0,0.0
-0.07096362113952637,0.10591738671064377,9.75488567352295,0.0003622783660306361,-0.0040774962451011676,0.0008534851978144569,1.1849627494812012,2019-06-20 11:07:15:233,0.0,0.0,0.0
-0.047016121447086334,0.060417141765356064,9.809965133666992,-0.0007032462418541342,-0.0035447339899227176,0.0017858192093953241,1.1899995803833008,2019-06-20 11:07:15:238,0.0,0.0,0.0
-0.01588437519967556,0.09633838385343552,9.721359252929688,0.0003622783660306361,-0.007140879472451575,0.002718153285994773,1.1949896812438965,2019-06-20 11:07:15:243,0.0,0.0,0.0
-0.008700125850737095,0.14183862507343292,9.829123497009277,-0.0020351519448188384,-0.0075404509037610866,0.0008534851978144569,1.1999917030334473,2019-06-20 11:07:15:248,0.0,0.0,0.0
-0.06377936899662018,0.12747013568878174,9.869833946228027,-0.0003036745179610067,-0.0038111151175119424,-0.0030090414773222057,1.204984188079834,2019-06-20 11:07:15:253,0.0,0.0,0.0
-0.0015158765017986298,0.12507538497447968,9.812359809875488,-0.0003036745179610067,-0.002346018655696882,-0.003941375423884492,1.210005283355713,2019-06-20 11:07:15:258,0.0,0.0,0.0
-0.03025287203490734,0.0843646377325058,9.788412094116211,-3.7293361926152775e-05,-0.0018132564005184332,0.004050058923940896,1.2150163650512695,2019-06-20 11:07:15:263,0.0,0.0,0.0
-0.047016121447086334,0.08675938844680786,9.872228622436523,0.003292470997077141,-0.0010141130177507593,-0.005939234140878001,1.2199907302856445,2019-06-20 11:07:15:268,0.0,0.0,0.0
-0.03743712231516838,0.0843646377325058,9.814754486083984,-0.0012360085620511645,-0.0028787809108753314,-0.0027426603497329814,1.2249846458435059,2019-06-20 11:07:15:273,0.0,0.0,0.0
-0.0494108721613884,0.14423337578773499,9.728543281555176,-0.0007032462418541342,-0.013534026534592965,-0.00034522997386492567,1.229987621307373,2019-06-20 11:07:15:278,0.0,0.0,0.0
-0.03743712231516838,0.07718038558959961,9.838702201843262,-0.0019019613810242262,-0.00980469074834382,0.0013862475180114872,1.2349896430969238,2019-06-20 11:07:15:283,0.0,0.0,0.0
-0.061384618282318115,0.08196988701820374,9.819543838500977,-0.003766629404185961,-0.0032783528623334932,-0.0012775640179550837,1.2399954795837402,2019-06-20 11:07:15:288,0.0,0.0,0.0
-0.008700125850737095,0.11549638211727142,9.829123497009277,0.00022908778598137848,-0.007940022855219248,0.001253056954216875,1.2449917793273926,2019-06-20 11:07:15:293,0.0,0.0,0.0
0.0032736228313297033,0.08196988701820374,9.814754486083984,0.0020937557928884677,-0.00367792455371733,0.0007202946340198446,1.2499980926513672,2019-06-20 11:07:15:298,0.0,0.0,0.0
-0.06377936899662018,0.1035226359963417,9.841096878051758,-0.0036334388403913486,-0.005143020755458065,-0.0030090414773222057,1.2549853324890137,2019-06-20 11:07:15:303,0.0,0.0,0.0
-0.039831873029470444,0.11549638211727142,9.898571014404297,-0.0009696273694433586,-0.0008809224539561469,-0.0006116111339634409,1.2599892616271973,2019-06-20 11:07:15:308,0.0,0.0,0.0
-0.003910626284778118,0.09394363313913345,9.788412094116211,0.0019605652290938555,-0.006608117217273125,0.0036504872325570587,1.264986515045166,2019-06-20 11:07:15:313,0.0,0.0,0.0
-0.054200369864702225,0.08915413916110992,9.769254684448242,-0.003766629404185961,-0.007007688648582638,0.0013862475180114872,1.2699875831604004,2019-06-20 11:07:15:318,0.0,0.0,0.0
-0.08772686868906021,0.08915413916110992,9.888992309570312,-0.0015023896896403893,-0.0040774962451011676,0.0009866757616090692,1.274980068206787,2019-06-20 11:07:15:323,0.0,0.0,0.0
-0.0015158765017986298,0.09394363313913345,9.800386428833008,0.0004954689298252484,-0.008605975414117985,0.0007202946340198446,1.279984474182129,2019-06-20 11:07:15:328,0.0,0.0,0.0
-0.011094875633716583,0.1298648864030838,9.771649360656738,-0.0017687708172296136,-0.014199980133789003,-0.0007448016977580532,1.2849860191345215,2019-06-20 11:07:15:333,0.0,0.0,0.0
-0.0757531151175499,0.07957513630390167,9.850675582885742,0.0003622783660306361,-0.0019464469643130453,-0.00021203939381566809,1.2899975776672363,2019-06-20 11:07:15:338,0.0,0.0,0.0
-0.008700125850737095,0.06281188875436783,9.790806770324707,0.0014278029739154064,0.0009837455692055877,0.005515155385755957,1.2949843406677246,2019-06-20 11:07:15:343,0.0,0.0,0.0
-0.0015158765017986298,0.07478563487529755,9.831518173217773,-0.0019019613810242262,-0.0038111151175119424,0.00018753233007745944,1.299983024597168,2019-06-20 11:07:15:348,0.0,0.0,0.0
-0.054200369864702225,0.09154888242483139,9.81714916229248,-0.0011028179982565524,-0.0026123997832861066,0.004982393130577507,1.3050847053527832,2019-06-20 11:07:15:353,0.0,0.0,0.0
-0.025463374331593513,0.08915413916110992,9.795597076416016,0.0003622783660306361,-0.0031451620384645557,-0.0012775640179550837,1.3100171089172363,2019-06-20 11:07:15:358,0.0,0.0,0.0
-0.0063053760677576065,0.11549638211727142,9.79320240020752,-0.0031006765852128995,-0.009005546845427497,0.0009866757616090692,1.3150153160095215,2019-06-20 11:07:15:363,0.0,0.0,0.0
-0.05180561915040016,0.07718038558959961,9.778833389282227,0.0007618500899237635,-0.005942164138225739,0.00431644005153012,1.320004940032959,2019-06-20 11:07:15:368,0.0,0.0,0.0
-0.05898986756801605,0.07239089161157608,9.872228622436523,-0.004166201095569797,-0.003411543426128106,0.0019190097731899363,1.3249917030334473,2019-06-20 11:07:15:373,0.0,0.0,0.0
-0.0015158765017986298,0.10591738671064377,9.788412094116211,0.0018273746652992433,-0.005942164138225739,0.0005871040702252323,1.3299932479858398,2019-06-20 11:07:15:378,0.0,0.0,0.0
0.0032736228313297033,0.09394363313913345,9.795597076416016,-0.006830012631536369,-0.002745590347080719,0.0015194380818060996,1.334984302520752,2019-06-20 11:07:15:383,0.0,0.0,0.0
-0.04222662001848221,0.10831213742494583,9.850675582885742,0.0007618500899237635,-0.0007477318901615347,0.0017858192093953241,1.3400053977966309,2019-06-20 11:07:15:388,0.0,0.0,0.0
-0.05180561915040016,0.10112788528203964,9.838702201843262,-0.00017048393791174905,-0.0022128280919022697,-0.00021203939381566809,1.3449897766113281,2019-06-20 11:07:15:393,0.0,0.0,0.0
0.024826370179653168,0.0843646377325058,9.783622741699219,-0.0025679143300344504,-0.006075354962094676,0.0021853910308163235,1.349989414215088,2019-06-20 11:07:15:398,0.0,0.0,0.0
-0.047016121447086334,0.10831213742494583,9.853070259094238,-0.004166201095569797,-0.0038111151175119424,-0.00047842053765953795,1.3549880981445312,2019-06-20 11:07:15:403,0.0,0.0,0.0
-0.05898986756801605,0.060417141765356064,9.84588623046875,0.002360137050514855,-0.005276211059178353,-0.0030090414773222057,1.3599891662597656,2019-06-20 11:07:15:408,0.0,0.0,0.0
-0.01588437519967556,0.0843646377325058,9.809965133666992,-0.0003036745179610067,-0.009937881052064107,-0.001943516836928145,1.3649840354919434,2019-06-20 11:07:15:413,0.0,0.0,0.0
-0.05659512057900429,0.13225963711738586,9.826728820800781,-0.00017048393791174905,-0.005276211059178353,0.002718153285994773,1.3699870109558105,2019-06-20 11:07:15:418,0.0,0.0,0.0
-0.05898986756801605,0.06760139018297195,9.879412651062012,0.00022908778598137848,-0.0031451620384645557,0.00431644005153012,1.3749842643737793,2019-06-20 11:07:15:423,0.0,0.0,0.0
-0.013489625416696072,0.13465438783168793,9.762070655822754,0.0010282312175129882,-0.0020796375281076575,-0.002076707400722757,1.3799934387207031,2019-06-20 11:07:15:428,0.0,0.0,0.0
-0.0015158765017986298,0.11310163140296936,9.80517578125,-0.00429939165936441,-0.007007688648582638,-0.00021203939381566809,1.3849825859069824,2019-06-20 11:07:15:433,0.0,0.0,0.0
-0.11885861307382584,0.06520663946866989,9.788412094116211,-0.0027011048938290626,0.0020492700795624857,5.4341754091863145e-05,1.3899922370910645,2019-06-20 11:07:15:438,0.0,0.0,0.0
-0.05659512057900429,0.0843646377325058,9.821938514709473,-0.0021683425086134506,-0.0063417360896839015,-0.0018103262731335328,1.394981861114502,2019-06-20 11:07:15:443,0.0,0.0,0.0
0.005668372381478548,0.07239089161157608,9.766860008239746,-0.0007032462418541342,-0.01180254946533733,0.0024517721584055483,1.3999896049499512,2019-06-20 11:07:15:448,0.0,0.0,0.0
-0.032647620886564255,0.1035226359963417,9.877017974853516,-0.0008364368056487465,-0.003011971474669944,-0.0056728530132887775,1.40498685836792,2019-06-20 11:07:15:453,0.0,0.0,0.0
-0.0757531151175499,0.1035226359963417,9.838702201843262,-0.001369199125845777,-0.0038111151175119424,0.000320722910126717,1.40999174118042,2019-06-20 11:07:15:458,0.0,0.0,0.0
0.008063122630119324,0.07718038558959961,9.786017417907715,0.0018273746652992433,-0.005009829931589127,0.0028513438497893852,1.4150242805480957,2019-06-20 11:07:15:463,0.0,0.0,0.0
-0.025463374331593513,0.12268063426017761,9.838702201843262,0.0004954689298252484,-0.004210686808895779,0.000320722910126717,1.4200029373168945,2019-06-20 11:07:15:468,0.0,0.0,0.0
-0.10209536552429199,0.08675938844680786,9.879412651062012,9.58972140594435e-05,-0.003411543426128106,0.0024517721584055483,1.4249873161315918,2019-06-20 11:07:15:473,0.0,0.0,0.0
-0.05180561915040016,0.06760139018297195,9.841096878051758,-0.0019019613810242262,-0.0031451620384645557,0.003384106104967834,1.4299883842468262,2019-06-20 11:07:15:478,0.0,0.0,0.0
-0.027858123183250427,0.11789113283157349,9.783622741699219,-0.0032338671490075113,-0.005808973834505452,-0.004740518806652166,1.434985637664795,2019-06-20 11:07:15:483,0.0,0.0,0.0
-0.039831873029470444,0.09154888242483139,9.869833946228027,0.004091614379844815,-0.0018132564005184332,0.0019190097731899363,1.4399914741516113,2019-06-20 11:07:15:488,0.0,0.0,0.0
-0.061384618282318115,0.07478563487529755,9.81714916229248,0.002892899305693304,-0.0020796375281076575,0.00018753233007745944,1.4449868202209473,2019-06-20 11:07:15:493,0.0,0.0,0.0
0.015247371047735214,0.12268063426017761,9.75488567352295,-0.00043686508175561897,-0.009138738189445085,0.0028513438497893852,1.4499902725219727,2019-06-20 11:07:15:498,0.0,0.0,0.0
-0.02306862361729145,0.07478563487529755,9.829123497009277,-0.0023015332024452257,-0.0038111151175119424,0.0021853910308163235,1.4549880027770996,2019-06-20 11:07:15:503,0.0,0.0,0.0
-0.04222662001848221,0.08675938844680786,9.843491554260254,-0.0020351519448188384,0.002848413592367322,-0.005539662189419839,1.4599852561950684,2019-06-20 11:07:15:508,0.0,0.0,0.0
0.022431619465351105,0.10112788528203964,9.757280349731445,-0.0011028179982565524,-0.0020796375281076575,-0.003941375423884492,1.4649815559387207,2019-06-20 11:07:15:513,0.0,0.0,0.0
-0.020673874765634537,0.11549638211727142,9.826728820800781,0.0035588521246663657,-0.006474926393404189,-0.0007448016977580532,1.4699902534484863,2019-06-20 11:07:15:518,0.0,0.0,0.0
-0.06617411971092224,0.12507538497447968,9.87462329864502,0.0015609935377100185,-0.0003481601662684072,-7.884882189373314e-05,1.4751081466674805,2019-06-20 11:07:15:523,0.0,0.0,0.0
-0.039831873029470444,0.13944387435913086,9.881807327270508,0.0018273746652992433,-0.0038111151175119424,-0.0035418037325006552,1.47999906539917,2019-06-20 11:07:15:528,0.0,0.0,0.0
0.008063122630119324,0.09394363313913345,9.826728820800781,-0.0008364368056487465,-0.007007688648582638,-0.0022098980945545322,1.4845871925354004,2019-06-20 11:07:15:533,0.0,0.0,0.0
0.010457871481776237,0.09154888242483139,9.802781105041504,-0.0008364368056487465,-0.0010141130177507593,0.0024517721584055483,1.4885334968566895,2019-06-20 11:07:15:537,0.0,0.0,0.0
-0.047016121447086334,0.060417141765356064,9.927308082580566,-0.0015023896896403893,-0.003011971474669944,0.001253056954216875,1.494417667388916,2019-06-20 11:07:15:543,0.0,0.0,0.0
0.015247371047735214,0.0843646377325058,9.80517578125,0.00022908778598137848,-0.0038111151175119424,0.0024517721584055483,1.4985241889953613,2019-06-20 11:07:15:547,0.0,0.0,0.0
0.015247371047735214,0.06760139018297195,9.774044036865234,-0.003899819967980573,-0.007140879472451575,0.003250915541173222,1.503523826599121,2019-06-20 11:07:15:552,0.0,0.0,0.0
-0.09970061480998993,0.09154888242483139,9.814754486083984,0.0006286595261291513,-0.0016800658367238208,0.0019190097731899363,1.50852632522583,2019-06-20 11:07:15:557,0.0,0.0,0.0
-0.027858123183250427,0.11310163140296936,9.807570457458496,0.0010282312175129882,-0.0003481601662684072,0.0007202946340198446,1.5144257545471191,2019-06-20 11:07:15:563,0.0,0.0,0.0
0.010457871481776237,0.13465438783168793,9.752490997314453,-0.0008364368056487465,-0.0075404509037610866,0.002984534413583997,1.5185208320617676,2019-06-20 11:07:15:567,0.0,0.0,0.0
-0.047016121447086334,0.09154888242483139,9.886597633361816,0.0022269464867202427,-0.00540940188304729,-0.00021203939381566809,1.5244035720825195,2019-06-20 11:07:15:573,0.0,0.0,0.0
-0.05180561915040016,0.08675938844680786,9.867439270019531,0.005689901405454487,0.00018460213767397795,0.003384106104967834,1.5285248756408691,2019-06-20 11:07:15:577,0.0,0.0,0.0
0.0008788731647655368,0.11789113283157349,9.824334144592285,-0.0012360085620511645,-0.005143020755458065,0.001652628645600712,1.5344061851501465,2019-06-20 11:07:15:583,0.0,0.0,0.0
-0.003910626284778118,0.09154888242483139,9.788412094116211,-0.0023015332024452257,-0.004610258500279616,0.0008534851978144569,1.5385279655456543,2019-06-20 11:07:15:587,0.0,0.0,0.0
-0.061384618282318115,0.09394363313913345,9.809965133666992,-0.005364916169721308,-0.0016800658367238208,-0.0006116111339634409,1.5444068908691406,2019-06-20 11:07:15:593,0.0,0.0,0.0
-0.003910626284778118,0.1107068806886673,9.795597076416016,0.0022269464867202427,-0.003944305681306555,-0.004074565987679104,1.548530101776123,2019-06-20 11:07:15:597,0.0,0.0,0.0
0.0008788731647655368,0.09633838385343552,9.702201843261719,-0.0007032462418541342,-0.008073213158939536,0.0013862475180114872,1.5544071197509766,2019-06-20 11:07:15:603,0.0,0.0,0.0
-0.07814786583185196,0.12507538497447968,9.867439270019531,0.0018273746652992433,-0.004210686808895779,0.0028513438497893852,1.5585289001464844,2019-06-20 11:07:15:607,0.0,0.0,0.0
-0.03743712231516838,0.10112788528203964,9.79320240020752,0.0014278029739154064,-0.004743448803999903,-0.0008779922615526655,1.5644078254699707,2019-06-20 11:07:15:613,0.0,0.0,0.0
0.0008788731647655368,0.08915413916110992,9.769254684448242,-0.0044325824832333474,-0.009671500444623534,0.002718153285994773,1.568530559539795,2019-06-20 11:07:15:617,0.0,0.0,0.0
-0.027858123183250427,0.12268063426017761,9.831518173217773,-0.0009696273694433586,-0.005276211059178353,0.005115583434297794,1.57352876663208,2019-06-20 11:07:15:622,0.0,0.0,0.0
-0.08054261654615402,0.06281188875436783,9.917729377746582,-0.0007032462418541342,-0.0038111151175119424,0.004582821179119344,1.578528881072998,2019-06-20 11:07:15:627,0.0,0.0,0.0
0.012852621264755726,0.09394363313913345,9.747701644897461,0.003425661560871753,-0.005808973834505452,-0.002875850913527594,1.5844073295593262,2019-06-20 11:07:15:633,0.0,0.0,0.0
-0.027858123183250427,0.1035226359963417,9.759675025939941,-0.0028342954576236743,-0.005143020755458065,0.007246632455011591,1.588529109954834,2019-06-20 11:07:15:637,0.0,0.0,0.0
-0.09730586409568787,0.10112788528203964,9.956045150756836,-0.003367057712802124,-0.003411543426128106,-0.002875850913527594,1.5944104194641113,2019-06-20 11:07:15:643,0.0,0.0,0.0
-0.01588437519967556,0.0843646377325058,9.807570457458496,0.0024933276143094675,-0.0022128280919022697,0.00018753233007745944,1.5985283851623535,2019-06-20 11:07:15:647,0.0,0.0,0.0
0.008063122630119324,0.13944387435913086,9.831518173217773,-0.0015023896896403893,-0.008472785110397698,0.0011198663904222626,1.6044116020202637,2019-06-20 11:07:15:653,0.0,0.0,0.0
-0.020673874765634537,0.1035226359963417,9.85546588897705,-0.0015023896896403893,-0.004743448803999903,-0.003275422604911431,1.6085305213928223,2019-06-20 11:07:15:657,0.0,0.0,0.0
-0.06377936899662018,0.12507538497447968,9.831518173217773,0.0006286595261291513,-0.007940022855219248,-0.0030090414773222057,1.6144309043884277,2019-06-20 11:07:15:663,0.0,0.0,0.0
-0.018279124051332474,0.09873313456773758,9.769254684448242,-0.0007032462418541342,-0.006075354962094676,0.0020522003369845485,1.6185317039489746,2019-06-20 11:07:15:667,0.0,0.0,0.0
-0.032647620886564255,0.09873313456773758,9.788412094116211,-0.003766629404185961,-0.009138738189445085,0.0017858192093953241,1.6244091987609863,2019-06-20 11:07:15:673,0.0,0.0,0.0
-0.08772686868906021,0.09154888242483139,9.867439270019531,0.0004954689298252484,-0.0019464469643130453,0.005914726817065468,1.6285271644592285,2019-06-20 11:07:15:677,0.0,0.0,0.0
-0.0063053760677576065,0.09394363313913345,9.802781105041504,-0.0028342954576236743,-0.0015468752729292082,0.0017858192093953241,1.6344103813171387,2019-06-20 11:07:15:683,0.0,0.0,0.0
-0.013489625416696072,0.11310163140296936,9.75488567352295,-0.0017687708172296136,-0.0063417360896839015,0.0013862475180114872,1.6385302543640137,2019-06-20 11:07:15:687,0.0,0.0,0.0
-0.0494108721613884,0.13465438783168793,9.850675582885742,9.58972140594435e-05,-0.0031451620384645557,0.002718153285994773,1.6444306373596191,2019-06-20 11:07:15:693,0.0,0.0,0.0
-0.0063053760677576065,0.12747013568878174,9.774044036865234,-0.0021683425086134506,-0.004210686808895779,-0.002875850913527594,1.6494169235229492,2019-06-20 11:07:15:698,0.0,0.0,0.0
0.036800120025873184,0.1298648864030838,9.774044036865234,0.003292470997077141,-0.00687449834486235,0.0007202946340198446,1.653526782989502,2019-06-20 11:07:15:702,0.0,0.0,0.0
-0.061384618282318115,0.09633838385343552,9.850675582885742,-0.0023015332024452257,-0.007140879472451575,-0.002875850913527594,1.6594109535217285,2019-06-20 11:07:15:708,0.0,0.0,0.0
-0.027858123183250427,0.10112788528203964,9.900965690612793,0.0008950406537183759,-0.00367792455371733,0.004050058923940896,1.6644096374511719,2019-06-20 11:07:15:713,0.0,0.0,0.0
0.0032736228313297033,0.1298648864030838,9.807570457458496,0.0026265181781040797,-0.004876639627868841,0.0013862475180114872,1.6685290336608887,2019-06-20 11:07:15:717,0.0,0.0,0.0
-0.05180561915040016,0.11310163140296936,9.843491554260254,-0.0007032462418541342,-0.005942164138225739,-0.0030090414773222057,1.6744112968444824,2019-06-20 11:07:15:723,0.0,0.0,0.0
-0.0757531151175499,0.16818088293075562,9.826728820800781,-0.0009696273694433586,-0.003944305681306555,-0.0008779922615526655,1.6785321235656738,2019-06-20 11:07:15:727,0.0,0.0,0.0
-0.0494108721613884,0.08915413916110992,9.812359809875488,-0.002967486021418287,-0.006474926393404189,-0.0007448016977580532,1.6844124794006348,2019-06-20 11:07:15:733,0.0,0.0,0.0
-0.018279124051332474,0.12268063426017761,9.802781105041504,-0.0009696273694433586,-0.003411543426128106,0.000320722910126717,1.6885347366333008,2019-06-20 11:07:15:737,0.0,0.0,0.0
-0.07096362113952637,0.08915413916110992,9.81714916229248,-0.004166201095569797,-0.0020796375281076575,-0.001410754581749696,1.6944122314453125,2019-06-20 11:07:15:743,0.0,0.0,0.0
-0.020673874765634537,0.08675938844680786,9.807570457458496,0.0020937557928884677,-0.0032783528623334932,0.002718153285994773,1.698531150817871,2019-06-20 11:07:15:747,0.0,0.0,0.0
-0.0015158765017986298,0.10591738671064377,9.762070655822754,0.0010282312175129882,-0.006474926393404189,-0.003941375423884492,1.704423427581787,2019-06-20 11:07:15:753,0.0,0.0,0.0
-0.008700125850737095,0.1035226359963417,9.774044036865234,-0.00043686508175561897,-0.0075404509037610866,0.004050058923940896,1.7085309028625488,2019-06-20 11:07:15:757,0.0,0.0,0.0
-0.061384618282318115,0.0843646377325058,9.838702201843262,0.0018273746652992433,-0.0026123997832861066,0.00045391347392132933,1.7144312858581543,2019-06-20 11:07:15:763,0.0,0.0,0.0
-0.018279124051332474,0.1035226359963417,9.821938514709473,0.0019605652290938555,-0.002745590347080719,0.0011198663904222626,1.7185330390930176,2019-06-20 11:07:15:767,0.0,0.0,0.0
-0.04222662001848221,0.11789113283157349,9.83391284942627,-0.0019019613810242262,-0.004343877372690392,0.00018753233007745944,1.7244267463684082,2019-06-20 11:07:15:773,0.0,0.0,0.0
-0.0757531151175499,0.09394363313913345,9.860255241394043,-0.0017687708172296136,-0.004743448803999903,0.0013862475180114872,1.7294468879699707,2019-06-20 11:07:15:778,0.0,0.0,0.0
-0.04462137073278427,0.08675938844680786,9.819543838500977,-0.00017048393791174905,-0.0063417360896839015,0.0011198663904222626,1.7335476875305176,2019-06-20 11:07:15:782,0.0,0.0,0.0
-0.025463374331593513,0.11549638211727142,9.829123497009277,0.002360137050514855,-0.0056757830106365145,0.003384106104967834,1.7394146919250488,2019-06-20 11:07:15:788,0.0,0.0,0.0
-0.03504237160086632,0.09633838385343552,9.860255241394043,-0.0011028179982565524,-0.00687449834486235,-0.001011182825347278,1.7435288429260254,2019-06-20 11:07:15:792,0.0,0.0,0.0
-0.039831873029470444,0.09633838385343552,9.891386985778809,-0.0011028179982565524,-0.005143020755458065,0.001652628645600712,1.7494120597839355,2019-06-20 11:07:15:798,0.0,0.0,0.0
0.010457871481776237,0.10112788528203964,9.762070655822754,-0.0019019613810242262,-0.005276211059178353,-0.0027426603497329814,1.7544140815734863,2019-06-20 11:07:15:803,0.0,0.0,0.0
-0.008700125850737095,0.12747013568878174,9.83391284942627,-0.002967486021418287,-0.009005546845427497,-0.002875850913527594,1.7585301399230957,2019-06-20 11:07:15:807,0.0,0.0,0.0
-0.0757531151175499,0.08196988701820374,9.927308082580566,0.0007618500899237635,-0.0008809224539561469,-0.00021203939381566809,1.7644104957580566,2019-06-20 11:07:15:813,0.0,0.0,0.0
-0.054200369864702225,0.09154888242483139,9.802781105041504,-0.0005700556780595219,-0.0031451620384645557,-0.004340947115268329,1.7685322761535645,2019-06-20 11:07:15:817,0.0,0.0,0.0
-0.05180561915040016,0.13225963711738586,9.795597076416016,9.58972140594435e-05,-0.008339594286528761,0.0015194380818060996,1.7744097709655762,2019-06-20 11:07:15:823,0.0,0.0,0.0
-0.04462137073278427,0.06999614089727402,9.841096878051758,-0.00043686508175561897,-0.002346018655696882,0.003916868360146284,1.7785296440124512,2019-06-20 11:07:15:827,0.0,0.0,0.0
-0.03743712231516838,0.08915413916110992,9.84588623046875,0.00022908778598137848,-0.0015468752729292082,0.0019190097731899363,1.784409999847412,2019-06-20 11:07:15:833,0.0,0.0,0.0
-0.0015158765017986298,0.0843646377325058,9.716569900512695,0.002360137050514855,-0.009138738189445085,-0.00047842053765953795,1.7885284423828125,2019-06-20 11:07:15:837,0.0,0.0,0.0
-0.018279124051332474,0.0843646377325058,9.80517578125,-0.0031006765852128995,-0.00887235654170721,-0.001011182825347278,1.7935285568237305,2019-06-20 11:07:15:842,0.0,0.0,0.0
-0.07096362113952637,0.09633838385343552,9.843491554260254,-0.0011028179982565524,0.0020492700795624857,-0.0007448016977580532,1.7994093894958496,2019-06-20 11:07:15:848,0.0,0.0,0.0
0.005668372381478548,0.1298648864030838,9.812359809875488,-0.0011028179982565524,-0.007140879472451575,-0.001011182825347278,1.8035273551940918,2019-06-20 11:07:15:852,0.0,0.0,0.0
-0.008700125850737095,0.06520663946866989,9.783622741699219,-0.0020351519448188384,-0.007140879472451575,0.002318581594610936,1.8085284233093262,2019-06-20 11:07:15:857,0.0,0.0,0.0
-0.08293736726045609,0.09154888242483139,9.922518730163574,-0.0005700556780595219,-0.004743448803999903,-0.0011443734541604713,1.8144335746765137,2019-06-20 11:07:15:863,0.0,0.0,0.0
-0.047016121447086334,0.08915413916110992,9.783622741699219,-0.0008364368056487465,-0.0032783528623334932,-0.001410754581749696,1.8194169998168945,2019-06-20 11:07:15:868,0.0,0.0,0.0
-0.0015158765017986298,0.10112788528203964,9.795597076416016,-0.004698963610822572,-0.0056757830106365145,-0.001410754581749696,1.8235259056091309,2019-06-20 11:07:15:872,0.0,0.0,0.0
-0.09251636266708374,0.08675938844680786,9.84588623046875,-0.0025679143300344504,-0.0032783528623334932,-0.0016771357093389207,1.8294148445129395,2019-06-20 11:07:15:878,0.0,0.0,0.0
-0.07096362113952637,0.07478563487529755,9.829123497009277,-0.003500248276596736,-0.0031451620384645557,0.0025849627222001605,1.833528995513916,2019-06-20 11:07:15:882,0.0,0.0,0.0
-0.01588437519967556,0.1298648864030838,9.812359809875488,0.0008950406537183759,-0.003411543426128106,-0.0034086131687060426,1.8394126892089844,2019-06-20 11:07:15:888,0.0,0.0,0.0
-0.0063053760677576065,0.12028588354587555,9.790806770324707,0.001294612410120794,-0.0032783528623334932,0.0028513438497893852,1.8435263633728027,2019-06-20 11:07:15:892,0.0,0.0,0.0
-0.04222662001848221,0.07957513630390167,9.850675582885742,-0.0027011048938290626,-8.177901429721461e-05,5.4341754091863145e-05,1.8494133949279785,2019-06-20 11:07:15:898,0.0,0.0,0.0
-0.039831873029470444,0.08915413916110992,9.867439270019531,-0.0009696273694433586,-0.003411543426128106,-0.002076707400722757,1.8535246849060059,2019-06-20 11:07:15:902,0.0,0.0,0.0
0.0008788731647655368,0.08675938844680786,9.795597076416016,-0.003367057712802124,-0.01087021525870072,0.006181107944654692,1.8594141006469727,2019-06-20 11:07:15:908,0.0,0.0,0.0
-0.08054261654615402,0.09154888242483139,9.860255241394043,-0.0017687708172296136,-0.004743448803999903,-0.003941375423884492,1.8635282516479492,2019-06-20 11:07:15:912,0.0,0.0,0.0
-0.06617411971092224,0.1107068806886673,9.814754486083984,0.0007618500899237635,-0.0028787809108753314,0.00045391347392132933,1.869412899017334,2019-06-20 11:07:15:918,0.0,0.0,0.0
-0.03025287203490734,0.10112788528203964,9.730938911437988,0.003692042688460978,-0.0063417360896839015,0.0025849627222001605,1.8735294342041016,2019-06-20 11:07:15:922,0.0,0.0,0.0
-0.06377936899662018,0.12507538497447968,9.83391284942627,-0.0012360085620511645,-0.005542592706916228,-0.001943516836928145,1.8794121742248535,2019-06-20 11:07:15:928,0.0,0.0,0.0
-0.09012161195278168,0.07718038558959961,9.860255241394043,0.002759708741898692,-0.0010141130177507593,0.004582821179119344,1.8835248947143555,2019-06-20 11:07:15:932,0.0,0.0,0.0
0.0032736228313297033,0.07957513630390167,9.76446533203125,0.0030260898694879166,-0.005143020755458065,-0.0007448016977580532,1.889411449432373,2019-06-20 11:07:15:938,0.0,0.0,0.0
-0.027858123183250427,0.12747013568878174,9.778833389282227,0.0003622783660306361,-0.007806832031350311,-0.00034522997386492567,1.8935270309448242,2019-06-20 11:07:15:942,0.0,0.0,0.0
-0.07335836440324783,0.06999614089727402,9.795597076416016,-0.0011028179982565524,-0.004343877372690392,-0.00034522997386492567,1.899425983428955,2019-06-20 11:07:15:948,0.0,0.0,0.0
-0.020673874765634537,0.09154888242483139,9.814754486083984,-0.0020351519448188384,-0.00367792455371733,0.00431644005153012,1.9044299125671387,2019-06-20 11:07:15:953,0.0,0.0,0.0
0.022431619465351105,0.13465438783168793,9.783622741699219,-0.0007032462418541342,-0.007940022855219248,-0.0018103262731335328,1.9085307121276855,2019-06-20 11:07:15:957,0.0,0.0,0.0
-0.04462137073278427,0.08915413916110992,9.910544395446777,-0.0005700556780595219,-0.0020796375281076575,0.003384106104967834,1.9144344329833984,2019-06-20 11:07:15:963,0.0,0.0,0.0
-0.06377936899662018,0.09154888242483139,9.80517578125,0.0022269464867202427,-0.0022128280919022697,0.004183249487735508,1.919417381286621,2019-06-20 11:07:15:968,0.0,0.0,0.0
-0.013489625416696072,0.10112788528203964,9.790806770324707,0.0006286595261291513,-0.005276211059178353,0.0019190097731899363,1.9235262870788574,2019-06-20 11:07:15:972,0.0,0.0,0.0
-0.039831873029470444,0.10831213742494583,9.79320240020752,-0.0025679143300344504,-0.0026123997832861066,-0.00047842053765953795,1.929412841796875,2019-06-20 11:07:15:978,0.0,0.0,0.0
-0.054200369864702225,0.06281188875436783,9.8961763381958,-0.0017687708172296136,-0.0022128280919022697,-0.0008779922615526655,1.9344124794006348,2019-06-20 11:07:15:983,0.0,0.0,0.0
0.0008788731647655368,0.058022391051054,9.774044036865234,-0.0021683425086134506,-0.006608117217273125,0.0013862475180114872,1.9394173622131348,2019-06-20 11:07:15:988,0.0,0.0,0.0
0.008063122630119324,0.10112788528203964,9.81714916229248,0.0011614218463261818,-0.009405118796885659,0.0015194380818060996,1.9444098472595215,2019-06-20 11:07:15:993,0.0,0.0,0.0
-0.047016121447086334,0.09873313456773758,9.857860565185547,-0.0007032462418541342,-0.0056757830106365145,0.0005871040702252323,1.9485297203063965,2019-06-20 11:07:15:997,0.0,0.0,0.0
-0.054200369864702225,0.11310163140296936,9.838702201843262,-0.0011028179982565524,-0.003011971474669944,0.00018753233007745944,1.954409122467041,2019-06-20 11:07:16:003,0.0,0.0,0.0
-0.018279124051332474,0.11789113283157349,9.800386428833008,0.0018273746652992433,-0.00887235654170721,-0.00047842053765953795,1.9585285186767578,2019-06-20 11:07:16:007,0.0,0.0,0.0
-0.06617411971092224,0.10831213742494583,9.843491554260254,0.001294612410120794,-0.003944305681306555,-0.001943516836928145,1.9644088745117188,2019-06-20 11:07:16:013,0.0,0.0,0.0
-0.047016121447086334,0.08675938844680786,9.848280906677246,0.0015609935377100185,-0.0012804941453399838,0.0015194380818060996,1.9694123268127441,2019-06-20 11:07:16:018,0.0,0.0,0.0
0.012852621264755726,0.1035226359963417,9.819543838500977,-0.0007032462418541342,-0.0018132564005184332,-0.0011443734541604713,1.9735260009765625,2019-06-20 11:07:16:022,0.0,0.0,0.0
-0.04462137073278427,0.060417141765356064,9.781228065490723,-0.00576448812117947,-0.0032783528623334932,-0.0015439451455443083,1.97941255569458,2019-06-20 11:07:16:028,0.0,0.0,0.0
-0.03025287203490734,0.07957513630390167,9.879412651062012,0.0016941841015046311,-0.004343877372690392,-0.00034522997386492567,1.9835257530212402,2019-06-20 11:07:16:032,0.0,0.0,0.0
-0.027858123183250427,0.11310163140296936,9.786017417907715,-0.0036334388403913486,-0.0008809224539561469,0.0036504872325570587,1.9894118309020996,2019-06-20 11:07:16:038,0.0,0.0,0.0
0.017642121762037277,0.10591738671064377,9.745306968688965,0.0018273746652992433,-0.007140879472451575,0.0024517721584055483,1.9935269355773926,2019-06-20 11:07:16:042,0.0,0.0,0.0
-0.039831873029470444,0.09154888242483139,9.843491554260254,-0.0008364368056487465,-0.003944305681306555,-0.0015439451455443083,1.9994139671325684,2019-06-20 11:07:16:048,0.0,0.0,0.0
-0.05898986756801605,0.06999614089727402,9.819543838500977,0.0022269464867202427,-0.004477067676410679,0.0021853910308163235,2.003526210784912,2019-06-20 11:07:16:052,0.0,0.0,0.0
0.04158961772918701,0.13465438783168793,9.733333587646484,0.0003622783660306361,-0.005143020755458065,0.0007202946340198446,2.0094122886657715,2019-06-20 11:07:16:058,0.0,0.0,0.0
-0.008700125850737095,0.09394363313913345,9.809965133666992,-0.00017048393791174905,-0.006208545265814964,0.0015194380818060996,2.0135250091552734,2019-06-20 11:07:16:062,0.0,0.0,0.0
-0.04462137073278427,0.09873313456773758,9.869833946228027,-0.002434723766239838,-0.0008809224539561469,0.003916868360146284,2.019416332244873,2019-06-20 11:07:16:068,0.0,0.0,0.0
0.015247371047735214,0.10112788528203964,9.745306968688965,0.004890758022686814,-0.001413684709134596,0.000320722910126717,2.0244107246398926,2019-06-20 11:07:16:073,0.0,0.0,0.0
0.03201061859726906,0.11310163140296936,9.762070655822754,-0.0005700556780595219,-0.013267645927152391,5.4341754091863145e-05,2.028529644012451,2019-06-20 11:07:16:077,0.0,0.0,0.0
-0.047016121447086334,0.11549638211727142,9.862649917602539,-0.0015023896896403893,-0.004743448803999903,0.0008534851978144569,2.0344104766845703,2019-06-20 11:07:16:083,0.0,0.0,0.0
-0.011094875633716583,0.07957513630390167,9.841096878051758,-0.003500248276596736,-0.00367792455371733,-0.0012775640179550837,2.0385289192199707,2019-06-20 11:07:16:087,0.0,0.0,0.0
-0.027858123183250427,0.11310163140296936,9.747701644897461,-0.0023015332024452257,-0.003944305681306555,-0.001410754581749696,2.0444092750549316,2019-06-20 11:07:16:093,0.0,0.0,0.0
-0.03504237160086632,0.08196988701820374,9.788412094116211,-0.002967486021418287,-0.0035447339899227176,-0.00034522997386492567,2.0494136810302734,2019-06-20 11:07:16:098,0.0,0.0,0.0
-0.10209536552429199,0.1035226359963417,9.836307525634766,-0.0008364368056487465,-0.006474926393404189,0.0048492023067085695,2.0535244941711426,2019-06-20 11:07:16:102,0.0,0.0,0.0
-0.047016121447086334,0.09394363313913345,9.7141752243042,-0.0017687708172296136,-0.0063417360896839015,0.001253056954216875,2.0594124794006348,2019-06-20 11:07:16:108,0.0,0.0,0.0
-0.047016121447086334,0.12747013568878174,9.766860008239746,-0.0003036745179610067,-0.0056757830106365145,0.0025849627222001605,2.063528060913086,2019-06-20 11:07:16:112,0.0,0.0,0.0
-0.08054261654615402,0.06281188875436783,9.85546588897705,-0.00043686508175561897,0.0005841738778217508,0.0011198663904222626,2.069418430328369,2019-06-20 11:07:16:118,0.0,0.0,0.0
-0.039831873029470444,0.07239089161157608,9.829123497009277,-0.0008364368056487465,-0.006208545265814964,0.0008534851978144569,2.073530673980713,2019-06-20 11:07:16:122,0.0,0.0,0.0
0.022431619465351105,0.12747013568878174,9.788412094116211,0.0007618500899237635,-0.009671500444623534,-0.004474137679062942,2.0794148445129395,2019-06-20 11:07:16:128,0.0,0.0,0.0
-0.0494108721613884,0.08915413916110992,9.92491340637207,-0.0019019613810242262,-0.0019464469643130453,0.000320722910126717,2.084415912628174,2019-06-20 11:07:16:133,0.0,0.0,0.0
-0.03025287203490734,0.09394363313913345,9.84588623046875,-0.0012360085620511645,-0.0008809224539561469,0.002318581594610936,2.0894150733947754,2019-06-20 11:07:16:138,0.0,0.0,0.0
-0.011094875633716583,0.058022391051054,9.75488567352295,0.003958423816050202,-8.177901429721461e-05,0.005381964561887018,2.0935263633728027,2019-06-20 11:07:16:142,0.0,0.0,0.0
-0.03743712231516838,0.07478563487529755,9.84588623046875,0.0003622783660306361,-0.008605975414117985,-0.00034522997386492567,2.098534107208252,2019-06-20 11:07:16:147,0.0,0.0,0.0
-0.04462137073278427,0.05562764033675194,9.774044036865234,0.0035588521246663657,-0.003944305681306555,-0.0008779922615526655,2.1044235229492188,2019-06-20 11:07:16:153,0.0,0.0,0.0
-0.013489625416696072,0.1035226359963417,9.747701644897461,0.0007618500899237635,-0.004876639627868841,-0.0007448016977580532,2.109424114227295,2019-06-20 11:07:16:158,0.0,0.0,0.0
0.0487738661468029,0.08196988701820374,9.788412094116211,9.58972140594435e-05,-0.005276211059178353,-0.00047842053765953795,2.1135268211364746,2019-06-20 11:07:16:162,0.0,0.0,0.0
-0.04222662001848221,0.09154888242483139,9.853070259094238,-0.0007032462418541342,-0.002346018655696882,0.001253056954216875,2.1194119453430176,2019-06-20 11:07:16:168,0.0,0.0,0.0
-0.05659512057900429,0.07957513630390167,9.826728820800781,0.0031592804332825283,-0.0031451620384645557,-0.0006116111339634409,2.123526096343994,2019-06-20 11:07:16:172,0.0,0.0,0.0
-0.027858123183250427,0.1107068806886673,9.757280349731445,-0.003899819967980573,-0.007140879472451575,0.0015194380818060996,2.129411220550537,2019-06-20 11:07:16:178,0.0,0.0,0.0
-0.047016121447086334,0.0843646377325058,9.824334144592285,-0.005231725866001021,-0.00048135073006301944,-0.00047842053765953795,2.133528709411621,2019-06-20 11:07:16:182,0.0,0.0,0.0
-0.04462137073278427,0.08675938844680786,9.877017974853516,0.0003622783660306361,0.0016496983881786492,-0.0012775640179550837,2.1394128799438477,2019-06-20 11:07:16:188,0.0,0.0,0.0
0.005668372381478548,0.11549638211727142,9.733333587646484,0.0014278029739154064,-0.0056757830106365145,0.0021853910308163235,2.143527030944824,2019-06-20 11:07:16:192,0.0,0.0,0.0
-0.03025287203490734,0.12028588354587555,9.783622741699219,-0.0003036745179610067,-0.009671500444623534,5.4341754091863145e-05,2.148529052734375,2019-06-20 11:07:16:197,0.0,0.0,0.0
-0.1212533637881279,0.07957513630390167,9.819543838500977,-0.0019019613810242262,-0.007806832031350311,0.0009866757616090692,2.1544084548950195,2019-06-20 11:07:16:203,0.0,0.0,0.0
-0.027858123183250427,0.09873313456773758,9.905755043029785,-0.0007032462418541342,-0.006075354962094676,-0.001410754581749696,2.158531665802002,2019-06-20 11:07:16:207,0.0,0.0,0.0
-0.013489625416696072,0.10112788528203964,9.721359252929688,-0.001369199125845777,-0.00980469074834382,0.0017858192093953241,2.1644062995910645,2019-06-20 11:07:16:213,0.0,0.0,0.0
-0.03743712231516838,0.12268063426017761,9.848280906677246,-0.0025679143300344504,-0.00048135073006301944,0.00045391347392132933,2.169410228729248,2019-06-20 11:07:16:218,0.0,0.0,0.0
-0.05180561915040016,0.07718038558959961,9.853070259094238,-0.0028342954576236743,-0.005942164138225739,0.005115583434297794,2.1744112968444824,2019-06-20 11:07:16:223,0.0,0.0,0.0
0.0008788731647655368,0.12268063426017761,9.730938911437988,-0.0032338671490075113,-0.005942164138225739,0.0015194380818060996,2.178527355194092,2019-06-20 11:07:16:227,0.0,0.0,0.0
-0.047016121447086334,0.0843646377325058,9.83391284942627,-0.0020351519448188384,-0.0075404509037610866,0.0024517721584055483,2.1835265159606934,2019-06-20 11:07:16:232,0.0,0.0,0.0
-0.10688485950231552,0.1298648864030838,9.888992309570312,0.0003622783660306361,-0.005808973834505452,-0.003275422604911431,2.1894125938415527,2019-06-20 11:07:16:238,0.0,0.0,0.0
-0.03743712231516838,0.06520663946866989,9.76446533203125,-0.00017048393791174905,-0.005009829931589127,-0.001410754581749696,2.1935276985168457,2019-06-20 11:07:16:242,0.0,0.0,0.0
-0.020673874765634537,0.11789113283157349,9.795597076416016,-0.005364916169721308,-0.009405118796885659,-0.0008779922615526655,2.1985316276550293,2019-06-20 11:07:16:247,0.0,0.0,0.0
-0.054200369864702225,0.07957513630390167,9.867439270019531,0.001294612410120794,-0.003411543426128106,0.0005871040702252323,2.204409599304199,2019-06-20 11:07:16:253,0.0,0.0,0.0
-0.061384618282318115,0.12268063426017761,9.80517578125,-0.002434723766239838,-0.003011971474669944,-7.884882189373314e-05,2.208531379699707,2019-06-20 11:07:16:257,0.0,0.0,0.0
-0.04222662001848221,0.11310163140296936,9.740517616271973,-0.0003036745179610067,-0.007673641727630024,-0.004340947115268329,2.2144083976745605,2019-06-20 11:07:16:263,0.0,0.0,0.0
-0.04222662001848221,0.11549638211727142,9.819543838500977,9.58972140594435e-05,-0.0026123997832861066,-0.004340947115268329,2.218531608581543,2019-06-20 11:07:16:267,0.0,0.0,0.0
-0.018279124051332474,0.1107068806886673,9.774044036865234,0.001294612410120794,-0.002745590347080719,-0.002476279222143757,2.224409580230713,2019-06-20 11:07:16:273,0.0,0.0,0.0
-0.027858123183250427,0.1370491236448288,9.783622741699219,0.0022269464867202427,-0.005276211059178353,-0.002875850913527594,2.229414463043213,2019-06-20 11:07:16:278,0.0,0.0,0.0
-0.047016121447086334,0.09394363313913345,9.826728820800781,-0.0025679143300344504,-0.0056757830106365145,-0.001011182825347278,2.2335267066955566,2019-06-20 11:07:16:282,0.0,0.0,0.0
-0.07335836440324783,0.09633838385343552,9.87462329864502,-0.0009696273694433586,-0.002346018655696882,0.004050058923940896,2.239443778991699,2019-06-20 11:07:16:288,0.0,0.0,0.0
-0.02306862361729145,0.0843646377325058,9.867439270019531,0.0016941841015046311,-0.0018132564005184332,-0.00047842053765953795,2.2435312271118164,2019-06-20 11:07:16:292,0.0,0.0,0.0
0.029615869745612144,0.1035226359963417,9.824334144592285,0.0006286595261291513,-0.007673641727630024,-0.0015439451455443083,2.2494149208068848,2019-06-20 11:07:16:298,0.0,0.0,0.0
-0.05898986756801605,0.08675938844680786,9.84588623046875,-0.00043686508175561897,0.0035143664113403837,0.0020522003369845485,2.2535243034362793,2019-06-20 11:07:16:302,0.0,0.0,0.0
-0.05659512057900429,0.0843646377325058,9.809965133666992,0.0018273746652992433,-0.0038111151175119424,0.0028513438497893852,2.259413242340088,2019-06-20 11:07:16:308,0.0,0.0,0.0
0.010457871481776237,0.11549638211727142,9.809965133666992,-0.0012360085620511645,-0.010204262699801982,0.0021853910308163235,2.264413356781006,2019-06-20 11:07:16:313,0.0,0.0,0.0
-0.047016121447086334,0.08915413916110992,9.831518173217773,0.002759708741898692,-0.005942164138225739,-0.0018103262731335328,2.268531322479248,2019-06-20 11:07:16:317,0.0,0.0,0.0
-0.054200369864702225,0.09154888242483139,9.850675582885742,-0.0007032462418541342,-0.003011971474669944,0.0021853910308163235,2.274409770965576,2019-06-20 11:07:16:323,0.0,0.0,0.0
0.012852621264755726,0.12507538497447968,9.771649360656738,0.0031592804332825283,-0.004743448803999903,-0.002076707400722757,2.278531551361084,2019-06-20 11:07:16:327,0.0,0.0,0.0
-0.04222662001848221,0.09154888242483139,9.73572826385498,-0.0008364368056487465,-0.009271928493165372,-0.002609469785938369,2.28352689743042,2019-06-20 11:07:16:332,0.0,0.0,0.0
-0.04222662001848221,0.08196988701820374,9.884202003479004,-0.0012360085620511645,-0.0032783528623334932,0.0013862475180114872,2.289414882659912,2019-06-20 11:07:16:338,0.0,0.0,0.0
-0.0015158765017986298,0.13465438783168793,9.807570457458496,0.00022908778598137848,-0.0040774962451011676,0.0036504872325570587,2.293527603149414,2019-06-20 11:07:16:342,0.0,0.0,0.0
0.0008788731647655368,0.09394363313913345,9.738122940063477,9.58972140594435e-05,-0.00687449834486235,0.0024517721584055483,2.298530101776123,2019-06-20 11:07:16:347,0.0,0.0,0.0
-0.03025287203490734,0.12507538497447968,9.850675582885742,-0.001369199125845777,-0.0019464469643130453,0.001652628645600712,2.304410457611084,2019-06-20 11:07:16:353,0.0,0.0,0.0
-0.0685688704252243,0.08675938844680786,9.865044593811035,-0.00043686508175561897,-0.003011971474669944,5.4341754091863145e-05,2.308530330657959,2019-06-20 11:07:16:357,0.0,0.0,0.0
0.03919486701488495,0.08915413916110992,9.821938514709473,-0.0021683425086134506,-0.00540940188304729,-0.001410754581749696,2.3144121170043945,2019-06-20 11:07:16:363,0.0,0.0,0.0
-0.047016121447086334,0.09394363313913345,9.757280349731445,-0.0008364368056487465,-0.007407260600040799,-0.002875850913527594,2.3185276985168457,2019-06-20 11:07:16:367,0.0,0.0,0.0
-0.0949111133813858,0.0843646377325058,9.881807327270508,-0.0017687708172296136,-0.0015468752729292082,-0.0027426603497329814,2.324411392211914,2019-06-20 11:07:16:373,0.0,0.0,0.0
-0.01588437519967556,0.12028588354587555,9.862649917602539,0.00382523325225559,-0.0031451620384645557,-0.00021203939381566809,2.3285627365112305,2019-06-20 11:07:16:377,0.0,0.0,0.0
-0.02306862361729145,0.10591738671064377,9.788412094116211,0.002360137050514855,-0.006075354962094676,-0.002875850913527594,2.3344321250915527,2019-06-20 11:07:16:383,0.0,0.0,0.0
-0.08054261654615402,0.10831213742494583,9.747701644897461,-0.0005700556780595219,-0.007140879472451575,-0.0007448016977580532,2.3394246101379395,2019-06-20 11:07:16:388,0.0,0.0,0.0
-0.0685688704252243,0.07718038558959961,9.877017974853516,-0.002967486021418287,-0.0007477318901615347,0.001652628645600712,2.343522071838379,2019-06-20 11:07:16:392,0.0,0.0,0.0
0.0008788731647655368,0.09394363313913345,9.771649360656738,-0.0036334388403913486,-0.008073213158939536,-0.0023430886583491444,2.349426746368408,2019-06-20 11:07:16:398,0.0,0.0,0.0
-0.06377936899662018,0.1107068806886673,9.877017974853516,0.0003622783660306361,-0.009271928493165372,5.4341754091863145e-05,2.3544349670410156,2019-06-20 11:07:16:403,0.0,0.0,0.0
-0.0685688704252243,0.07478563487529755,9.888992309570312,0.0006286595261291513,-0.00367792455371733,0.00018753233007745944,2.358530044555664,2019-06-20 11:07:16:407,0.0,0.0,0.0
-0.03025287203490734,0.10831213742494583,9.781228065490723,-0.0016355802534350015,-0.005942164138225739,-7.884882189373314e-05,2.3644089698791504,2019-06-20 11:07:16:413,0.0,0.0,0.0
0.02003687061369419,0.11549638211727142,9.76446533203125,-0.004698963610822572,-0.004210686808895779,-0.004074565987679104,2.368556499481201,2019-06-20 11:07:16:417,0.0,0.0,0.0
-0.018279124051332474,0.07718038558959961,9.917729377746582,0.0014278029739154064,-0.0040774962451011676,-0.0023430886583491444,2.37442684173584,2019-06-20 11:07:16:423,0.0,0.0,0.0
-0.02306862361729145,0.1035226359963417,9.81714916229248,0.0015609935377100185,-0.008605975414117985,0.0011198663904222626,2.3794121742248535,2019-06-20 11:07:16:428,0.0,0.0,0.0
-0.0015158765017986298,0.1107068806886673,9.826728820800781,-0.0012360085620511645,-0.010337453003522271,0.0007202946340198446,2.38352632522583,2019-06-20 11:07:16:432,0.0,0.0,0.0
-0.07096362113952637,0.11310163140296936,9.877017974853516,0.0019605652290938555,-0.006208545265814964,-0.0018103262731335328,2.389413356781006,2019-06-20 11:07:16:438,0.0,0.0,0.0
0.02003687061369419,0.10112788528203964,9.8961763381958,0.003292470997077141,0.0012501266967948122,0.001652628645600712,2.3935279846191406,2019-06-20 11:07:16:442,0.0,0.0,0.0
0.10385310649871826,0.17297036945819855,9.728543281555176,-0.005231725866001021,-0.008339594286528761,0.0009866757616090692,2.399413585662842,2019-06-20 11:07:16:448,0.0,0.0,0.0
-0.027858123183250427,0.11789113283157349,9.85546588897705,-0.005364916169721308,0.0009837455692055877,-0.005406471885699552,2.404409885406494,2019-06-20 11:07:16:453,0.0,0.0,0.0
-0.02306862361729145,0.06520663946866989,9.853070259094238,-0.007096393759125593,-0.0015468752729292082,-0.0042077565514737165,2.4085335731506348,2019-06-20 11:07:16:457,0.0,0.0,0.0
0.07032661139965057,-0.044951844960451126,9.666279792785645,-0.0008364368056487465,-0.007274069776171861,-0.001011182825347278,2.414414882659912,2019-06-20 11:07:16:463,0.0,0.0,0.0
0.08708985894918442,-0.013820100575685501,9.80517578125,0.004224804943639427,-0.011402977513879168,0.0024517721584055483,2.419434070587158,2019-06-20 11:07:16:468,0.0,0.0,0.0
-0.032647620886564255,0.019706394523382187,9.829123497009277,0.002892899305693304,-0.009671500444623534,0.006580679896112855,2.4235262870788574,2019-06-20 11:07:16:472,0.0,0.0,0.0
0.08469511568546295,0.23762862384319305,9.929702758789062,-0.0008364368056487465,-0.009138738189445085,0.0011198663904222626,2.429412364959717,2019-06-20 11:07:16:478,0.0,0.0,0.0
0.1541428565979004,0.22326011955738068,9.759675025939941,-0.004965344738411796,-0.011402977513879168,-0.002609469785938369,2.4344124794006348,2019-06-20 11:07:16:483,0.0,0.0,0.0
0.0942741110920906,0.09633838385343552,9.87462329864502,-0.007495965190435105,-0.0016800658367238208,0.0017858192093953241,2.4385294914245605,2019-06-20 11:07:16:487,0.0,0.0,0.0
0.06314236670732498,-0.006635851226747036,9.891386985778809,0.0014278029739154064,0.006977321330074629,0.007379823278880528,2.4444069862365723,2019-06-20 11:07:16:493,0.0,0.0,0.0
0.16132710874080658,0.019706394523382187,9.757280349731445,0.005956282533043712,-0.00367792455371733,0.005381964561887018,2.448530673980713,2019-06-20 11:07:16:497,0.0,0.0,0.0
0.08230036497116089,0.1107068806886673,9.809965133666992,-0.0007032462418541342,-0.005808973834505452,0.001652628645600712,2.4535269737243652,2019-06-20 11:07:16:502,0.0,0.0,0.0
0.012852621264755726,0.14423337578773499,9.79320240020752,-0.001369199125845777,-0.00367792455371733,0.0005871040702252323,2.459409236907959,2019-06-20 11:07:16:508,0.0,0.0,0.0
0.06553711742162704,0.12747013568878174,9.771649360656738,-0.005098535042132083,-0.009671500444623534,-0.0034086131687060426,2.4635257720947266,2019-06-20 11:07:16:512,0.0,0.0,0.0
0.10864260792732239,0.034074895083904266,9.778833389282227,0.002892899305693304,-0.011935739769057619,0.0011198663904222626,2.468529224395752,2019-06-20 11:07:16:517,0.0,0.0,0.0
0.07751086354255676,0.07957513630390167,9.956045150756836,9.58972140594435e-05,-0.007140879472451575,5.4341754091863145e-05,2.4744086265563965,2019-06-20 11:07:16:523,0.0,0.0,0.0
0.08948460966348648,0.1370491236448288,9.869833946228027,-3.7293361926152775e-05,-0.006741307520993413,-0.00034522997386492567,2.478529930114746,2019-06-20 11:07:16:527,0.0,0.0,0.0
0.11343210935592651,0.2017073780298233,9.836307525634766,-0.006164059552488983,-0.0024792092194914944,-0.0012775640179550837,2.484409809112549,2019-06-20 11:07:16:533,0.0,0.0,0.0
0.03919486701488495,0.12028588354587555,9.795597076416016,-0.003367057712802124,-0.0022128280919022697,-0.002875850913527594,2.4885287284851074,2019-06-20 11:07:16:537,0.0,0.0,0.0
0.02722111903131008,0.046048641204833984,9.778833389282227,0.0016941841015046311,0.001516507824384037,0.001652628645600712,2.4944100379943848,2019-06-20 11:07:16:543,0.0,0.0,0.0
0.029615869745612144,0.04844339191913605,9.704596519470215,0.0050239483264071004,-0.008472785110397698,0.0071134421512913035,2.4985289573669434,2019-06-20 11:07:16:547,0.0,0.0,0.0
-0.018279124051332474,0.14183862507343292,9.797991752624512,0.0011614218463261818,-0.00687449834486235,0.004183249487735508,2.5035548210144043,2019-06-20 11:07:16:552,0.0,0.0,0.0
-0.013489625416696072,0.15381237864494324,9.881807327270508,-0.0025679143300344504,-0.004210686808895779,0.0017858192093953241,2.509416103363037,2019-06-20 11:07:16:558,0.0,0.0,0.0
0.07272136211395264,0.16578613221645355,9.824334144592285,-0.00722958406284588,-0.013267645927152391,0.0009866757616090692,2.51352596282959,2019-06-20 11:07:16:562,0.0,0.0,0.0
0.09906361252069473,0.058022391051054,9.814754486083984,-0.003367057712802124,-0.008339594286528761,-0.005140090758110328,2.519442081451416,2019-06-20 11:07:16:568,0.0,0.0,0.0
0.024826370179653168,0.05083814263343811,9.865044593811035,0.0015609935377100185,-0.0012804941453399838,0.0071134421512913035,2.524411678314209,2019-06-20 11:07:16:573,0.0,0.0,0.0
0.02722111903131008,0.04125914350152016,9.867439270019531,9.58972140594435e-05,0.0009837455692055877,-0.001943516836928145,2.5285286903381348,2019-06-20 11:07:16:577,0.0,0.0,0.0
0.04637911915779114,0.16099663078784943,9.807570457458496,-0.0003036745179610067,5.141156168838168e-05,0.0037836777963516713,2.5344090461730957,2019-06-20 11:07:16:583,0.0,0.0,0.0
-0.013489625416696072,0.17775987088680267,9.826728820800781,0.0006286595261291513,-0.007806832031350311,-0.0036749942962952674,2.5385308265686035,2019-06-20 11:07:16:587,0.0,0.0,0.0
-0.03504237160086632,0.07239089161157608,9.843491554260254,-0.003500248276596736,-0.005542592706916228,-0.0011443734541604713,2.543527126312256,2019-06-20 11:07:16:592,0.0,0.0,0.0
0.0008788731647655368,0.014916895888745785,9.783622741699219,0.002892899305693304,-0.006208545265814964,0.0019190097731899363,2.5494093894958496,2019-06-20 11:07:16:598,0.0,0.0,0.0
0.022431619465351105,0.05083814263343811,9.826728820800781,0.0024933276143094675,-0.0152655046441459,0.0028513438497893852,2.5535264015197754,2019-06-20 11:07:16:602,0.0,0.0,0.0
0.03201061859726906,0.09633838385343552,9.831518173217773,0.0022269464867202427,-0.009271928493165372,0.00045391347392132933,2.559414863586426,2019-06-20 11:07:16:608,0.0,0.0,0.0
0.07032661139965057,0.16818088293075562,9.841096878051758,-0.0032338671490075113,-0.004743448803999903,0.0011198663904222626,2.563528537750244,2019-06-20 11:07:16:612,0.0,0.0,0.0
0.02003687061369419,0.08915413916110992,9.81714916229248,-0.00429939165936441,-0.00540940188304729,-0.002476279222143757,2.569410800933838,2019-06-20 11:07:16:618,0.0,0.0,0.0
0.09666886180639267,0.026890644803643227,9.812359809875488,-0.0016355802534350015,-0.008472785110397698,-0.00753752090641335,2.5735244750976562,2019-06-20 11:07:16:622,0.0,0.0,0.0
0.02722111903131008,0.03646964207291603,9.877017974853516,-0.00017048393791174905,-0.007940022855219248,-0.004607328502931879,2.5794124603271484,2019-06-20 11:07:16:628,0.0,0.0,0.0
0.043984368443489075,0.08196988701820374,9.853070259094238,0.0010282312175129882,-0.009671500444623534,0.0024517721584055483,2.583527088165283,2019-06-20 11:07:16:632,0.0,0.0,0.0
0.04158961772918701,0.13465438783168793,9.824334144592285,-0.0008364368056487465,-0.011669359161617043,-0.005939234140878001,2.589510440826416,2019-06-20 11:07:16:638,0.0,0.0,0.0
0.022431619465351105,0.11310163140296936,9.93688678741455,-0.0044325824832333474,-0.011402977513879168,-0.009268997975668984,2.5945591926574707,2019-06-20 11:07:16:643,0.0,0.0,0.0
0.07272136211395264,0.014916895888745785,9.860255241394043,0.0020937557928884677,-0.008073213158939536,-0.0056728530132887775,2.5994863510131836,2019-06-20 11:07:16:648,0.0,0.0,0.0
0.08948460966348648,0.038864392787218094,9.860255241394043,-0.0015023896896403893,-0.008605975414117985,-0.006072424444598289,2.604478359222412,2019-06-20 11:07:16:653,0.0,0.0,0.0
0.051168616861104965,0.14423337578773499,9.912939071655273,-0.0021683425086134506,-0.009671500444623534,-0.006605186699776737,2.6094918251037598,2019-06-20 11:07:16:658,0.0,0.0,0.0
0.06074761599302292,0.09633838385343552,9.886597633361816,-0.00043686508175561897,-0.00367792455371733,-0.006205615268467226,2.6144800186157227,2019-06-20 11:07:16:663,0.0,0.0,0.0
0.043984368443489075,0.11789113283157349,9.83391284942627,-0.004832153914542859,-0.0016800658367238208,-0.012332381203019393,2.618684768676758,2019-06-20 11:07:16:667,0.0,0.0,0.0
-0.0015158765017986298,0.06999614089727402,9.829123497009277,-0.0020351519448188384,-0.007940022855219248,-0.004873709630521104,2.624427318572998,2019-06-20 11:07:16:673,0.0,0.0,0.0
-0.011094875633716583,0.11789113283157349,9.848280906677246,-0.0031006765852128995,-0.008206403982808473,-0.005939234140878001,2.629413604736328,2019-06-20 11:07:16:678,0.0,0.0,0.0
0.043984368443489075,0.09394363313913345,9.838702201843262,0.004224804943639427,-0.004210686808895779,-0.004474137679062942,2.6335301399230957,2019-06-20 11:07:16:682,0.0,0.0,0.0
0.029615869745612144,0.12507538497447968,9.826728820800781,0.0004954689298252484,-0.011136596906438593,-0.0015439451455443083,2.639410972595215,2019-06-20 11:07:16:688,0.0,0.0,0.0
0.02722111903131008,0.1370491236448288,9.80517578125,-0.0025679143300344504,-0.0038111151175119424,-0.00753752090641335,2.6444430351257324,2019-06-20 11:07:16:693,0.0,0.0,0.0
-0.011094875633716583,0.11789113283157349,9.898571014404297,-0.0007032462418541342,-0.0035447339899227176,-0.007803902034002573,2.648550510406494,2019-06-20 11:07:16:697,0.0,0.0,0.0
0.03919486701488495,0.08915413916110992,9.860255241394043,-0.006963202935256655,-0.008472785110397698,-0.004607328502931879,2.654407501220703,2019-06-20 11:07:16:703,0.0,0.0,0.0
-0.02306862361729145,0.11310163140296936,9.77643871307373,0.0026265181781040797,-0.00980469074834382,-0.004074565987679104,2.658524990081787,2019-06-20 11:07:16:707,0.0,0.0,0.0
-0.12364811450242996,0.1035226359963417,9.843491554260254,-0.0032338671490075113,-0.005276211059178353,-0.0023430886583491444,2.6644058227539062,2019-06-20 11:07:16:713,0.0,0.0,0.0
-0.01588437519967556,0.15860188007354736,9.77643871307373,-0.0012360085620511645,-0.008739166237986921,-0.0034086131687060426,2.669416904449463,2019-06-20 11:07:16:718,0.0,0.0,0.0
-0.018279124051332474,0.1633913815021515,9.766860008239746,-0.00043686508175561897,-0.008206403982808473,0.00045391347392132933,2.673522472381592,2019-06-20 11:07:16:722,0.0,0.0,0.0
-0.08054261654615402,0.07239089161157608,9.857860565185547,-3.7293361926152775e-05,-0.006075354962094676,0.001253056954216875,2.6794095039367676,2019-06-20 11:07:16:728,0.0,0.0,0.0
-0.0757531151175499,0.10831213742494583,9.838702201843262,-0.0003036745179610067,-0.005009829931589127,0.00431644005153012,2.6835269927978516,2019-06-20 11:07:16:732,0.0,0.0,0.0
-0.05898986756801605,0.06760139018297195,9.771649360656738,-0.0020351519448188384,-0.0038111151175119424,0.0044496308753990575,2.689413547515869,2019-06-20 11:07:16:738,0.0,0.0,0.0
-0.07814786583185196,0.16099663078784943,9.83391284942627,-0.0003036745179610067,-0.0003481601662684072,0.0015194380818060996,2.6935324668884277,2019-06-20 11:07:16:742,0.0,0.0,0.0
-0.09251636266708374,0.13465438783168793,9.786017417907715,0.0011614218463261818,-0.0032783528623334932,0.001652628645600712,2.699415683746338,2019-06-20 11:07:16:748,0.0,0.0,0.0
-0.07335836440324783,0.09633838385343552,9.795597076416016,-0.0007032462418541342,-0.005276211059178353,0.006447489072243917,2.703519344329834,2019-06-20 11:07:16:752,0.0,0.0,0.0
-0.09251636266708374,0.04125914350152016,9.781228065490723,9.58972140594435e-05,-0.008739166237986921,0.007379823278880528,2.7094082832336426,2019-06-20 11:07:16:758,0.0,0.0,0.0
-0.13322710990905762,0.08196988701820374,9.819543838500977,-0.0012360085620511645,-0.004343877372690392,0.010975968761409384,2.7135276794433594,2019-06-20 11:07:16:762,0.0,0.0,0.0
-0.1212533637881279,0.08915413916110992,9.836307525634766,-0.0011028179982565524,-0.00367792455371733,0.008978110044415875,2.7194323539733887,2019-06-20 11:07:16:768,0.0,0.0,0.0
-0.10927961021661758,0.12507538497447968,9.81714916229248,-0.00017048393791174905,-0.007673641727630024,0.008844919740695588,2.723519802093506,2019-06-20 11:07:16:772,0.0,0.0,0.0
-0.1212533637881279,0.13225963711738586,9.927308082580566,-0.0009696273694433586,-0.003411543426128106,0.01124234936884996,2.728527545928955,2019-06-20 11:07:16:777,0.0,0.0,0.0
-0.15717460215091705,0.06520663946866989,9.85546588897705,0.0018273746652992433,-0.00980469074834382,0.0181682597264671,2.7344112396240234,2019-06-20 11:07:16:783,0.0,0.0,0.0
-0.11885861307382584,0.06999614089727402,9.826728820800781,0.0016941841015046311,-0.008739166237986921,0.016037210705753303,2.738548755645752,2019-06-20 11:07:16:787,0.0,0.0,0.0
-0.17633260786533356,0.09873313456773758,9.814754486083984,-0.0011028179982565524,-0.007806832031350311,0.016436781616914163,2.7435402870178223,2019-06-20 11:07:16:792,0.0,0.0,0.0
-0.12604285776615143,0.06520663946866989,9.884202003479004,-0.0012360085620511645,-0.007007688648582638,0.01617040100947359,2.7494101524353027,2019-06-20 11:07:16:798,0.0,0.0,0.0
-0.11406911164522171,0.04844339191913605,9.812359809875488,-0.0007032462418541342,-0.007673641727630024,0.018967403629383425,2.7544007301330566,2019-06-20 11:07:16:803,0.0,0.0,0.0
-0.1667536050081253,0.08675938844680786,9.783622741699219,0.0016941841015046311,-0.005143020755458065,0.015904019361735716,2.7585272789001465,2019-06-20 11:07:16:807,0.0,0.0,0.0
-0.14759561419487,0.11310163140296936,9.826728820800781,9.58972140594435e-05,-0.0028787809108753314,0.020832069962062043,2.764411449432373,2019-06-20 11:07:16:813,0.0,0.0,0.0
-0.16914835572242737,0.1633913815021515,9.829123497009277,0.0035588521246663657,-0.004743448803999903,0.019366975580841585,2.7694101333618164,2019-06-20 11:07:16:818,0.0,0.0,0.0
-0.13562186062335968,0.07239089161157608,9.819543838500977,-0.0032338671490075113,-0.007140879472451575,0.014305732596200367,2.7735190391540527,2019-06-20 11:07:16:822,0.0,0.0,0.0
-0.20746435225009918,0.053232889622449875,9.872228622436523,-0.0021683425086134506,0.0011169361330001998,0.018701020941348248,2.7785286903381348,2019-06-20 11:07:16:827,0.0,0.0,0.0
-0.13322710990905762,0.03646964207291603,9.826728820800781,0.0016941841015046311,-0.00887235654170721,0.018701020941348248,2.7844090461730957,2019-06-20 11:07:16:833,0.0,0.0,0.0
-0.17872735857963562,0.026890644803643227,9.829123497009277,0.0014278029739154064,-0.005942164138225739,0.02216397716045412,2.788557529449463,2019-06-20 11:07:16:837,0.0,0.0,0.0
-0.200280100107193,0.058022391051054,9.766860008239746,0.003292470997077141,-0.004477067676410679,0.018301451070484687,2.793522357940674,2019-06-20 11:07:16:842,0.0,0.0,0.0
-0.17154310643672943,0.14423337578773499,9.872228622436523,0.00022908778598137848,-0.00367792455371733,0.0181682597264671,2.7994141578674316,2019-06-20 11:07:16:848,0.0,0.0,0.0
-0.15717460215091705,0.10831213742494583,9.841096878051758,0.0010282312175129882,-0.006608117217273125,0.014172542292480082,2.804415225982666,2019-06-20 11:07:16:853,0.0,0.0,0.0
-0.15238510072231293,0.06520663946866989,9.812359809875488,-0.0015023896896403893,-0.008472785110397698,0.017901879119026524,2.8094100952148438,2019-06-20 11:07:16:858,0.0,0.0,0.0
-0.14759561419487,0.04844339191913605,9.869833946228027,-0.006696821807667432,-0.004610258500279616,0.020032928139740322,2.8135194778442383,2019-06-20 11:07:16:862,0.0,0.0,0.0
-0.14999036490917206,0.02210114523768425,9.877017974853516,0.004890758022686814,0.00045098328151784784,0.017502307167568364,2.818528652191162,2019-06-20 11:07:16:867,0.0,0.0,0.0
-0.15956935286521912,0.08915413916110992,9.829123497009277,0.003425661560871753,-0.004610258500279616,0.018301451070484687,2.8244128227233887,2019-06-20 11:07:16:873,0.0,0.0,0.0
-0.14999036490917206,0.18733887374401093,9.83391284942627,-0.002967486021418287,-0.003011971474669944,0.018434640333907674,2.8285298347473145,2019-06-20 11:07:16:877,0.0,0.0,0.0
-0.20267485082149506,0.1035226359963417,9.783622741699219,-0.001369199125845777,-0.0031451620384645557,0.016303591313193876,2.8344407081604004,2019-06-20 11:07:16:883,0.0,0.0,0.0
-0.14520086348056793,0.06281188875436783,9.683043479919434,0.0007618500899237635,-0.005009829931589127,0.014838494851378815,2.839418888092041,2019-06-20 11:07:16:888,0.0,0.0,0.0
-0.13083235919475555,-0.006635851226747036,9.699807167053223,0.004224804943639427,-0.009138738189445085,0.017768687775008937,2.843522071838379,2019-06-20 11:07:16:892,0.0,0.0,0.0
-0.1930958479642868,0.1107068806886673,9.831518173217773,0.004624376895097589,-0.0024792092194914944,0.019899736795722735,2.8485283851623535,2019-06-20 11:07:16:897,0.0,0.0,0.0
-0.12604285776615143,0.14423337578773499,9.819543838500977,0.0010282312175129882,-0.008739166237986921,0.012840636134385306,2.8544106483459473,2019-06-20 11:07:16:903,0.0,0.0,0.0
-0.011094875633716583,0.13465438783168793,9.766860008239746,-0.0007032462418541342,-0.008739166237986921,0.011908302968045997,2.8594155311584473,2019-06-20 11:07:16:908,0.0,0.0,0.0
-0.13083235919475555,0.06760139018297195,9.92491340637207,-0.00043686508175561897,-0.004743448803999903,0.01124234936884996,2.8635201454162598,2019-06-20 11:07:16:912,0.0,0.0,0.0
-0.08054261654615402,0.010127396322786808,9.946465492248535,0.0024933276143094675,-0.0024792092194914944,0.0181682597264671,2.869412422180176,2019-06-20 11:07:16:918,0.0,0.0,0.0
-0.03025287203490734,0.09394363313913345,9.83391284942627,0.007421378474710123,-0.004477067676410679,0.014572114243938243,2.8735294342041016,2019-06-20 11:07:16:922,0.0,0.0,0.0
-0.0949111133813858,0.14662812650203705,9.884202003479004,-0.0005700556780595219,-0.0026123997832861066,0.015371257106557266,2.8794503211975098,2019-06-20 11:07:16:928,0.0,0.0,0.0
-0.12364811450242996,0.0843646377325058,9.85546588897705,-0.003500248276596736,-0.0006145413263669223,0.01324020808584347,2.8844332695007324,2019-06-20 11:07:16:933,0.0,0.0,0.0
-0.09251636266708374,0.09873313456773758,9.809965133666992,0.0031592804332825283,0.00018460213767397795,0.0097772539473322,2.8885293006896973,2019-06-20 11:07:16:937,0.0,0.0,0.0
-0.08533211797475815,0.04844339191913605,9.759675025939941,0.002892899305693304,-0.0008809224539561469,0.009910444251052487,2.8935208320617676,2019-06-20 11:07:16:942,0.0,0.0,0.0
-0.12604285776615143,0.058022391051054,9.738122940063477,0.0004954689298252484,-0.0011473035815453717,0.012041493271766283,2.898529529571533,2019-06-20 11:07:16:947,0.0,0.0,0.0
-0.11167436093091965,0.04365389049053192,9.905755043029785,0.0018273746652992433,0.0021824607733942607,0.016436781616914163,2.9044108390808105,2019-06-20 11:07:16:953,0.0,0.0,0.0
-0.22183284163475037,0.09154888242483139,9.781228065490723,0.021140008366075467,-0.01872845982295447,0.01617040100947359,2.90853214263916,2019-06-20 11:07:16:957,0.0,0.0,0.0
0.5708292722702026,0.5537355542182922,9.699807167053223,-0.018018019990283803,0.01776575829780985,0.02216397716045412,2.913522243499756,2019-06-20 11:07:16:962,0.0,0.0,0.0
0.26190659403800964,0.40047159790992737,9.766860008239746,0.001294612410120794,-0.029383704926523452,-0.0027426603497329814,2.9185304641723633,2019-06-20 11:07:16:967,0.0,0.0,0.0
-0.494834303855896,0.10112788528203964,10.45175838470459,-0.033601317774773716,0.04040815570333989,0.027624791056256197,2.9244132041931152,2019-06-20 11:07:16:973,0.0,0.0,0.0
0.5492765307426453,0.11549638211727142,9.323830604553223,0.011683477036286366,-0.016064647506764923,0.012973827478402894,2.9294991493225098,2019-06-20 11:07:16:978,0.0,0.0,0.0
-0.2194381058216095,0.12028588354587555,9.529779434204102,-0.008428299397071716,-0.009937881052064107,0.017768687775008937,2.933525562286377,2019-06-20 11:07:16:982,0.0,0.0,0.0
-0.5235713124275208,0.242418110370636,10.00633430480957,-0.013755921948856208,0.03974220314444115,0.01510487649911669,2.939405918121338,2019-06-20 11:07:16:988,0.0,0.0,0.0
-0.07814786583185196,-0.0928468406200409,9.065197944641113,0.006755425915811386,-0.037641518321343465,0.004050058923940896,2.9435200691223145,2019-06-20 11:07:16:992,0.0,0.0,0.0
-0.7989675402641296,-0.22695282101631165,10.08536148071289,-0.016952495479926902,-0.00367792455371733,0.02349588227825159,2.9494071006774902,2019-06-20 11:07:16:998,0.0,0.0,0.0
-0.5283607840538025,-0.32513755559921265,9.929702758789062,0.02766634469163984,0.010573466292454835,0.01124234936884996,2.953521251678467,2019-06-20 11:07:17:002,0.0,0.0,0.0
0.05356336757540703,0.014916895888745785,9.637543678283691,0.001294612410120794,-0.04097128527702635,0.018967403629383425,2.9585251808166504,2019-06-20 11:07:17:007,0.0,0.0,0.0
-0.9378629922866821,-0.009030601009726524,10.425415992736816,0.0019605652290938555,-0.0032783528623334932,0.01124234936884996,2.9644036293029785,2019-06-20 11:07:17:013,0.0,0.0,0.0
0.16372185945510864,-0.02100434899330139,9.62796401977539,0.03659011480654779,0.02176147573179687,-0.0056728530132887775,2.9685263633728027,2019-06-20 11:07:17:017,0.0,0.0,0.0
0.051168616861104965,0.295102596282959,9.979992866516113,-0.025609882906799677,-0.03138156260321966,0.01963335618828216,2.9735641479492188,2019-06-20 11:07:17:022,0.0,0.0,0.0
-0.9234945178031921,0.09633838385343552,10.485284805297852,0.008220521857477795,0.019364044023047897,-0.005806043317009063,2.979416847229004,2019-06-20 11:07:17:028,0.0,0.0,0.0
0.4295390546321869,0.02928539365530014,9.189724922180176,0.02673401152530053,0.013636849519805243,-0.00753752090641335,2.9836411476135254,2019-06-20 11:07:17:032,0.0,0.0,0.0
-0.2840963304042816,0.2663656175136566,9.807570457458496,-0.026542218153733588,-0.019394412381853205,0.019500164844264572,2.9885497093200684,2019-06-20 11:07:17:037,0.0,0.0,0.0
-0.6145718097686768,-0.044951844960451126,9.948861122131348,0.026201250310419383,-0.013267645927152391,-0.027116535084592983,2.9944143295288086,2019-06-20 11:07:17:043,0.0,0.0,0.0
0.4415128231048584,0.09394363313913345,9.623174667358398,0.0018273746652992433,-0.012202121416795494,0.000320722910126717,2.998530864715576,2019-06-20 11:07:17:047,0.0,0.0,0.0
0.1733008474111557,0.21128636598587036,9.843491554260254,-0.01655292456876604,0.0172329950023341,0.005781536513345181,3.004401683807373,2019-06-20 11:07:17:053,0.0,0.0,0.0
-0.26733309030532837,0.1633913815021515,9.872228622436523,0.025934867622384204,0.01416961177498369,-0.023520389602064127,3.0085253715515137,2019-06-20 11:07:17:057,0.0,0.0,0.0
0.17809034883975983,0.12268063426017761,9.448357582092285,-0.009893395858886777,0.017632566953792263,-0.0056728530132887775,3.0144104957580566,2019-06-20 11:07:17:063,0.0,0.0,0.0
-0.10209536552429199,0.05562764033675194,9.67346477508545,-0.007762346318024329,0.011239419891650873,-0.016594479244446982,3.0185322761535645,2019-06-20 11:07:17:067,0.0,0.0,0.0
-0.039831873029470444,0.12507538497447968,9.81714916229248,-0.0023015332024452257,-0.032313897850153574,-0.021522529844773316,3.0244336128234863,2019-06-20 11:07:17:073,0.0,0.0,0.0
0.07751086354255676,-0.09763634204864502,9.87462329864502,-0.023478833886085883,-0.012068930072777904,-0.003275422604911431,3.028532028198242,2019-06-20 11:07:17:077,0.0,0.0,0.0
0.07990561425685883,-0.1120048388838768,9.72614860534668,0.033793111146340656,0.04040815570333989,-0.020057435463552854,3.033519744873047,2019-06-20 11:07:17:082,0.0,0.0,0.0
0.33853858709335327,0.17057561874389648,9.604016304016113,0.0024933276143094675,0.019763615974506057,-0.007137948954955187,3.0394110679626465,2019-06-20 11:07:17:088,0.0,0.0,0.0
-0.3319913446903229,0.1562071293592453,10.054229736328125,-0.011358492320701836,0.0021824607733942607,-0.012199190899299104,3.043525218963623,2019-06-20 11:07:17:092,0.0,0.0,0.0
-0.16196410357952118,0.07478563487529755,9.879412651062012,0.013681335753279875,0.024958049262867564,-0.02565143862277792,3.0485291481018066,2019-06-20 11:07:17:097,0.0,0.0,0.0
0.12301110476255417,0.22326011955738068,9.635148048400879,-0.01655292456876604,-0.014466360741229575,-0.004873709630521104,3.0535197257995605,2019-06-20 11:07:17:102,0.0,0.0,0.0
-0.26733309030532837,0.23762862384319305,9.970413208007812,-0.0023015332024452257,5.141156168838168e-05,-0.012465571506739678,3.0585312843322754,2019-06-20 11:07:17:107,0.0,0.0,0.0
0.09187936037778854,0.3382081091403961,9.910544395446777,-0.010426158114065226,0.006311368251027242,-0.018059575706262047,3.064406394958496,2019-06-20 11:07:17:113,0.0,0.0,0.0
-0.07814786583185196,0.19452312588691711,9.857860565185547,-0.016686114872486328,-0.013534026534592965,-0.008603045416770247,3.069427013397217,2019-06-20 11:07:17:118,0.0,0.0,0.0
-0.3176228404045105,-0.04734659567475319,10.123677253723145,0.005290329453996326,0.011106228547633283,-0.013930667968554737,3.073525905609131,2019-06-20 11:07:17:122,0.0,0.0,0.0
-0.04222662001848221,-0.018609600141644478,9.900965690612793,0.004624376895097589,0.018831282808166747,-0.009801760230847433,3.078528881072998,2019-06-20 11:07:17:127,0.0,0.0,0.0
-0.11885861307382584,0.1490228772163391,9.809965133666992,0.00022908778598137848,0.015101945981620303,-0.007803902034002573,3.08441162109375,2019-06-20 11:07:17:133,0.0,0.0,0.0
-0.5355450510978699,0.18733887374401093,9.989571571350098,-0.0017687708172296136,0.01470237403016214,-0.025251866671319758,3.088529586791992,2019-06-20 11:07:17:137,0.0,0.0,0.0
-0.4828605651855469,0.19452312588691711,9.84588623046875,-0.01562059036212943,0.00045098328151784784,-0.020457005334416415,3.0944032669067383,2019-06-20 11:07:17:143,0.0,0.0,0.0
-0.4086233377456665,0.07957513630390167,9.618385314941406,-0.008028727445613554,-0.01087021525870072,-0.030179917271646088,3.0985875129699707,2019-06-20 11:07:17:147,0.0,0.0,0.0
-0.5618873238563538,-0.12158383429050446,9.9775972366333,-0.0015023896896403893,-0.012468502024236066,-0.030845871911139428,3.1059207916259766,2019-06-20 11:07:17:154,0.0,0.0,0.0
-0.34157034754753113,0.06520663946866989,9.920124053955078,0.005689901405454487,0.0099075137335561,-0.040568781767774495,3.1144633293151855,2019-06-20 11:07:17:163,0.0,0.0,0.0
-0.45172882080078125,0.18494412302970886,10.032676696777344,-0.00017048393791174905,0.015501517933078465,-0.041767499702743585,3.1185474395751953,2019-06-20 11:07:17:167,0.0,0.0,0.0
-0.4277813136577606,-0.02818859927356243,9.728543281555176,0.007154997347120898,0.01377004086382283,-0.04016921189691094,3.1244187355041504,2019-06-20 11:07:17:173,0.0,0.0,0.0
-0.20985910296440125,0.026890644803643227,9.577674865722656,0.012083048987744528,0.016034280188256915,-0.035374348479412995,3.128535747528076,2019-06-20 11:07:17:177,0.0,0.0,0.0
-0.4828605651855469,-0.018609600141644478,9.752490997314453,0.010085190270751018,-0.004343877372690392,-0.02964715605676494,3.1344151496887207,2019-06-20 11:07:17:183,0.0,0.0,0.0
-0.5906242728233337,0.08196988701820374,9.912939071655273,-0.00043686508175561897,-0.020859508843668266,-0.024452722768403434,3.1385321617126465,2019-06-20 11:07:17:187,0.0,0.0,0.0
0.374459832906723,0.3597608506679535,9.261567115783691,-0.009094251955970451,-0.052958435498392804,-0.025385058015337345,3.144413948059082,2019-06-20 11:07:17:193,0.0,0.0,0.0
0.12301110476255417,0.3118658661842346,9.956045150756836,0.006222663660632937,-0.002346018655696882,-0.02125614923733274,3.1494178771972656,2019-06-20 11:07:17:198,0.0,0.0,0.0
-0.4828605651855469,0.04365389049053192,10.787023544311523,0.003692042688460978,0.01683342409117324,-0.013930667968554737,3.153533458709717,2019-06-20 11:07:17:202,0.0,0.0,0.0
0.4534865617752075,0.12268063426017761,9.872228622436523,0.004624376895097589,0.006178177947306954,-0.0070047586512349,3.1585354804992676,2019-06-20 11:07:17:207,0.0,0.0,0.0
0.18527460098266602,0.295102596282959,9.84588623046875,0.007421378474710123,0.02988609986319389,0.008844919740695588,3.163557529449463,2019-06-20 11:07:17:212,0.0,0.0,0.0
-0.4014390707015991,0.5633145570755005,10.015913963317871,-0.0032338671490075113,0.0424060133800361,-0.002076707400722757,3.1694178581237793,2019-06-20 11:07:17:218,0.0,0.0,0.0
-0.14280611276626587,0.4962615966796875,9.460331916809082,-0.024277977789002207,-0.008605975414117985,-0.008603045416770247,3.1735329627990723,2019-06-20 11:07:17:222,0.0,0.0,0.0
-0.2864910960197449,0.08915413916110992,9.706991195678711,-0.019216735844658286,-0.029383704926523452,-0.00793709233772286,3.1794114112854004,2019-06-20 11:07:17:228,0.0,0.0,0.0
-0.5044133067131042,-0.27963730692863464,9.886597633361816,0.007954140729888572,-0.024056082374738958,0.006047917640934406,3.1835312843322754,2019-06-20 11:07:17:232,0.0,0.0,0.0
0.06074761599302292,-0.030583348125219345,9.728543281555176,0.009951999967030731,-0.03657599589158116,0.015770829058015426,3.1894173622131348,2019-06-20 11:07:17:238,0.0,0.0,0.0
0.16851134598255157,0.26397085189819336,9.836307525634766,0.012216239291464816,-0.013001264279414516,0.010443206506230936,3.193530559539795,2019-06-20 11:07:17:242,0.0,0.0,0.0
-0.1667536050081253,0.3382081091403961,10.406257629394531,-0.00576448812117947,0.019364044023047897,-0.005806043317009063,3.1985344886779785,2019-06-20 11:07:17:247,0.0,0.0,0.0
-0.0494108721613884,0.046048641204833984,10.037466049194336,-0.0106925387215058,0.024958049262867564,0.0013862475180114872,3.2044129371643066,2019-06-20 11:07:17:253,0.0,0.0,0.0
-0.200280100107193,-0.2030053287744522,9.826728820800781,-0.00429939165936441,0.021628284387779282,0.005248774258166731,3.208543300628662,2019-06-20 11:07:17:257,0.0,0.0,0.0
-0.33917558193206787,-0.14074184000492096,9.639938354492188,0.013681335753279875,0.011505800499091445,0.0097772539473322,3.2144198417663574,2019-06-20 11:07:17:263,0.0,0.0,0.0
-0.4756763279438019,0.02928539365530014,9.635148048400879,0.0050239483264071004,-0.007940022855219248,0.007379823278880528,3.218545436859131,2019-06-20 11:07:17:267,0.0,0.0,0.0
-0.585834801197052,0.2543918788433075,9.750096321105957,-0.0016355802534350015,-0.028717752367624715,-0.007137948954955187,3.2235469818115234,2019-06-20 11:07:17:272,0.0,0.0,0.0
-0.31283333897590637,0.053232889622449875,9.877017974853516,-0.006030869248768695,-0.022324605305483327,-0.003941375423884492,3.2294211387634277,2019-06-20 11:07:17:278,0.0,0.0,0.0
-0.18351686000823975,-0.16229458153247833,9.898571014404297,0.004091614379844815,-0.014999122996408026,-0.004474137679062942,3.2335333824157715,2019-06-20 11:07:17:282,0.0,0.0,0.0
-0.22422759234905243,-0.12637333571910858,10.080572128295898,0.011816667340006652,0.0024488419009834855,0.003250915541173222,3.239413261413574,2019-06-20 11:07:17:288,0.0,0.0,0.0
-0.22901709377765656,0.06520663946866989,10.015913963317871,0.005689901405454487,0.011239419891650873,-0.001410754581749696,3.2435336112976074,2019-06-20 11:07:17:292,0.0,0.0,0.0
-0.2721225917339325,0.27594462037086487,9.838702201843262,-0.01255720713477902,0.012837706657186218,-0.00500689993424139,3.2494149208068848,2019-06-20 11:07:17:298,0.0,0.0,0.0
-0.3679125905036926,0.19212837517261505,9.69741153717041,-0.003367057712802124,0.007243702457663852,-0.019125100216618944,3.2535672187805176,2019-06-20 11:07:17:302,0.0,0.0,0.0
-0.3750968277454376,-0.02579384855926037,9.608806610107422,-0.002967486021418287,-0.007673641727630024,-0.007404330082544412,3.258544445037842,2019-06-20 11:07:17:307,0.0,0.0,0.0
-0.3248070776462555,-0.12637333571910858,9.58725357055664,0.007154997347120898,-0.018328887871496308,-0.003275422604911431,3.2635316848754883,2019-06-20 11:07:17:312,0.0,0.0,0.0
-0.23141184449195862,0.05562764033675194,9.678254127502441,0.005689901405454487,-0.024988415541078272,-0.010734094437484045,3.269413948059082,2019-06-20 11:07:17:318,0.0,0.0,0.0
-0.20746435225009918,0.242418110370636,9.948861122131348,-0.0017687708172296136,-0.020859508843668266,-0.01046771383004347,3.273533344268799,2019-06-20 11:07:17:322,0.0,0.0,0.0
-0.02306862361729145,0.2160758674144745,10.066203117370605,-0.009760205555166488,0.000717364441616363,-0.018192767050279633,3.278535842895508,2019-06-20 11:07:17:327,0.0,0.0,0.0
0.06793186813592911,0.07239089161157608,9.891386985778809,-0.008961061652250165,0.013903231167543119,-0.016194908333286122,3.2844109535217285,2019-06-20 11:07:17:333,0.0,0.0,0.0
-0.20267485082149506,-0.19582107663154602,9.821938514709473,-0.0009696273694433586,0.013503659216084955,-0.009268997975668984,3.288552761077881,2019-06-20 11:07:17:337,0.0,0.0,0.0
-0.26733309030532837,-0.018609600141644478,9.702201843261719,0.004757567198817876,0.008575608095609975,-0.006605186699776737,3.2944154739379883,2019-06-20 11:07:17:343,0.0,0.0,0.0
-0.1404113620519638,0.16578613221645355,9.477094650268555,0.008087331553757508,-0.003944305681306555,-0.011533238340400367,3.2985339164733887,2019-06-20 11:07:17:347,0.0,0.0,0.0
-0.21464860439300537,0.19931262731552124,9.553727149963379,-0.0016355802534350015,-0.017263362320842107,-0.02511867532730217,3.304419994354248,2019-06-20 11:07:17:353,0.0,0.0,0.0
-0.20985910296440125,0.1107068806886673,9.802781105041504,-0.0015023896896403893,-0.016597409761943373,-0.022454865091707226,3.3085451126098633,2019-06-20 11:07:17:357,0.0,0.0,0.0
