ACCELEROMETER X (m/s²),ACCELEROMETER Y (m/s²),ACCELEROMETER Z (m/s²),GYROSCOPE X (rad/s),GYROSCOPE Y (rad/s),GYROSCOPE Z (rad/s),Time since start in ms ,YYYY-MO-DD HH-MI-SS_SSS,MagX,MagY,MagZ
-0.09186020493507385,-0.024479132145643234,9.781079292297363,0.00017354732087902514,0.0005851061792590224,-0.0019677574545201833,0.0,2019-06-20 16:14:05:209,0.0,0.0,0.0
-0.13975520431995392,-0.026873880997300148,9.826580047607422,0.0011058812836959564,-0.0003472278323218449,0.0025607219745709597,0.00412750244140625,2019-06-20 16:14:05:213,0.0,0.0,0.0
-0.12059719860553741,-0.026873880997300148,9.749947547912598,0.0007063095923121196,0.00018553447162054023,-0.000902232944163285,0.009989738464355469,2019-06-20 16:14:05:219,0.0,0.0,0.0
-0.13257095217704773,-0.026873880997300148,9.737974166870117,0.001372262411285181,-0.0020787052916889674,0.005757295505641655,0.014132499694824219,2019-06-20 16:14:05:223,0.0,0.0,0.0
-0.09186020493507385,-0.010110633447766304,9.759527206420898,0.00017354732087902514,0.004714014112022072,-0.0013018046355471218,0.0200042724609375,2019-06-20 16:14:05:229,0.0,0.0,0.0
-0.13257095217704773,-0.06279512494802475,9.812211036682129,-0.001158358430849615,0.0005851061792590224,-0.0027669008372878568,0.024125099182128906,2019-06-20 16:14:05:233,0.0,0.0,0.0
-0.11101820319890976,-0.04842662811279297,9.800237655639648,0.0007063095923121196,0.0021833931398501137,0.004691770995284756,0.02999114990234375,2019-06-20 16:14:05:239,0.0,0.0,0.0
-0.1086234524846077,-0.017294881865382195,9.776289939880371,0.002970549436894854,0.0025829648312339507,-0.0027669008372878568,0.0350041389465332,2019-06-20 16:14:05:244,0.0,0.0,0.0
-0.10383395105600357,-0.038847628980875015,9.814606666564941,0.00017354732087902514,0.00018553447162054023,0.0028271031021601845,0.03911399841308594,2019-06-20 16:14:05:248,0.0,0.0,0.0
-0.13257095217704773,-0.010110633447766304,9.831369400024414,0.0019050247965007928,0.002316583703644726,0.0006960539514092252,0.0441431999206543,2019-06-20 16:14:05:253,0.0,0.0,0.0
-0.12299194931983948,-0.010110633447766304,9.843342781066895,-0.001557930122233452,0.0032489176502070124,-0.0023673291459040203,0.04913330078125,2019-06-20 16:14:05:258,0.0,0.0,0.0
-0.1277814507484436,-0.06758462637662888,9.82179069519043,0.0016386436689115682,0.0031157270864124,-0.003965616171513693,0.054996490478515625,2019-06-20 16:14:05:264,0.0,0.0,0.0
-0.10143920034170151,-0.026873880997300148,9.80502700805664,0.003103740000689466,0.0013842496270452774,0.0018947690255607357,0.059112548828125,2019-06-20 16:14:05:268,0.0,0.0,0.0
-0.15651844441890717,-0.053216129541397095,9.795448303222656,-0.0007587866744471969,0.000851487306848247,-0.0005026612202701574,0.06413650512695312,2019-06-20 16:14:05:273,0.0,0.0,0.0
-0.11580769717693329,0.011442113667726517,9.83376407623291,-0.0016911206860280642,0.0019170118822237267,-0.004365187862897529,0.06998825073242188,2019-06-20 16:14:05:279,0.0,0.0,0.0
-0.1349657028913498,-0.010110633447766304,9.781079292297363,4.035674489342885e-05,-0.0012795617788841308,-0.0029000914010824694,0.07502460479736328,2019-06-20 16:14:05:284,0.0,0.0,0.0
-0.1086234524846077,-0.029268629848957062,9.788264274597168,0.004435645638635589,-0.0020787052916889674,-0.0010354235079578973,0.0800027847290039,2019-06-20 16:14:05:289,0.0,0.0,0.0
-0.1086234524846077,-0.031663380563259125,9.828974723815918,-0.0006255961106525846,0.0021833931398501137,-0.0031664725286716937,0.08411598205566406,2019-06-20 16:14:05:293,0.0,0.0,0.0
-0.1277814507484436,-0.053216129541397095,9.809816360473633,4.035674489342885e-05,-0.0006136089599110694,-0.0075617613939682245,0.08999061584472656,2019-06-20 16:14:05:299,0.0,0.0,0.0
-0.14454469084739685,-0.029268629848957062,9.75234317779541,0.0008395001561067318,0.001650630754634502,-0.00023628007642628753,0.09501838684082031,2019-06-20 16:14:05:304,0.0,0.0,0.0
-0.07030745595693588,-0.038847628980875015,9.733184814453125,0.0024377869216420794,-0.0014127523426787432,-0.0019677574545201833,0.09911489486694336,2019-06-20 16:14:05:308,0.0,0.0,0.0
-0.11341295391321182,-0.03645287826657295,9.809816360473633,0.0005731190285175073,0.00031872505166979784,-0.004231997299102917,0.10499858856201172,2019-06-20 16:14:05:314,0.0,0.0,0.0
-0.07030745595693588,-0.026873880997300148,9.828974723815918,0.0009726907199013442,0.0012510590632506652,-0.0019677574545201833,0.10918474197387695,2019-06-20 16:14:05:318,0.0,0.0,0.0
-0.1277814507484436,-0.031663380563259125,9.778684616088867,0.0016386436689115682,0.00018553447162054023,-0.005830284324712591,0.11412429809570312,2019-06-20 16:14:05:323,0.0,0.0,0.0
-0.10143920034170151,0.011442113667726517,9.795448303222656,0.003103740000689466,-0.0004804183961164572,-0.009692810934830673,0.11999225616455078,2019-06-20 16:14:05:329,0.0,0.0,0.0
-0.10143920034170151,-0.05561087653040886,9.766711235046387,-0.0026234547626275127,0.0011178684994560528,-0.00036947065647554515,0.12411737442016602,2019-06-20 16:14:05:333,0.0,0.0,0.0
-0.12538670003414154,0.016231613233685493,9.754737854003906,0.0037696928196625274,0.005113585543331584,-0.007028999138789776,0.12999439239501953,2019-06-20 16:14:05:339,0.0,0.0,0.0
-0.10622870177030563,-0.02208438143134117,9.783474922180176,-0.0010251678020364214,0.0009846778706428594,-0.0030332819648770815,0.13499879837036133,2019-06-20 16:14:05:344,0.0,0.0,0.0
-0.12299194931983948,-0.04842662811279297,9.757132530212402,0.003103740000689466,0.0013842496270452774,-0.0029000914010824694,0.13911819458007812,2019-06-20 16:14:05:348,0.0,0.0,0.0
-0.11820244789123535,-0.02208438143134117,9.72360610961914,-0.0007587866744471969,0.0031157270864124,-0.002234138582109408,0.1450028419494629,2019-06-20 16:14:05:354,0.0,0.0,0.0
-0.09904444962739944,-0.010110633447766304,9.788264274597168,0.0043024550748409765,0.0024497742674393385,-0.00010308950450435256,0.14911222457885742,2019-06-20 16:14:05:358,0.0,0.0,0.0
-0.0822812020778656,-0.01490013301372528,9.797842979431152,-0.00035921498306336,0.0007182967430536347,-0.002234138582109408,0.15500259399414062,2019-06-20 16:14:05:364,0.0,0.0,0.0
-0.13017620146274567,0.030600111931562424,9.785869598388672,0.0037696928196625274,0.001650630754634502,0.0024275314107763475,0.15912532806396484,2019-06-20 16:14:05:368,0.0,0.0,0.0
-0.07509695738554001,0.02102111279964447,9.80502700805664,-0.0004924055468579722,0.004048061032974686,-0.0014349951993417342,0.16499805450439453,2019-06-20 16:14:05:374,0.0,0.0,0.0
-0.12059719860553741,-0.01490013301372528,9.778684616088867,0.0024377869216420794,0.002849345958823175,-0.0025005197096986324,0.1691122055053711,2019-06-20 16:14:05:378,0.0,0.0,0.0
-0.12059719860553741,-0.03405813127756119,9.783474922180176,0.0008395001561067318,0.0013842496270452774,-0.0036992350439244686,0.1750202178955078,2019-06-20 16:14:05:384,0.0,0.0,0.0
-0.07749170809984207,-0.017294881865382195,9.826580047607422,0.0003067379009282828,-0.0003472278323218449,-0.0023673291459040203,0.17911434173583984,2019-06-20 16:14:05:388,0.0,0.0,0.0
-0.10143920034170151,-0.002926384098827839,9.769105911254883,0.0020382153602954054,0.0031157270864124,0.0017615784617661236,0.1850261688232422,2019-06-20 16:14:05:394,0.0,0.0,0.0
-0.10143920034170151,-0.02208438143134117,9.773895263671875,0.002970549436894854,-8.084668035065233e-05,-0.00010308950450435256,0.18913650512695312,2019-06-20 16:14:05:398,0.0,0.0,0.0
-0.09186020493507385,-0.04124237969517708,9.735579490661621,0.004702026766224813,-0.0016791336003051302,-0.0010354235079578973,0.19500017166137695,2019-06-20 16:14:05:404,0.0,0.0,0.0
-0.09425495564937592,-0.01490013301372528,9.766711235046387,0.0009726907199013442,-0.0006136089599110694,-0.0010354235079578973,0.1991114616394043,2019-06-20 16:14:05:408,0.0,0.0,0.0
-0.10622870177030563,-0.024479132145643234,9.812211036682129,0.0015054529750797934,-0.0011463712150895187,-0.0017013763269309588,0.20501470565795898,2019-06-20 16:14:05:414,0.0,0.0,0.0
-0.08707070350646973,-0.04124237969517708,9.75234317779541,0.0005731190285175073,-0.0011463712150895187,-0.005830284324712591,0.20911312103271484,2019-06-20 16:14:05:418,0.0,0.0,0.0
-0.09186020493507385,-0.017294881865382195,9.730790138244629,-0.00022602440301410239,0.00031872505166979784,-0.0014349951993417342,0.21499919891357422,2019-06-20 16:14:05:424,0.0,0.0,0.0
-0.09664970636367798,-0.005321133881807327,9.788264274597168,0.0027041680492313038,0.0035152987777962367,-0.0006358518165740604,0.2200002670288086,2019-06-20 16:14:05:429,0.0,0.0,0.0
-0.07270220667123795,-0.03405813127756119,9.754737854003906,0.004968407893814039,0.0036484893415908493,-0.0032996633525406317,0.22411441802978516,2019-06-20 16:14:05:433,0.0,0.0,0.0
-0.07509695738554001,-0.06997937709093094,9.817001342773438,-0.001557930122233452,0.0004519156154644102,0.004824961819153694,0.2299947738647461,2019-06-20 16:14:05:439,0.0,0.0,0.0
-0.1086234524846077,0.0018631152343004942,9.711631774902344,-0.00022602440301410239,0.0017838213184291141,3.010106944941304e-05,0.2341446876525879,2019-06-20 16:14:05:443,0.0,0.0,0.0
-0.04875471070408821,-0.031663380563259125,9.79305362701416,0.0012390718474905686,0.002316583703644726,0.0006960539514092252,0.2399911880493164,2019-06-20 16:14:05:449,0.0,0.0,0.0
-0.08946545422077179,-0.031663380563259125,9.757132530212402,0.0015054529750797934,0.0021833931398501137,-0.0021009480183147955,0.24500417709350586,2019-06-20 16:14:05:454,0.0,0.0,0.0
-0.1086234524846077,-0.02208438143134117,9.740368843078613,0.0015054529750797934,0.0017838213184291141,0.007089201143587778,0.24915027618408203,2019-06-20 16:14:05:458,0.0,0.0,0.0
-0.1349657028913498,-0.03405813127756119,9.771500587463379,0.004169264511046364,-0.0011463712150895187,0.004425389867695532,0.2541179656982422,2019-06-20 16:14:05:463,0.0,0.0,0.0
-0.08707070350646973,-0.024479132145643234,9.809816360473633,0.0028373588731002413,0.00031872505166979784,-0.0007690423803686727,0.2599925994873047,2019-06-20 16:14:05:469,0.0,0.0,0.0
-0.11580769717693329,-0.04363713040947914,9.773895263671875,-0.0018243112498226766,-0.0003472278323218449,-0.0029000914010824694,0.2641177177429199,2019-06-20 16:14:05:473,0.0,0.0,0.0
-0.13257095217704773,-0.060400377959012985,9.773895263671875,0.0016386436689115682,0.0007182967430536347,0.004159008740106307,0.26999759674072266,2019-06-20 16:14:05:479,0.0,0.0,0.0
-0.12059719860553741,-0.04842662811279297,9.788264274597168,0.001372262411285181,5.234389563494396e-05,0.001095625642793062,0.2750215530395508,2019-06-20 16:14:05:484,0.0,0.0,0.0
-0.10383395105600357,-0.038847628980875015,9.726000785827637,-9.283383109216743e-05,-0.001945514727894355,0.0006960539514092252,0.27916526794433594,2019-06-20 16:14:05:488,0.0,0.0,0.0
-0.11580769717693329,-0.029268629848957062,9.776289939880371,-0.001957501813617289,0.004447632984432848,0.0008292445152038374,0.2850046157836914,2019-06-20 16:14:05:494,0.0,0.0,0.0
-0.12538670003414154,-0.010110633447766304,9.737974166870117,-0.0004924055468579722,0.0004519156154644102,0.004558580691564469,0.2899923324584961,2019-06-20 16:14:05:499,0.0,0.0,0.0
-0.12059719860553741,-0.031663380563259125,9.814606666564941,-0.002889835890216737,-0.002211895725446417,0.006423248584689041,0.2950000762939453,2019-06-20 16:14:05:504,0.0,0.0,0.0
-0.07749170809984207,-0.05082137882709503,9.718815803527832,-0.00022602440301410239,0.004714014112022072,0.0005628633876146128,0.2991170883178711,2019-06-20 16:14:05:508,0.0,0.0,0.0
-0.11820244789123535,-0.060400377959012985,9.802632331848145,-0.001557930122233452,-0.0012795617788841308,0.0030934842297494092,0.30499887466430664,2019-06-20 16:14:05:514,0.0,0.0,0.0
-0.11341295391321182,-0.029268629848957062,9.769105911254883,0.003103740000689466,0.0009846778706428594,0.0018947690255607357,0.3091096878051758,2019-06-20 16:14:05:518,0.0,0.0,0.0
-0.10622870177030563,-0.017294881865382195,9.802632331848145,0.006033932404170936,0.0024497742674393385,0.004958152122873981,0.3149986267089844,2019-06-20 16:14:05:524,0.0,0.0,0.0
-0.1277814507484436,-0.029268629848957062,9.783474922180176,0.0012390718474905686,-0.0012795617788841308,0.00042967279131070986,0.32000255584716797,2019-06-20 16:14:05:529,0.0,0.0,0.0
-0.11820244789123535,-0.019689632579684258,9.759527206420898,0.0011058812836959564,-0.0023450862892410293,0.007089201143587778,0.3241128921508789,2019-06-20 16:14:05:533,0.0,0.0,0.0
-0.10143920034170151,-0.019689632579684258,9.843342781066895,0.004036073947251752,0.0009846778706428594,0.0037594370487224705,0.3300166130065918,2019-06-20 16:14:05:539,0.0,0.0,0.0
-0.11101820319890976,-0.012505383230745792,9.797842979431152,0.0009726907199013442,0.0035152987777962367,-0.0007690423803686727,0.3350033760070801,2019-06-20 16:14:05:544,0.0,0.0,0.0
-0.12538670003414154,-0.019689632579684258,9.790658950805664,0.0015054529750797934,0.001650630754634502,0.004558580691564469,0.3399944305419922,2019-06-20 16:14:05:549,0.0,0.0,0.0
-0.07988645136356354,-0.04124237969517708,9.795448303222656,0.0019050247965007928,-0.0006136089599110694,0.0014951973341768988,0.34414243698120117,2019-06-20 16:14:05:553,0.0,0.0,0.0
-0.1277814507484436,-0.012505383230745792,9.82179069519043,-0.0004924055468579722,0.0007182967430536347,0.005091342946742919,0.3499927520751953,2019-06-20 16:14:05:559,0.0,0.0,0.0
-0.10143920034170151,-0.04363713040947914,9.800237655639648,-0.0016911206860280642,0.0015174401908398898,0.0024275314107763475,0.3541140556335449,2019-06-20 16:14:05:563,0.0,0.0,0.0
-0.08707070350646973,-0.038847628980875015,9.776289939880371,-0.004354932091957473,0.000851487306848247,0.004025818176311695,0.3600006103515625,2019-06-20 16:14:05:569,0.0,0.0,0.0
-0.11580769717693329,-0.0005316344322636724,9.788264274597168,0.0037696928196625274,0.0024497742674393385,0.002693912538365572,0.36412525177001953,2019-06-20 16:14:05:573,0.0,0.0,0.0
-0.11820244789123535,-0.04842662811279297,9.824185371398926,0.002970549436894854,0.0007182967430536347,0.004025818176311695,0.36998844146728516,2019-06-20 16:14:05:579,0.0,0.0,0.0
-0.09186020493507385,-0.03405813127756119,9.783474922180176,0.0027041680492313038,0.0019170118822237267,0.0018947690255607357,0.3741750717163086,2019-06-20 16:14:05:583,0.0,0.0,0.0
-0.09186020493507385,-0.05082137882709503,9.771500587463379,0.00017354732087902514,-0.0020787052916889674,0.005357724074332143,0.37912511825561523,2019-06-20 16:14:05:588,0.0,0.0,0.0
-0.1086234524846077,-0.0005316344322636724,9.776289939880371,0.0017718342327061804,0.00031872505166979784,0.002027959589355348,0.3849954605102539,2019-06-20 16:14:05:594,0.0,0.0,0.0
-0.10622870177030563,-0.007715883664786816,9.761921882629395,-0.0008919772382418092,0.0005851061792590224,0.004159008740106307,0.3891324996948242,2019-06-20 16:14:05:598,0.0,0.0,0.0
-0.10383395105600357,-0.024479132145643234,9.766711235046387,0.0053679798452722005,-0.00021403725227258724,-0.0015681857631363464,0.3950023651123047,2019-06-20 16:14:05:604,0.0,0.0,0.0
-0.08707070350646973,-0.046031877398490906,9.776289939880371,0.004036073947251752,0.0019170118822237267,0.0022943408469817354,0.39999818801879883,2019-06-20 16:14:05:609,0.0,0.0,0.0
-0.12538670003414154,-0.02208438143134117,9.778684616088867,0.0009726907199013442,0.0013842496270452774,0.004292199303900919,0.4041166305541992,2019-06-20 16:14:05:613,0.0,0.0,0.0
-0.10622870177030563,0.011442113667726517,9.809816360473633,-0.00035921498306336,0.0017838213184291141,-0.0014349951993417342,0.4100008010864258,2019-06-20 16:14:05:619,0.0,0.0,0.0
-0.08707070350646973,-0.038847628980875015,9.83376407623291,0.0024377869216420794,-0.0038101827510560898,0.0017615784617661236,0.41411590576171875,2019-06-20 16:14:05:623,0.0,0.0,0.0
-0.1086234524846077,-0.005321133881807327,9.773895263671875,0.0017718342327061804,-0.0016791336003051302,0.0014951973341768988,0.42000865936279297,2019-06-20 16:14:05:629,0.0,0.0,0.0
-0.08707070350646973,-0.012505383230745792,9.773895263671875,-0.0007587866744471969,0.001650630754634502,-0.0015681857631363464,0.42501306533813477,2019-06-20 16:14:05:634,0.0,0.0,0.0
-0.11820244789123535,-0.024479132145643234,9.749947547912598,0.001372262411285181,0.0017838213184291141,0.00016329164746684,0.4291105270385742,2019-06-20 16:14:05:638,0.0,0.0,0.0
-0.11341295391321182,-0.012505383230745792,9.797842979431152,0.0043024550748409765,-0.001945514727894355,-0.0005026612202701574,0.434999942779541,2019-06-20 16:14:05:644,0.0,0.0,0.0
-0.11341295391321182,-0.029268629848957062,9.828974723815918,0.0007063095923121196,-0.0007467995237056817,0.00016329164746684,0.43914175033569336,2019-06-20 16:14:05:648,0.0,0.0,0.0
-0.11341295391321182,-0.029268629848957062,9.769105911254883,0.0032369305644840782,0.003382108214001624,0.0012288162065876742,0.44411802291870117,2019-06-20 16:14:05:653,0.0,0.0,0.0
-0.08707070350646973,-0.02208438143134117,9.838553428649902,-0.0016911206860280642,-0.0026114674168302536,-0.0010354235079578973,0.44998931884765625,2019-06-20 16:14:05:659,0.0,0.0,0.0
-0.1086234524846077,-0.03405813127756119,9.737974166870117,0.0015054529750797934,0.0032489176502070124,-0.005430712373254428,0.4550037384033203,2019-06-20 16:14:05:664,0.0,0.0,0.0
-0.15891319513320923,-0.029268629848957062,9.807421684265137,-0.0030230264540113496,-0.0006136089599110694,3.010106944941304e-05,0.45911407470703125,2019-06-20 16:14:05:668,0.0,0.0,0.0
-0.11341295391321182,-0.031663380563259125,9.781079292297363,0.001372262411285181,0.0021833931398501137,0.005890486329510593,0.46503353118896484,2019-06-20 16:14:05:674,0.0,0.0,0.0
-0.10383395105600357,-0.019689632579684258,9.771500587463379,-0.0006255961106525846,-8.084668035065233e-05,-0.005963474628432877,0.46913766860961914,2019-06-20 16:14:05:678,0.0,0.0,0.0
-0.1086234524846077,-0.03645287826657295,9.74276351928711,0.008031791121164446,0.0025829648312339507,0.0012288162065876742,0.47414112091064453,2019-06-20 16:14:05:683,0.0,0.0,0.0
-0.07509695738554001,-0.038847628980875015,9.745158195495605,0.0039028833834571395,0.0019170118822237267,3.010106944941304e-05,0.47998905181884766,2019-06-20 16:14:05:689,0.0,0.0,0.0
-0.1277814507484436,-0.07716362178325653,9.828974723815918,0.005101598717682976,0.00031872505166979784,-0.003965616171513693,0.48414039611816406,2019-06-20 16:14:05:693,0.0,0.0,0.0
-0.1421499401330948,-0.029268629848957062,9.800237655639648,0.0024377869216420794,0.0017838213184291141,0.0002964822275160976,0.4899911880493164,2019-06-20 16:14:05:699,0.0,0.0,0.0
-0.1277814507484436,-0.04363713040947914,9.783474922180176,-0.0018243112498226766,0.0013842496270452774,-0.0026337102734932446,0.49500370025634766,2019-06-20 16:14:05:704,0.0,0.0,0.0
-0.12538670003414154,-0.031663380563259125,9.75234317779541,-0.00035921498306336,0.0004519156154644102,-0.00023628007642628753,0.4991130828857422,2019-06-20 16:14:05:708,0.0,0.0,0.0
-0.10143920034170151,-0.017294881865382195,9.83376407623291,0.0005731190285175073,-0.0020787052916889674,0.0005628633876146128,0.5049943923950195,2019-06-20 16:14:05:714,0.0,0.0,0.0
-0.11341295391321182,-0.03645287826657295,9.745158195495605,0.00043992846472289506,-0.0003472278323218449,-0.0017013763269309588,0.5091104507446289,2019-06-20 16:14:05:718,0.0,0.0,0.0
-0.11101820319890976,-0.005321133881807327,9.79305362701416,0.0024377869216420794,-0.0018123241640997428,0.0021611501531499603,0.5150041580200195,2019-06-20 16:14:05:724,0.0,0.0,0.0
-0.16849219799041748,-0.04842662811279297,9.76431655883789,-0.0030230264540113496,0.0029825365226177876,-0.004764759294207041,0.5191173553466797,2019-06-20 16:14:05:728,0.0,0.0,0.0
-0.10143920034170151,-0.05561087653040886,9.788264274597168,-0.00035921498306336,0.0004519156154644102,-0.00876047672819406,0.5241165161132812,2019-06-20 16:14:05:733,0.0,0.0,0.0
-0.11580769717693329,-0.0005316344322636724,9.826580047607422,0.0021714059240900176,-0.0003472278323218449,-0.002234138582109408,0.5299925804138184,2019-06-20 16:14:05:739,0.0,0.0,0.0
-0.11580769717693329,-0.031663380563259125,9.814606666564941,-0.0030230264540113496,0.0013842496270452774,0.0002964822275160976,0.5350198745727539,2019-06-20 16:14:05:744,0.0,0.0,0.0
-0.12059719860553741,-0.029268629848957062,9.790658950805664,0.0015054529750797934,-0.0018123241640997428,0.00016329164746684,0.5391130447387695,2019-06-20 16:14:05:748,0.0,0.0,0.0
-0.13017620146274567,-0.012505383230745792,9.776289939880371,0.004036073947251752,-0.0010131806512949063,-0.004365187862897529,0.5449962615966797,2019-06-20 16:14:05:754,0.0,0.0,0.0
-0.10383395105600357,-0.017294881865382195,9.79305362701416,0.003103740000689466,-8.084668035065233e-05,-0.0027669008372878568,0.5491170883178711,2019-06-20 16:14:05:758,0.0,0.0,0.0
-0.07749170809984207,-0.03405813127756119,9.790658950805664,0.0028373588731002413,0.0021833931398501137,-0.0064962368836113255,0.5549979209899902,2019-06-20 16:14:05:764,0.0,0.0,0.0
-0.09664970636367798,-0.019689632579684258,9.76431655883789,-0.0035557887091897987,0.0019170118822237267,0.0009624350789984497,0.559135913848877,2019-06-20 16:14:05:768,0.0,0.0,0.0
-0.12059719860553741,-0.05561087653040886,9.761921882629395,-0.0007587866744471969,-0.0006136089599110694,0.0012288162065876742,0.5641326904296875,2019-06-20 16:14:05:773,0.0,0.0,0.0
-0.08946545422077179,-0.04842662811279297,9.82179069519043,0.00017354732087902514,-0.0020787052916889674,-0.004098806735308305,0.5699892044067383,2019-06-20 16:14:05:779,0.0,0.0,0.0
-0.1086234524846077,-0.029268629848957062,9.783474922180176,-0.0012915489946442272,0.000851487306848247,-0.004231997299102917,0.5741448402404785,2019-06-20 16:14:05:783,0.0,0.0,0.0
-0.10143920034170151,-0.019689632579684258,9.807421684265137,-0.0012915489946442272,0.0005851061792590224,-0.009692810934830673,0.5800185203552246,2019-06-20 16:14:05:789,0.0,0.0,0.0
-0.11341295391321182,-0.029268629848957062,9.776289939880371,4.035674489342885e-05,-0.0015459429064733554,-0.0014349951993417342,0.5841178894042969,2019-06-20 16:14:05:793,0.0,0.0,0.0
-0.11101820319890976,-0.024479132145643234,9.730790138244629,-0.001957501813617289,0.0019170118822237267,0.0005628633876146128,0.5899896621704102,2019-06-20 16:14:05:799,0.0,0.0,0.0
-0.10383395105600357,-0.05800562724471092,9.812211036682129,0.004702026766224813,0.002316583703644726,-0.004098806735308305,0.5941247940063477,2019-06-20 16:14:05:803,0.0,0.0,0.0
-0.10622870177030563,-0.053216129541397095,9.79305362701416,0.0037696928196625274,-8.084668035065233e-05,-0.0034328539163352434,0.5999965667724609,2019-06-20 16:14:05:809,0.0,0.0,0.0
-0.11580769717693329,-0.026873880997300148,9.759527206420898,0.004968407893814039,0.0011178684994560528,-0.0023673291459040203,0.6041126251220703,2019-06-20 16:14:05:813,0.0,0.0,0.0
-0.11341295391321182,-0.024479132145643234,9.781079292297363,0.004036073947251752,0.005113585543331584,0.001095625642793062,0.6091394424438477,2019-06-20 16:14:05:818,0.0,0.0,0.0
-0.13017620146274567,-0.03645287826657295,9.776289939880371,-0.001557930122233452,0.0005851061792590224,-0.0027669008372878568,0.6149978637695312,2019-06-20 16:14:05:824,0.0,0.0,0.0
-0.1421499401330948,-0.005321133881807327,9.740368843078613,0.0008395001561067318,5.234389563494396e-05,0.00042967279131070986,0.6191120147705078,2019-06-20 16:14:05:828,0.0,0.0,0.0
-0.07988645136356354,-0.046031877398490906,9.721211433410645,0.0008395001561067318,0.003914870469180074,0.0025607219745709597,0.6250019073486328,2019-06-20 16:14:05:834,0.0,0.0,0.0
-0.08707070350646973,-0.012505383230745792,9.781079292297363,-0.0004924055468579722,-0.0006136089599110694,0.003493055921133246,0.629127025604248,2019-06-20 16:14:05:838,0.0,0.0,0.0
-0.12059719860553741,-0.060400377959012985,9.766711235046387,0.001372262411285181,0.00031872505166979784,0.0006960539514092252,0.6349930763244629,2019-06-20 16:14:05:844,0.0,0.0,0.0
-0.08946545422077179,-0.002926384098827839,9.766711235046387,-0.0006255961106525846,-8.084668035065233e-05,0.0037594370487224705,0.6399917602539062,2019-06-20 16:14:05:849,0.0,0.0,0.0
-0.0822812020778656,0.0018631152343004942,9.75234317779541,-0.0004924055468579722,0.0005851061792590224,0.00016329164746684,0.6450023651123047,2019-06-20 16:14:05:854,0.0,0.0,0.0
-0.08467595279216766,-0.04363713040947914,9.76431655883789,0.0024377869216420794,0.002050202446018339,0.003226674793544021,0.6500005722045898,2019-06-20 16:14:05:859,0.0,0.0,0.0
-0.1421499401330948,-0.03405813127756119,9.71402645111084,0.00829817224875367,5.234389563494396e-05,0.0014951973341768988,0.6542038917541504,2019-06-20 16:14:05:863,0.0,0.0,0.0
-0.07030745595693588,-0.053216129541397095,9.800237655639648,0.005234789021403263,-0.0018123241640997428,-0.0032996633525406317,0.6600046157836914,2019-06-20 16:14:05:869,0.0,0.0,0.0
-0.09186020493507385,-0.05561087653040886,9.838553428649902,0.004435645638635589,0.0025829648312339507,0.0030934842297494092,0.6641168594360352,2019-06-20 16:14:05:873,0.0,0.0,0.0
-0.07270220667123795,-0.029268629848957062,9.795448303222656,0.003370121128278691,-0.0006136089599110694,0.0021611501531499603,0.6700944900512695,2019-06-20 16:14:05:879,0.0,0.0,0.0
-0.09904444962739944,-0.026873880997300148,9.745158195495605,0.0028373588731002413,0.0029825365226177876,-0.000902232944163285,0.6741499900817871,2019-06-20 16:14:05:883,0.0,0.0,0.0
-0.09904444962739944,-0.002926384098827839,9.807421684265137,-0.0036889792729844113,-0.0015459429064733554,-0.005430712373254428,0.6799912452697754,2019-06-20 16:14:05:889,0.0,0.0,0.0
-0.07030745595693588,-0.04842662811279297,9.80502700805664,0.0024377869216420794,-0.000879990087500294,-0.0007690423803686727,0.685002326965332,2019-06-20 16:14:05:894,0.0,0.0,0.0
-0.11341295391321182,-0.03645287826657295,9.733184814453125,-0.0014247395584388394,-0.003011039368288416,0.0005628633876146128,0.6891155242919922,2019-06-20 16:14:05:898,0.0,0.0,0.0
-0.0822812020778656,-0.060400377959012985,9.773895263671875,-0.0004924055468579722,0.0031157270864124,-0.004231997299102917,0.6949930191040039,2019-06-20 16:14:05:904,0.0,0.0,0.0
-0.13017620146274567,-0.007715883664786816,9.785869598388672,0.004568835942355876,0.0012510590632506652,0.0024275314107763475,0.6991100311279297,2019-06-20 16:14:05:908,0.0,0.0,0.0
-0.07030745595693588,-0.04363713040947914,9.718815803527832,0.0005731190285175073,0.0024497742674393385,-0.0015681857631363464,0.7057876586914062,2019-06-20 16:14:05:915,0.0,0.0,0.0
-0.03438621014356613,-0.024479132145643234,9.783474922180176,-0.0014247395584388394,-0.00021403725227258724,0.0025607219745709597,0.7108345031738281,2019-06-20 16:14:05:920,0.0,0.0,0.0
-0.15651844441890717,-0.046031877398490906,9.72360610961914,-0.0006255961106525846,-0.004342945006234539,0.0028271031021601845,0.71563720703125,2019-06-20 16:14:05:924,0.0,0.0,0.0
-0.07988645136356354,-0.053216129541397095,9.726000785827637,0.0028373588731002413,0.006179110053688482,-0.00023628007642628753,0.7206401824951172,2019-06-20 16:14:05:929,0.0,0.0,0.0
-0.09664970636367798,0.009047363884747028,9.747552871704102,0.0009726907199013442,0.0036484893415908493,0.004958152122873981,0.7256011962890625,2019-06-20 16:14:05:934,0.0,0.0,0.0
-0.10383395105600357,-0.05561087653040886,9.754737854003906,0.0005731190285175073,-8.084668035065233e-05,0.003493055921133246,0.7305831909179688,2019-06-20 16:14:05:939,0.0,0.0,0.0
-0.1086234524846077,0.009047363884747028,9.75234317779541,0.0005731190285175073,0.001650630754634502,0.003493055921133246,0.7356128692626953,2019-06-20 16:14:05:944,0.0,0.0,0.0
-0.10383395105600357,-0.046031877398490906,9.781079292297363,0.0016386436689115682,0.003781679905385461,0.00549091437805243,0.7405867576599121,2019-06-20 16:14:05:949,0.0,0.0,0.0
-0.07270220667123795,-0.019689632579684258,9.745158195495605,0.0017718342327061804,0.001650630754634502,0.001628387897971511,0.7456502914428711,2019-06-20 16:14:05:954,0.0,0.0,0.0
-0.10383395105600357,-0.026873880997300148,9.766711235046387,-0.00022602440301410239,0.0012510590632506652,0.00042967279131070986,0.7506580352783203,2019-06-20 16:14:05:959,0.0,0.0,0.0
-0.07988645136356354,-0.04124237969517708,9.766711235046387,0.004435645638635589,0.0025829648312339507,0.001095625642793062,0.7556018829345703,2019-06-20 16:14:05:964,0.0,0.0,0.0
-0.11341295391321182,-0.012505383230745792,9.735579490661621,0.0021714059240900176,-0.0032774204958776402,0.006156867457099816,0.760587215423584,2019-06-20 16:14:05:969,0.0,0.0,0.0
-0.13736045360565186,-0.03645287826657295,9.800237655639648,-0.002756645326422125,0.0019170118822237267,-0.0013018046355471218,0.7650928497314453,2019-06-20 16:14:05:974,0.0,0.0,0.0
-0.16370269656181335,-0.024479132145643234,9.757132530212402,-0.004354932091957473,0.0015174401908398898,0.0037594370487224705,0.7700042724609375,2019-06-20 16:14:05:979,0.0,0.0,0.0
-0.12059719860553741,-0.038847628980875015,9.828974723815918,0.0037696928196625274,-0.0020787052916889674,0.0018947690255607357,0.7741107940673828,2019-06-20 16:14:05:983,0.0,0.0,0.0
-0.13257095217704773,-0.04124237969517708,9.785869598388672,-0.00022602440301410239,-8.084668035065233e-05,0.004558580691564469,0.779991626739502,2019-06-20 16:14:05:989,0.0,0.0,0.0
-0.11101820319890976,-0.06279512494802475,9.852922439575195,-0.00035921498306336,0.001650630754634502,-0.0031664725286716937,0.7841134071350098,2019-06-20 16:14:05:993,0.0,0.0,0.0
-0.09664970636367798,-0.06518987566232681,9.855317115783691,0.003636502255867915,0.0019170118822237267,0.004958152122873981,0.790001392364502,2019-06-20 16:14:05:999,0.0,0.0,0.0
-0.1421499401330948,-0.010110633447766304,9.848133087158203,-0.0004924055468579722,-0.0016791336003051302,0.001095625642793062,0.7951159477233887,2019-06-20 16:14:06:004,0.0,0.0,0.0
-0.11580769717693329,-0.038847628980875015,9.783474922180176,-0.0008919772382418092,-0.0015459429064733554,0.0024275314107763475,0.7991170883178711,2019-06-20 16:14:06:008,0.0,0.0,0.0
-0.15172894299030304,-0.029268629848957062,9.771500587463379,0.003370121128278691,-0.0010131806512949063,0.001095625642793062,0.8049955368041992,2019-06-20 16:14:06:014,0.0,0.0,0.0
-0.11341295391321182,-0.046031877398490906,9.82179069519043,0.004568835942355876,0.0019170118822237267,0.004824961819153694,0.8091254234313965,2019-06-20 16:14:06:018,0.0,0.0,0.0
-0.10143920034170151,0.006652614567428827,9.790658950805664,0.001372262411285181,0.0019170118822237267,0.004025818176311695,0.8150138854980469,2019-06-20 16:14:06:024,0.0,0.0,0.0
-0.11580769717693329,-0.010110633447766304,9.740368843078613,4.035674489342885e-05,0.0011178684994560528,0.0038926276125170823,0.8191070556640625,2019-06-20 16:14:06:028,0.0,0.0,0.0
-0.12059719860553741,-0.0005316344322636724,9.754737854003906,0.003370121128278691,-0.0016791336003051302,0.001628387897971511,0.8249950408935547,2019-06-20 16:14:06:034,0.0,0.0,0.0
-0.10383395105600357,-0.010110633447766304,9.749947547912598,0.00017354732087902514,0.002716155395028563,-0.0013018046355471218,0.8299922943115234,2019-06-20 16:14:06:039,0.0,0.0,0.0
-0.1469394415616989,-0.06518987566232681,9.790658950805664,0.0037696928196625274,0.0005851061792590224,0.0017615784617661236,0.8341102600097656,2019-06-20 16:14:06:043,0.0,0.0,0.0
-0.11580769717693329,-0.03645287826657295,9.747552871704102,0.002970549436894854,0.0036484893415908493,0.004292199303900919,0.8400263786315918,2019-06-20 16:14:06:049,0.0,0.0,0.0
-0.10383395105600357,-0.005321133881807327,9.814606666564941,4.035674489342885e-05,0.00031872505166979784,-0.00036947065647554515,0.8441267013549805,2019-06-20 16:14:06:053,0.0,0.0,0.0
-0.09664970636367798,-0.024479132145643234,9.759527206420898,-0.00422174152816286,0.0005851061792590224,0.0018947690255607357,0.8499927520751953,2019-06-20 16:14:06:059,0.0,0.0,0.0
-0.11101820319890976,-0.029268629848957062,9.776289939880371,0.0011058812836959564,0.0012510590632506652,0.00549091437805243,0.8541131019592285,2019-06-20 16:14:06:063,0.0,0.0,0.0
-0.11341295391321182,-0.002926384098827839,9.766711235046387,0.006433504355629099,-0.00021403725227258724,0.0013620067703822866,0.8600196838378906,2019-06-20 16:14:06:069,0.0,0.0,0.0
-0.09425495564937592,-0.024479132145643234,9.771500587463379,-0.0036889792729844113,0.0007182967430536347,0.0013620067703822866,0.8641128540039062,2019-06-20 16:14:06:073,0.0,0.0,0.0
-0.1349657028913498,-0.05800562724471092,9.761921882629395,0.0003067379009282828,0.0005851061792590224,-0.000902232944163285,0.8691067695617676,2019-06-20 16:14:06:078,0.0,0.0,0.0
-0.08707070350646973,-0.04363713040947914,9.761921882629395,0.0017718342327061804,0.0009846778706428594,0.0025607219745709597,0.874114990234375,2019-06-20 16:14:06:083,0.0,0.0,0.0
-0.1421499401330948,-0.05082137882709503,9.790658950805664,-0.0010251678020364214,0.004447632984432848,3.010106944941304e-05,0.8791141510009766,2019-06-20 16:14:06:088,0.0,0.0,0.0
-0.12538670003414154,-0.072374127805233,9.773895263671875,-0.0008919772382418092,0.0021833931398501137,-0.0029000914010824694,0.8849954605102539,2019-06-20 16:14:06:094,0.0,0.0,0.0
-0.13975520431995392,-0.04124237969517708,9.778684616088867,0.0005731190285175073,0.0005851061792590224,0.0025607219745709597,0.8900585174560547,2019-06-20 16:14:06:099,0.0,0.0,0.0
-0.1613079458475113,-0.01490013301372528,9.788264274597168,0.0023045963578474673,0.006578682005146645,-0.0019677574545201833,0.8949990272521973,2019-06-20 16:14:06:104,0.0,0.0,0.0
-0.09664970636367798,-0.029268629848957062,9.807421684265137,0.0009726907199013442,-0.0011463712150895187,-0.0010354235079578973,0.8991060256958008,2019-06-20 16:14:06:108,0.0,0.0,0.0
-0.07988645136356354,-0.10350587218999863,9.828974723815918,0.005634360972861425,-0.002744658240699191,-0.0007690423803686727,0.9041290283203125,2019-06-20 16:14:06:113,0.0,0.0,0.0
-0.08467595279216766,0.023415861651301384,9.809816360473633,-0.0014247395584388394,0.0004519156154644102,-0.00036947065647554515,0.9100027084350586,2019-06-20 16:14:06:119,0.0,0.0,0.0
-0.09425495564937592,-0.03645287826657295,9.788264274597168,-0.0010251678020364214,0.004580823288153135,0.00016329164746684,0.9141101837158203,2019-06-20 16:14:06:123,0.0,0.0,0.0
-0.07749170809984207,-0.1250586211681366,9.769105911254883,0.003370121128278691,0.0015174401908398898,-0.0036992350439244686,0.9191045761108398,2019-06-20 16:14:06:128,0.0,0.0,0.0
-0.11101820319890976,0.025810612365603447,9.70205307006836,0.004435645638635589,0.0007182967430536347,0.002027959589355348,0.9241151809692383,2019-06-20 16:14:06:133,0.0,0.0,0.0
-0.11341295391321182,-0.007715883664786816,9.781079292297363,0.002970549436894854,0.000851487306848247,-0.00010308950450435256,0.929995059967041,2019-06-20 16:14:06:139,0.0,0.0,0.0
-0.1086234524846077,-0.038847628980875015,9.740368843078613,0.0043024550748409765,0.00018553447162054023,0.0037594370487224705,0.9341812133789062,2019-06-20 16:14:06:143,0.0,0.0,0.0
-0.08707070350646973,-0.019689632579684258,9.852922439575195,-0.0047545040434156345,0.0012510590632506652,0.0008292445152038374,0.940007209777832,2019-06-20 16:14:06:149,0.0,0.0,0.0
-0.13257095217704773,-0.14900611340999603,9.848133087158203,0.010562412093336405,-0.0006136089599110694,-0.00010308950450435256,0.9441084861755371,2019-06-20 16:14:06:153,0.0,0.0,0.0
0.027877280488610268,0.071310855448246,9.776289939880371,0.0039028833834571395,0.008443349898271217,-0.001834566890725571,0.9500174522399902,2019-06-20 16:14:06:159,0.0,0.0,0.0
-0.21878193318843842,0.044968608766794205,9.807421684265137,0.0007063095923121196,0.0017838213184291141,-0.005031140421796266,0.9550085067749023,2019-06-20 16:14:06:164,0.0,0.0,0.0
-0.0559389591217041,-0.20887485146522522,9.675710678100586,0.012693461114050201,-0.0020787052916889674,-0.00023628007642628753,0.9599895477294922,2019-06-20 16:14:06:169,0.0,0.0,0.0
-0.12299194931983948,-0.053216129541397095,9.773895263671875,0.0048352170699451,-0.007139946845921397,-0.001834566890725571,0.9641141891479492,2019-06-20 16:14:06:173,0.0,0.0,0.0
-0.13017620146274567,0.14554809033870697,9.848133087158203,-0.00941617403630139,-0.003144229932083028,-0.004498378166617817,0.969996452331543,2019-06-20 16:14:06:179,0.0,0.0,0.0
-0.09664970636367798,-0.2639541029930115,9.79305362701416,0.009363697279259219,-0.002211895725446417,0.0029602936659547966,0.9749960899353027,2019-06-20 16:14:06:184,0.0,0.0,0.0
-0.0822812020778656,-0.06758462637662888,9.800237655639648,-0.00648598111267127,0.0024497742674393385,-0.0038324256077190803,0.9791069030761719,2019-06-20 16:14:06:188,0.0,0.0,0.0
-0.07030745595693588,-0.1514008641242981,9.721211433410645,0.0037696928196625274,0.0012510590632506652,-0.009160048679652224,0.9841313362121582,2019-06-20 16:14:06:193,0.0,0.0,0.0
-0.07030745595693588,-0.038847628980875015,9.757132530212402,-0.002090692377411901,0.0031157270864124,-0.011823859955544469,0.9899921417236328,2019-06-20 16:14:06:199,0.0,0.0,0.0
-0.19004493951797485,0.20541684329509735,9.836158752441406,-0.016608465001359103,-0.0024782768530356414,-0.015819577389531488,0.9941182136535645,2019-06-20 16:14:06:203,0.0,0.0,0.0
-0.08707070350646973,-0.4196128249168396,9.577526092529297,0.017621512754673833,-0.004742516697618376,-0.011024716052628144,0.9999990463256836,2019-06-20 16:14:06:209,0.0,0.0,0.0
0.0159035325050354,0.10244259983301163,9.749947547912598,0.012027508555151464,-0.0004804183961164572,-0.01768424476250741,1.0041141510009766,2019-06-20 16:14:06:213,0.0,0.0,0.0
-0.23793993890285492,0.26289084553718567,9.869685173034668,-0.012479557263651797,-0.0040765638786453146,-0.019815293783221204,1.0099925994873047,2019-06-20 16:14:06:219,0.0,0.0,0.0
0.2960892617702484,-0.2807173430919647,9.591894149780273,0.006566694659349385,-0.0044761355700291515,-0.023677819873190634,1.014115333557129,2019-06-20 16:14:06:223,0.0,0.0,0.0
-0.4414936602115631,-0.02208438143134117,9.996606826782227,0.013625795320686813,5.234389563494396e-05,-0.02833948986607639,1.0199966430664062,2019-06-20 16:14:06:229,0.0,0.0,0.0
0.37272122502326965,0.4448918104171753,9.802632331848145,-0.026464566202011763,0.0007182967430536347,-0.022878678050868913,1.0241069793701172,2019-06-20 16:14:06:233,0.0,0.0,0.0
-0.4606516659259796,-0.3094543516635895,9.8505277633667,0.014424938183305836,0.011373542301752687,-0.024343774512683977,1.0300254821777344,2019-06-20 16:14:06:239,0.0,0.0,0.0
0.22424675524234772,0.2221800833940506,9.79305362701416,-0.01434422463662772,0.014969687784281543,-0.03579816143857468,1.0350022315979004,2019-06-20 16:14:06:244,0.0,0.0,0.0
-0.34809842705726624,-0.10111112147569656,9.709237098693848,-0.0047545040434156345,0.004714014112022072,-0.02900544450556973,1.0391035079956055,2019-06-20 16:14:06:248,0.0,0.0,0.0
0.03027203120291233,-0.11308486759662628,9.522446632385254,0.00923050593524163,-0.0015459429064733554,-0.025276107679023285,1.0441889762878418,2019-06-20 16:14:06:253,0.0,0.0,0.0
-0.24272944033145905,0.3323385715484619,9.785869598388672,-0.0187395140220729,-0.005541660080386049,-0.029138633768992717,1.05000638961792,2019-06-20 16:14:06:259,0.0,0.0,0.0
0.03745628148317337,-0.32382285594940186,9.82179069519043,0.0027041680492313038,-0.0024782768530356414,-0.023944202561225814,1.054112434387207,2019-06-20 16:14:06:263,0.0,0.0,0.0
-0.024807212874293327,-0.11547961831092834,9.917580604553223,0.015623654037680321,0.008310159594550929,-0.025942060237922022,1.0591073036193848,2019-06-20 16:14:06:268,0.0,0.0,0.0
-0.015228213742375374,0.4257338047027588,9.910396575927734,-0.02366756462239923,0.01630159394237632,-0.030470538886790192,1.0650005340576172,2019-06-20 16:14:06:274,0.0,0.0,0.0
-0.1277814507484436,-0.41721808910369873,9.5751314163208,0.013359413672948937,0.003914870469180074,-0.023944202561225814,1.0699982643127441,2019-06-20 16:14:06:279,0.0,0.0,0.0
-0.13017620146274567,0.03538960963487625,9.59428882598877,0.007765409993575222,-0.003144229932083028,-0.021280390245036265,1.0741324424743652,2019-06-20 16:14:06:283,0.0,0.0,0.0
-0.017622962594032288,0.0976531058549881,9.67331600189209,-0.011014460801836738,-0.008871424435325683,-0.027273965355719496,1.0800089836120605,2019-06-20 16:14:06:289,0.0,0.0,0.0
-0.03438621014356613,-0.283112108707428,9.888843536376953,0.009496887582979506,-0.0038101827510560898,-0.02048124634211994,1.0849971771240234,2019-06-20 16:14:06:294,0.0,0.0,0.0
0.1595885157585144,0.15512709319591522,9.814606666564941,-0.005553647426183308,0.006179110053688482,-0.021280390245036265,1.0891094207763672,2019-06-20 16:14:06:298,0.0,0.0,0.0
-0.00564921461045742,-0.012505383230745792,9.831369400024414,-0.003422598145395187,0.014836497480561256,-0.019282532568340057,1.0950145721435547,2019-06-20 16:14:06:304,0.0,0.0,0.0
-0.00564921461045742,-0.20648010075092316,9.618236541748047,0.011627936603693304,0.0031157270864124,-0.017284672811049246,1.099991798400879,2019-06-20 16:14:06:309,0.0,0.0,0.0
-0.07988645136356354,0.12639009952545166,9.642184257507324,-0.002223883071243676,-0.0067403754146118855,-0.017817436106524996,1.1041178703308105,2019-06-20 16:14:06:313,0.0,0.0,0.0
0.027877280488610268,-0.02208438143134117,9.635000228881836,0.0023045963578474673,-0.009004614739045968,-0.020081674390661778,1.1100006103515625,2019-06-20 16:14:06:319,0.0,0.0,0.0
0.02308778092265129,-0.09153212606906891,9.785869598388672,0.0024377869216420794,-0.004742516697618376,-0.021546770852476842,1.114999771118164,2019-06-20 16:14:06:324,0.0,0.0,0.0
0.032666780054569244,0.12878485023975372,9.917580604553223,-0.005420456602314371,0.007111444260325094,-0.022212723411375576,1.119105339050293,2019-06-20 16:14:06:328,0.0,0.0,0.0
0.0422457791864872,-0.07476887851953506,9.783474922180176,0.005501170148992487,0.011107161694312112,-0.01861658000944132,1.1250181198120117,2019-06-20 16:14:06:334,0.0,0.0,0.0
-0.036780960857868195,0.0018631152343004942,9.72360610961914,0.0028373588731002413,0.00484720441574236,-0.01715148250732896,1.129992961883545,2019-06-20 16:14:06:339,0.0,0.0,0.0
-0.07270220667123795,0.12639009952545166,9.670921325683594,-0.003822169836779023,-0.007672709101099845,-0.02114719890101868,1.1341147422790527,2019-06-20 16:14:06:343,0.0,0.0,0.0
-0.0631232038140297,-0.10111112147569656,9.72360610961914,0.004568835942355876,-0.006207613159433436,-0.022479106099410753,1.1400485038757324,2019-06-20 16:14:06:349,0.0,0.0,0.0
0.06619327515363693,-0.017294881865382195,9.857711791992188,-0.0018243112498226766,-0.004209754442439926,-0.018350197321406143,1.1441106796264648,2019-06-20 16:14:06:353,0.0,0.0,0.0
-0.008043964393436909,0.02102111279964447,9.919975280761719,-0.0018243112498226766,0.01177311425321085,-0.015952767693251775,1.1491060256958008,2019-06-20 16:14:06:358,0.0,0.0,0.0
0.06379852443933487,-0.06758462637662888,9.87447452545166,0.0024377869216420794,0.019364976129429425,-0.018483388665423733,1.1541147232055664,2019-06-20 16:14:06:363,0.0,0.0,0.0
-0.1469394415616989,-0.005321133881807327,9.690079689025879,-0.0008919772382418092,0.007910587643092768,-0.01422129062399614,1.1599998474121094,2019-06-20 16:14:06:369,0.0,0.0,0.0
-0.06791270524263382,-0.04842662811279297,9.697263717651367,0.00017354732087902514,-0.008072281052558009,-0.011291097700366019,1.164109230041504,2019-06-20 16:14:06:373,0.0,0.0,0.0
-0.13257095217704773,-0.06518987566232681,9.716421127319336,0.003103740000689466,-0.009270996386783843,-0.010891525748907857,1.1691226959228516,2019-06-20 16:14:06:378,0.0,0.0,0.0
-0.010438714176416397,-0.005321133881807327,9.898422241210938,0.0019050247965007928,0.004447632984432848,-0.0075617613939682245,1.1749982833862305,2019-06-20 16:14:06:384,0.0,0.0,0.0
-0.02720196172595024,-0.08195312321186066,9.915185928344727,0.0016386436689115682,0.004714014112022072,-0.005297521549385491,1.1791048049926758,2019-06-20 16:14:06:388,0.0,0.0,0.0
-0.0008597151609137654,-0.05561087653040886,9.838553428649902,0.0005731190285175073,0.00870973102586044,-0.008893667031914347,1.1850013732910156,2019-06-20 16:14:06:394,0.0,0.0,0.0
-0.06551795452833176,-0.060400377959012985,9.75234317779541,-0.00022602440301410239,0.005379966670920808,-0.009959191542271246,1.189112663269043,2019-06-20 16:14:06:398,0.0,0.0,0.0
-0.09186020493507385,-0.08674262464046478,9.66134262084961,-0.0007587866744471969,-0.0044761355700291515,-0.009026857335634634,1.1949958801269531,2019-06-20 16:14:06:404,0.0,0.0,0.0
-0.04875471070408821,-0.060400377959012985,9.697263717651367,0.0035033116920733026,-0.01193480766267609,-0.007028999138789776,1.1991171836853027,2019-06-20 16:14:06:408,0.0,0.0,0.0
-0.0008597151609137654,-0.05082137882709503,9.860106468200684,0.006300313531760161,-0.0032774204958776402,-0.007961333345426386,1.2041130065917969,2019-06-20 16:14:06:413,0.0,0.0,0.0
0.03027203120291233,-0.06518987566232681,9.802632331848145,0.0027041680492313038,0.0004519156154644102,-0.0015681857631363464,1.2091069221496582,2019-06-20 16:14:06:418,0.0,0.0,0.0
-0.03438621014356613,-0.072374127805233,9.814606666564941,0.004435645638635589,0.006179110053688482,-0.005563903197123366,1.2149977684020996,2019-06-20 16:14:06:424,0.0,0.0,0.0
-0.03917571157217026,-0.05561087653040886,9.716421127319336,0.004036073947251752,-0.000879990087500294,-0.0027669008372878568,1.220022201538086,2019-06-20 16:14:06:429,0.0,0.0,0.0
-0.09664970636367798,-0.029268629848957062,9.642184257507324,-0.0023570736350382883,-0.009537376994224418,-0.0029000914010824694,1.2241125106811523,2019-06-20 16:14:06:433,0.0,0.0,0.0
-0.036780960857868195,-0.07476887851953506,9.79305362701416,-9.283383109216743e-05,-0.012334379614134252,-0.009826001238550958,1.2291045188903809,2019-06-20 16:14:06:438,0.0,0.0,0.0
-0.02720196172595024,-0.0987163707613945,9.828974723815918,-0.0007587866744471969,-0.005808041207975274,-0.006229855756022102,1.234114646911621,2019-06-20 16:14:06:443,0.0,0.0,0.0
-0.04875471070408821,-0.06279512494802475,9.800237655639648,0.003103740000689466,0.004580823288153135,-0.007961333345426386,1.2391119003295898,2019-06-20 16:14:06:448,0.0,0.0,0.0
-0.0822812020778656,-0.06518987566232681,9.80502700805664,0.0008395001561067318,0.007644206515503542,-0.004631568990486754,1.2449960708618164,2019-06-20 16:14:06:454,0.0,0.0,0.0
-0.02720196172595024,-0.060400377959012985,9.699658393859863,4.035674489342885e-05,5.234389563494396e-05,-0.005430712373254428,1.2491092681884766,2019-06-20 16:14:06:458,0.0,0.0,0.0
-0.1277814507484436,-0.002926384098827839,9.711631774902344,-0.0008919772382418092,-0.005408469776665762,-0.006096665452301814,1.255002498626709,2019-06-20 16:14:06:464,0.0,0.0,0.0
-0.04875471070408821,-0.046031877398490906,9.745158195495605,-0.0032894075816005744,-0.011135663759759764,-0.009160048679652224,1.2592296600341797,2019-06-20 16:14:06:468,0.0,0.0,0.0
-0.04875471070408821,-0.04363713040947914,9.82179069519043,-0.0018243112498226766,0.0009846778706428594,-0.0048979501180759786,1.265021800994873,2019-06-20 16:14:06:474,0.0,0.0,0.0
-0.015228213742375374,-0.03405813127756119,9.86250114440918,0.0011058812836959564,0.005646347798510033,-0.0027669008372878568,1.269108772277832,2019-06-20 16:14:06:478,0.0,0.0,0.0
-0.029596710577607155,-0.05082137882709503,9.802632331848145,-9.283383109216743e-05,0.003914870469180074,-0.0021009480183147955,1.2749977111816406,2019-06-20 16:14:06:484,0.0,0.0,0.0
-0.04635995998978615,-0.012505383230745792,9.783474922180176,-0.0026234547626275127,5.234389563494396e-05,-0.006895808835069488,1.2791118621826172,2019-06-20 16:14:06:488,0.0,0.0,0.0
-0.09186020493507385,-0.026873880997300148,9.71402645111084,0.0048352170699451,-0.0024782768530356414,-0.002234138582109408,1.284994125366211,2019-06-20 16:14:06:494,0.0,0.0,0.0
-0.07749170809984207,-0.06279512494802475,9.740368843078613,-0.0014247395584388394,-0.0052752789527968245,-0.0007690423803686727,1.2891063690185547,2019-06-20 16:14:06:498,0.0,0.0,0.0
-0.022412462159991264,-0.010110633447766304,9.795448303222656,-0.002889835890216737,0.0029825365226177876,-0.008627285904325124,1.2950019836425781,2019-06-20 16:14:06:504,0.0,0.0,0.0
-0.051149457693099976,-0.005321133881807327,9.812211036682129,-0.001957501813617289,0.006578682005146645,-0.00010308950450435256,1.2999992370605469,2019-06-20 16:14:06:509,0.0,0.0,0.0
-0.0559389591217041,-0.04842662811279297,9.817001342773438,0.001372262411285181,0.005113585543331584,-0.0007690423803686727,1.3041143417358398,2019-06-20 16:14:06:513,0.0,0.0,0.0
-0.11101820319890976,-0.012505383230745792,9.71402645111084,0.00017354732087902514,0.00484720441574236,0.0029602936659547966,1.3100242614746094,2019-06-20 16:14:06:519,0.0,0.0,0.0
-0.07749170809984207,-0.04842662811279297,9.733184814453125,-0.0010251678020364214,-8.084668035065233e-05,-0.0025005197096986324,1.3150057792663574,2019-06-20 16:14:06:524,0.0,0.0,0.0
-0.07509695738554001,-0.010110633447766304,9.728395462036133,-0.001957501813617289,-0.0018123241640997428,0.004159008740106307,1.319991111755371,2019-06-20 16:14:06:529,0.0,0.0,0.0
-0.0631232038140297,-0.017294881865382195,9.778684616088867,-0.0036889792729844113,0.004447632984432848,0.0017615784617661236,1.3241119384765625,2019-06-20 16:14:06:533,0.0,0.0,0.0
-0.08946545422077179,-0.024479132145643234,9.828974723815918,-0.0036889792729844113,0.006578682005146645,0.0038926276125170823,1.3299965858459473,2019-06-20 16:14:06:539,0.0,0.0,0.0
-0.10383395105600357,-0.046031877398490906,9.809816360473633,-0.0006255961106525846,0.0064454911812777075,0.003226674793544021,1.3341093063354492,2019-06-20 16:14:06:543,0.0,0.0,0.0
-0.13736045360565186,-0.019689632579684258,9.80502700805664,0.0003067379009282828,0.007377825387914319,0.005890486329510593,1.3399906158447266,2019-06-20 16:14:06:549,0.0,0.0,0.0
-0.16370269656181335,-0.007715883664786816,9.666131973266602,0.00017354732087902514,0.0017838213184291141,0.005357724074332143,1.3441171646118164,2019-06-20 16:14:06:553,0.0,0.0,0.0
-0.1541236937046051,0.006652614567428827,9.75234317779541,-0.004621313219546697,0.0036484893415908493,0.00695601083986749,1.3499984741210938,2019-06-20 16:14:06:559,0.0,0.0,0.0
-0.17088694870471954,-0.026873880997300148,9.740368843078613,-0.0004924055468579722,0.0031157270864124,0.008687488429271775,1.3541154861450195,2019-06-20 16:14:06:563,0.0,0.0,0.0
-0.14454469084739685,-0.007715883664786816,9.843342781066895,-0.001158358430849615,0.005246776367200522,0.0033598653573386336,1.360025405883789,2019-06-20 16:14:06:569,0.0,0.0,0.0
-0.16609744727611542,-0.017294881865382195,9.807421684265137,-0.0008919772382418092,0.004714014112022072,0.005091342946742919,1.3649983406066895,2019-06-20 16:14:06:574,0.0,0.0,0.0
-0.23554518818855286,-0.019689632579684258,9.785869598388672,0.0025709774854366916,0.0041812515967692985,0.009619822635908387,1.3691043853759766,2019-06-20 16:14:06:578,0.0,0.0,0.0
-0.21159768104553223,-0.019689632579684258,9.74276351928711,-0.0008919772382418092,-8.084668035065233e-05,0.006290057760820104,1.3741145133972168,2019-06-20 16:14:06:583,0.0,0.0,0.0
-0.21159768104553223,-0.046031877398490906,9.728395462036133,-0.0010251678020364214,-0.003011039368288416,0.00695601083986749,1.379134178161621,2019-06-20 16:14:06:588,0.0,0.0,0.0
-0.18286068737506866,-0.002926384098827839,9.747552871704102,0.0003067379009282828,0.003781679905385461,0.0056241052019213676,1.384993553161621,2019-06-20 16:14:06:594,0.0,0.0,0.0
-0.23793993890285492,-0.019689632579684258,9.884054183959961,-0.001158358430849615,0.004980395239611297,0.008820678732992063,1.3891048431396484,2019-06-20 16:14:06:598,0.0,0.0,0.0
-0.20201869308948517,-0.03645287826657295,9.824185371398926,0.0028373588731002413,0.005379966670920808,0.013082776774419656,1.3950023651123047,2019-06-20 16:14:06:604,0.0,0.0,0.0
-0.23554518818855286,-0.03645287826657295,9.812211036682129,0.0028373588731002413,-0.0010131806512949063,0.011084918057426146,1.399998664855957,2019-06-20 16:14:06:609,0.0,0.0,0.0
-0.2523084282875061,0.004257864784449339,9.759527206420898,-0.001158358430849615,0.0004519156154644102,0.005091342946742919,1.4041204452514648,2019-06-20 16:14:06:613,0.0,0.0,0.0
-0.2451241910457611,-0.007715883664786816,9.788264274597168,-0.0032894075816005744,-0.0010131806512949063,0.01587977939432949,1.4091167449951172,2019-06-20 16:14:06:618,0.0,0.0,0.0
-0.19483444094657898,-0.06758462637662888,9.855317115783691,0.0017718342327061804,0.0013842496270452774,0.013082776774419656,1.414999008178711,2019-06-20 16:14:06:624,0.0,0.0,0.0
-0.20920294523239136,-0.0005316344322636724,9.800237655639648,0.0009726907199013442,0.00031872505166979784,0.015080635491413166,1.4191055297851562,2019-06-20 16:14:06:628,0.0,0.0,0.0
-0.1996239423751831,0.011442113667726517,9.812211036682129,0.004435645638635589,0.00431444216056391,0.014281492628794142,1.424112319946289,2019-06-20 16:14:06:633,0.0,0.0,0.0
-0.25470319390296936,-0.026873880997300148,9.814606666564941,0.003370121128278691,0.005513157494789746,0.01880997127766231,1.4291095733642578,2019-06-20 16:14:06:638,0.0,0.0,0.0
-0.24991367757320404,-0.04363713040947914,9.783474922180176,0.001372262411285181,-0.0004804183961164572,0.018410399326204148,1.4349956512451172,2019-06-20 16:14:06:644,0.0,0.0,0.0
-0.23075568675994873,-0.024479132145643234,9.730790138244629,0.0037696928196625274,0.0013842496270452774,0.022139736152750594,1.439992904663086,2019-06-20 16:14:06:649,0.0,0.0,0.0
-0.2139924317598343,0.006652614567428827,9.817001342773438,-0.001158358430849615,0.0015174401908398898,0.022938880055666914,1.444112777709961,2019-06-20 16:14:06:653,0.0,0.0,0.0
-0.21878193318843842,-0.029268629848957062,9.76431655883789,0.003636502255867915,0.008976112673598316,0.016945303904686387,1.4500346183776855,2019-06-20 16:14:06:659,0.0,0.0,0.0
-0.24033468961715698,-0.07716362178325653,9.730790138244629,0.001372262411285181,0.007111444260325094,0.02067463969093553,1.45501708984375,2019-06-20 16:14:06:664,0.0,0.0,0.0
-0.21638718247413635,-0.02208438143134117,9.776289939880371,0.006699885483218323,0.00018553447162054023,0.02480354638834554,1.4591093063354492,2019-06-20 16:14:06:668,0.0,0.0,0.0
-0.23793993890285492,-0.002926384098827839,9.76431655883789,0.0053679798452722005,-0.0011463712150895187,0.022139736152750594,1.4650030136108398,2019-06-20 16:14:06:674,0.0,0.0,0.0
-0.23554518818855286,-0.002926384098827839,9.726000785827637,0.0016386436689115682,-0.0003472278323218449,0.022539308104208757,1.4691152572631836,2019-06-20 16:14:06:678,0.0,0.0,0.0
-0.23075568675994873,-0.029268629848957062,9.788264274597168,-9.283383109216743e-05,0.0011178684994560528,0.021340592249834266,1.4749979972839355,2019-06-20 16:14:06:684,0.0,0.0,0.0
-0.20201869308948517,-0.06997937709093094,9.826580047607422,0.0048352170699451,0.002849345958823175,0.021473783593851856,1.4791278839111328,2019-06-20 16:14:06:688,0.0,0.0,0.0
-0.2642821669578552,-0.01490013301372528,9.754737854003906,0.0008395001561067318,-0.0003472278323218449,0.02333845200712508,1.4850034713745117,2019-06-20 16:14:06:694,0.0,0.0,0.0
-0.2642821669578552,-0.019689632579684258,9.735579490661621,0.0007063095923121196,0.00431444216056391,0.022805688711649327,1.4899988174438477,2019-06-20 16:14:06:699,0.0,0.0,0.0
-0.28344017267227173,-0.038847628980875015,9.730790138244629,0.002970549436894854,-0.0012795617788841308,0.01827721006278116,1.4941143989562988,2019-06-20 16:14:06:703,0.0,0.0,0.0
-0.2642821669578552,-0.05800562724471092,9.807421684265137,0.0020382153602954054,-0.002744658240699191,0.02227292749676818,1.5000238418579102,2019-06-20 16:14:06:709,0.0,0.0,0.0
-0.2642821669578552,-0.060400377959012985,9.747552871704102,-9.283383109216743e-05,0.003382108214001624,0.019609115180578632,1.5041131973266602,2019-06-20 16:14:06:713,0.0,0.0,0.0
-0.24272944033145905,-0.08913737535476685,9.783474922180176,-0.00035921498306336,0.0060459197499681955,0.017611257503882427,1.5091075897216797,2019-06-20 16:14:06:718,0.0,0.0,0.0
-0.28822967410087585,-0.07476887851953506,9.778684616088867,0.003636502255867915,0.0015174401908398898,0.01667892225694851,1.5149989128112793,2019-06-20 16:14:06:724,0.0,0.0,0.0
-0.28104543685913086,-0.06279512494802475,9.745158195495605,0.0035033116920733026,0.003781679905385461,0.01667892225694851,1.5191116333007812,2019-06-20 16:14:06:728,0.0,0.0,0.0
-0.2738611698150635,-0.07476887851953506,9.766711235046387,0.0024377869216420794,0.0004519156154644102,0.006556438888409328,1.5241117477416992,2019-06-20 16:14:06:733,0.0,0.0,0.0
-0.285834938287735,-0.0987163707613945,9.757132530212402,-0.001158358430849615,-0.0020787052916889674,0.01095172775370586,1.529989242553711,2019-06-20 16:14:06:739,0.0,0.0,0.0
-0.2666769325733185,-0.04363713040947914,9.852922439575195,0.003636502255867915,0.00031872505166979784,0.006556438888409328,1.5341134071350098,2019-06-20 16:14:06:743,0.0,0.0,0.0
-0.2714664340019226,-0.09153212606906891,9.785869598388672,0.002970549436894854,0.0015174401908398898,0.003493055921133246,1.539994239807129,2019-06-20 16:14:06:749,0.0,0.0,0.0
-0.25470319390296936,-0.026873880997300148,9.855317115783691,-0.004887694347135921,-0.0014127523426787432,0.001628387897971511,1.5441570281982422,2019-06-20 16:14:06:753,0.0,0.0,0.0
-0.25709792971611023,-0.06518987566232681,9.761921882629395,-0.0024902641988329005,-0.0003472278323218449,0.00895386903671235,1.5500154495239258,2019-06-20 16:14:06:759,0.0,0.0,0.0
-0.2978086769580841,-0.072374127805233,9.864895820617676,0.0024377869216420794,0.0011178684994560528,0.002027959589355348,1.5549936294555664,2019-06-20 16:14:06:764,0.0,0.0,0.0
-0.26188743114471436,-0.07476887851953506,9.721211433410645,-0.001557930122233452,0.0013842496270452774,-0.000902232944163285,1.5591039657592773,2019-06-20 16:14:06:768,0.0,0.0,0.0
-0.25470319390296936,-0.05082137882709503,9.778684616088867,-0.002756645326422125,0.0036484893415908493,0.0012288162065876742,1.5641136169433594,2019-06-20 16:14:06:773,0.0,0.0,0.0
-0.23075568675994873,-0.07476887851953506,9.817001342773438,0.0021714059240900176,0.0025829648312339507,-0.004231997299102917,1.569112777709961,2019-06-20 16:14:06:778,0.0,0.0,0.0
-0.1732816994190216,-0.05800562724471092,9.740368843078613,-0.004887694347135921,-0.0004804183961164572,-0.005164331245665204,1.574995994567871,2019-06-20 16:14:06:784,0.0,0.0,0.0
-0.17807118594646454,-0.03405813127756119,9.776289939880371,0.0012390718474905686,-0.0014127523426787432,-0.005031140421796266,1.579129695892334,2019-06-20 16:14:06:788,0.0,0.0,0.0
-0.17088694870471954,-0.046031877398490906,9.728395462036133,4.035674489342885e-05,0.0005851061792590224,-0.0063630465798910395,1.5850028991699219,2019-06-20 16:14:06:794,0.0,0.0,0.0
-0.1613079458475113,-0.02208438143134117,9.733184814453125,-0.0014247395584388394,0.00031872505166979784,-0.005963474628432877,1.5900678634643555,2019-06-20 16:14:06:799,0.0,0.0,0.0
-0.08946545422077179,-0.005321133881807327,9.817001342773438,-0.002889835890216737,-0.00021403725227258724,-0.004098806735308305,1.5950183868408203,2019-06-20 16:14:06:804,0.0,0.0,0.0
-0.15651844441890717,-0.029268629848957062,9.769105911254883,4.035674489342885e-05,0.003382108214001624,-0.005563903197123366,1.599104881286621,2019-06-20 16:14:06:808,0.0,0.0,0.0
-0.13736045360565186,0.0018631152343004942,9.807421684265137,-0.002223883071243676,-0.0023450862892410293,-0.006762618011200551,1.6049985885620117,2019-06-20 16:14:06:814,0.0,0.0,0.0
-0.06551795452833176,-0.024479132145643234,9.797842979431152,-0.0012915489946442272,0.0025829648312339507,-0.0038324256077190803,1.60911226272583,2019-06-20 16:14:06:818,0.0,0.0,0.0
-0.07030745595693588,-0.005321133881807327,9.86250114440918,0.001372262411285181,-0.003943373314850702,-0.004498378166617817,1.614995002746582,2019-06-20 16:14:06:824,0.0,0.0,0.0
-0.07030745595693588,0.013836863450706005,9.797842979431152,-0.002090692377411901,-0.0023450862892410293,-0.0014349951993417342,1.6191034317016602,2019-06-20 16:14:06:828,0.0,0.0,0.0
-0.06072845682501793,0.0018631152343004942,9.769105911254883,-0.0012915489946442272,-0.0003472278323218449,-0.01222343190700263,1.6250052452087402,2019-06-20 16:14:06:834,0.0,0.0,0.0
-0.07509695738554001,-0.012505383230745792,9.771500587463379,0.0015054529750797934,-0.003676992187261477,-0.004498378166617817,1.6291122436523438,2019-06-20 16:14:06:838,0.0,0.0,0.0
-0.0631232038140297,-0.012505383230745792,9.790658950805664,-0.001557930122233452,-0.0024782768530356414,-0.009160048679652224,1.6350045204162598,2019-06-20 16:14:06:844,0.0,0.0,0.0
-0.09904444962739944,0.009047363884747028,9.773895263671875,0.0020382153602954054,0.0012510590632506652,-0.013022574769621653,1.6400299072265625,2019-06-20 16:14:06:849,0.0,0.0,0.0
-0.09664970636367798,-0.002926384098827839,9.83376407623291,4.035674489342885e-05,-0.0024782768530356414,-0.004764759294207041,1.6441097259521484,2019-06-20 16:14:06:853,0.0,0.0,0.0
-0.08467595279216766,0.025810612365603447,9.766711235046387,-0.001957501813617289,0.0017838213184291141,-0.0064962368836113255,1.6499886512756348,2019-06-20 16:14:06:859,0.0,0.0,0.0
-0.06791270524263382,-0.012505383230745792,9.733184814453125,-0.002090692377411901,0.0004519156154644102,-0.007694952217837162,1.65411376953125,2019-06-20 16:14:06:863,0.0,0.0,0.0
-0.07030745595693588,0.006652614567428827,9.76431655883789,-0.001557930122233452,-0.0012795617788841308,-0.005830284324712591,1.6599979400634766,2019-06-20 16:14:06:869,0.0,0.0,0.0
-0.03438621014356613,-0.010110633447766304,9.831369400024414,-0.0006255961106525846,0.00018553447162054023,-0.0021009480183147955,1.6641082763671875,2019-06-20 16:14:06:873,0.0,0.0,0.0
-0.051149457693099976,-0.01490013301372528,9.771500587463379,-0.004887694347135921,-0.005808041207975274,-0.0013018046355471218,1.6691045761108398,2019-06-20 16:14:06:878,0.0,0.0,0.0
-0.09186020493507385,-0.005321133881807327,9.785869598388672,-0.002756645326422125,0.00031872505166979784,0.001095625642793062,1.6741180419921875,2019-06-20 16:14:06:883,0.0,0.0,0.0
-0.07988645136356354,0.023415861651301384,9.781079292297363,-0.002223883071243676,0.0007182967430536347,-0.005563903197123366,1.6800222396850586,2019-06-20 16:14:06:889,0.0,0.0,0.0
-0.09664970636367798,-0.031663380563259125,9.778684616088867,0.0005731190285175073,0.002316583703644726,-0.004764759294207041,1.6841368675231934,2019-06-20 16:14:06:893,0.0,0.0,0.0
-0.08467595279216766,0.006652614567428827,9.814606666564941,0.004568835942355876,0.005246776367200522,-0.003965616171513693,1.6900086402893066,2019-06-20 16:14:06:899,0.0,0.0,0.0
-0.10383395105600357,0.004257864784449339,9.754737854003906,0.0023045963578474673,0.004447632984432848,-0.0038324256077190803,1.6941132545471191,2019-06-20 16:14:06:903,0.0,0.0,0.0
-0.1277814507484436,0.016231613233685493,9.778684616088867,0.002970549436894854,-0.000879990087500294,-0.005297521549385491,1.6991057395935059,2019-06-20 16:14:06:908,0.0,0.0,0.0
-0.07749170809984207,-0.024479132145643234,9.776289939880371,0.0008395001561067318,-0.0052752789527968245,-0.0048979501180759786,1.7049999237060547,2019-06-20 16:14:06:914,0.0,0.0,0.0
-0.051149457693099976,0.018626363947987556,9.795448303222656,-0.0014247395584388394,0.0017838213184291141,-0.007028999138789776,1.7099990844726562,2019-06-20 16:14:06:919,0.0,0.0,0.0
-0.0822812020778656,-0.010110633447766304,9.795448303222656,0.003370121128278691,0.0036484893415908493,-0.00876047672819406,1.7141118049621582,2019-06-20 16:14:06:923,0.0,0.0,0.0
-0.043965209275484085,-0.024479132145643234,9.828974723815918,0.0016386436689115682,-0.0003472278323218449,-0.005830284324712591,1.7199897766113281,2019-06-20 16:14:06:929,0.0,0.0,0.0
-0.058333706110715866,-0.031663380563259125,9.754737854003906,0.0024377869216420794,0.0017838213184291141,-0.003566044480129856,1.724996566772461,2019-06-20 16:14:06:934,0.0,0.0,0.0
-0.04875471070408821,-0.019689632579684258,9.769105911254883,0.0007063095923121196,0.0015174401908398898,-0.005031140421796266,1.7291059494018555,2019-06-20 16:14:06:938,0.0,0.0,0.0
-0.0631232038140297,-0.046031877398490906,9.831369400024414,-0.0018243112498226766,-0.0004804183961164572,-0.006096665452301814,1.7350130081176758,2019-06-20 16:14:06:944,0.0,0.0,0.0
-0.0822812020778656,-0.019689632579684258,9.757132530212402,0.0021714059240900176,-0.00021403725227258724,-0.0071621899626587125,1.7391061782836914,2019-06-20 16:14:06:948,0.0,0.0,0.0
-0.022412462159991264,-0.017294881865382195,9.757132530212402,-0.004088550964368248,0.00031872505166979784,-0.0027669008372878568,1.7450017929077148,2019-06-20 16:14:06:954,0.0,0.0,0.0
-0.03438621014356613,-0.01490013301372528,9.778684616088867,-0.001158358430849615,-0.0028778488044938037,-0.005031140421796266,1.7500004768371582,2019-06-20 16:14:06:959,0.0,0.0,0.0
-0.04635995998978615,-0.005321133881807327,9.754737854003906,0.0008395001561067318,0.0015174401908398898,-0.007694952217837162,1.7541098594665527,2019-06-20 16:14:06:963,0.0,0.0,0.0
-0.0559389591217041,-0.029268629848957062,9.781079292297363,0.0020382153602954054,0.00031872505166979784,-0.007428571090247938,1.7599925994873047,2019-06-20 16:14:06:969,0.0,0.0,0.0
-0.036780960857868195,-0.053216129541397095,9.757132530212402,0.003103740000689466,-0.000879990087500294,-0.008627285904325124,1.7650012969970703,2019-06-20 16:14:06:974,0.0,0.0,0.0
-0.022412462159991264,-0.04842662811279297,9.836158752441406,0.004568835942355876,0.0036484893415908493,-0.004631568990486754,1.7699975967407227,2019-06-20 16:14:06:979,0.0,0.0,0.0
-0.02720196172595024,0.013836863450706005,9.776289939880371,0.0027041680492313038,0.0029825365226177876,0.0005628633876146128,1.7741146087646484,2019-06-20 16:14:06:983,0.0,0.0,0.0
-0.029596710577607155,-0.005321133881807327,9.781079292297363,-0.0010251678020364214,0.0021833931398501137,-0.006229855756022102,1.7800226211547852,2019-06-20 16:14:06:989,0.0,0.0,0.0
-0.05354420840740204,-0.002926384098827839,9.781079292297363,0.0035033116920733026,-0.0007467995237056817,-0.0038324256077190803,1.7841176986694336,2019-06-20 16:14:06:993,0.0,0.0,0.0
-0.029596710577607155,-0.01490013301372528,9.747552871704102,0.00043992846472289506,0.0009846778706428594,-0.0048979501180759786,1.7899894714355469,2019-06-20 16:14:06:999,0.0,0.0,0.0
-0.07270220667123795,-0.02208438143134117,9.80502700805664,0.001372262411285181,-0.0003472278323218449,-0.005563903197123366,1.794112205505371,2019-06-20 16:14:07:003,0.0,0.0,0.0
-0.04635995998978615,-0.010110633447766304,9.76431655883789,0.0017718342327061804,-8.084668035065233e-05,-0.004098806735308305,1.7991104125976562,2019-06-20 16:14:07:008,0.0,0.0,0.0
-0.0631232038140297,-0.019689632579684258,9.79305362701416,-0.0018243112498226766,0.0005851061792590224,-0.0021009480183147955,1.8041095733642578,2019-06-20 16:14:07:013,0.0,0.0,0.0
-0.04875471070408821,-0.002926384098827839,9.852922439575195,0.002970549436894854,0.00484720441574236,-0.0036992350439244686,1.8099908828735352,2019-06-20 16:14:07:019,0.0,0.0,0.0
-0.058333706110715866,-0.005321133881807327,9.75234317779541,0.0005731190285175073,0.002050202446018339,-0.008360904776735898,1.814115047454834,2019-06-20 16:14:07:023,0.0,0.0,0.0
-0.03917571157217026,-0.007715883664786816,9.706842422485352,-0.0010251678020364214,0.000851487306848247,-0.003566044480129856,1.8199968338012695,2019-06-20 16:14:07:029,0.0,0.0,0.0
-0.08946545422077179,-0.05561087653040886,9.745158195495605,0.0011058812836959564,-0.0023450862892410293,-0.009026857335634634,1.8241429328918457,2019-06-20 16:14:07:033,0.0,0.0,0.0
-0.058333706110715866,-0.005321133881807327,9.773895263671875,0.0012390718474905686,-8.084668035065233e-05,-0.007428571090247938,1.8300151824951172,2019-06-20 16:14:07:039,0.0,0.0,0.0
-0.02720196172595024,-0.019689632579684258,9.776289939880371,-0.0010251678020364214,0.0025829648312339507,-0.006096665452301814,1.8349943161010742,2019-06-20 16:14:07:044,0.0,0.0,0.0
-0.02720196172595024,-0.002926384098827839,9.82179069519043,-0.0004924055468579722,0.003382108214001624,-0.004764759294207041,1.8391036987304688,2019-06-20 16:14:07:048,0.0,0.0,0.0
-0.07988645136356354,-0.03405813127756119,9.740368843078613,0.004169264511046364,0.00031872505166979784,-0.0030332819648770815,1.8450040817260742,2019-06-20 16:14:07:054,0.0,0.0,0.0
-0.1086234524846077,-0.02208438143134117,9.776289939880371,-0.0006255961106525846,-0.0007467995237056817,-0.005963474628432877,1.8491120338439941,2019-06-20 16:14:07:058,0.0,0.0,0.0
-0.06551795452833176,-0.01490013301372528,9.699658393859863,-0.0010251678020364214,0.0015174401908398898,-0.0064962368836113255,1.8549957275390625,2019-06-20 16:14:07:064,0.0,0.0,0.0
-0.0822812020778656,-0.024479132145643234,9.745158195495605,0.002970549436894854,0.0005851061792590224,-0.009959191542271246,1.859105110168457,2019-06-20 16:14:07:068,0.0,0.0,0.0
-0.06551795452833176,-0.04363713040947914,9.773895263671875,-0.0030230264540113496,0.002849345958823175,-0.009160048679652224,1.8649992942810059,2019-06-20 16:14:07:074,0.0,0.0,0.0
-0.11580769717693329,-0.03645287826657295,9.728395462036133,0.00043992846472289506,0.0024497742674393385,-0.006229855756022102,1.8691129684448242,2019-06-20 16:14:07:078,0.0,0.0,0.0
-0.09186020493507385,-0.012505383230745792,9.757132530212402,-0.0026234547626275127,0.005912728926099258,-0.009293238983372509,1.8750276565551758,2019-06-20 16:14:07:084,0.0,0.0,0.0
-0.10143920034170151,-0.024479132145643234,9.730790138244629,-0.0004924055468579722,0.004980395239611297,-0.011157907396645732,1.8800287246704102,2019-06-20 16:14:07:089,0.0,0.0,0.0
-0.08946545422077179,-0.04124237969517708,9.759527206420898,-0.004887694347135921,5.234389563494396e-05,-0.0064962368836113255,1.8849973678588867,2019-06-20 16:14:07:094,0.0,0.0,0.0
-0.08467595279216766,-0.017294881865382195,9.788264274597168,-0.0004924055468579722,0.002050202446018339,-0.0063630465798910395,1.8891043663024902,2019-06-20 16:14:07:098,0.0,0.0,0.0
-0.11820244789123535,-0.038847628980875015,9.766711235046387,0.00017354732087902514,0.003914870469180074,-0.005430712373254428,1.895005226135254,2019-06-20 16:14:07:104,0.0,0.0,0.0
-0.06072845682501793,-0.024479132145643234,9.781079292297363,-0.004621313219546697,0.005379966670920808,-0.009559619590813083,1.8991107940673828,2019-06-20 16:14:07:108,0.0,0.0,0.0
-0.06072845682501793,-0.010110633447766304,9.819396018981934,-0.001557930122233452,0.004580823288153135,-0.006762618011200551,1.9041099548339844,2019-06-20 16:14:07:113,0.0,0.0,0.0
-0.07030745595693588,-0.03405813127756119,9.864895820617676,-0.001557930122233452,0.002716155395028563,-0.0026337102734932446,1.9099903106689453,2019-06-20 16:14:07:119,0.0,0.0,0.0
-0.11580769717693329,0.004257864784449339,9.840948104858398,-0.001557930122233452,0.0031157270864124,-0.003965616171513693,1.9150032997131348,2019-06-20 16:14:07:124,0.0,0.0,0.0
-0.1086234524846077,-0.017294881865382195,9.769105911254883,0.004169264511046364,0.003914870469180074,-0.004098806735308305,1.9191336631774902,2019-06-20 16:14:07:128,0.0,0.0,0.0
-0.08946545422077179,0.023415861651301384,9.809816360473633,-0.002223883071243676,-0.0028778488044938037,-0.0032996633525406317,1.9250049591064453,2019-06-20 16:14:07:134,0.0,0.0,0.0
-0.07749170809984207,-0.002926384098827839,9.788264274597168,-0.0004924055468579722,-0.00021403725227258724,-0.0030332819648770815,1.9291048049926758,2019-06-20 16:14:07:138,0.0,0.0,0.0
-0.09425495564937592,-0.04363713040947914,9.802632331848145,0.00017354732087902514,0.002849345958823175,0.003226674793544021,1.9341158866882324,2019-06-20 16:14:07:143,0.0,0.0,0.0
-0.0822812020778656,0.004257864784449339,9.785869598388672,0.003370121128278691,0.0041812515967692985,0.0029602936659547966,1.9391121864318848,2019-06-20 16:14:07:148,0.0,0.0,0.0
-0.07509695738554001,0.0018631152343004942,9.812211036682129,-0.001957501813617289,0.0025829648312339507,0.0009624350789984497,1.9441041946411133,2019-06-20 16:14:07:153,0.0,0.0,0.0
-0.10143920034170151,0.004257864784449339,9.757132530212402,0.0016386436689115682,0.000851487306848247,0.004691770995284756,1.9499850273132324,2019-06-20 16:14:07:159,0.0,0.0,0.0
-0.0631232038140297,-0.04124237969517708,9.759527206420898,-0.0006255961106525846,5.234389563494396e-05,0.003493055921133246,1.9541187286376953,2019-06-20 16:14:07:163,0.0,0.0,0.0
-0.09186020493507385,-0.05082137882709503,9.766711235046387,-0.00035921498306336,0.00577953862237897,0.004159008740106307,1.9599971771240234,2019-06-20 16:14:07:169,0.0,0.0,0.0
-0.05354420840740204,-0.046031877398490906,9.776289939880371,-0.0004924055468579722,0.002716155395028563,0.004025818176311695,1.964113712310791,2019-06-20 16:14:07:173,0.0,0.0,0.0
-0.07030745595693588,-0.029268629848957062,9.83376407623291,0.0020382153602954054,0.0004519156154644102,0.0012288162065876742,1.9700508117675781,2019-06-20 16:14:07:179,0.0,0.0,0.0
-0.07749170809984207,0.0018631152343004942,9.70205307006836,-0.00502088517100486,-0.0004804183961164572,0.0029602936659547966,1.9741134643554688,2019-06-20 16:14:07:183,0.0,0.0,0.0
-0.11580769717693329,-0.04124237969517708,9.788264274597168,0.0016386436689115682,0.00484720441574236,0.007621963398766227,1.9791293144226074,2019-06-20 16:14:07:188,0.0,0.0,0.0
-0.10143920034170151,-0.007715883664786816,9.807421684265137,0.0015054529750797934,0.000851487306848247,0.004425389867695532,1.9841194152832031,2019-06-20 16:14:07:193,0.0,0.0,0.0
-0.12538670003414154,-0.002926384098827839,9.788264274597168,0.0035033116920733026,0.0012510590632506652,0.008154726174093326,1.9899959564208984,2019-06-20 16:14:07:199,0.0,0.0,0.0
-0.15172894299030304,-0.017294881865382195,9.754737854003906,0.0005731190285175073,0.0032489176502070124,0.004958152122873981,1.9941120147705078,2019-06-20 16:14:07:203,0.0,0.0,0.0
-0.1421499401330948,0.025810612365603447,9.771500587463379,0.001372262411285181,0.0017838213184291141,0.004292199303900919,1.9991073608398438,2019-06-20 16:14:07:208,0.0,0.0,0.0
-0.07509695738554001,-0.06518987566232681,9.778684616088867,0.0017718342327061804,0.001650630754634502,0.006023676633230879,2.0049991607666016,2019-06-20 16:14:07:214,0.0,0.0,0.0
-0.15891319513320923,-0.02208438143134117,9.795448303222656,0.003103740000689466,0.001650630754634502,0.010285775194807122,2.009110450744629,2019-06-20 16:14:07:218,0.0,0.0,0.0
-0.18286068737506866,0.009047363884747028,9.716421127319336,0.0020382153602954054,0.0015174401908398898,0.012150443608080345,2.015030860900879,2019-06-20 16:14:07:224,0.0,0.0,0.0
-0.14454469084739685,-0.01490013301372528,9.80502700805664,0.003103740000689466,0.0025829648312339507,0.009753012939628674,2.0191168785095215,2019-06-20 16:14:07:228,0.0,0.0,0.0
-0.11101820319890976,-0.01490013301372528,9.754737854003906,0.00017354732087902514,0.0015174401908398898,0.008820678732992063,2.024995803833008,2019-06-20 16:14:07:234,0.0,0.0,0.0
-0.11101820319890976,-0.05082137882709503,9.809816360473633,-0.0023570736350382883,0.00431444216056391,0.010685347146265284,2.0291080474853516,2019-06-20 16:14:07:238,0.0,0.0,0.0
-0.17807118594646454,-0.06758462637662888,9.831369400024414,0.0037696928196625274,0.0013842496270452774,0.010285775194807122,2.0350074768066406,2019-06-20 16:14:07:244,0.0,0.0,0.0
-0.1349657028913498,-0.026873880997300148,9.797842979431152,0.0019050247965007928,0.005646347798510033,0.009486631291890799,2.0391130447387695,2019-06-20 16:14:07:248,0.0,0.0,0.0
-0.16849219799041748,-0.03405813127756119,9.819396018981934,0.00017354732087902514,0.005113585543331584,0.010019393547069247,2.0449962615966797,2019-06-20 16:14:07:254,0.0,0.0,0.0
-0.13257095217704773,-0.053216129541397095,9.814606666564941,0.0016386436689115682,0.005113585543331584,0.011084918057426146,2.0491065979003906,2019-06-20 16:14:07:258,0.0,0.0,0.0
-0.1469394415616989,-0.06279512494802475,9.814606666564941,0.0005731190285175073,-0.0028778488044938037,0.005224533250463206,2.054112434387207,2019-06-20 16:14:07:263,0.0,0.0,0.0
-0.1349657028913498,-0.024479132145643234,9.800237655639648,0.007632219169706285,0.002316583703644726,0.011750871656622183,2.0600223541259766,2019-06-20 16:14:07:269,0.0,0.0,0.0
-0.12299194931983948,-0.02208438143134117,9.773895263671875,0.0015054529750797934,-0.005142088649076538,0.004558580691564469,2.065011978149414,2019-06-20 16:14:07:274,0.0,0.0,0.0
-0.12538670003414154,-0.005321133881807327,9.747552871704102,0.0003067379009282828,-0.003410611059672253,0.009619822635908387,2.0691070556640625,2019-06-20 16:14:07:278,0.0,0.0,0.0
-0.12299194931983948,-0.060400377959012985,9.80502700805664,0.0028373588731002413,-0.003676992187261477,0.0037594370487224705,2.0750036239624023,2019-06-20 16:14:07:284,0.0,0.0,0.0
-0.12299194931983948,-0.05561087653040886,9.83376407623291,0.00590074210045065,0.003382108214001624,0.010152584891086835,2.079132556915283,2019-06-20 16:14:07:288,0.0,0.0,0.0
-0.10622870177030563,-0.031663380563259125,9.802632331848145,0.0015054529750797934,-0.0016791336003051302,0.008421107301682551,2.0849971771240234,2019-06-20 16:14:07:294,0.0,0.0,0.0
-0.11341295391321182,-0.01490013301372528,9.783474922180176,4.035674489342885e-05,-0.0020787052916889674,0.004558580691564469,2.089104175567627,2019-06-20 16:14:07:298,0.0,0.0,0.0
-0.14933419227600098,-0.05800562724471092,9.802632331848145,0.0003067379009282828,-0.0007467995237056817,0.0006960539514092252,2.094114303588867,2019-06-20 16:14:07:303,0.0,0.0,0.0
-0.1086234524846077,-0.03405813127756119,9.807421684265137,0.0012390718474905686,0.0041812515967692985,0.0021611501531499603,2.0991106033325195,2019-06-20 16:14:07:308,0.0,0.0,0.0
-0.1086234524846077,0.0018631152343004942,9.761921882629395,0.0016386436689115682,-0.0020787052916889674,0.009353440988170512,2.10500431060791,2019-06-20 16:14:07:314,0.0,0.0,0.0
-0.1469394415616989,0.025810612365603447,9.730790138244629,0.0012390718474905686,-0.004609325873749438,0.0018947690255607357,2.110027313232422,2019-06-20 16:14:07:319,0.0,0.0,0.0
-0.10383395105600357,-0.046031877398490906,9.749947547912598,0.0037696928196625274,-0.0044761355700291515,0.004958152122873981,2.1141128540039062,2019-06-20 16:14:07:323,0.0,0.0,0.0
-0.06551795452833176,-0.01490013301372528,9.819396018981934,0.0011058812836959564,-0.000879990087500294,0.0024275314107763475,2.119990348815918,2019-06-20 16:14:07:329,0.0,0.0,0.0
-0.07030745595693588,-0.04842662811279297,9.771500587463379,0.002970549436894854,-0.0026114674168302536,0.0018947690255607357,2.124110221862793,2019-06-20 16:14:07:333,0.0,0.0,0.0
-0.058333706110715866,-0.038847628980875015,9.730790138244629,0.0021714059240900176,-0.000879990087500294,-0.004365187862897529,2.1291112899780273,2019-06-20 16:14:07:338,0.0,0.0,0.0
-0.12299194931983948,-0.04842662811279297,9.74276351928711,0.0005731190285175073,-0.0004804183961164572,-0.0032996633525406317,2.134110450744629,2019-06-20 16:14:07:343,0.0,0.0,0.0
-0.06791270524263382,-0.007715883664786816,9.726000785827637,0.0011058812836959564,-0.0011463712150895187,-0.0025005197096986324,2.1399879455566406,2019-06-20 16:14:07:349,0.0,0.0,0.0
-0.06791270524263382,-0.046031877398490906,9.735579490661621,0.0027041680492313038,-0.00793909022868907,0.0009624350789984497,2.1441144943237305,2019-06-20 16:14:07:353,0.0,0.0,0.0
-0.05354420840740204,-0.024479132145643234,9.757132530212402,0.005234789021403263,-0.0040765638786453146,-0.0011686140717525096,2.1499977111816406,2019-06-20 16:14:07:359,0.0,0.0,0.0
-0.043965209275484085,-0.029268629848957062,9.795448303222656,-0.00035921498306336,0.0013842496270452774,-0.004098806735308305,2.154128074645996,2019-06-20 16:14:07:363,0.0,0.0,0.0
-0.043965209275484085,-0.024479132145643234,9.802632331848145,0.00017354732087902514,-0.003410611059672253,-0.0031664725286716937,2.160008430480957,2019-06-20 16:14:07:369,0.0,0.0,0.0
-0.04157045856118202,0.037784360349178314,9.72360610961914,-0.0026234547626275127,0.0029825365226177876,-0.004098806735308305,2.1641082763671875,2019-06-20 16:14:07:373,0.0,0.0,0.0
-0.06551795452833176,0.004257864784449339,9.757132530212402,0.003636502255867915,-0.002744658240699191,-0.0025005197096986324,2.169107437133789,2019-06-20 16:14:07:378,0.0,0.0,0.0
-0.03917571157217026,-0.007715883664786816,9.790658950805664,0.0019050247965007928,-0.0003472278323218449,-0.0015681857631363464,2.174999237060547,2019-06-20 16:14:07:384,0.0,0.0,0.0
-0.02720196172595024,-0.005321133881807327,9.761921882629395,0.0011058812836959564,-0.00021403725227258724,-0.006762618011200551,2.179999351501465,2019-06-20 16:14:07:389,0.0,0.0,0.0
0.013508782722055912,0.006652614567428827,9.802632331848145,-0.003422598145395187,-0.0010131806512949063,-0.0025005197096986324,2.184110641479492,2019-06-20 16:14:07:393,0.0,0.0,0.0
-0.024807212874293327,-0.007715883664786816,9.76431655883789,4.035674489342885e-05,-0.0018123241640997428,-0.0038324256077190803,2.189990520477295,2019-06-20 16:14:07:399,0.0,0.0,0.0
-0.0822812020778656,0.011442113667726517,9.795448303222656,-0.0016911206860280642,5.234389563494396e-05,-0.0023673291459040203,2.19411563873291,2019-06-20 16:14:07:403,0.0,0.0,0.0
-0.02720196172595024,0.016231613233685493,9.745158195495605,-0.0032894075816005744,-0.0040765638786453146,-0.0021009480183147955,2.199148178100586,2019-06-20 16:14:07:408,0.0,0.0,0.0
-0.036780960857868195,0.044968608766794205,9.745158195495605,0.0028373588731002413,0.002849345958823175,0.002027959589355348,2.2050113677978516,2019-06-20 16:14:07:414,0.0,0.0,0.0
0.0159035325050354,-0.010110633447766304,9.795448303222656,0.0024377869216420794,-0.0035438016234668654,-0.001834566890725571,2.2100868225097656,2019-06-20 16:14:07:419,0.0,0.0,0.0
0.03506153076887131,-0.03645287826657295,9.759527206420898,-0.0010251678020364214,-0.0020787052916889674,0.0022943408469817354,2.2141170501708984,2019-06-20 16:14:07:423,0.0,0.0,0.0
0.00871928408741951,-0.007715883664786816,9.82179069519043,0.0007063095923121196,-0.0018123241640997428,3.010106944941304e-05,2.219999313354492,2019-06-20 16:14:07:429,0.0,0.0,0.0
0.013508782722055912,-0.01490013301372528,9.802632331848145,0.003636502255867915,5.234389563494396e-05,0.005757295505641655,2.2249956130981445,2019-06-20 16:14:07:434,0.0,0.0,0.0
0.018298283219337463,0.0018631152343004942,9.797842979431152,0.0003067379009282828,-0.0024782768530356414,0.004691770995284756,2.2291040420532227,2019-06-20 16:14:07:438,0.0,0.0,0.0
0.0159035325050354,0.006652614567428827,9.757132530212402,0.0016386436689115682,-8.084668035065233e-05,0.0056241052019213676,2.2341184616088867,2019-06-20 16:14:07:443,0.0,0.0,0.0
0.032666780054569244,-0.01490013301372528,9.781079292297363,0.0027041680492313038,5.234389563494396e-05,-0.0015681857631363464,2.2400035858154297,2019-06-20 16:14:07:449,0.0,0.0,0.0
0.05900902673602104,-0.017294881865382195,9.728395462036133,0.0019050247965007928,0.0060459197499681955,0.0037594370487224705,2.244112968444824,2019-06-20 16:14:07:453,0.0,0.0,0.0
0.05661427602171898,0.02820536121726036,9.860106468200684,0.012826651417770488,-0.0038101827510560898,0.005890486329510593,2.249148368835449,2019-06-20 16:14:07:458,0.0,0.0,0.0
-0.1732816994190216,0.004257864784449339,9.749947547912598,-0.009016602084843228,0.002316583703644726,0.008287916477813613,2.2549962997436523,2019-06-20 16:14:07:464,0.0,0.0,0.0
0.30087873339653015,0.116811104118824,10.027738571166992,0.021750419452083836,-0.01140204540749764,0.010552155802247696,2.2591047286987305,2019-06-20 16:14:07:468,0.0,0.0,0.0
-0.28104543685913086,-0.16816411912441254,9.467367172241211,-0.008350649525944491,0.006578682005146645,0.0012288162065876742,2.2650022506713867,2019-06-20 16:14:07:474,0.0,0.0,0.0
0.40624773502349854,-0.07476887851953506,9.651762962341309,-0.015542940491002204,0.013504591322466484,0.004025818176311695,2.2699995040893555,2019-06-20 16:14:07:479,0.0,0.0,0.0
-0.1804659366607666,-0.11547961831092834,9.70205307006836,-0.00448812291582641,0.01616840259835873,0.00042967279131070986,2.2741079330444336,2019-06-20 16:14:07:483,0.0,0.0,0.0
0.3511684834957123,0.11202160269021988,9.831369400024414,-0.004088550964368248,-0.0007467995237056817,0.0038926276125170823,2.279109001159668,2019-06-20 16:14:07:488,0.0,0.0,0.0
-0.029596710577607155,-0.10829537361860275,9.546394348144531,0.0008395001561067318,-0.010203330593420455,0.00802153535022439,2.285003185272217,2019-06-20 16:14:07:494,0.0,0.0,0.0
0.047035280615091324,-0.1250586211681366,9.72360610961914,0.0037696928196625274,-0.0020787052916889674,0.0021611501531499603,2.289113998413086,2019-06-20 16:14:07:498,0.0,0.0,0.0
0.2697469890117645,-0.007715883664786816,9.886448860168457,0.0025709774854366916,0.013105020411305622,0.005357724074332143,2.2950024604797363,2019-06-20 16:14:07:504,0.0,0.0,0.0
0.020693032070994377,-0.026873880997300148,9.840948104858398,-0.002889835890216737,0.017500309796750803,0.004025818176311695,2.2991127967834473,2019-06-20 16:14:07:508,0.0,0.0,0.0
0.15479901432991028,0.04736335948109627,9.613447189331055,0.0027041680492313038,0.007377825387914319,0.0006960539514092252,2.30411434173584,2019-06-20 16:14:07:513,0.0,0.0,0.0
-0.13975520431995392,-0.012505383230745792,9.651762962341309,0.0020382153602954054,-0.0016791336003051302,-0.0007690423803686727,2.309133529663086,2019-06-20 16:14:07:518,0.0,0.0,0.0
0.09971977025270462,0.06412661075592041,9.745158195495605,-0.00448812291582641,-0.0004804183961164572,0.0021611501531499603,2.3150057792663574,2019-06-20 16:14:07:524,0.0,0.0,0.0
-0.00564921461045742,-0.06758462637662888,9.812211036682129,-0.0008919772382418092,0.006578682005146645,0.0033598653573386336,2.319106101989746,2019-06-20 16:14:07:528,0.0,0.0,0.0
0.068588025867939,-0.024479132145643234,9.881659507751465,0.007232647738396772,0.013371401018746197,0.004958152122873981,2.3241147994995117,2019-06-20 16:14:07:533,0.0,0.0,0.0
-0.036780960857868195,-0.038847628980875015,9.8505277633667,-0.0012915489946442272,0.019764548080887588,-0.0019677574545201833,2.3300018310546875,2019-06-20 16:14:07:539,0.0,0.0,0.0
-0.13975520431995392,-0.05082137882709503,9.6565523147583,-0.0010251678020364214,0.008176968770681992,0.0022943408469817354,2.334993839263916,2019-06-20 16:14:07:544,0.0,0.0,0.0
-0.16609744727611542,0.030600111931562424,9.663737297058105,-0.00781788675061739,0.0031157270864124,-0.005164331245665204,2.3391036987304688,2019-06-20 16:14:07:548,0.0,0.0,0.0
-0.18525543808937073,-0.019689632579684258,9.82179069519043,0.00017354732087902514,-0.002744658240699191,-0.0013018046355471218,2.344119071960449,2019-06-20 16:14:07:553,0.0,0.0,0.0
-0.07509695738554001,-0.0795583724975586,9.898422241210938,0.0005731190285175073,0.009109302977318602,0.0022943408469817354,2.3499984741210938,2019-06-20 16:14:07:559,0.0,0.0,0.0
-0.16849219799041748,0.02820536121726036,9.872079849243164,-0.00022602440301410239,0.016035212294638442,0.004958152122873981,2.354116439819336,2019-06-20 16:14:07:563,0.0,0.0,0.0
-0.16849219799041748,-0.07476887851953506,9.807421684265137,0.0012390718474905686,0.016834356197554766,0.0008292445152038374,2.3600196838378906,2019-06-20 16:14:07:569,0.0,0.0,0.0
-0.300203412771225,-0.046031877398490906,9.747552871704102,-0.0006255961106525846,0.010308017791395788,3.010106944941304e-05,2.3649988174438477,2019-06-20 16:14:07:574,0.0,0.0,0.0
-0.27625593543052673,0.013836863450706005,9.68528938293457,-0.003156217017805962,-0.004342945006234539,-0.005430712373254428,2.369105339050293,2019-06-20 16:14:07:578,0.0,0.0,0.0
-0.2594926953315735,-0.053216129541397095,9.773895263671875,-0.00035921498306336,-0.0006136089599110694,-0.0021009480183147955,2.3750057220458984,2019-06-20 16:14:07:584,0.0,0.0,0.0
-0.19722919166088104,-0.03405813127756119,9.828974723815918,0.0024377869216420794,0.0021833931398501137,3.010106944941304e-05,2.380023956298828,2019-06-20 16:14:07:589,0.0,0.0,0.0
-0.24751892685890198,-0.038847628980875015,9.943922996520996,0.0032369305644840782,0.0068450631327358685,0.00016329164746684,2.384998321533203,2019-06-20 16:14:07:594,0.0,0.0,0.0
-0.24272944033145905,-0.04363713040947914,9.740368843078613,0.0012390718474905686,0.011639923949490562,-0.004098806735308305,2.3899927139282227,2019-06-20 16:14:07:599,0.0,0.0,0.0
-0.32654568552970886,-0.029268629848957062,9.761921882629395,0.0011058812836959564,0.005113585543331584,-0.004231997299102917,2.3941144943237305,2019-06-20 16:14:07:603,0.0,0.0,0.0
-0.32175618410110474,-0.012505383230745792,9.735579490661621,0.0043024550748409765,-0.009270996386783843,-0.004098806735308305,2.3999977111816406,2019-06-20 16:14:07:609,0.0,0.0,0.0
-0.2738611698150635,-0.08195312321186066,9.87447452545166,0.0021714059240900176,-0.012201188270116665,0.003493055921133246,2.405078887939453,2019-06-20 16:14:07:614,0.0,0.0,0.0
-0.1996239423751831,-0.06997937709093094,9.965475082397461,0.0007063095923121196,-0.0050088978252076,-0.0027669008372878568,2.409128189086914,2019-06-20 16:14:07:618,0.0,0.0,0.0
-0.1349657028913498,-0.05082137882709503,9.965475082397461,0.007898600297295508,-0.0016791336003051302,-0.00010308950450435256,2.414997100830078,2019-06-20 16:14:07:624,0.0,0.0,0.0
-0.26188743114471436,-0.019689632579684258,9.876870155334473,0.0011058812836959564,0.00431444216056391,-0.0025005197096986324,2.419990062713623,2019-06-20 16:14:07:629,0.0,0.0,0.0
-0.20201869308948517,-0.06758462637662888,9.74276351928711,0.0019050247965007928,-0.003011039368288416,-0.004365187862897529,2.4241127967834473,2019-06-20 16:14:07:633,0.0,0.0,0.0
-0.24751892685890198,-0.053216129541397095,9.704447746276855,0.006699885483218323,-0.009670568338242006,-0.0075617613939682245,2.4291133880615234,2019-06-20 16:14:07:638,0.0,0.0,0.0
-0.13736045360565186,-0.029268629848957062,9.735579490661621,0.00043992846472289506,-0.015397762841484659,-0.0038324256077190803,2.434994697570801,2019-06-20 16:14:07:644,0.0,0.0,0.0
-0.10622870177030563,-0.010110633447766304,9.831369400024414,0.004036073947251752,-0.00993694894568258,-0.004498378166617817,2.4391050338745117,2019-06-20 16:14:07:648,0.0,0.0,0.0
-0.02001771330833435,-0.11787436902523041,9.876870155334473,0.007099456914527835,0.0009846778706428594,-0.0048979501180759786,2.4441165924072266,2019-06-20 16:14:07:653,0.0,0.0,0.0
-0.07509695738554001,-0.04842662811279297,9.788264274597168,0.007499028865985997,0.0031157270864124,-0.006895808835069488,2.450033187866211,2019-06-20 16:14:07:659,0.0,0.0,0.0
-0.14454469084739685,-0.038847628980875015,9.687684059143066,0.005234789021403263,-0.003676992187261477,-0.0075617613939682245,2.455017566680908,2019-06-20 16:14:07:664,0.0,0.0,0.0
-0.13736045360565186,-0.053216129541397095,9.666131973266602,-0.001158358430849615,-0.015264571497467072,-0.013954908976258265,2.4591078758239746,2019-06-20 16:14:07:668,0.0,0.0,0.0
-0.08946545422077179,-0.03405813127756119,9.788264274597168,-0.0004924055468579722,-0.010602901504581317,-0.010225573190009121,2.4650020599365234,2019-06-20 16:14:07:674,0.0,0.0,0.0
-0.05354420840740204,-0.046031877398490906,9.884054183959961,-0.00035921498306336,-0.008738234131605394,-0.01075833544518757,2.469113349914551,2019-06-20 16:14:07:678,0.0,0.0,0.0
-0.04875471070408821,-0.053216129541397095,9.840948104858398,0.0035033116920733026,0.004714014112022072,-0.01368852732852039,2.4741086959838867,2019-06-20 16:14:07:683,0.0,0.0,0.0
-0.06551795452833176,-0.04124237969517708,9.781079292297363,-0.00022602440301410239,0.008842921329580727,-0.009026857335634634,2.479106903076172,2019-06-20 16:14:07:688,0.0,0.0,0.0
-0.17807118594646454,-0.038847628980875015,9.718815803527832,0.0017718342327061804,-0.0040765638786453146,-0.017817436106524996,2.4850058555603027,2019-06-20 16:14:07:694,0.0,0.0,0.0
-0.12299194931983948,-0.0005316344322636724,9.706842422485352,0.0012390718474905686,-0.008338662180147232,-0.01422129062399614,2.4900007247924805,2019-06-20 16:14:07:699,0.0,0.0,0.0
-0.17088694870471954,-0.010110633447766304,9.678105354309082,-0.0023570736350382883,-0.008072281052558009,-0.016885101899888386,2.49411678314209,2019-06-20 16:14:07:703,0.0,0.0,0.0
-0.09186020493507385,-0.04363713040947914,9.86250114440918,-0.0007587866744471969,-0.00021403725227258724,-0.014620861535157001,2.500028610229492,2019-06-20 16:14:07:709,0.0,0.0,0.0
-0.11820244789123535,-0.03405813127756119,9.749947547912598,0.0032369305644840782,0.004580823288153135,-0.021946342803935003,2.504112720489502,2019-06-20 16:14:07:713,0.0,0.0,0.0
-0.1277814507484436,-0.03405813127756119,9.797842979431152,-0.001158358430849615,0.004714014112022072,-0.018882960616881897,2.5099892616271973,2019-06-20 16:14:07:719,0.0,0.0,0.0
-0.18286068737506866,-0.024479132145643234,9.687684059143066,0.0005731190285175073,0.0017838213184291141,-0.022745486706851326,2.514113426208496,2019-06-20 16:14:07:723,0.0,0.0,0.0
-0.16609744727611542,-0.03645287826657295,9.72360610961914,0.0011058812836959564,-0.006207613159433436,-0.01808381671396557,2.52000093460083,2019-06-20 16:14:07:729,0.0,0.0,0.0
-0.13017620146274567,0.004257864784449339,9.70205307006836,-0.004887694347135921,-0.0038101827510560898,-0.01768424476250741,2.524996757507324,2019-06-20 16:14:07:734,0.0,0.0,0.0
-0.15172894299030304,-0.05082137882709503,9.776289939880371,-0.0007587866744471969,-0.003410611059672253,-0.021546770852476842,2.529104232788086,2019-06-20 16:14:07:738,0.0,0.0,0.0
-0.12059719860553741,-0.019689632579684258,9.776289939880371,-0.006086409681361757,0.00777739681922383,-0.024210583168666384,2.535006523132324,2019-06-20 16:14:07:744,0.0,0.0,0.0
-0.19722919166088104,-0.002926384098827839,9.807421684265137,-0.005553647426183308,0.007511015691634605,-0.023811011217208227,2.5391111373901367,2019-06-20 16:14:07:748,0.0,0.0,0.0
-0.15891319513320923,-0.012505383230745792,9.730790138244629,-0.006619171936540206,0.0019170118822237267,-0.023811011217208227,2.5450191497802734,2019-06-20 16:14:07:754,0.0,0.0,0.0
-0.20441344380378723,0.0018631152343004942,9.75234317779541,-0.003955360400573636,-0.003676992187261477,-0.028206300602653403,2.550006866455078,2019-06-20 16:14:07:759,0.0,0.0,0.0
-0.1876501888036728,-0.007715883664786816,9.761921882629395,-0.0047545040434156345,-0.003410611059672253,-0.024210583168666384,2.554995536804199,2019-06-20 16:14:07:764,0.0,0.0,0.0
-0.1732816994190216,0.009047363884747028,9.831369400024414,-0.004354932091957473,0.007111444260325094,-0.02660801279682076,2.55910587310791,2019-06-20 16:14:07:768,0.0,0.0,0.0
-0.15891319513320923,0.03538960963487625,9.828974723815918,-0.0012915489946442272,0.0060459197499681955,-0.023944202561225814,2.565004348754883,2019-06-20 16:14:07:774,0.0,0.0,0.0
-0.1541236937046051,-0.002926384098827839,9.790658950805664,0.0009726907199013442,0.002316583703644726,-0.023811011217208227,2.5691123008728027,2019-06-20 16:14:07:778,0.0,0.0,0.0
-0.21159768104553223,-0.03405813127756119,9.733184814453125,-0.002889835890216737,-0.0007467995237056817,-0.024343774512683977,2.574110984802246,2019-06-20 16:14:07:783,0.0,0.0,0.0
-0.24991367757320404,-0.002926384098827839,9.718815803527832,-0.004621313219546697,0.0007182967430536347,-0.020348057078696954,2.579991340637207,2019-06-20 16:14:07:789,0.0,0.0,0.0
-0.2139924317598343,0.0018631152343004942,9.730790138244629,0.0009726907199013442,-0.005142088649076538,-0.015286815134353038,2.5850067138671875,2019-06-20 16:14:07:794,0.0,0.0,0.0
-0.2068081945180893,-0.03405813127756119,9.817001342773438,-0.00035921498306336,0.0021833931398501137,-0.01821700805798316,2.590043067932129,2019-06-20 16:14:07:799,0.0,0.0,0.0
-0.22836093604564667,-0.03405813127756119,9.840948104858398,-0.001158358430849615,0.0024497742674393385,-0.011823859955544469,2.5941333770751953,2019-06-20 16:14:07:803,0.0,0.0,0.0
-0.2451241910457611,-0.04124237969517708,9.831369400024414,-0.002090692377411901,0.0012510590632506652,-0.015553195741793613,2.599992275238037,2019-06-20 16:14:07:809,0.0,0.0,0.0
-0.2714664340019226,-0.010110633447766304,9.828974723815918,0.00017354732087902514,-0.003943373314850702,-0.01075833544518757,2.6041135787963867,2019-06-20 16:14:07:813,0.0,0.0,0.0
-0.2738611698150635,-0.060400377959012985,9.766711235046387,0.004702026766224813,-0.004342945006234539,-0.01368852732852039,2.609999656677246,2019-06-20 16:14:07:819,0.0,0.0,0.0
-0.21878193318843842,-0.017294881865382195,9.76431655883789,-0.00035921498306336,-0.006074422335564498,-0.012889384465901366,2.6149959564208984,2019-06-20 16:14:07:824,0.0,0.0,0.0
-0.19004493951797485,-0.026873880997300148,9.869685173034668,0.00590074210045065,-0.009537376994224418,-0.012356622210722916,2.6199893951416016,2019-06-20 16:14:07:829,0.0,0.0,0.0
-0.1541236937046051,-0.010110633447766304,9.898422241210938,0.004435645638635589,-0.009404186690504131,-0.010891525748907857,2.625004291534424,2019-06-20 16:14:07:834,0.0,0.0,0.0
-0.12538670003414154,-0.010110633447766304,9.860106468200684,0.0035033116920733026,-0.008072281052558009,-0.006895808835069488,2.6291141510009766,2019-06-20 16:14:07:838,0.0,0.0,0.0
-0.10622870177030563,-0.019689632579684258,9.812211036682129,0.008830933983783469,-0.006340803463153723,-0.005297521549385491,2.635003089904785,2019-06-20 16:14:07:844,0.0,0.0,0.0
-0.08467595279216766,0.004257864784449339,9.781079292297363,0.0057675512765817125,-0.013133522476753274,-0.0015681857631363464,2.640031337738037,2019-06-20 16:14:07:849,0.0,0.0,0.0
-0.051149457693099976,0.023415861651301384,9.776289939880371,0.011228364652235142,-0.012600760221574827,-0.004365187862897529,2.644117832183838,2019-06-20 16:14:07:853,0.0,0.0,0.0
-0.017622962594032288,-0.005321133881807327,9.769105911254883,0.0061671232280398735,-0.01246756991785454,-0.006096665452301814,2.6499924659729004,2019-06-20 16:14:07:859,0.0,0.0,0.0
0.027877280488610268,0.006652614567428827,9.843342781066895,0.006566694659349385,-0.01193480766267609,-0.00036947065647554515,2.654115676879883,2019-06-20 16:14:07:863,0.0,0.0,0.0
0.0877460241317749,0.018626363947987556,9.802632331848145,0.008164981424884733,-0.004609325873749438,0.0030934842297494092,2.660003662109375,2019-06-20 16:14:07:869,0.0,0.0,0.0
0.11169352382421494,-0.019689632579684258,9.704447746276855,0.007365838042117059,-0.0044761355700291515,0.00802153535022439,2.6649980545043945,2019-06-20 16:14:07:874,0.0,0.0,0.0
0.05661427602171898,0.018626363947987556,9.670921325683594,0.009363697279259219,-0.009803758641962293,0.010285775194807122,2.6691036224365234,2019-06-20 16:14:07:878,0.0,0.0,0.0
0.11887776851654053,0.03538960963487625,9.72360610961914,0.00683307578693861,-0.010070139249402867,0.011484490008884308,2.6750059127807617,2019-06-20 16:14:07:884,0.0,0.0,0.0
0.1667727679014206,-0.01490013301372528,9.709237098693848,0.007898600297295508,-0.010736092848598904,0.007355582271177002,2.6791114807128906,2019-06-20 16:14:07:888,0.0,0.0,0.0
0.1739570051431656,0.04257386177778244,9.737974166870117,0.008564553376342895,-0.0026114674168302536,0.012683205863258796,2.6841421127319336,2019-06-20 16:14:07:893,0.0,0.0,0.0
0.15240426361560822,0.030600111931562424,9.692474365234375,0.0061671232280398735,-0.0003472278323218449,0.02120740298641128,2.6900110244750977,2019-06-20 16:14:07:899,0.0,0.0,0.0
0.1476147621870041,0.016231613233685493,9.735579490661621,0.008031791121164446,-0.005808041207975274,0.016012969698049776,2.6941099166870117,2019-06-20 16:14:07:903,0.0,0.0,0.0
0.07577227801084518,0.037784360349178314,9.694869041442871,0.008431362552473957,-0.006607184590742948,0.02080783103495312,2.699106216430664,2019-06-20 16:14:07:908,0.0,0.0,0.0
0.09732501953840256,0.02102111279964447,9.771500587463379,0.00683307578693861,-0.0044761355700291515,0.01667892225694851,2.7041139602661133,2019-06-20 16:14:07:913,0.0,0.0,0.0
0.06619327515363693,0.13836385309696198,9.915185928344727,-0.00422174152816286,0.00018553447162054023,0.02067463969093553,2.70999813079834,2019-06-20 16:14:07:919,0.0,0.0,0.0
0.14282526075839996,0.07370560616254807,9.838553428649902,-0.002090692377411901,-0.0024782768530356414,0.018543590670221734,2.7141122817993164,2019-06-20 16:14:07:923,0.0,0.0,0.0
0.10929877310991287,0.013836863450706005,9.735579490661621,0.0200189423828282,-0.004342945006234539,0.02586907297929704,2.719989776611328,2019-06-20 16:14:07:929,0.0,0.0,0.0
0.09014077484607697,0.11920584738254547,9.826580047607422,0.011228364652235142,-0.0040765638786453146,0.02586907297929704,2.7241086959838867,2019-06-20 16:14:07:933,0.0,0.0,0.0
0.04943002760410309,0.04017911106348038,9.76431655883789,-0.015276558843264332,0.0041812515967692985,0.01987549578801921,2.7300310134887695,2019-06-20 16:14:07:939,0.0,0.0,0.0
-0.11341295391321182,-0.1705588698387146,9.90321159362793,0.013892175928127387,0.0017838213184291141,0.028266502607451408,2.735020160675049,2019-06-20 16:14:07:944,0.0,0.0,0.0
0.061403777450323105,0.14554809033870697,9.876870155334473,0.0019050247965007928,0.004447632984432848,0.024537165780904962,2.7391061782836914,2019-06-20 16:14:07:948,0.0,0.0,0.0
-0.3049929141998291,-0.019689632579684258,9.694869041442871,0.0043024550748409765,0.0029825365226177876,0.02174016420129243,2.745002269744873,2019-06-20 16:14:07:954,0.0,0.0,0.0
0.006324533838778734,-0.2352171093225479,9.59428882598877,0.00989645953443767,-0.0006136089599110694,0.023205260663107494,2.74910831451416,2019-06-20 16:14:07:958,0.0,0.0,0.0
-0.24272944033145905,0.08088985830545425,9.896027565002441,0.0007063095923121196,0.004980395239611297,0.01667892225694851,2.754998207092285,2019-06-20 16:14:07:964,0.0,0.0,0.0
-0.012833463959395885,-0.017294881865382195,9.812211036682129,-9.283383109216743e-05,0.004447632984432848,0.01907635188510288,2.7591047286987305,2019-06-20 16:14:07:968,0.0,0.0,0.0
-0.22836093604564667,-0.17534835636615753,9.795448303222656,0.012693461114050201,5.234389563494396e-05,0.024004404566023815,2.7641162872314453,2019-06-20 16:14:07:973,0.0,0.0,0.0
-0.13017620146274567,0.07370560616254807,9.761921882629395,-0.004354932091957473,0.007644206515503542,0.01774444676730541,2.7699990272521973,2019-06-20 16:14:07:979,0.0,0.0,0.0
-0.16849219799041748,-0.19450636208057404,9.68528938293457,0.004036073947251752,0.007910587643092768,0.017611257503882427,2.774120330810547,2019-06-20 16:14:07:983,0.0,0.0,0.0
-0.24272944033145905,0.04975811019539833,9.766711235046387,-0.002223883071243676,0.0036484893415908493,0.016945303904686387,2.780071258544922,2019-06-20 16:14:07:989,0.0,0.0,0.0
-0.2451241910457611,0.009047363884747028,9.766711235046387,-0.002223883071243676,0.0060459197499681955,0.018410399326204148,2.785017967224121,2019-06-20 16:14:07:994,0.0,0.0,0.0
-0.24991367757320404,-0.29748058319091797,9.718815803527832,0.005234789021403263,0.00431444216056391,0.01934273457313806,2.7891063690185547,2019-06-20 16:14:07:998,0.0,0.0,0.0
-0.24751892685890198,-0.07716362178325653,9.819396018981934,0.0003067379009282828,0.004447632984432848,0.007888345046504102,2.794114589691162,2019-06-20 16:14:08:003,0.0,0.0,0.0
-0.2068081945180893,-0.04842662811279297,9.74276351928711,-0.003422598145395187,0.005513157494789746,0.011617680312604595,2.7999982833862305,2019-06-20 16:14:08:009,0.0,0.0,0.0
-0.2594926953315735,-0.2232433557510376,9.783474922180176,0.004702026766224813,0.0064454911812777075,0.00895386903671235,2.804109573364258,2019-06-20 16:14:08:013,0.0,0.0,0.0
-0.300203412771225,-0.0795583724975586,9.754737854003906,-0.0010251678020364214,0.005646347798510033,0.00748877309504594,2.8091039657592773,2019-06-20 16:14:08:018,0.0,0.0,0.0
-0.24272944033145905,-0.13703235983848572,9.797842979431152,-0.0014247395584388394,0.0017838213184291141,0.004292199303900919,2.814999580383301,2019-06-20 16:14:08:024,0.0,0.0,0.0
-0.285834938287735,-0.1514008641242981,9.795448303222656,-0.0006255961106525846,0.002716155395028563,0.0006960539514092252,2.8191137313842773,2019-06-20 16:14:08:028,0.0,0.0,0.0
-0.3097824156284332,0.023415861651301384,9.90321159362793,-0.009282983732581103,0.005379966670920808,-0.004231997299102917,2.8251075744628906,2019-06-20 16:14:08:034,0.0,0.0,0.0
-0.2594926953315735,-0.1514008641242981,9.802632331848145,-0.00022602440301410239,0.004447632984432848,-0.007694952217837162,2.8300089836120605,2019-06-20 16:14:08:039,0.0,0.0,0.0
-0.30738767981529236,-0.10111112147569656,9.845738410949707,0.0024377869216420794,0.0036484893415908493,-0.000902232944163285,2.834108829498291,2019-06-20 16:14:08:043,0.0,0.0,0.0
-0.2331504374742508,-0.017294881865382195,9.817001342773438,-0.007551505623028167,0.0005851061792590224,-0.003965616171513693,2.8399949073791504,2019-06-20 16:14:08:049,0.0,0.0,0.0
-0.2978086769580841,-0.11308486759662628,9.817001342773438,0.0015054529750797934,0.0041812515967692985,-0.006096665452301814,2.844113349914551,2019-06-20 16:14:08:053,0.0,0.0,0.0
-0.285834938287735,-0.029268629848957062,9.826580047607422,-0.006352790808950982,0.00431444216056391,-0.006895808835069488,2.84999942779541,2019-06-20 16:14:08:059,0.0,0.0,0.0
-0.2642821669578552,-0.04124237969517708,9.795448303222656,-0.003955360400573636,0.007377825387914319,-0.0048979501180759786,2.854109764099121,2019-06-20 16:14:08:063,0.0,0.0,0.0
-0.25470319390296936,-0.14900611340999603,9.771500587463379,0.00043992846472289506,0.001650630754634502,-0.0075617613939682245,2.8591079711914062,2019-06-20 16:14:08:068,0.0,0.0,0.0
-0.2451241910457611,-0.06279512494802475,9.838553428649902,-0.0030230264540113496,0.0004519156154644102,-0.009426429287092798,2.8650035858154297,2019-06-20 16:14:08:074,0.0,0.0,0.0
-0.21878193318843842,-0.09392686933279037,9.814606666564941,-0.0030230264540113496,0.002849345958823175,-0.007028999138789776,2.8691134452819824,2019-06-20 16:14:08:078,0.0,0.0,0.0
-0.26907166838645935,-0.046031877398490906,9.800237655639648,-0.002090692377411901,-0.0018123241640997428,-0.009160048679652224,2.8750200271606445,2019-06-20 16:14:08:084,0.0,0.0,0.0
-0.2331504374742508,-0.02208438143134117,9.79305362701416,-0.0047545040434156345,0.0035152987777962367,-0.0071621899626587125,2.879105567932129,2019-06-20 16:14:08:088,0.0,0.0,0.0
-0.21159768104553223,-0.12745337188243866,9.766711235046387,0.00017354732087902514,0.0021833931398501137,-0.005697093500843653,2.884139060974121,2019-06-20 16:14:08:093,0.0,0.0,0.0
-0.22357143461704254,0.030600111931562424,9.812211036682129,-0.006352790808950982,-0.0007467995237056817,-0.010225573190009121,2.890000343322754,2019-06-20 16:14:08:099,0.0,0.0,0.0
-0.2331504374742508,-0.002926384098827839,9.831369400024414,-0.0032894075816005744,-0.0014127523426787432,-0.009160048679652224,2.8941097259521484,2019-06-20 16:14:08:103,0.0,0.0,0.0
-0.22117668390274048,-0.024479132145643234,9.721211433410645,-0.0026234547626275127,-0.0004804183961164572,-0.006229855756022102,2.899991035461426,2019-06-20 16:14:08:109,0.0,0.0,0.0
-0.20920294523239136,-0.010110633447766304,9.781079292297363,-0.0008919772382418092,-0.0011463712150895187,-0.012623002818163491,2.9041194915771484,2019-06-20 16:14:08:113,0.0,0.0,0.0
-0.17807118594646454,0.013836863450706005,9.807421684265137,-0.004088550964368248,-0.0003472278323218449,-0.009959191542271246,2.910001277923584,2019-06-20 16:14:08:119,0.0,0.0,0.0
-0.15891319513320923,0.0018631152343004942,9.797842979431152,-0.002889835890216737,0.00018553447162054023,-0.012889384465901366,2.9150028228759766,2019-06-20 16:14:08:124,0.0,0.0,0.0
-0.1613079458475113,0.025810612365603447,9.769105911254883,-0.0059532188574928195,0.0021833931398501137,-0.008494095600604835,2.9200401306152344,2019-06-20 16:14:08:129,0.0,0.0,0.0
-0.16849219799041748,0.025810612365603447,9.771500587463379,-0.003156217017805962,5.234389563494396e-05,-0.005430712373254428,2.924117088317871,2019-06-20 16:14:08:133,0.0,0.0,0.0
-0.13975520431995392,0.006652614567428827,9.75234317779541,-0.003822169836779023,-0.0012795617788841308,-0.011291097700366019,2.929105758666992,2019-06-20 16:14:08:138,0.0,0.0,0.0
-0.1469394415616989,0.02820536121726036,9.740368843078613,-0.00035921498306336,-0.002744658240699191,-0.007828142521557448,2.935000419616699,2019-06-20 16:14:08:144,0.0,0.0,0.0
-0.10622870177030563,-0.03405813127756119,9.757132530212402,-0.0026234547626275127,-0.0010131806512949063,-0.010625145141467283,2.940000534057617,2019-06-20 16:14:08:149,0.0,0.0,0.0
-0.12299194931983948,-0.005321133881807327,9.838553428649902,-0.0059532188574928195,-0.006074422335564498,-0.0071621899626587125,2.944993019104004,2019-06-20 16:14:08:154,0.0,0.0,0.0
-0.06551795452833176,0.037784360349178314,9.773895263671875,-0.0006255961106525846,0.00018553447162054023,-0.013155765073341942,2.9491052627563477,2019-06-20 16:14:08:158,0.0,0.0,0.0
-0.10143920034170151,0.018626363947987556,9.783474922180176,0.0016386436689115682,-0.0003472278323218449,-0.010625145141467283,2.9550042152404785,2019-06-20 16:14:08:164,0.0,0.0,0.0
-0.0631232038140297,-0.007715883664786816,9.692474365234375,0.0020382153602954054,0.005513157494789746,-0.007828142521557448,2.9591121673583984,2019-06-20 16:14:08:168,0.0,0.0,0.0
-0.04157045856118202,0.04017911106348038,9.740368843078613,-0.003422598145395187,-0.001945514727894355,-0.009293238983372509,2.9650468826293945,2019-06-20 16:14:08:174,0.0,0.0,0.0
-0.07749170809984207,0.016231613233685493,9.759527206420898,-0.002889835890216737,-0.0015459429064733554,-0.005164331245665204,2.9700193405151367,2019-06-20 16:14:08:179,0.0,0.0,0.0
-0.0559389591217041,0.0018631152343004942,9.773895263671875,-0.003156217017805962,-0.001945514727894355,-0.005963474628432877,2.974111557006836,2019-06-20 16:14:08:183,0.0,0.0,0.0
-0.051149457693099976,0.013836863450706005,9.737974166870117,-0.0026234547626275127,-0.002211895725446417,-0.0063630465798910395,2.9791059494018555,2019-06-20 16:14:08:188,0.0,0.0,0.0
-0.04875471070408821,0.009047363884747028,9.771500587463379,0.00043992846472289506,-0.005408469776665762,-0.0031664725286716937,2.98502254486084,2019-06-20 16:14:08:194,0.0,0.0,0.0
-0.03438621014356613,0.02102111279964447,9.687684059143066,-0.002090692377411901,0.0004519156154644102,0.0017615784617661236,2.989999294281006,2019-06-20 16:14:08:199,0.0,0.0,0.0
-0.008043964393436909,0.03299486264586449,9.694869041442871,0.003103740000689466,-0.0026114674168302536,-0.0006358518165740604,2.994110107421875,2019-06-20 16:14:08:203,0.0,0.0,0.0
-0.008043964393436909,0.030600111931562424,9.754737854003906,-0.00022602440301410239,0.0007182967430536347,-0.0007690423803686727,2.999990940093994,2019-06-20 16:14:08:209,0.0,0.0,0.0
-0.02001771330833435,0.025810612365603447,9.778684616088867,0.0009726907199013442,-0.0024782768530356414,0.0014951973341768988,3.00411319732666,2019-06-20 16:14:08:213,0.0,0.0,0.0
-0.04635995998978615,0.023415861651301384,9.718815803527832,-0.0012915489946442272,0.004580823288153135,0.0013620067703822866,3.009995937347412,2019-06-20 16:14:08:219,0.0,0.0,0.0
-0.010438714176416397,0.02102111279964447,9.776289939880371,-9.283383109216743e-05,0.003914870469180074,0.0025607219745709597,3.0141382217407227,2019-06-20 16:14:08:223,0.0,0.0,0.0
0.006324533838778734,-0.007715883664786816,9.773895263671875,-0.0007587866744471969,0.002316583703644726,0.001095625642793062,3.0191125869750977,2019-06-20 16:14:08:228,0.0,0.0,0.0
0.00871928408741951,0.018626363947987556,9.766711235046387,0.004036073947251752,0.0035152987777962367,0.001628387897971511,3.0241141319274902,2019-06-20 16:14:08:233,0.0,0.0,0.0
-0.015228213742375374,-0.024479132145643234,9.761921882629395,0.005101598717682976,-0.0028778488044938037,0.004159008740106307,3.029998779296875,2019-06-20 16:14:08:239,0.0,0.0,0.0
-0.0822812020778656,0.037784360349178314,9.747552871704102,0.0005731190285175073,0.002849345958823175,0.008820678732992063,3.0349979400634766,2019-06-20 16:14:08:244,0.0,0.0,0.0
-0.0559389591217041,0.04257386177778244,9.788264274597168,0.00043992846472289506,0.0013842496270452774,0.0005628633876146128,3.0391063690185547,2019-06-20 16:14:08:248,0.0,0.0,0.0
-0.058333706110715866,0.0018631152343004942,9.757132530212402,0.007632219169706285,0.0019170118822237267,0.001095625642793062,3.044114112854004,2019-06-20 16:14:08:253,0.0,0.0,0.0
-0.04875471070408821,0.03538960963487625,9.745158195495605,0.004435645638635589,0.0009846778706428594,0.004558580691564469,3.0499958992004395,2019-06-20 16:14:08:259,0.0,0.0,0.0
-0.043965209275484085,-0.010110633447766304,9.783474922180176,0.0027041680492313038,-0.0035438016234668654,0.0022943408469817354,3.0541152954101562,2019-06-20 16:14:08:263,0.0,0.0,0.0
-0.07270220667123795,0.0018631152343004942,9.74276351928711,0.0028373588731002413,-0.0004804183961164572,-0.0007690423803686727,3.060013771057129,2019-06-20 16:14:08:269,0.0,0.0,0.0
-0.08467595279216766,-0.007715883664786816,9.807421684265137,0.005101598717682976,-0.003676992187261477,0.00016329164746684,3.0641231536865234,2019-06-20 16:14:08:273,0.0,0.0,0.0
-0.07749170809984207,-0.05800562724471092,9.761921882629395,0.009097315631521346,-0.0044761355700291515,0.001095625642793062,3.069988250732422,2019-06-20 16:14:08:279,0.0,0.0,0.0
-0.07988645136356354,-0.0795583724975586,9.836158752441406,0.001372262411285181,-0.0018123241640997428,-0.002234138582109408,3.074117660522461,2019-06-20 16:14:08:283,0.0,0.0,0.0
-0.12538670003414154,-0.03645287826657295,9.800237655639648,0.0053679798452722005,0.0021833931398501137,-0.0011686140717525096,3.080002784729004,2019-06-20 16:14:08:289,0.0,0.0,0.0
-0.11820244789123535,0.004257864784449339,9.773895263671875,0.0053679798452722005,-0.0023450862892410293,-0.0023673291459040203,3.0841331481933594,2019-06-20 16:14:08:293,0.0,0.0,0.0
-0.12299194931983948,0.0018631152343004942,9.783474922180176,0.0015054529750797934,-0.003676992187261477,-0.0036992350439244686,3.089991569519043,2019-06-20 16:14:08:299,0.0,0.0,0.0
-0.09186020493507385,-0.072374127805233,9.82179069519043,0.007232647738396772,-0.006207613159433436,-0.004098806735308305,3.094999313354492,2019-06-20 16:14:08:304,0.0,0.0,0.0
-0.1277814507484436,-0.029268629848957062,9.886448860168457,4.035674489342885e-05,-0.006074422335564498,-0.0010354235079578973,3.099114418029785,2019-06-20 16:14:08:308,0.0,0.0,0.0
0.027877280488610268,-0.08195312321186066,9.814606666564941,0.003103740000689466,0.002716155395028563,-0.006629427707480263,3.1050405502319336,2019-06-20 16:14:08:314,0.0,0.0,0.0
-0.10383395105600357,-0.072374127805233,9.70205307006836,0.00683307578693861,0.006179110053688482,-0.007961333345426386,3.1091394424438477,2019-06-20 16:14:08:318,0.0,0.0,0.0
-0.05354420840740204,-0.007715883664786816,9.709237098693848,0.0048352170699451,-0.010469711200861029,-0.007961333345426386,3.114996910095215,2019-06-20 16:14:08:324,0.0,0.0,0.0
-0.2451241910457611,-0.005321133881807327,9.788264274597168,0.008830933983783469,-0.014998190890026497,-0.011957050259264756,3.1191062927246094,2019-06-20 16:14:08:328,0.0,0.0,0.0
0.006324533838778734,-0.029268629848957062,9.809816360473633,0.001372262411285181,-0.015530953145204947,-0.0064962368836113255,3.1250009536743164,2019-06-20 16:14:08:334,0.0,0.0,0.0
-0.09186020493507385,-0.08434787392616272,9.898422241210938,0.004568835942355876,-0.002211895725446417,-0.007961333345426386,3.129108428955078,2019-06-20 16:14:08:338,0.0,0.0,0.0
-0.02001771330833435,0.004257864784449339,9.857711791992188,0.010562412093336405,0.008443349898271217,-0.006762618011200551,3.134995460510254,2019-06-20 16:14:08:344,0.0,0.0,0.0
-0.09425495564937592,0.04017911106348038,9.733184814453125,0.008031791121164446,0.004714014112022072,-0.013155765073341942,3.139103412628174,2019-06-20 16:14:08:348,0.0,0.0,0.0
-0.14454469084739685,-0.06518987566232681,9.565552711486816,0.008431362552473957,-0.004742516697618376,-0.004498378166617817,3.1441173553466797,2019-06-20 16:14:08:353,0.0,0.0,0.0
-0.0631232038140297,0.016231613233685493,9.71402645111084,0.0003067379009282828,-0.01593052509666311,-0.0023673291459040203,3.1499977111816406,2019-06-20 16:14:08:359,0.0,0.0,0.0
-0.06791270524263382,0.025810612365603447,9.790658950805664,0.0057675512765817125,-0.013133522476753274,-0.011424288004086305,3.1541337966918945,2019-06-20 16:14:08:363,0.0,0.0,0.0
0.0159035325050354,-0.053216129541397095,9.919975280761719,-0.0008919772382418092,0.00431444216056391,-0.009559619590813083,3.1600074768066406,2019-06-20 16:14:08:369,0.0,0.0,0.0
-0.03199145942926407,-0.02208438143134117,9.814606666564941,0.006699885483218323,0.008976112673598316,-0.010225573190009121,3.164109230041504,2019-06-20 16:14:08:373,0.0,0.0,0.0
-0.09186020493507385,0.02102111279964447,9.637394905090332,0.008830933983783469,5.234389563494396e-05,-0.005430712373254428,3.1691064834594727,2019-06-20 16:14:08:378,0.0,0.0,0.0
-0.14933419227600098,0.009047363884747028,9.515262603759766,0.0008395001561067318,-0.013399904124491149,-0.0013018046355471218,3.174999237060547,2019-06-20 16:14:08:384,0.0,0.0,0.0
-0.04157045856118202,-0.04363713040947914,9.651762962341309,0.003103740000689466,-0.01593052509666311,0.0013620067703822866,3.1791114807128906,2019-06-20 16:14:08:388,0.0,0.0,0.0
-0.036780960857868195,-0.038847628980875015,9.809816360473633,0.004036073947251752,-0.003011039368288416,0.0037594370487224705,3.1850175857543945,2019-06-20 16:14:08:394,0.0,0.0,0.0
-0.00564921461045742,-0.005321133881807327,9.855317115783691,0.0003067379009282828,0.00577953862237897,0.003626246484927858,3.189992904663086,2019-06-20 16:14:08:399,0.0,0.0,0.0
-0.029596710577607155,-0.038847628980875015,9.706842422485352,0.0019050247965007928,0.011240351998032399,0.00695601083986749,3.1941123008728027,2019-06-20 16:14:08:403,0.0,0.0,0.0
-0.12059719860553741,0.03299486264586449,9.670921325683594,-0.0006255961106525846,0.0032489176502070124,0.010285775194807122,3.2000198364257812,2019-06-20 16:14:08:409,0.0,0.0,0.0
-0.07749170809984207,0.006652614567428827,9.596684455871582,4.035674489342885e-05,-0.004875707001338663,0.006156867457099816,3.2041234970092773,2019-06-20 16:14:08:413,0.0,0.0,0.0
-0.12059719860553741,-0.026873880997300148,9.692474365234375,0.006566694659349385,-0.006873565718332173,0.011484490008884308,3.209994316101074,2019-06-20 16:14:08:419,0.0,0.0,0.0
-0.03917571157217026,-0.002926384098827839,9.809816360473633,0.0035033116920733026,-0.0035438016234668654,0.013615539029598105,3.214114189147949,2019-06-20 16:14:08:423,0.0,0.0,0.0
-0.05354420840740204,-0.06758462637662888,9.87447452545166,-0.0004924055468579722,0.0068450631327358685,0.012683205863258796,3.219999313354492,2019-06-20 16:14:08:429,0.0,0.0,0.0
-0.07030745595693588,-0.06758462637662888,9.766711235046387,0.005501170148992487,0.00777739681922383,0.017078494208406677,3.2241077423095703,2019-06-20 16:14:08:433,0.0,0.0,0.0
-0.11580769717693329,-0.0005316344322636724,9.690079689025879,-0.00035921498306336,0.005513157494789746,0.013349158422157531,3.2299909591674805,2019-06-20 16:14:08:439,0.0,0.0,0.0
-0.11341295391321182,-0.06518987566232681,9.692474365234375,0.0053679798452722005,-0.007406327973510622,0.01534701713915104,3.234114646911621,2019-06-20 16:14:08:443,0.0,0.0,0.0
-0.1086234524846077,-0.03405813127756119,9.704447746276855,0.004568835942355876,-0.0038101827510560898,0.01441468293251443,3.2399988174438477,2019-06-20 16:14:08:449,0.0,0.0,0.0
-0.04635995998978615,-0.06518987566232681,9.778684616088867,-9.283383109216743e-05,0.0004519156154644102,0.012683205863258796,3.244112968444824,2019-06-20 16:14:08:453,0.0,0.0,0.0
-0.06072845682501793,-0.024479132145643234,9.812211036682129,-0.00502088517100486,0.013637782666484072,0.016146160001770063,3.2500219345092773,2019-06-20 16:14:08:459,0.0,0.0,0.0
-0.05354420840740204,-0.06279512494802475,9.759527206420898,0.0012390718474905686,0.005379966670920808,0.011351299705164021,3.2549996376037598,2019-06-20 16:14:08:464,0.0,0.0,0.0
-0.16849219799041748,-0.038847628980875015,9.721211433410645,-0.002756645326422125,0.005912728926099258,0.01388192067733598,3.2591075897216797,2019-06-20 16:14:08:468,0.0,0.0,0.0
-0.10143920034170151,-0.019689632579684258,9.800237655639648,-0.004088550964368248,-0.000879990087500294,0.015213825795133452,3.2650046348571777,2019-06-20 16:14:08:474,0.0,0.0,0.0
-0.0822812020778656,-0.06758462637662888,9.788264274597168,-9.283383109216743e-05,0.0004519156154644102,0.006556438888409328,3.2691144943237305,2019-06-20 16:14:08:478,0.0,0.0,0.0
-0.05354420840740204,-0.08434787392616272,9.852922439575195,0.001372262411285181,0.007377825387914319,0.008687488429271775,3.274996757507324,2019-06-20 16:14:08:484,0.0,0.0,0.0
-0.07988645136356354,-0.0795583724975586,9.89123821258545,-0.0006255961106525846,0.012572258156127171,0.010152584891086835,3.2791051864624023,2019-06-20 16:14:08:488,0.0,0.0,0.0
-0.13975520431995392,-0.03645287826657295,9.826580047607422,-0.0006255961106525846,0.011506732605472974,0.0028271031021601845,3.2841148376464844,2019-06-20 16:14:08:493,0.0,0.0,0.0
-0.16849219799041748,-0.072374127805233,9.800237655639648,0.0003067379009282828,0.010174827487675502,0.005757295505641655,3.289999008178711,2019-06-20 16:14:08:499,0.0,0.0,0.0
-0.17088694870471954,-0.072374127805233,9.809816360473633,-0.0012915489946442272,0.0011178684994560528,0.004425389867695532,3.294121265411377,2019-06-20 16:14:08:503,0.0,0.0,0.0
