ACCELEROMETER X (m/s²),ACCELEROMETER Y (m/s²),ACCELEROMETER Z (m/s²),GYROSCOPE X (rad/s),GYROSCOPE Y (rad/s),GYROSCOPE Z (rad/s),Time since start in ms ,YYYY-MO-DD HH-MI-SS_SSS,MagX,MagY,MagZ
0.2386152595281601,-0.42200759053230286,9.757132530212402,0.004968407893814039,0.002316583703644726,0.0005628633876146128,0.0,2019-06-20 16:02:58:590,0.0,0.0,0.0
0.2529837489128113,-0.37650734186172485,9.79305362701416,0.0027041680492313038,0.0064454911812777075,0.005890486329510593,0.0041217803955078125,2019-06-20 16:02:58:595,0.0,0.0,0.0
0.20029926300048828,-0.39087584614753723,9.75234317779541,0.0005731190285175073,0.007377825387914319,0.0033598653573386336,0.01001119613647461,2019-06-20 16:02:58:600,0.0,0.0,0.0
0.23622050881385803,-0.42919182777404785,9.783474922180176,0.0039028833834571395,0.0015174401908398898,0.0022943408469817354,0.01412057876586914,2019-06-20 16:02:58:605,0.0,0.0,0.0
0.1739570051431656,-0.388481080532074,9.697263717651367,0.004036073947251752,0.0009846778706428594,0.001628387897971511,0.01914215087890625,2019-06-20 16:02:58:610,0.0,0.0,0.0
0.2529837489128113,-0.3525598347187042,9.730790138244629,4.035674489342885e-05,-0.0003472278323218449,-0.002234138582109408,0.025012493133544922,2019-06-20 16:02:58:615,0.0,0.0,0.0
0.20748351514339447,-0.4148233234882355,9.838553428649902,0.0028373588731002413,0.007910587643092768,-0.00010308950450435256,0.02911663055419922,2019-06-20 16:02:58:620,0.0,0.0,0.0
0.2960892617702484,-0.42200759053230286,9.694869041442871,0.0035033116920733026,0.009375683584759178,0.0029602936659547966,0.035015106201171875,2019-06-20 16:02:58:625,0.0,0.0,0.0
0.15000951290130615,-0.3932705819606781,9.740368843078613,0.0053679798452722005,0.005912728926099258,0.0002964822275160976,0.03912353515625,2019-06-20 16:02:58:630,0.0,0.0,0.0
0.22903625667095184,-0.3932705819606781,9.687684059143066,0.0037696928196625274,-0.002744658240699191,0.003226674793544021,0.04500865936279297,2019-06-20 16:02:58:635,0.0,0.0,0.0
0.1931150108575821,-0.3741125762462616,9.668526649475098,0.0005731190285175073,-0.0023450862892410293,0.0029602936659547966,0.0491175651550293,2019-06-20 16:02:58:640,0.0,0.0,0.0
0.2912997603416443,-0.35016509890556335,9.781079292297363,0.0009726907199013442,0.0011178684994560528,0.0033598653573386336,0.05414772033691406,2019-06-20 16:02:58:645,0.0,0.0,0.0
0.2386152595281601,-0.43637606501579285,9.864895820617676,0.00683307578693861,0.009375683584759178,0.0033598653573386336,0.06002235412597656,2019-06-20 16:02:58:650,0.0,0.0,0.0
0.2721417546272278,-0.38369157910346985,9.745158195495605,0.003103740000689466,0.010840780046574237,0.001628387897971511,0.06414413452148438,2019-06-20 16:02:58:655,0.0,0.0,0.0
0.20269401371479034,-0.29748058319091797,9.740368843078613,0.0007063095923121196,-0.0007467995237056817,0.004159008740106307,0.0700235366821289,2019-06-20 16:02:58:660,0.0,0.0,0.0
0.16437801718711853,-0.3860863447189331,9.737974166870117,-0.0018243112498226766,0.0007182967430536347,0.004159008740106307,0.07499885559082031,2019-06-20 16:02:58:665,0.0,0.0,0.0
0.23382575809955597,-0.3717178404331207,9.747552871704102,0.004435645638635589,0.002316583703644726,0.004558580691564469,0.0791330337524414,2019-06-20 16:02:58:670,0.0,0.0,0.0
0.23382575809955597,-0.34537559747695923,9.843342781066895,0.0009726907199013442,0.0029825365226177876,0.00988620324334896,0.08502483367919922,2019-06-20 16:02:58:675,0.0,0.0,0.0
0.2960892617702484,-0.4052443206310272,9.757132530212402,0.0015054529750797934,0.012039494860651425,0.004292199303900919,0.08911657333374023,2019-06-20 16:02:58:680,0.0,0.0,0.0
0.19790451228618622,-0.3932705819606781,9.666131973266602,-0.0023570736350382883,0.010574399439133663,0.0009624350789984497,0.09412860870361328,2019-06-20 16:02:58:685,0.0,0.0,0.0
0.22664150595664978,-0.32382285594940186,9.67331600189209,-0.0010251678020364214,-0.0011463712150895187,0.0018947690255607357,0.10001182556152344,2019-06-20 16:02:58:690,0.0,0.0,0.0
0.15240426361560822,-0.35734933614730835,9.718815803527832,-0.001557930122233452,-0.004209754442439926,0.0033598653573386336,0.10411930084228516,2019-06-20 16:02:58:695,0.0,0.0,0.0
0.23382575809955597,-0.3597441017627716,9.872079849243164,-0.0024902641988329005,0.002716155395028563,0.003226674793544021,0.11010026931762695,2019-06-20 16:02:58:701,0.0,0.0,0.0
0.30087873339653015,-0.3477703332901001,9.802632331848145,0.0012390718474905686,0.007910587643092768,0.0028271031021601845,0.11413812637329102,2019-06-20 16:02:58:705,0.0,0.0,0.0
0.24340476095676422,-0.3860863447189331,9.781079292297363,0.0028373588731002413,0.008976112673598316,0.006290057760820104,0.11911773681640625,2019-06-20 16:02:58:710,0.0,0.0,0.0
0.20029926300048828,-0.3669283390045166,9.687684059143066,0.0027041680492313038,-0.0011463712150895187,-0.0006358518165740604,0.12501049041748047,2019-06-20 16:02:58:715,0.0,0.0,0.0
0.20748351514339447,-0.3741125762462616,9.670921325683594,-0.0006255961106525846,-0.002211895725446417,0.0008292445152038374,0.12914323806762695,2019-06-20 16:02:58:720,0.0,0.0,0.0
0.1859307587146759,-0.381296843290329,9.730790138244629,0.0008395001561067318,-0.0032774204958776402,3.010106944941304e-05,0.1341261863708496,2019-06-20 16:02:58:725,0.0,0.0,0.0
0.2649574875831604,-0.33819133043289185,9.814606666564941,-0.0024902641988329005,0.004714014112022072,-0.000902232944163285,0.13911724090576172,2019-06-20 16:02:58:730,0.0,0.0,0.0
0.29369449615478516,-0.42200759053230286,9.814606666564941,0.0020382153602954054,0.014436925529103094,0.003226674793544021,0.14501428604125977,2019-06-20 16:02:58:735,0.0,0.0,0.0
0.28172075748443604,-0.3860863447189331,9.72360610961914,0.0012390718474905686,0.007644206515503542,0.004292199303900919,0.14911842346191406,2019-06-20 16:02:58:740,0.0,0.0,0.0
0.2050887644290924,-0.3070595860481262,9.639789581298828,-0.003156217017805962,0.0009846778706428594,0.0012288162065876742,0.15503835678100586,2019-06-20 16:02:58:746,0.0,0.0,0.0
0.22903625667095184,-0.3525598347187042,9.651762962341309,-0.001557930122233452,-0.004609325873749438,-0.0014349951993417342,0.16001129150390625,2019-06-20 16:02:58:750,0.0,0.0,0.0
0.26016801595687866,-0.4052443206310272,9.737974166870117,0.0020382153602954054,-8.084668035065233e-05,-0.0019677574545201833,0.1641225814819336,2019-06-20 16:02:58:755,0.0,0.0,0.0
0.2529837489128113,-0.33100709319114685,9.845738410949707,0.0012390718474905686,0.007910587643092768,-0.00010308950450435256,0.1699986457824707,2019-06-20 16:02:58:760,0.0,0.0,0.0
0.24819424748420715,-0.36932307481765747,9.740368843078613,0.0007063095923121196,0.00631230087755742,-0.0026337102734932446,0.175018310546875,2019-06-20 16:02:58:765,0.0,0.0,0.0
0.2122730016708374,-0.35734933614730835,9.735579490661621,0.0012390718474905686,0.011506732605472974,0.001628387897971511,0.17912864685058594,2019-06-20 16:02:58:770,0.0,0.0,0.0
0.23382575809955597,-0.31184908747673035,9.761921882629395,-0.0004924055468579722,0.0009846778706428594,0.0005628633876146128,0.18500852584838867,2019-06-20 16:02:58:775,0.0,0.0,0.0
0.2122730016708374,-0.3717178404331207,9.623025894165039,0.0025709774854366916,-0.0038101827510560898,0.003226674793544021,0.18912124633789062,2019-06-20 16:02:58:780,0.0,0.0,0.0
0.23382575809955597,-0.335796594619751,9.74276351928711,0.0007063095923121196,-0.0024782768530356414,0.002693912538365572,0.19501304626464844,2019-06-20 16:02:58:785,0.0,0.0,0.0
0.25537851452827454,-0.35016509890556335,9.797842979431152,0.0024377869216420794,0.0064454911812777075,-0.0011686140717525096,0.20000839233398438,2019-06-20 16:02:58:790,0.0,0.0,0.0
0.22424675524234772,-0.3669283390045166,9.788264274597168,0.0012390718474905686,0.008576540722140154,0.00748877309504594,0.20414113998413086,2019-06-20 16:02:58:795,0.0,0.0,0.0
0.2649574875831604,-0.36453357338905334,9.682894706726074,0.003103740000689466,0.00484720441574236,0.0018947690255607357,0.21002483367919922,2019-06-20 16:02:58:800,0.0,0.0,0.0
0.1332462728023529,-0.2998753488063812,9.72360610961914,-0.0006255961106525846,-0.0028778488044938037,-0.000902232944163285,0.21412086486816406,2019-06-20 16:02:58:805,0.0,0.0,0.0
0.30806300044059753,-0.328612357378006,9.706842422485352,-0.003822169836779023,-0.0038101827510560898,0.001628387897971511,0.22004127502441406,2019-06-20 16:02:58:811,0.0,0.0,0.0
0.25537851452827454,-0.3525598347187042,9.812211036682129,-0.001158358430849615,0.003781679905385461,-0.0027669008372878568,0.22413969039916992,2019-06-20 16:02:58:815,0.0,0.0,0.0
0.34637898206710815,-0.40284958481788635,9.771500587463379,0.0053679798452722005,0.02056369198380391,-0.004231997299102917,0.23000240325927734,2019-06-20 16:02:58:820,0.0,0.0,0.0
0.12606202065944672,-0.3621388375759125,9.797842979431152,0.0032369305644840782,0.008176968770681992,0.0014951973341768988,0.23500823974609375,2019-06-20 16:02:58:825,0.0,0.0,0.0
0.24340476095676422,-0.3597441017627716,9.687684059143066,0.003103740000689466,0.0032489176502070124,0.006156867457099816,0.2391204833984375,2019-06-20 16:02:58:830,0.0,0.0,0.0
0.16916751861572266,-0.4004548192024231,9.711631774902344,0.0019050247965007928,-0.0020787052916889674,0.002027959589355348,0.2450118064880371,2019-06-20 16:02:58:835,0.0,0.0,0.0
0.24819424748420715,-0.3669283390045166,9.845738410949707,-0.0008919772382418092,0.0004519156154644102,-0.005297521549385491,0.2491140365600586,2019-06-20 16:02:58:840,0.0,0.0,0.0
0.24819424748420715,-0.3980600833892822,9.860106468200684,0.0039028833834571395,0.008443349898271217,0.0017615784617661236,0.2550334930419922,2019-06-20 16:02:58:845,0.0,0.0,0.0
0.2386152595281601,-0.4124285876750946,9.817001342773438,0.007365838042117059,0.008576540722140154,-0.0036992350439244686,0.25911760330200195,2019-06-20 16:02:58:850,0.0,0.0,0.0
0.18114125728607178,-0.33100709319114685,9.694869041442871,0.005101598717682976,0.005379966670920808,-0.0014349951993417342,0.2650156021118164,2019-06-20 16:02:58:855,0.0,0.0,0.0
0.1476147621870041,-0.2735331058502197,9.66134262084961,-0.002090692377411901,-0.0020787052916889674,0.0037594370487224705,0.26914501190185547,2019-06-20 16:02:58:860,0.0,0.0,0.0
0.24819424748420715,-0.39087584614753723,9.687684059143066,0.003370121128278691,-0.005674850904254987,0.0028271031021601845,0.2750105857849121,2019-06-20 16:02:58:865,0.0,0.0,0.0
0.20748351514339447,-0.3717178404331207,9.831369400024414,0.0035033116920733026,-0.0024782768530356414,-0.0031664725286716937,0.2791147232055664,2019-06-20 16:02:58:870,0.0,0.0,0.0
0.28172075748443604,-0.39566534757614136,9.812211036682129,0.0020382153602954054,0.009375683584759178,0.001628387897971511,0.2841320037841797,2019-06-20 16:02:58:875,0.0,0.0,0.0
0.2314310073852539,-0.42200759053230286,9.759527206420898,0.005501170148992487,0.008842921329580727,-0.0007690423803686727,0.2900075912475586,2019-06-20 16:02:58:880,0.0,0.0,0.0
0.10690402239561081,-0.328612357378006,9.759527206420898,0.0020382153602954054,0.0032489176502070124,-0.005830284324712591,0.29500579833984375,2019-06-20 16:02:58:885,0.0,0.0,0.0
0.1739570051431656,-0.3669283390045166,9.699658393859863,0.0021714059240900176,-0.0035438016234668654,0.001628387897971511,0.2991352081298828,2019-06-20 16:02:58:890,0.0,0.0,0.0
0.15240426361560822,-0.381296843290329,9.759527206420898,0.0027041680492313038,-0.0010131806512949063,-0.0017013763269309588,0.30501270294189453,2019-06-20 16:02:58:895,0.0,0.0,0.0
0.19072026014328003,-0.3597441017627716,9.757132530212402,-0.00022602440301410239,-0.0035438016234668654,-0.0015681857631363464,0.30911874771118164,2019-06-20 16:02:58:900,0.0,0.0,0.0
0.2577732503414154,-0.4124285876750946,9.836158752441406,0.0015054529750797934,0.007377825387914319,-0.003566044480129856,0.31415462493896484,2019-06-20 16:02:58:905,0.0,0.0,0.0
0.1931150108575821,-0.4004548192024231,9.761921882629395,0.0061671232280398735,0.008310159594550929,-0.0031664725286716937,0.31912994384765625,2019-06-20 16:02:58:910,0.0,0.0,0.0
0.14522001147270203,-0.3669283390045166,9.690079689025879,-0.0004924055468579722,0.00631230087755742,-0.00023628007642628753,0.3241157531738281,2019-06-20 16:02:58:915,0.0,0.0,0.0
0.15240426361560822,-0.33819133043289185,9.666131973266602,0.0015054529750797934,-0.001945514727894355,-0.0034328539163352434,0.3299980163574219,2019-06-20 16:02:58:920,0.0,0.0,0.0
0.21466775238513947,-0.3980600833892822,9.670921325683594,0.0043024550748409765,-0.0020787052916889674,-0.0025005197096986324,0.3341226577758789,2019-06-20 16:02:58:925,0.0,0.0,0.0
0.22185200452804565,-0.3741125762462616,9.783474922180176,0.0005731190285175073,0.005113585543331584,0.0012288162065876742,0.3400087356567383,2019-06-20 16:02:58:930,0.0,0.0,0.0
0.2194572538137436,-0.3860863447189331,9.785869598388672,-0.00035921498306336,0.0035152987777962367,-0.0036992350439244686,0.3450345993041992,2019-06-20 16:02:58:935,0.0,0.0,0.0
0.22424675524234772,-0.39087584614753723,9.797842979431152,0.006433504355629099,0.00631230087755742,-0.006096665452301814,0.3491344451904297,2019-06-20 16:02:58:940,0.0,0.0,0.0
0.18832550942897797,-0.3669283390045166,9.690079689025879,0.0021714059240900176,0.00431444216056391,-0.004498378166617817,0.3550300598144531,2019-06-20 16:02:58:945,0.0,0.0,0.0
0.16916751861572266,-0.36453357338905334,9.716421127319336,0.0039028833834571395,0.0017838213184291141,-0.004231997299102917,0.36000919342041016,2019-06-20 16:02:58:950,0.0,0.0,0.0
0.18114125728607178,-0.441165566444397,9.718815803527832,0.0012390718474905686,-0.003011039368288416,-0.001834566890725571,0.36503076553344727,2019-06-20 16:02:58:955,0.0,0.0,0.0
0.18114125728607178,-0.388481080532074,9.776289939880371,0.003103740000689466,-0.00021403725227258724,-0.004231997299102917,0.36911582946777344,2019-06-20 16:02:58:960,0.0,0.0,0.0
0.2050887644290924,-0.38369157910346985,9.80502700805664,-0.003955360400573636,0.0064454911812777075,-0.0071621899626587125,0.37501049041748047,2019-06-20 16:02:58:965,0.0,0.0,0.0
0.2457994967699051,-0.4076390862464905,9.749947547912598,-0.00022602440301410239,0.005113585543331584,-0.0021009480183147955,0.3800053596496582,2019-06-20 16:02:58:970,0.0,0.0,0.0
0.1931150108575821,-0.4148233234882355,9.718815803527832,-0.001957501813617289,-0.0015459429064733554,-0.005563903197123366,0.3850078582763672,2019-06-20 16:02:58:975,0.0,0.0,0.0
0.18114125728607178,-0.3549546003341675,9.70205307006836,-0.0024902641988329005,-0.0026114674168302536,0.0006960539514092252,0.3891105651855469,2019-06-20 16:02:58:980,0.0,0.0,0.0
0.23622050881385803,-0.3597441017627716,9.716421127319336,0.0017718342327061804,-0.004742516697618376,-0.005297521549385491,0.3941774368286133,2019-06-20 16:02:58:985,0.0,0.0,0.0
0.2386152595281601,-0.39087584614753723,9.766711235046387,-0.002090692377411901,0.002050202446018339,-0.0017013763269309588,0.40001630783081055,2019-06-20 16:02:58:990,0.0,0.0,0.0
0.26256275177001953,-0.381296843290329,9.802632331848145,4.035674489342885e-05,0.004980395239611297,-0.0034328539163352434,0.40411901473999023,2019-06-20 16:02:58:995,0.0,0.0,0.0
0.25537851452827454,-0.4004548192024231,9.776289939880371,-9.283383109216743e-05,0.004980395239611297,0.001095625642793062,0.41001129150390625,2019-06-20 16:02:59:000,0.0,0.0,0.0
0.2194572538137436,-0.35734933614730835,9.737974166870117,0.004036073947251752,0.002050202446018339,0.005357724074332143,0.4150080680847168,2019-06-20 16:02:59:005,0.0,0.0,0.0
0.2314310073852539,-0.3525598347187042,9.687684059143066,-0.0032894075816005744,0.0060459197499681955,-0.004098806735308305,0.4191145896911621,2019-06-20 16:02:59:010,0.0,0.0,0.0
0.22664150595664978,-0.4004548192024231,9.680500030517578,0.0007063095923121196,-0.0010131806512949063,0.0009624350789984497,0.42501211166381836,2019-06-20 16:02:59:015,0.0,0.0,0.0
0.2649574875831604,-0.4459550678730011,9.800237655639648,0.0005731190285175073,0.0021833931398501137,0.0008292445152038374,0.42911720275878906,2019-06-20 16:02:59:020,0.0,0.0,0.0
0.22903625667095184,-0.33819133043289185,9.74276351928711,0.00017354732087902514,0.003382108214001624,-0.005297521549385491,0.4350090026855469,2019-06-20 16:02:59:025,0.0,0.0,0.0
0.2457994967699051,-0.31903335452079773,9.718815803527832,-0.002223883071243676,0.00631230087755742,-0.00023628007642628753,0.4391336441040039,2019-06-20 16:02:59:030,0.0,0.0,0.0
0.20748351514339447,-0.3669283390045166,9.74276351928711,0.004702026766224813,-0.0006136089599110694,0.0033598653573386336,0.44501590728759766,2019-06-20 16:02:59:035,0.0,0.0,0.0
0.22664150595664978,-0.34537559747695923,9.678105354309082,0.0008395001561067318,5.234389563494396e-05,-0.0029000914010824694,0.4491157531738281,2019-06-20 16:02:59:040,0.0,0.0,0.0
0.18832550942897797,-0.39566534757614136,9.728395462036133,0.0005731190285175073,0.0019170118822237267,0.0017615784617661236,0.45412254333496094,2019-06-20 16:02:59:045,0.0,0.0,0.0
0.26735225319862366,-0.3932705819606781,9.807421684265137,0.0011058812836959564,0.0035152987777962367,-0.0006358518165740604,0.46001720428466797,2019-06-20 16:02:59:050,0.0,0.0,0.0
0.2457994967699051,-0.3789020776748657,9.76431655883789,0.00043992846472289506,0.007644206515503542,0.0038926276125170823,0.46411705017089844,2019-06-20 16:02:59:055,0.0,0.0,0.0
0.23622050881385803,-0.381296843290329,9.75234317779541,0.0007063095923121196,0.004714014112022072,0.0018947690255607357,0.47003841400146484,2019-06-20 16:02:59:061,0.0,0.0,0.0
0.22424675524234772,-0.3094543516635895,9.678105354309082,0.0009726907199013442,0.005113585543331584,0.00016329164746684,0.4741334915161133,2019-06-20 16:02:59:065,0.0,0.0,0.0
0.2122730016708374,-0.36453357338905334,9.70205307006836,4.035674489342885e-05,0.004580823288153135,0.0017615784617661236,0.47911882400512695,2019-06-20 16:02:59:070,0.0,0.0,0.0
0.21466775238513947,-0.3860863447189331,9.711631774902344,0.0003067379009282828,0.00018553447162054023,0.0008292445152038374,0.48412513732910156,2019-06-20 16:02:59:075,0.0,0.0,0.0
0.24819424748420715,-0.34298083186149597,9.785869598388672,-0.0007587866744471969,-0.00021403725227258724,-0.0036992350439244686,0.49002742767333984,2019-06-20 16:02:59:080,0.0,0.0,0.0
0.2386152595281601,-0.3549546003341675,9.790658950805664,0.003103740000689466,0.00870973102586044,-0.0034328539163352434,0.49411869049072266,2019-06-20 16:02:59:085,0.0,0.0,0.0
0.21706250309944153,-0.4076390862464905,9.783474922180176,0.0003067379009282828,0.00631230087755742,0.0018947690255607357,0.5000085830688477,2019-06-20 16:02:59:090,0.0,0.0,0.0
0.22424675524234772,-0.35734933614730835,9.75234317779541,0.0024377869216420794,0.0035152987777962367,-0.0014349951993417342,0.5041213035583496,2019-06-20 16:02:59:095,0.0,0.0,0.0
0.21706250309944153,-0.35734933614730835,9.737974166870117,-0.0010251678020364214,0.0021833931398501137,0.0014951973341768988,0.5100102424621582,2019-06-20 16:02:59:100,0.0,0.0,0.0
0.24819424748420715,-0.37650734186172485,9.766711235046387,0.0025709774854366916,0.0013842496270452774,-0.0026337102734932446,0.5141181945800781,2019-06-20 16:02:59:105,0.0,0.0,0.0
0.2505890130996704,-0.3477703332901001,9.812211036682129,0.00017354732087902514,0.0015174401908398898,0.0021611501531499603,0.5192985534667969,2019-06-20 16:02:59:110,0.0,0.0,0.0
0.26016801595687866,-0.3597441017627716,9.769105911254883,-0.0008919772382418092,0.0032489176502070124,0.0037594370487224705,0.5255608558654785,2019-06-20 16:02:59:116,0.0,0.0,0.0
0.22664150595664978,-0.3741125762462616,9.757132530212402,0.0003067379009282828,0.003382108214001624,0.001095625642793062,0.5305814743041992,2019-06-20 16:02:59:121,0.0,0.0,0.0
0.20748351514339447,-0.3477703332901001,9.697263717651367,0.0017718342327061804,0.0005851061792590224,-0.0010354235079578973,0.5356731414794922,2019-06-20 16:02:59:126,0.0,0.0,0.0
0.22664150595664978,-0.35016509890556335,9.747552871704102,0.0012390718474905686,-0.0004804183961164572,0.0017615784617661236,0.5405845642089844,2019-06-20 16:02:59:131,0.0,0.0,0.0
0.22185200452804565,-0.3549546003341675,9.766711235046387,0.0003067379009282828,0.0012510590632506652,0.003493055921133246,0.5455846786499023,2019-06-20 16:02:59:136,0.0,0.0,0.0
0.21706250309944153,-0.35016509890556335,9.709237098693848,0.0005731190285175073,0.002050202446018339,0.004159008740106307,0.5505905151367188,2019-06-20 16:02:59:141,0.0,0.0,0.0
0.2457994967699051,-0.35016509890556335,9.800237655639648,-0.0010251678020364214,0.003781679905385461,3.010106944941304e-05,0.5556221008300781,2019-06-20 16:02:59:146,0.0,0.0,0.0
0.19550976157188416,-0.3525598347187042,9.735579490661621,4.035674489342885e-05,0.002849345958823175,-0.001834566890725571,0.560582160949707,2019-06-20 16:02:59:151,0.0,0.0,0.0
0.20029926300048828,-0.3741125762462616,9.72360610961914,-0.001557930122233452,0.004580823288153135,-0.0013018046355471218,0.5656442642211914,2019-06-20 16:02:59:156,0.0,0.0,0.0
0.2050887644290924,-0.34537559747695923,9.728395462036133,0.0023045963578474673,0.0031157270864124,0.0037594370487224705,0.5706000328063965,2019-06-20 16:02:59:161,0.0,0.0,0.0
0.1931150108575821,-0.3477703332901001,9.783474922180176,0.0039028833834571395,0.002050202446018339,0.002027959589355348,0.5755805969238281,2019-06-20 16:02:59:166,0.0,0.0,0.0
0.20269401371479034,-0.37650734186172485,9.788264274597168,0.0035033116920733026,0.004447632984432848,0.0017615784617661236,0.5806493759155273,2019-06-20 16:02:59:171,0.0,0.0,0.0
0.19550976157188416,-0.3405860960483551,9.745158195495605,0.005501170148992487,0.0025829648312339507,0.00549091437805243,0.5856084823608398,2019-06-20 16:02:59:176,0.0,0.0,0.0
0.19072026014328003,-0.4052443206310272,9.749947547912598,0.0015054529750797934,0.005113585543331584,0.0018947690255607357,0.5905838012695312,2019-06-20 16:02:59:181,0.0,0.0,0.0
0.18353600800037384,-0.3980600833892822,9.718815803527832,-0.001158358430849615,-0.0004804183961164572,-0.000902232944163285,0.5956039428710938,2019-06-20 16:02:59:186,0.0,0.0,0.0
0.22664150595664978,-0.3741125762462616,9.766711235046387,0.0037696928196625274,0.003781679905385461,-0.0011686140717525096,0.6005821228027344,2019-06-20 16:02:59:191,0.0,0.0,0.0
0.22185200452804565,-0.38369157910346985,9.704447746276855,0.00590074210045065,0.003914870469180074,0.0021611501531499603,0.6055908203125,2019-06-20 16:02:59:196,0.0,0.0,0.0
0.2505890130996704,-0.3789020776748657,9.807421684265137,-0.0006255961106525846,-0.0014127523426787432,3.010106944941304e-05,0.6106138229370117,2019-06-20 16:02:59:201,0.0,0.0,0.0
0.2194572538137436,-0.38369157910346985,9.75234317779541,0.004036073947251752,0.006978253436456156,0.005224533250463206,0.6156511306762695,2019-06-20 16:02:59:206,0.0,0.0,0.0
0.22664150595664978,-0.37650734186172485,9.740368843078613,0.0035033116920733026,0.007244634564045381,-0.0029000914010824694,0.6205902099609375,2019-06-20 16:02:59:211,0.0,0.0,0.0
0.2050887644290924,-0.3789020776748657,9.70205307006836,0.0008395001561067318,-8.084668035065233e-05,-0.00036947065647554515,0.6256265640258789,2019-06-20 16:02:59:216,0.0,0.0,0.0
0.2050887644290924,-0.35016509890556335,9.728395462036133,0.006300313531760161,0.0013842496270452774,-0.0030332819648770815,0.6306591033935547,2019-06-20 16:02:59:221,0.0,0.0,0.0
0.22903625667095184,-0.34537559747695923,9.814606666564941,0.005234789021403263,0.0007182967430536347,0.00549091437805243,0.6355962753295898,2019-06-20 16:02:59:226,0.0,0.0,0.0
0.21466775238513947,-0.4076390862464905,9.771500587463379,0.0032369305644840782,0.0060459197499681955,0.0017615784617661236,0.6405792236328125,2019-06-20 16:02:59:231,0.0,0.0,0.0
0.17874650657176971,-0.3932705819606781,9.766711235046387,0.003636502255867915,0.0009846778706428594,-0.0006358518165740604,0.6456050872802734,2019-06-20 16:02:59:236,0.0,0.0,0.0
0.17874650657176971,-0.38369157910346985,9.737974166870117,0.0039028833834571395,0.002849345958823175,0.004292199303900919,0.6505813598632812,2019-06-20 16:02:59:241,0.0,0.0,0.0
0.19550976157188416,-0.388481080532074,9.737974166870117,0.004968407893814039,0.0019170118822237267,-0.002234138582109408,0.6555871963500977,2019-06-20 16:02:59:246,0.0,0.0,0.0
0.2050887644290924,-0.39087584614753723,9.716421127319336,-0.00035921498306336,-0.0012795617788841308,-0.0031664725286716937,0.6606850624084473,2019-06-20 16:02:59:251,0.0,0.0,0.0
0.18114125728607178,-0.4148233234882355,9.761921882629395,0.0020382153602954054,0.0021833931398501137,0.0029602936659547966,0.665618896484375,2019-06-20 16:02:59:256,0.0,0.0,0.0
0.19072026014328003,-0.4076390862464905,9.776289939880371,0.00829817224875367,0.0013842496270452774,0.004691770995284756,0.6705808639526367,2019-06-20 16:02:59:261,0.0,0.0,0.0
0.2386152595281601,-0.4124285876750946,9.76431655883789,0.003636502255867915,0.0004519156154644102,0.0018947690255607357,0.6751956939697266,2019-06-20 16:02:59:266,0.0,0.0,0.0
0.19072026014328003,-0.3789020776748657,9.766711235046387,0.0037696928196625274,0.001650630754634502,-0.005697093500843653,0.6791400909423828,2019-06-20 16:02:59:270,0.0,0.0,0.0
0.23382575809955597,-0.42919182777404785,9.704447746276855,-0.0010251678020364214,0.0032489176502070124,-0.0015681857631363464,0.6841220855712891,2019-06-20 16:02:59:275,0.0,0.0,0.0
0.2194572538137436,-0.3932705819606781,9.728395462036133,-0.0010251678020364214,0.00431444216056391,-0.0006358518165740604,0.6900014877319336,2019-06-20 16:02:59:280,0.0,0.0,0.0
0.22424675524234772,-0.39566534757614136,9.785869598388672,0.0023045963578474673,0.005646347798510033,0.004558580691564469,0.694124698638916,2019-06-20 16:02:59:285,0.0,0.0,0.0
0.18832550942897797,-0.40284958481788635,9.76431655883789,0.0008395001561067318,0.004447632984432848,-0.000902232944163285,0.7000141143798828,2019-06-20 16:02:59:290,0.0,0.0,0.0
0.21466775238513947,-0.4076390862464905,9.730790138244629,0.0007063095923121196,0.003781679905385461,0.0017615784617661236,0.7041530609130859,2019-06-20 16:02:59:295,0.0,0.0,0.0
0.23382575809955597,-0.41003382205963135,9.694869041442871,0.0016386436689115682,0.004048061032974686,-0.004631568990486754,0.709144115447998,2019-06-20 16:02:59:300,0.0,0.0,0.0
0.2050887644290924,-0.3980600833892822,9.757132530212402,-0.001557930122233452,-0.0010131806512949063,-0.0011686140717525096,0.7141213417053223,2019-06-20 16:02:59:305,0.0,0.0,0.0
0.15719376504421234,-0.43637606501579285,9.70205307006836,0.0015054529750797934,0.0009846778706428594,-0.00036947065647554515,0.7200369834899902,2019-06-20 16:02:59:311,0.0,0.0,0.0
0.21706250309944153,-0.3860863447189331,9.690079689025879,0.0011058812836959564,0.004580823288153135,0.0009624350789984497,0.7241506576538086,2019-06-20 16:02:59:315,0.0,0.0,0.0
0.17156226933002472,-0.4459550678730011,9.831369400024414,-0.0004924055468579722,0.005513157494789746,-0.0010354235079578973,0.7300004959106445,2019-06-20 16:02:59:320,0.0,0.0,0.0
0.22903625667095184,-0.4004548192024231,9.72360610961914,0.0025709774854366916,0.0025829648312339507,0.006290057760820104,0.7341232299804688,2019-06-20 16:02:59:325,0.0,0.0,0.0
0.20269401371479034,-0.3717178404331207,9.75234317779541,-0.002090692377411901,0.0005851061792590224,0.0014951973341768988,0.7400097846984863,2019-06-20 16:02:59:330,0.0,0.0,0.0
0.19790451228618622,-0.42200759053230286,9.759527206420898,0.0008395001561067318,0.005912728926099258,-0.0006358518165740604,0.7441244125366211,2019-06-20 16:02:59:335,0.0,0.0,0.0
0.21466775238513947,-0.381296843290329,9.75234317779541,0.0019050247965007928,0.006179110053688482,-0.0015681857631363464,0.7491159439086914,2019-06-20 16:02:59:340,0.0,0.0,0.0
0.17635175585746765,-0.37650734186172485,9.68528938293457,0.0009726907199013442,0.005246776367200522,-0.0034328539163352434,0.7550344467163086,2019-06-20 16:02:59:345,0.0,0.0,0.0
0.17635175585746765,-0.3789020776748657,9.814606666564941,0.0028373588731002413,0.002716155395028563,-0.0014349951993417342,0.7600231170654297,2019-06-20 16:02:59:350,0.0,0.0,0.0
0.2194572538137436,-0.4076390862464905,9.737974166870117,-0.0008919772382418092,0.003382108214001624,0.0029602936659547966,0.7641229629516602,2019-06-20 16:02:59:355,0.0,0.0,0.0
0.20029926300048828,-0.4076390862464905,9.71402645111084,-0.0035557887091897987,0.0036484893415908493,0.001628387897971511,0.7700843811035156,2019-06-20 16:02:59:361,0.0,0.0,0.0
0.20748351514339447,-0.388481080532074,9.754737854003906,0.006566694659349385,0.004714014112022072,-0.0005026612202701574,0.7741336822509766,2019-06-20 16:02:59:365,0.0,0.0,0.0
0.18832550942897797,-0.38369157910346985,9.747552871704102,-9.283383109216743e-05,0.0032489176502070124,0.0018947690255607357,0.7791190147399902,2019-06-20 16:02:59:370,0.0,0.0,0.0
0.16198326647281647,-0.4244023263454437,9.704447746276855,-0.0023570736350382883,0.003382108214001624,0.00042967279131070986,0.7841253280639648,2019-06-20 16:02:59:375,0.0,0.0,0.0
0.14282526075839996,-0.33100709319114685,9.769105911254883,-0.002090692377411901,0.0012510590632506652,-0.0005026612202701574,0.790013313293457,2019-06-20 16:02:59:380,0.0,0.0,0.0
0.23622050881385803,-0.3405860960483551,9.757132530212402,-0.002223883071243676,0.0012510590632506652,0.002693912538365572,0.7941207885742188,2019-06-20 16:02:59:385,0.0,0.0,0.0
0.1739570051431656,-0.4052443206310272,9.771500587463379,-0.001957501813617289,0.005246776367200522,-0.00036947065647554515,0.7991409301757812,2019-06-20 16:02:59:390,0.0,0.0,0.0
0.2793259918689728,-0.4076390862464905,9.699658393859863,-0.0024902641988329005,0.0060459197499681955,-0.0021009480183147955,0.8050146102905273,2019-06-20 16:02:59:395,0.0,0.0,0.0
0.15719376504421234,-0.3669283390045166,9.71402645111084,0.003636502255867915,0.011506732605472974,0.002693912538365572,0.809117317199707,2019-06-20 16:02:59:400,0.0,0.0,0.0
0.24340476095676422,-0.3717178404331207,9.649368286132812,-0.004354932091957473,0.0036484893415908493,0.0005628633876146128,0.814152717590332,2019-06-20 16:02:59:405,0.0,0.0,0.0
0.19550976157188416,-0.4004548192024231,9.773895263671875,-9.283383109216743e-05,0.0011178684994560528,0.004691770995284756,0.8191413879394531,2019-06-20 16:02:59:410,0.0,0.0,0.0
0.2457994967699051,-0.3142438530921936,9.797842979431152,-0.0014247395584388394,0.004714014112022072,-0.00036947065647554515,0.8250036239624023,2019-06-20 16:02:59:415,0.0,0.0,0.0
0.2769312560558319,-0.35734933614730835,9.80502700805664,-0.0008919772382418092,0.008176968770681992,0.0017615784617661236,0.8291130065917969,2019-06-20 16:02:59:420,0.0,0.0,0.0
0.2457994967699051,-0.40284958481788635,9.721211433410645,0.0011058812836959564,0.010973970350294526,0.0037594370487224705,0.8350162506103516,2019-06-20 16:02:59:425,0.0,0.0,0.0
0.2314310073852539,-0.3477703332901001,9.726000785827637,-0.0006255961106525846,0.0025829648312339507,0.001628387897971511,0.8391227722167969,2019-06-20 16:02:59:430,0.0,0.0,0.0
0.1667727679014206,-0.3142438530921936,9.704447746276855,-0.0036889792729844113,0.0024497742674393385,0.001628387897971511,0.8451037406921387,2019-06-20 16:02:59:436,0.0,0.0,0.0
0.23622050881385803,-0.3621388375759125,9.678105354309082,0.0023045963578474673,-0.0023450862892410293,0.0017615784617661236,0.8491439819335938,2019-06-20 16:02:59:440,0.0,0.0,0.0
0.21466775238513947,-0.3477703332901001,9.82179069519043,-0.0010251678020364214,0.00631230087755742,0.004558580691564469,0.855008602142334,2019-06-20 16:02:59:445,0.0,0.0,0.0
0.2841154932975769,-0.3525598347187042,9.836158752441406,-0.00022602440301410239,0.006578682005146645,0.0025607219745709597,0.8591413497924805,2019-06-20 16:02:59:450,0.0,0.0,0.0
0.24340476095676422,-0.3669283390045166,9.800237655639648,0.002970549436894854,0.004447632984432848,0.0008292445152038374,0.8650293350219727,2019-06-20 16:02:59:455,0.0,0.0,0.0
0.1859307587146759,-0.3669283390045166,9.721211433410645,-0.002756645326422125,0.008310159594550929,0.002693912538365572,0.8691215515136719,2019-06-20 16:02:59:460,0.0,0.0,0.0
0.23382575809955597,-0.4004548192024231,9.649368286132812,0.0021714059240900176,0.004447632984432848,-0.0011686140717525096,0.8741087913513184,2019-06-20 16:02:59:465,0.0,0.0,0.0
0.24101001024246216,-0.3980600833892822,9.726000785827637,0.002970549436894854,-0.0018123241640997428,0.001095625642793062,0.8800125122070312,2019-06-20 16:02:59:470,0.0,0.0,0.0
0.21466775238513947,-0.34298083186149597,9.802632331848145,-0.0008919772382418092,0.002316583703644726,0.0030934842297494092,0.885004997253418,2019-06-20 16:02:59:475,0.0,0.0,0.0
0.2050887644290924,-0.3669283390045166,9.781079292297363,-0.00035921498306336,0.010041637183955215,-0.0015681857631363464,0.8891115188598633,2019-06-20 16:02:59:480,0.0,0.0,0.0
0.22424675524234772,-0.3741125762462616,9.72360610961914,-0.0008919772382418092,0.0021833931398501137,-0.003566044480129856,0.8951034545898438,2019-06-20 16:02:59:486,0.0,0.0,0.0
0.18114125728607178,-0.31184908747673035,9.761921882629395,0.004435645638635589,0.004048061032974686,-0.00036947065647554515,0.8991270065307617,2019-06-20 16:02:59:490,0.0,0.0,0.0
0.20987825095653534,-0.3405860960483551,9.828974723815918,0.003103740000689466,-0.001945514727894355,0.004691770995284756,0.9050068855285645,2019-06-20 16:02:59:495,0.0,0.0,0.0
0.34158948063850403,-0.388481080532074,9.819396018981934,0.0032369305644840782,0.00577953862237897,-0.003566044480129856,0.909142017364502,2019-06-20 16:02:59:500,0.0,0.0,0.0
0.20269401371479034,-0.3621388375759125,9.71402645111084,0.0032369305644840782,0.007910587643092768,0.0005628633876146128,0.915013313293457,2019-06-20 16:02:59:505,0.0,0.0,0.0
0.19790451228618622,-0.30466485023498535,9.694869041442871,0.003103740000689466,0.005513157494789746,-0.0034328539163352434,0.9191160202026367,2019-06-20 16:02:59:510,0.0,0.0,0.0
0.19072026014328003,-0.4196128249168396,9.670921325683594,0.0012390718474905686,-0.0026114674168302536,0.0009624350789984497,0.9250121116638184,2019-06-20 16:02:59:515,0.0,0.0,0.0
0.2314310073852539,-0.36453357338905334,9.728395462036133,0.004702026766224813,-0.007406327973510622,-0.002234138582109408,0.9291210174560547,2019-06-20 16:02:59:520,0.0,0.0,0.0
0.24340476095676422,-0.34298083186149597,9.831369400024414,0.0016386436689115682,0.002849345958823175,3.010106944941304e-05,0.9341211318969727,2019-06-20 16:02:59:525,0.0,0.0,0.0
0.2793259918689728,-0.4196128249168396,9.761921882629395,0.006433504355629099,0.008176968770681992,-0.00010308950450435256,0.9391374588012695,2019-06-20 16:02:59:530,0.0,0.0,0.0
0.2577732503414154,-0.3405860960483551,9.680500030517578,0.0053679798452722005,0.009242493281038891,-0.0010354235079578973,0.9450740814208984,2019-06-20 16:02:59:536,0.0,0.0,0.0
0.14522001147270203,-0.31903335452079773,9.675710678100586,-0.0014247395584388394,0.002316583703644726,-0.0027669008372878568,0.9491262435913086,2019-06-20 16:02:59:540,0.0,0.0,0.0
0.25537851452827454,-0.36453357338905334,9.692474365234375,-0.0006255961106525846,-0.0020787052916889674,-0.002234138582109408,0.9541969299316406,2019-06-20 16:02:59:545,0.0,0.0,0.0
0.22664150595664978,-0.39087584614753723,9.783474922180176,0.00017354732087902514,0.0029825365226177876,-0.0006358518165740604,0.9591684341430664,2019-06-20 16:02:59:550,0.0,0.0,0.0
0.28651025891304016,-0.36453357338905334,9.817001342773438,0.0015054529750797934,0.0036484893415908493,0.004159008740106307,0.9641208648681641,2019-06-20 16:02:59:555,0.0,0.0,0.0
0.24340476095676422,-0.39566534757614136,9.773895263671875,0.0024377869216420794,0.007910587643092768,0.0009624350789984497,0.9691171646118164,2019-06-20 16:02:59:560,0.0,0.0,0.0
0.23382575809955597,-0.38369157910346985,9.697263717651367,0.002970549436894854,0.00870973102586044,-0.005164331245665204,0.9750170707702637,2019-06-20 16:02:59:565,0.0,0.0,0.0
0.24340476095676422,-0.36932307481765747,9.709237098693848,-0.0023570736350382883,0.004714014112022072,-0.0017013763269309588,0.979123592376709,2019-06-20 16:02:59:570,0.0,0.0,0.0
0.18832550942897797,-0.35734933614730835,9.759527206420898,0.0023045963578474673,-0.002744658240699191,0.0006960539514092252,0.9850053787231445,2019-06-20 16:02:59:575,0.0,0.0,0.0
0.25537851452827454,-0.39566534757614136,9.800237655639648,0.003103740000689466,0.0005851061792590224,0.0012288162065876742,0.9891176223754883,2019-06-20 16:02:59:580,0.0,0.0,0.0
0.2793259918689728,-0.33819133043289185,9.826580047607422,0.0017718342327061804,0.005513157494789746,0.0014951973341768988,0.9950175285339355,2019-06-20 16:02:59:585,0.0,0.0,0.0
0.2649574875831604,-0.36453357338905334,9.771500587463379,0.0037696928196625274,0.010308017791395788,-0.002234138582109408,0.9991235733032227,2019-06-20 16:02:59:590,0.0,0.0,0.0
0.23382575809955597,-0.38369157910346985,9.706842422485352,0.005634360972861425,0.0024497742674393385,-0.0014349951993417342,1.0041580200195312,2019-06-20 16:02:59:595,0.0,0.0,0.0
0.1859307587146759,-0.3405860960483551,9.72360610961914,-0.002223883071243676,0.0032489176502070124,-0.0015681857631363464,1.0091218948364258,2019-06-20 16:02:59:600,0.0,0.0,0.0
0.22424675524234772,-0.42200759053230286,9.74276351928711,-0.0016911206860280642,0.0005851061792590224,-0.0023673291459040203,1.0150141716003418,2019-06-20 16:02:59:605,0.0,0.0,0.0
0.2505890130996704,-0.37650734186172485,9.690079689025879,0.001372262411285181,-0.002211895725446417,0.0022943408469817354,1.019120216369629,2019-06-20 16:02:59:610,0.0,0.0,0.0
0.24101001024246216,-0.36453357338905334,9.800237655639648,0.0023045963578474673,0.002849345958823175,0.0009624350789984497,1.0250072479248047,2019-06-20 16:02:59:615,0.0,0.0,0.0
0.24340476095676422,-0.3717178404331207,9.82179069519043,-0.0006255961106525846,0.0060459197499681955,-0.0013018046355471218,1.0291194915771484,2019-06-20 16:02:59:620,0.0,0.0,0.0
0.21466775238513947,-0.39087584614753723,9.737974166870117,0.0017718342327061804,0.00018553447162054023,0.0014951973341768988,1.03501558303833,2019-06-20 16:02:59:625,0.0,0.0,0.0
0.20269401371479034,-0.3860863447189331,9.668526649475098,0.0016386436689115682,0.005646347798510033,-0.00010308950450435256,1.0391206741333008,2019-06-20 16:02:59:630,0.0,0.0,0.0
0.2314310073852539,-0.3789020776748657,9.721211433410645,-0.0008919772382418092,0.0013842496270452774,0.0002964822275160976,1.0450153350830078,2019-06-20 16:02:59:635,0.0,0.0,0.0
0.19550976157188416,-0.3932705819606781,9.704447746276855,0.0039028833834571395,-0.000879990087500294,0.0037594370487224705,1.0491456985473633,2019-06-20 16:02:59:640,0.0,0.0,0.0
0.24819424748420715,-0.3717178404331207,9.79305362701416,-0.002756645326422125,0.004447632984432848,0.0030934842297494092,1.055013656616211,2019-06-20 16:02:59:645,0.0,0.0,0.0
0.2194572538137436,-0.381296843290329,9.71402645111084,-0.00022602440301410239,0.002316583703644726,-0.00036947065647554515,1.0591182708740234,2019-06-20 16:02:59:650,0.0,0.0,0.0
0.20029926300048828,-0.35734933614730835,9.785869598388672,0.0020382153602954054,0.006179110053688482,-0.0025005197096986324,1.0650148391723633,2019-06-20 16:02:59:655,0.0,0.0,0.0
0.17635175585746765,-0.381296843290329,9.711631774902344,0.0003067379009282828,-0.0015459429064733554,-0.00036947065647554515,1.069122314453125,2019-06-20 16:02:59:660,0.0,0.0,0.0
0.20029926300048828,-0.3741125762462616,9.70205307006836,0.0035033116920733026,0.0013842496270452774,0.004958152122873981,1.0749969482421875,2019-06-20 16:02:59:665,0.0,0.0,0.0
0.20029926300048828,-0.4244023263454437,9.740368843078613,0.003370121128278691,0.005646347798510033,0.0018947690255607357,1.0791115760803223,2019-06-20 16:02:59:670,0.0,0.0,0.0
0.23382575809955597,-0.3932705819606781,9.737974166870117,0.0019050247965007928,0.005513157494789746,0.0005628633876146128,1.0841379165649414,2019-06-20 16:02:59:675,0.0,0.0,0.0
0.1859307587146759,-0.388481080532074,9.79305362701416,0.0007063095923121196,0.005379966670920808,0.0008292445152038374,1.0900115966796875,2019-06-20 16:02:59:680,0.0,0.0,0.0
0.2122730016708374,-0.3741125762462616,9.726000785827637,0.0007063095923121196,0.004447632984432848,-0.00036947065647554515,1.095055103302002,2019-06-20 16:02:59:686,0.0,0.0,0.0
0.19550976157188416,-0.4124285876750946,9.740368843078613,0.0011058812836959564,0.0041812515967692985,0.001095625642793062,1.0991506576538086,2019-06-20 16:02:59:690,0.0,0.0,0.0
0.2050887644290924,-0.3789020776748657,9.74276351928711,0.003103740000689466,0.00484720441574236,0.0021611501531499603,1.104123592376709,2019-06-20 16:02:59:695,0.0,0.0,0.0
0.19550976157188416,-0.3860863447189331,9.82179069519043,0.0025709774854366916,0.0004519156154644102,-0.0005026612202701574,1.1100006103515625,2019-06-20 16:02:59:700,0.0,0.0,0.0
0.2050887644290924,-0.38369157910346985,9.771500587463379,0.0007063095923121196,0.0009846778706428594,0.00042967279131070986,1.114138126373291,2019-06-20 16:02:59:705,0.0,0.0,0.0
0.1859307587146759,-0.426797091960907,9.828974723815918,0.0024377869216420794,0.003382108214001624,0.0021611501531499603,1.1200103759765625,2019-06-20 16:02:59:710,0.0,0.0,0.0
0.19072026014328003,-0.3980600833892822,9.809816360473633,0.004169264511046364,0.0041812515967692985,-0.002234138582109408,1.1241216659545898,2019-06-20 16:02:59:715,0.0,0.0,0.0
0.20748351514339447,-0.39087584614753723,9.670921325683594,-0.0014247395584388394,0.007511015691634605,0.0038926276125170823,1.1300063133239746,2019-06-20 16:02:59:720,0.0,0.0,0.0
0.22664150595664978,-0.3525598347187042,9.728395462036133,0.002970549436894854,-0.0018123241640997428,0.007089201143587778,1.1341266632080078,2019-06-20 16:02:59:725,0.0,0.0,0.0
0.23622050881385803,-0.3549546003341675,9.769105911254883,0.0039028833834571395,5.234389563494396e-05,-0.0011686140717525096,1.1400103569030762,2019-06-20 16:02:59:730,0.0,0.0,0.0
0.23622050881385803,-0.37650734186172485,9.802632331848145,0.0011058812836959564,0.003382108214001624,-0.004498378166617817,1.1441259384155273,2019-06-20 16:02:59:735,0.0,0.0,0.0
0.2386152595281601,-0.3980600833892822,9.769105911254883,-0.0018243112498226766,0.005646347798510033,0.0013620067703822866,1.1500325202941895,2019-06-20 16:02:59:740,0.0,0.0,0.0
0.2314310073852539,-0.426797091960907,9.737974166870117,0.0012390718474905686,0.00484720441574236,0.0029602936659547966,1.1541242599487305,2019-06-20 16:02:59:745,0.0,0.0,0.0
0.2122730016708374,-0.3669283390045166,9.726000785827637,0.0009726907199013442,0.006711872308866931,0.00042967279131070986,1.159146785736084,2019-06-20 16:02:59:750,0.0,0.0,0.0
0.23622050881385803,-0.3405860960483551,9.740368843078613,0.0037696928196625274,0.0015174401908398898,0.0005628633876146128,1.1641340255737305,2019-06-20 16:02:59:755,0.0,0.0,0.0
0.22664150595664978,-0.38369157910346985,9.694869041442871,0.0025709774854366916,0.00484720441574236,-0.004764759294207041,1.1700105667114258,2019-06-20 16:02:59:760,0.0,0.0,0.0
0.20987825095653534,-0.38369157910346985,9.74276351928711,0.0016386436689115682,0.0004519156154644102,-0.0025005197096986324,1.1741228103637695,2019-06-20 16:02:59:765,0.0,0.0,0.0
0.24340476095676422,-0.3789020776748657,9.749947547912598,0.0015054529750797934,0.005246776367200522,0.0018947690255607357,1.1800003051757812,2019-06-20 16:02:59:770,0.0,0.0,0.0
0.26016801595687866,-0.3980600833892822,9.740368843078613,-0.0007587866744471969,0.006578682005146645,-0.0017013763269309588,1.1841340065002441,2019-06-20 16:02:59:775,0.0,0.0,0.0
0.2194572538137436,-0.34298083186149597,9.726000785827637,0.0021714059240900176,0.003781679905385461,-0.0025005197096986324,1.189122200012207,2019-06-20 16:02:59:780,0.0,0.0,0.0
0.20269401371479034,-0.4148233234882355,9.749947547912598,-0.0004924055468579722,0.0012510590632506652,0.0002964822275160976,1.1950445175170898,2019-06-20 16:02:59:786,0.0,0.0,0.0
0.22185200452804565,-0.3932705819606781,9.76431655883789,0.004036073947251752,0.0024497742674393385,-0.0013018046355471218,1.1991262435913086,2019-06-20 16:02:59:790,0.0,0.0,0.0
0.2649574875831604,-0.3621388375759125,9.783474922180176,0.0017718342327061804,0.0031157270864124,0.0033598653573386336,1.2041215896606445,2019-06-20 16:02:59:795,0.0,0.0,0.0
0.23622050881385803,-0.4004548192024231,9.718815803527832,-0.00022602440301410239,0.005513157494789746,0.0006960539514092252,1.2100048065185547,2019-06-20 16:02:59:800,0.0,0.0,0.0
0.2457994967699051,-0.3860863447189331,9.735579490661621,0.0023045963578474673,0.009908445839937626,-0.0010354235079578973,1.214125156402588,2019-06-20 16:02:59:805,0.0,0.0,0.0
0.2457994967699051,-0.3549546003341675,9.757132530212402,-0.00022602440301410239,0.006179110053688482,-0.0014349951993417342,1.2200126647949219,2019-06-20 16:02:59:810,0.0,0.0,0.0
0.26016801595687866,-0.3932705819606781,9.766711235046387,-0.0032894075816005744,0.0012510590632506652,0.0012288162065876742,1.2250065803527832,2019-06-20 16:02:59:815,0.0,0.0,0.0
0.23382575809955597,-0.381296843290329,9.711631774902344,0.0008395001561067318,0.006578682005146645,0.006423248584689041,1.2291131019592285,2019-06-20 16:02:59:820,0.0,0.0,0.0
0.24101001024246216,-0.37650734186172485,9.75234317779541,-0.0007587866744471969,0.0013842496270452774,0.0022943408469817354,1.2350187301635742,2019-06-20 16:02:59:825,0.0,0.0,0.0
0.19790451228618622,-0.3405860960483551,9.757132530212402,-0.00022602440301410239,0.009242493281038891,-0.00036947065647554515,1.2400388717651367,2019-06-20 16:02:59:831,0.0,0.0,0.0
0.20987825095653534,-0.36453357338905334,9.745158195495605,0.003636502255867915,0.0064454911812777075,0.0013620067703822866,1.244145393371582,2019-06-20 16:02:59:835,0.0,0.0,0.0
0.18832550942897797,-0.3789020776748657,9.761921882629395,0.0009726907199013442,0.008176968770681992,0.0022943408469817354,1.2500019073486328,2019-06-20 16:02:59:840,0.0,0.0,0.0
0.22185200452804565,-0.35016509890556335,9.754737854003906,0.0009726907199013442,0.003914870469180074,0.00042967279131070986,1.2541265487670898,2019-06-20 16:02:59:845,0.0,0.0,0.0
0.20748351514339447,-0.381296843290329,9.74276351928711,0.0003067379009282828,0.0024497742674393385,0.0033598653573386336,1.2600350379943848,2019-06-20 16:02:59:850,0.0,0.0,0.0
0.2194572538137436,-0.35734933614730835,9.759527206420898,0.0037696928196625274,0.0024497742674393385,0.002693912538365572,1.2641243934631348,2019-06-20 16:02:59:855,0.0,0.0,0.0
0.23622050881385803,-0.4004548192024231,9.797842979431152,-0.0018243112498226766,0.0024497742674393385,0.0012288162065876742,1.2691173553466797,2019-06-20 16:02:59:860,0.0,0.0,0.0
0.22424675524234772,-0.3741125762462616,9.726000785827637,0.003103740000689466,0.0025829648312339507,-0.0038324256077190803,1.2750139236450195,2019-06-20 16:02:59:865,0.0,0.0,0.0
0.1931150108575821,-0.3597441017627716,9.76431655883789,-0.0014247395584388394,0.004447632984432848,0.00042967279131070986,1.2791223526000977,2019-06-20 16:02:59:870,0.0,0.0,0.0
0.20269401371479034,-0.381296843290329,9.704447746276855,-0.0035557887091897987,0.0041812515967692985,-0.0030332819648770815,1.2850580215454102,2019-06-20 16:02:59:876,0.0,0.0,0.0
0.19550976157188416,-0.40284958481788635,9.75234317779541,0.0003067379009282828,0.0021833931398501137,-0.0029000914010824694,1.289154052734375,2019-06-20 16:02:59:880,0.0,0.0,0.0
0.2386152595281601,-0.35734933614730835,9.737974166870117,0.0009726907199013442,0.0024497742674393385,0.0005628633876146128,1.2941341400146484,2019-06-20 16:02:59:885,0.0,0.0,0.0
0.2386152595281601,-0.3980600833892822,9.773895263671875,0.006300313531760161,0.003382108214001624,-0.0032996633525406317,1.2991185188293457,2019-06-20 16:02:59:890,0.0,0.0,0.0
0.20269401371479034,-0.40284958481788635,9.737974166870117,0.0015054529750797934,0.00577953862237897,-0.0017013763269309588,1.3041329383850098,2019-06-20 16:02:59:895,0.0,0.0,0.0
0.2386152595281601,-0.3980600833892822,9.740368843078613,0.0009726907199013442,0.00018553447162054023,0.0024275314107763475,1.310011863708496,2019-06-20 16:02:59:900,0.0,0.0,0.0
0.20269401371479034,-0.35016509890556335,9.766711235046387,-9.283383109216743e-05,0.00484720441574236,-0.0015681857631363464,1.3141193389892578,2019-06-20 16:02:59:905,0.0,0.0,0.0
0.25537851452827454,-0.3980600833892822,9.761921882629395,0.004568835942355876,0.004714014112022072,-0.0017013763269309588,1.320004940032959,2019-06-20 16:02:59:910,0.0,0.0,0.0
0.22903625667095184,-0.4004548192024231,9.699658393859863,-0.002223883071243676,0.0009846778706428594,-0.0021009480183147955,1.3241252899169922,2019-06-20 16:02:59:915,0.0,0.0,0.0
0.22664150595664978,-0.39087584614753723,9.690079689025879,-0.0004924055468579722,0.00484720441574236,-0.0031664725286716937,1.3300056457519531,2019-06-20 16:02:59:920,0.0,0.0,0.0
0.19550976157188416,-0.3597441017627716,9.711631774902344,-0.0051540754747251465,0.0021833931398501137,-0.0026337102734932446,1.3341245651245117,2019-06-20 16:02:59:925,0.0,0.0,0.0
0.20748351514339447,-0.4148233234882355,9.749947547912598,0.0011058812836959564,0.00018553447162054023,-0.0029000914010824694,1.339125156402588,2019-06-20 16:02:59:930,0.0,0.0,0.0
0.24819424748420715,-0.35734933614730835,9.769105911254883,-0.002223883071243676,0.0012510590632506652,-0.004098806735308305,1.3450050354003906,2019-06-20 16:02:59:935,0.0,0.0,0.0
0.21466775238513947,-0.33100709319114685,9.800237655639648,0.0017718342327061804,0.00431444216056391,-0.0017013763269309588,1.3491721153259277,2019-06-20 16:02:59:940,0.0,0.0,0.0
0.24340476095676422,-0.3932705819606781,9.721211433410645,0.0016386436689115682,0.004714014112022072,-0.0011686140717525096,1.3550105094909668,2019-06-20 16:02:59:945,0.0,0.0,0.0
0.23382575809955597,-0.3741125762462616,9.75234317779541,0.0037696928196625274,0.0007182967430536347,-0.0006358518165740604,1.3591423034667969,2019-06-20 16:02:59:950,0.0,0.0,0.0
0.20987825095653534,-0.3621388375759125,9.814606666564941,0.0020382153602954054,0.0013842496270452774,-0.0021009480183147955,1.3650169372558594,2019-06-20 16:02:59:955,0.0,0.0,0.0
0.18114125728607178,-0.3717178404331207,9.761921882629395,0.0019050247965007928,0.0036484893415908493,-0.0017013763269309588,1.369124412536621,2019-06-20 16:02:59:960,0.0,0.0,0.0
0.2960892617702484,-0.3669283390045166,9.802632331848145,0.0053679798452722005,0.006179110053688482,-0.002234138582109408,1.3750057220458984,2019-06-20 16:02:59:965,0.0,0.0,0.0
0.2122730016708374,-0.33819133043289185,9.80502700805664,0.006033932404170936,0.0025829648312339507,0.001628387897971511,1.3793468475341797,2019-06-20 16:02:59:970,0.0,0.0,0.0
0.21466775238513947,-0.3741125762462616,9.747552871704102,0.0048352170699451,0.004580823288153135,0.001095625642793062,1.384140968322754,2019-06-20 16:02:59:975,0.0,0.0,0.0
0.22185200452804565,-0.37650734186172485,9.735579490661621,0.001372262411285181,0.002316583703644726,-0.0030332819648770815,1.390005111694336,2019-06-20 16:02:59:980,0.0,0.0,0.0
0.20029926300048828,-0.36932307481765747,9.699658393859863,0.004169264511046364,0.003914870469180074,0.0006960539514092252,1.3942289352416992,2019-06-20 16:02:59:985,0.0,0.0,0.0
0.23622050881385803,-0.3789020776748657,9.721211433410645,-0.0024902641988329005,0.0029825365226177876,-0.0019677574545201833,1.4000225067138672,2019-06-20 16:02:59:990,0.0,0.0,0.0
0.22185200452804565,-0.39087584614753723,9.785869598388672,0.0007063095923121196,0.004714014112022072,0.0033598653573386336,1.4041190147399902,2019-06-20 16:02:59:995,0.0,0.0,0.0
0.20029926300048828,-0.3932705819606781,9.766711235046387,-9.283383109216743e-05,0.0031157270864124,0.004558580691564469,1.410003662109375,2019-06-20 16:03:00:000,0.0,0.0,0.0
0.2194572538137436,-0.3405860960483551,9.74276351928711,0.0012390718474905686,0.0019170118822237267,0.0012288162065876742,1.4141225814819336,2019-06-20 16:03:00:005,0.0,0.0,0.0
0.22903625667095184,-0.3405860960483551,9.75234317779541,0.004968407893814039,0.007111444260325094,0.004025818176311695,1.4191207885742188,2019-06-20 16:03:00:010,0.0,0.0,0.0
0.19550976157188416,-0.38369157910346985,9.70205307006836,0.0015054529750797934,0.00031872505166979784,0.0030934842297494092,1.4250049591064453,2019-06-20 16:03:00:015,0.0,0.0,0.0
0.2122730016708374,-0.381296843290329,9.771500587463379,0.004036073947251752,0.002849345958823175,0.00042967279131070986,1.4291496276855469,2019-06-20 16:03:00:020,0.0,0.0,0.0
0.2122730016708374,-0.3717178404331207,9.781079292297363,0.0017718342327061804,0.0005851061792590224,-0.00023628007642628753,1.435007095336914,2019-06-20 16:03:00:025,0.0,0.0,0.0
0.24819424748420715,-0.4004548192024231,9.75234317779541,-0.00022602440301410239,0.006978253436456156,0.0024275314107763475,1.4391183853149414,2019-06-20 16:03:00:030,0.0,0.0,0.0
0.22185200452804565,-0.3477703332901001,9.706842422485352,0.0037696928196625274,0.002050202446018339,-0.0006358518165740604,1.444148063659668,2019-06-20 16:03:00:035,0.0,0.0,0.0
0.2314310073852539,-0.4052443206310272,9.658947944641113,0.0021714059240900176,0.0013842496270452774,0.004025818176311695,1.4500060081481934,2019-06-20 16:03:00:040,0.0,0.0,0.0
0.2314310073852539,-0.3717178404331207,9.74276351928711,0.0015054529750797934,0.00431444216056391,0.003493055921133246,1.4541239738464355,2019-06-20 16:03:00:045,0.0,0.0,0.0
0.1931150108575821,-0.381296843290329,9.730790138244629,0.0020382153602954054,-8.084668035065233e-05,0.0025607219745709597,1.4600319862365723,2019-06-20 16:03:00:050,0.0,0.0,0.0
0.23382575809955597,-0.38369157910346985,9.740368843078613,0.0017718342327061804,0.005379966670920808,0.0030934842297494092,1.4641218185424805,2019-06-20 16:03:00:055,0.0,0.0,0.0
0.19790451228618622,-0.34298083186149597,9.70205307006836,0.0020382153602954054,0.0041812515967692985,0.002693912538365572,1.470001220703125,2019-06-20 16:03:00:060,0.0,0.0,0.0
0.2386152595281601,-0.3669283390045166,9.74276351928711,0.0019050247965007928,0.0012510590632506652,0.001095625642793062,1.474217414855957,2019-06-20 16:03:00:065,0.0,0.0,0.0
0.22424675524234772,-0.4004548192024231,9.730790138244629,4.035674489342885e-05,0.0017838213184291141,-0.0017013763269309588,1.4800148010253906,2019-06-20 16:03:00:070,0.0,0.0,0.0
0.20269401371479034,-0.3597441017627716,9.771500587463379,0.001372262411285181,0.003382108214001624,0.001095625642793062,1.4841217994689941,2019-06-20 16:03:00:075,0.0,0.0,0.0
0.22903625667095184,-0.38369157910346985,9.812211036682129,0.0025709774854366916,0.0019170118822237267,0.002027959589355348,1.4891443252563477,2019-06-20 16:03:00:080,0.0,0.0,0.0
0.23382575809955597,-0.36453357338905334,9.778684616088867,0.0016386436689115682,0.00577953862237897,0.0029602936659547966,1.4950098991394043,2019-06-20 16:03:00:085,0.0,0.0,0.0
0.2529837489128113,-0.39087584614753723,9.778684616088867,0.0023045963578474673,0.006978253436456156,-0.0014349951993417342,1.4991159439086914,2019-06-20 16:03:00:090,0.0,0.0,0.0
0.24819424748420715,-0.36932307481765747,9.709237098693848,0.0007063095923121196,0.005912728926099258,0.0022943408469817354,1.5050115585327148,2019-06-20 16:03:00:095,0.0,0.0,0.0
0.2505890130996704,-0.36932307481765747,9.740368843078613,0.0057675512765817125,0.004447632984432848,0.003226674793544021,1.5091204643249512,2019-06-20 16:03:00:100,0.0,0.0,0.0
0.22903625667095184,-0.36932307481765747,9.704447746276855,0.007232647738396772,0.0019170118822237267,0.0028271031021601845,1.5141243934631348,2019-06-20 16:03:00:105,0.0,0.0,0.0
0.24101001024246216,-0.39087584614753723,9.737974166870117,0.0019050247965007928,0.0004519156154644102,0.0008292445152038374,1.5201635360717773,2019-06-20 16:03:00:111,0.0,0.0,0.0
0.22664150595664978,-0.36453357338905334,9.740368843078613,-0.001557930122233452,0.00484720441574236,0.0009624350789984497,1.5241422653198242,2019-06-20 16:03:00:115,0.0,0.0,0.0
0.20029926300048828,-0.388481080532074,9.716421127319336,0.0003067379009282828,0.002716155395028563,-0.000902232944163285,1.5291166305541992,2019-06-20 16:03:00:120,0.0,0.0,0.0
0.17874650657176971,-0.388481080532074,9.718815803527832,0.003103740000689466,0.006711872308866931,-0.0013018046355471218,1.534123420715332,2019-06-20 16:03:00:125,0.0,0.0,0.0
0.20987825095653534,-0.3669283390045166,9.757132530212402,0.0020382153602954054,-0.0003472278323218449,-0.0023673291459040203,1.5400266647338867,2019-06-20 16:03:00:130,0.0,0.0,0.0
0.20748351514339447,-0.3741125762462616,9.728395462036133,-0.0016911206860280642,0.004580823288153135,0.004159008740106307,1.5441198348999023,2019-06-20 16:03:00:135,0.0,0.0,0.0
0.2386152595281601,-0.388481080532074,9.745158195495605,-0.0018243112498226766,0.0021833931398501137,-0.0005026612202701574,1.549119472503662,2019-06-20 16:03:00:140,0.0,0.0,0.0
0.1859307587146759,-0.39087584614753723,9.716421127319336,0.0012390718474905686,0.002849345958823175,0.006423248584689041,1.55501127243042,2019-06-20 16:03:00:145,0.0,0.0,0.0
0.23622050881385803,-0.36932307481765747,9.663737297058105,0.003103740000689466,0.0025829648312339507,-0.0017013763269309588,1.5591259002685547,2019-06-20 16:03:00:150,0.0,0.0,0.0
0.17635175585746765,-0.40284958481788635,9.75234317779541,0.005101598717682976,0.008043777946813054,0.005224533250463206,1.5641250610351562,2019-06-20 16:03:00:155,0.0,0.0,0.0
0.21466775238513947,-0.36932307481765747,9.749947547912598,0.0025709774854366916,0.0064454911812777075,-0.0013018046355471218,1.5700297355651855,2019-06-20 16:03:00:160,0.0,0.0,0.0
0.20029926300048828,-0.36932307481765747,9.71402645111084,0.0048352170699451,0.0009846778706428594,0.0005628633876146128,1.5750007629394531,2019-06-20 16:03:00:165,0.0,0.0,0.0
0.1931150108575821,-0.3405860960483551,9.759527206420898,0.0007063095923121196,0.005513157494789746,0.0005628633876146128,1.5791120529174805,2019-06-20 16:03:00:170,0.0,0.0,0.0
0.19550976157188416,-0.335796594619751,9.72360610961914,-0.0032894075816005744,0.002316583703644726,-0.004231997299102917,1.5851097106933594,2019-06-20 16:03:00:176,0.0,0.0,0.0
0.24101001024246216,-0.42200759053230286,9.783474922180176,0.0011058812836959564,0.007111444260325094,0.0005628633876146128,1.5900135040283203,2019-06-20 16:03:00:180,0.0,0.0,0.0
0.2314310073852539,-0.3741125762462616,9.785869598388672,-0.00448812291582641,0.00577953862237897,-0.004631568990486754,1.5941200256347656,2019-06-20 16:03:00:185,0.0,0.0,0.0
0.19550976157188416,-0.3334018290042877,9.745158195495605,0.002970549436894854,0.0032489176502070124,0.0021611501531499603,1.5991172790527344,2019-06-20 16:03:00:190,0.0,0.0,0.0
0.19790451228618622,-0.39087584614753723,9.781079292297363,0.0024377869216420794,0.003781679905385461,-0.0011686140717525096,1.6041269302368164,2019-06-20 16:03:00:195,0.0,0.0,0.0
0.21706250309944153,-0.3262175917625427,9.800237655639648,0.003636502255867915,0.0041812515967692985,0.0009624350789984497,1.6100082397460938,2019-06-20 16:03:00:200,0.0,0.0,0.0
0.2194572538137436,-0.3669283390045166,9.807421684265137,-0.0014247395584388394,0.007511015691634605,0.001095625642793062,1.6141448020935059,2019-06-20 16:03:00:205,0.0,0.0,0.0
0.2314310073852539,-0.3597441017627716,9.72360610961914,-0.001557930122233452,0.00031872505166979784,-0.0048979501180759786,1.6200199127197266,2019-06-20 16:03:00:210,0.0,0.0,0.0
0.22185200452804565,-0.335796594619751,9.814606666564941,0.0005731190285175073,0.0017838213184291141,-0.0036992350439244686,1.6241178512573242,2019-06-20 16:03:00:215,0.0,0.0,0.0
0.20987825095653534,-0.3741125762462616,9.735579490661621,0.0003067379009282828,0.0012510590632506652,3.010106944941304e-05,1.6291685104370117,2019-06-20 16:03:00:220,0.0,0.0,0.0
0.24340476095676422,-0.3597441017627716,9.699658393859863,-0.00448812291582641,0.003781679905385461,-0.004231997299102917,1.6341371536254883,2019-06-20 16:03:00:225,0.0,0.0,0.0
0.24340476095676422,-0.381296843290329,9.771500587463379,0.0015054529750797934,0.001650630754634502,-0.00010308950450435256,1.640000343322754,2019-06-20 16:03:00:230,0.0,0.0,0.0
0.22185200452804565,-0.39087584614753723,9.759527206420898,-0.0007587866744471969,0.002849345958823175,0.0013620067703822866,1.6441259384155273,2019-06-20 16:03:00:235,0.0,0.0,0.0
0.2314310073852539,-0.34537559747695923,9.749947547912598,0.001372262411285181,0.0024497742674393385,-0.001834566890725571,1.6500120162963867,2019-06-20 16:03:00:240,0.0,0.0,0.0
0.20029926300048828,-0.3741125762462616,9.76431655883789,-0.0026234547626275127,0.0021833931398501137,-0.0030332819648770815,1.6541223526000977,2019-06-20 16:03:00:245,0.0,0.0,0.0
0.20029926300048828,-0.3741125762462616,9.733184814453125,-0.001557930122233452,0.0035152987777962367,-0.0019677574545201833,1.6600375175476074,2019-06-20 16:03:00:251,0.0,0.0,0.0
0.21466775238513947,-0.4196128249168396,9.747552871704102,-0.00035921498306336,0.0007182967430536347,-0.0036992350439244686,1.664144515991211,2019-06-20 16:03:00:255,0.0,0.0,0.0
0.20748351514339447,-0.35734933614730835,9.737974166870117,0.0024377869216420794,0.003781679905385461,-0.0015681857631363464,1.6700019836425781,2019-06-20 16:03:00:260,0.0,0.0,0.0
0.2050887644290924,-0.37650734186172485,9.749947547912598,0.0035033116920733026,0.002050202446018339,-0.000902232944163285,1.6741251945495605,2019-06-20 16:03:00:265,0.0,0.0,0.0
0.19550976157188416,-0.3525598347187042,9.747552871704102,0.0053679798452722005,0.0029825365226177876,-0.0025005197096986324,1.6800365447998047,2019-06-20 16:03:00:271,0.0,0.0,0.0
0.24101001024246216,-0.3525598347187042,9.74276351928711,-0.0006255961106525846,0.0017838213184291141,-0.00010308950450435256,1.6841225624084473,2019-06-20 16:03:00:275,0.0,0.0,0.0
0.17635175585746765,-0.388481080532074,9.709237098693848,0.001372262411285181,0.005246776367200522,-0.0017013763269309588,1.6900043487548828,2019-06-20 16:03:00:280,0.0,0.0,0.0
0.2577732503414154,-0.3477703332901001,9.766711235046387,0.003103740000689466,0.006711872308866931,0.002693912538365572,1.6941251754760742,2019-06-20 16:03:00:285,0.0,0.0,0.0
0.2529837489128113,-0.3549546003341675,9.76431655883789,0.00043992846472289506,0.0024497742674393385,-0.00010308950450435256,1.699124813079834,2019-06-20 16:03:00:290,0.0,0.0,0.0
0.19790451228618622,-0.36453357338905334,9.690079689025879,0.00043992846472289506,0.0041812515967692985,-0.00036947065647554515,1.7050018310546875,2019-06-20 16:03:00:295,0.0,0.0,0.0
0.2122730016708374,-0.33819133043289185,9.797842979431152,0.003370121128278691,0.006179110053688482,-0.00036947065647554515,1.710036277770996,2019-06-20 16:03:00:301,0.0,0.0,0.0
0.26016801595687866,-0.3094543516635895,9.76431655883789,0.004169264511046364,0.0013842496270452774,0.0006960539514092252,1.714125633239746,2019-06-20 16:03:00:305,0.0,0.0,0.0
0.22903625667095184,-0.36932307481765747,9.759527206420898,0.0048352170699451,0.004447632984432848,-0.0010354235079578973,1.7191190719604492,2019-06-20 16:03:00:310,0.0,0.0,0.0
0.23382575809955597,-0.3717178404331207,9.797842979431152,-0.0032894075816005744,0.006578682005146645,-0.0031664725286716937,1.724135398864746,2019-06-20 16:03:00:315,0.0,0.0,0.0
0.2457994967699051,-0.35016509890556335,9.76431655883789,0.0008395001561067318,0.0021833931398501137,0.0005628633876146128,1.7300148010253906,2019-06-20 16:03:00:320,0.0,0.0,0.0
0.24819424748420715,-0.41003382205963135,9.699658393859863,0.0019050247965007928,0.0041812515967692985,-0.0034328539163352434,1.73500394821167,2019-06-20 16:03:00:325,0.0,0.0,0.0
0.21466775238513947,-0.4148233234882355,9.771500587463379,-0.00022602440301410239,0.002050202446018339,-0.0025005197096986324,1.7391176223754883,2019-06-20 16:03:00:330,0.0,0.0,0.0
0.24340476095676422,-0.3741125762462616,9.757132530212402,0.0024377869216420794,0.0025829648312339507,0.0013620067703822866,1.745016098022461,2019-06-20 16:03:00:335,0.0,0.0,0.0
0.24101001024246216,-0.33819133043289185,9.658947944641113,0.004702026766224813,0.0024497742674393385,0.0006960539514092252,1.7491211891174316,2019-06-20 16:03:00:340,0.0,0.0,0.0
0.2505890130996704,-0.33100709319114685,9.737974166870117,-0.00022602440301410239,0.002716155395028563,0.003226674793544021,1.7541627883911133,2019-06-20 16:03:00:345,0.0,0.0,0.0
0.29369449615478516,-0.37650734186172485,9.785869598388672,0.004435645638635589,0.00031872505166979784,-0.0013018046355471218,1.7600183486938477,2019-06-20 16:03:00:350,0.0,0.0,0.0
0.19550976157188416,-0.3669283390045166,9.778684616088867,-9.283383109216743e-05,0.001650630754634502,0.0006960539514092252,1.7650070190429688,2019-06-20 16:03:00:355,0.0,0.0,0.0
0.2386152595281601,-0.3621388375759125,9.769105911254883,0.0011058812836959564,0.002716155395028563,0.002693912538365572,1.769237995147705,2019-06-20 16:03:00:360,0.0,0.0,0.0
0.22664150595664978,-0.3621388375759125,9.757132530212402,0.002970549436894854,0.0019170118822237267,0.0013620067703822866,1.7741446495056152,2019-06-20 16:03:00:365,0.0,0.0,0.0
0.22185200452804565,-0.35734933614730835,9.761921882629395,0.0017718342327061804,0.002050202446018339,0.00042967279131070986,1.7791180610656738,2019-06-20 16:03:00:370,0.0,0.0,0.0
0.20748351514339447,-0.4076390862464905,9.759527206420898,0.004435645638635589,0.0011178684994560528,0.0022943408469817354,1.7850151062011719,2019-06-20 16:03:00:375,0.0,0.0,0.0
0.2386152595281601,-0.381296843290329,9.757132530212402,0.0003067379009282828,0.005246776367200522,0.0006960539514092252,1.7891216278076172,2019-06-20 16:03:00:380,0.0,0.0,0.0
0.2577732503414154,-0.388481080532074,9.754737854003906,0.0007063095923121196,0.004580823288153135,0.004691770995284756,1.7941226959228516,2019-06-20 16:03:00:385,0.0,0.0,0.0
0.2577732503414154,-0.3597441017627716,9.718815803527832,4.035674489342885e-05,0.002050202446018339,0.0008292445152038374,1.8000001907348633,2019-06-20 16:03:00:390,0.0,0.0,0.0
0.21466775238513947,-0.3669283390045166,9.728395462036133,0.0023045963578474673,0.00631230087755742,0.0029602936659547966,1.8050293922424316,2019-06-20 16:03:00:395,0.0,0.0,0.0
0.23382575809955597,-0.37650734186172485,9.781079292297363,0.0015054529750797934,0.004447632984432848,0.0018947690255607357,1.8091144561767578,2019-06-20 16:03:00:400,0.0,0.0,0.0
0.21706250309944153,-0.34298083186149597,9.75234317779541,0.003636502255867915,0.002316583703644726,0.0008292445152038374,1.8150148391723633,2019-06-20 16:03:00:405,0.0,0.0,0.0
0.22664150595664978,-0.38369157910346985,9.687684059143066,-0.0010251678020364214,-0.0026114674168302536,-0.00036947065647554515,1.8191533088684082,2019-06-20 16:03:00:410,0.0,0.0,0.0
0.20987825095653534,-0.3717178404331207,9.776289939880371,0.0043024550748409765,-8.084668035065233e-05,-0.00023628007642628753,1.8241395950317383,2019-06-20 16:03:00:415,0.0,0.0,0.0
0.18353600800037384,-0.4244023263454437,9.749947547912598,0.0057675512765817125,-0.0003472278323218449,0.004425389867695532,1.829996109008789,2019-06-20 16:03:00:420,0.0,0.0,0.0
0.2194572538137436,-0.3932705819606781,9.709237098693848,-0.0004924055468579722,0.0019170118822237267,0.001628387897971511,1.834123134613037,2019-06-20 16:03:00:425,0.0,0.0,0.0
0.21466775238513947,-0.37650734186172485,9.716421127319336,0.002970549436894854,0.0036484893415908493,-0.0023673291459040203,1.8391332626342773,2019-06-20 16:03:00:430,0.0,0.0,0.0
0.22185200452804565,-0.3932705819606781,9.721211433410645,4.035674489342885e-05,0.0019170118822237267,0.0008292445152038374,1.8450064659118652,2019-06-20 16:03:00:435,0.0,0.0,0.0
0.20269401371479034,-0.3741125762462616,9.72360610961914,0.004435645638635589,0.0009846778706428594,-0.0015681857631363464,1.8491201400756836,2019-06-20 16:03:00:440,0.0,0.0,0.0
0.22185200452804565,-0.4004548192024231,9.72360610961914,0.0019050247965007928,0.005113585543331584,0.00042967279131070986,1.854135513305664,2019-06-20 16:03:00:445,0.0,0.0,0.0
0.22664150595664978,-0.3741125762462616,9.728395462036133,0.0003067379009282828,0.004980395239611297,0.004159008740106307,1.8600034713745117,2019-06-20 16:03:00:450,0.0,0.0,0.0
0.19550976157188416,-0.3549546003341675,9.771500587463379,0.0005731190285175073,0.0025829648312339507,-0.0030332819648770815,1.8641753196716309,2019-06-20 16:03:00:455,0.0,0.0,0.0
0.20029926300048828,-0.3717178404331207,9.757132530212402,0.004169264511046364,0.0029825365226177876,0.0014951973341768988,1.8700189590454102,2019-06-20 16:03:00:460,0.0,0.0,0.0
0.2505890130996704,-0.4004548192024231,9.785869598388672,-0.0016911206860280642,0.005379966670920808,0.003226674793544021,1.874119758605957,2019-06-20 16:03:00:465,0.0,0.0,0.0
0.22185200452804565,-0.3477703332901001,9.726000785827637,-0.0004924055468579722,0.006711872308866931,-0.004098806735308305,1.879115104675293,2019-06-20 16:03:00:470,0.0,0.0,0.0
0.18832550942897797,-0.37650734186172485,9.759527206420898,-0.0016911206860280642,0.0015174401908398898,-0.0010354235079578973,1.8850150108337402,2019-06-20 16:03:00:475,0.0,0.0,0.0
0.20748351514339447,-0.36932307481765747,9.745158195495605,0.002970549436894854,0.0031157270864124,-0.0019677574545201833,1.8891220092773438,2019-06-20 16:03:00:480,0.0,0.0,0.0
0.20029926300048828,-0.3789020776748657,9.773895263671875,-0.002756645326422125,0.0021833931398501137,-0.0011686140717525096,1.8951611518859863,2019-06-20 16:03:00:486,0.0,0.0,0.0
0.28651025891304016,-0.381296843290329,9.726000785827637,0.00017354732087902514,0.000851487306848247,-0.002234138582109408,1.8991451263427734,2019-06-20 16:03:00:490,0.0,0.0,0.0
0.23382575809955597,-0.36932307481765747,9.745158195495605,0.0043024550748409765,0.00777739681922383,-0.0075617613939682245,1.9050073623657227,2019-06-20 16:03:00:495,0.0,0.0,0.0
0.2050887644290924,-0.4052443206310272,9.730790138244629,-0.001557930122233452,-0.000879990087500294,0.0002964822275160976,1.9091143608093262,2019-06-20 16:03:00:500,0.0,0.0,0.0
0.23382575809955597,-0.36932307481765747,9.704447746276855,-0.0008919772382418092,0.003914870469180074,-0.0006358518165740604,1.915018081665039,2019-06-20 16:03:00:505,0.0,0.0,0.0
0.22185200452804565,-0.3980600833892822,9.737974166870117,0.0024377869216420794,0.006179110053688482,-0.00010308950450435256,1.9191269874572754,2019-06-20 16:03:00:510,0.0,0.0,0.0
0.26016801595687866,-0.41003382205963135,9.735579490661621,-0.002889835890216737,0.007377825387914319,-0.004098806735308305,1.9241247177124023,2019-06-20 16:03:00:515,0.0,0.0,0.0
0.21466775238513947,-0.3621388375759125,9.692474365234375,-0.0016911206860280642,0.005646347798510033,0.0006960539514092252,1.929117202758789,2019-06-20 16:03:00:520,0.0,0.0,0.0
0.24340476095676422,-0.41003382205963135,9.74276351928711,-0.00035921498306336,0.0032489176502070124,-0.0019677574545201833,1.934126853942871,2019-06-20 16:03:00:525,0.0,0.0,0.0
0.2314310073852539,-0.36932307481765747,9.735579490661621,0.0012390718474905686,0.0031157270864124,-0.0027669008372878568,1.9400081634521484,2019-06-20 16:03:00:530,0.0,0.0,0.0
0.2529837489128113,-0.35734933614730835,9.788264274597168,-0.0008919772382418092,0.005379966670920808,-0.0011686140717525096,1.9441461563110352,2019-06-20 16:03:00:535,0.0,0.0,0.0
0.22903625667095184,-0.388481080532074,9.766711235046387,0.00017354732087902514,0.0031157270864124,-0.0014349951993417342,1.950005054473877,2019-06-20 16:03:00:540,0.0,0.0,0.0
0.23382575809955597,-0.3717178404331207,9.778684616088867,0.0021714059240900176,0.0035152987777962367,-0.00036947065647554515,1.9541244506835938,2019-06-20 16:03:00:545,0.0,0.0,0.0
0.2505890130996704,-0.3932705819606781,9.75234317779541,-0.00022602440301410239,0.0035152987777962367,0.0022943408469817354,1.9600114822387695,2019-06-20 16:03:00:550,0.0,0.0,0.0
0.2505890130996704,-0.3717178404331207,9.721211433410645,-0.00035921498306336,0.003781679905385461,-0.0021009480183147955,1.9650111198425293,2019-06-20 16:03:00:555,0.0,0.0,0.0
0.20748351514339447,-0.4124285876750946,9.759527206420898,-0.003156217017805962,0.002849345958823175,-0.0010354235079578973,1.9691224098205566,2019-06-20 16:03:00:560,0.0,0.0,0.0
0.22424675524234772,-0.37650734186172485,9.733184814453125,0.00043992846472289506,0.000851487306848247,-0.00010308950450435256,1.9750118255615234,2019-06-20 16:03:00:565,0.0,0.0,0.0
0.2457994967699051,-0.37650734186172485,9.716421127319336,-0.0004924055468579722,0.0012510590632506652,0.0013620067703822866,1.9791131019592285,2019-06-20 16:03:00:570,0.0,0.0,0.0
0.25537851452827454,-0.39087584614753723,9.773895263671875,0.0025709774854366916,0.0021833931398501137,0.001095625642793062,1.9850144386291504,2019-06-20 16:03:00:575,0.0,0.0,0.0
0.23382575809955597,-0.381296843290329,9.776289939880371,0.0007063095923121196,0.003382108214001624,0.0006960539514092252,1.9891672134399414,2019-06-20 16:03:00:580,0.0,0.0,0.0
0.22185200452804565,-0.3932705819606781,9.79305362701416,0.0015054529750797934,0.0021833931398501137,-0.0007690423803686727,1.9941387176513672,2019-06-20 16:03:00:585,0.0,0.0,0.0
0.2529837489128113,-0.3789020776748657,9.75234317779541,0.0009726907199013442,0.0007182967430536347,0.001095625642793062,2.000001907348633,2019-06-20 16:03:00:590,0.0,0.0,0.0
0.2697469890117645,-0.3717178404331207,9.75234317779541,4.035674489342885e-05,0.00484720441574236,-0.000902232944163285,2.0041213035583496,2019-06-20 16:03:00:595,0.0,0.0,0.0
0.1859307587146759,-0.3860863447189331,9.74276351928711,-0.0016911206860280642,0.0041812515967692985,0.00016329164746684,2.010012149810791,2019-06-20 16:03:00:600,0.0,0.0,0.0
0.24101001024246216,-0.39087584614753723,9.757132530212402,0.0017718342327061804,0.0041812515967692985,-0.00023628007642628753,2.015009880065918,2019-06-20 16:03:00:605,0.0,0.0,0.0
0.18114125728607178,-0.3932705819606781,9.690079689025879,-0.002223883071243676,0.004447632984432848,-0.0007690423803686727,2.019392967224121,2019-06-20 16:03:00:610,0.0,0.0,0.0
0.24101001024246216,-0.37650734186172485,9.730790138244629,0.0008395001561067318,0.0031157270864124,0.0008292445152038374,2.02414608001709,2019-06-20 16:03:00:615,0.0,0.0,0.0
0.2194572538137436,-0.41003382205963135,9.670921325683594,0.004036073947251752,0.003382108214001624,0.004025818176311695,2.0291194915771484,2019-06-20 16:03:00:620,0.0,0.0,0.0
0.19072026014328003,-0.3477703332901001,9.773895263671875,0.00043992846472289506,0.00431444216056391,-0.0006358518165740604,2.0350446701049805,2019-06-20 16:03:00:626,0.0,0.0,0.0
0.22903625667095184,-0.3549546003341675,9.740368843078613,-0.002756645326422125,0.002316583703644726,-0.0011686140717525096,2.03914737701416,2019-06-20 16:03:00:630,0.0,0.0,0.0
0.21706250309944153,-0.3980600833892822,9.778684616088867,-0.0010251678020364214,0.0019170118822237267,-0.001834566890725571,2.0441222190856934,2019-06-20 16:03:00:635,0.0,0.0,0.0
0.20029926300048828,-0.3717178404331207,9.726000785827637,0.0021714059240900176,0.0064454911812777075,-0.0017013763269309588,2.0491161346435547,2019-06-20 16:03:00:640,0.0,0.0,0.0
0.2122730016708374,-0.39087584614753723,9.754737854003906,0.0021714059240900176,0.0031157270864124,0.001628387897971511,2.055016040802002,2019-06-20 16:03:00:645,0.0,0.0,0.0
0.1739570051431656,-0.3741125762462616,9.692474365234375,-0.0004924055468579722,0.003382108214001624,-0.0030332819648770815,2.059123992919922,2019-06-20 16:03:00:650,0.0,0.0,0.0
0.22424675524234772,-0.3525598347187042,9.730790138244629,0.0028373588731002413,0.004048061032974686,-0.00036947065647554515,2.064138889312744,2019-06-20 16:03:00:655,0.0,0.0,0.0
0.22424675524234772,-0.3525598347187042,9.726000785827637,0.0024377869216420794,0.005246776367200522,0.0024275314107763475,2.070035457611084,2019-06-20 16:03:00:661,0.0,0.0,0.0
0.20987825095653534,-0.39087584614753723,9.709237098693848,0.0023045963578474673,0.002849345958823175,0.0014951973341768988,2.074117660522461,2019-06-20 16:03:00:665,0.0,0.0,0.0
0.20029926300048828,-0.36453357338905334,9.735579490661621,0.0007063095923121196,0.0032489176502070124,0.003226674793544021,2.079998016357422,2019-06-20 16:03:00:670,0.0,0.0,0.0
0.17156226933002472,-0.37650734186172485,9.72360610961914,0.0019050247965007928,0.004580823288153135,0.0025607219745709597,2.0850467681884766,2019-06-20 16:03:00:676,0.0,0.0,0.0
0.19550976157188416,-0.3980600833892822,9.76431655883789,-0.0012915489946442272,0.007244634564045381,-0.0021009480183147955,2.0891246795654297,2019-06-20 16:03:00:680,0.0,0.0,0.0
0.18114125728607178,-0.3549546003341675,9.76431655883789,0.0021714059240900176,0.002716155395028563,-0.0019677574545201833,2.095008373260498,2019-06-20 16:03:00:685,0.0,0.0,0.0
0.2194572538137436,-0.4124285876750946,9.737974166870117,0.0043024550748409765,0.003914870469180074,0.0008292445152038374,2.0991153717041016,2019-06-20 16:03:00:690,0.0,0.0,0.0
0.19072026014328003,-0.36932307481765747,9.76431655883789,0.0016386436689115682,0.001650630754634502,3.010106944941304e-05,2.1041336059570312,2019-06-20 16:03:00:695,0.0,0.0,0.0
0.18832550942897797,-0.3621388375759125,9.790658950805664,0.0032369305644840782,0.0021833931398501137,-0.0005026612202701574,2.110011100769043,2019-06-20 16:03:00:700,0.0,0.0,0.0
0.22664150595664978,-0.3932705819606781,9.759527206420898,0.0028373588731002413,0.0025829648312339507,-0.0023673291459040203,2.114151954650879,2019-06-20 16:03:00:705,0.0,0.0,0.0
0.2194572538137436,-0.35734933614730835,9.75234317779541,0.0048352170699451,0.00431444216056391,0.0022943408469817354,2.1200156211853027,2019-06-20 16:03:00:710,0.0,0.0,0.0
0.22424675524234772,-0.381296843290329,9.771500587463379,-0.002223883071243676,0.0041812515967692985,-0.00023628007642628753,2.124126434326172,2019-06-20 16:03:00:715,0.0,0.0,0.0
0.22664150595664978,-0.35734933614730835,9.730790138244629,0.002970549436894854,0.004714014112022072,-0.002234138582109408,2.1301469802856445,2019-06-20 16:03:00:721,0.0,0.0,0.0
0.23622050881385803,-0.3262175917625427,9.773895263671875,-0.0008919772382418092,0.0025829648312339507,-0.003566044480129856,2.134124279022217,2019-06-20 16:03:00:725,0.0,0.0,0.0
0.24340476095676422,-0.36932307481765747,9.726000785827637,0.007499028865985997,0.005646347798510033,0.001095625642793062,2.140005111694336,2019-06-20 16:03:00:730,0.0,0.0,0.0
0.22185200452804565,-0.3741125762462616,9.749947547912598,4.035674489342885e-05,0.005646347798510033,0.001095625642793062,2.1441335678100586,2019-06-20 16:03:00:735,0.0,0.0,0.0
0.22903625667095184,-0.3669283390045166,9.70205307006836,0.0039028833834571395,0.005646347798510033,0.0038926276125170823,2.1500096321105957,2019-06-20 16:03:00:740,0.0,0.0,0.0
0.2386152595281601,-0.3932705819606781,9.757132530212402,0.00043992846472289506,0.001650630754634502,0.004691770995284756,2.154118061065674,2019-06-20 16:03:00:745,0.0,0.0,0.0
0.24340476095676422,-0.3669283390045166,9.728395462036133,0.0027041680492313038,0.0036484893415908493,-0.00036947065647554515,2.159115791320801,2019-06-20 16:03:00:750,0.0,0.0,0.0
0.22424675524234772,-0.3789020776748657,9.718815803527832,0.0053679798452722005,0.006179110053688482,0.005357724074332143,2.164155960083008,2019-06-20 16:03:00:755,0.0,0.0,0.0
0.26016801595687866,-0.39566534757614136,9.72360610961914,0.003636502255867915,0.002050202446018339,0.0014951973341768988,2.17000150680542,2019-06-20 16:03:00:760,0.0,0.0,0.0
0.23382575809955597,-0.3525598347187042,9.75234317779541,0.004169264511046364,0.0011178684994560528,0.0012288162065876742,2.174126625061035,2019-06-20 16:03:00:765,0.0,0.0,0.0
0.24340476095676422,-0.37650734186172485,9.697263717651367,0.0019050247965007928,-8.084668035065233e-05,0.0028271031021601845,2.180034637451172,2019-06-20 16:03:00:770,0.0,0.0,0.0
0.2505890130996704,-0.3477703332901001,9.773895263671875,-0.0030230264540113496,0.003914870469180074,-0.00023628007642628753,2.184123992919922,2019-06-20 16:03:00:775,0.0,0.0,0.0
0.23382575809955597,-0.381296843290329,9.771500587463379,-0.001957501813617289,0.003781679905385461,0.004824961819153694,2.1899991035461426,2019-06-20 16:03:00:780,0.0,0.0,0.0
0.22903625667095184,-0.38369157910346985,9.790658950805664,-0.001158358430849615,0.004447632984432848,0.0018947690255607357,2.194124221801758,2019-06-20 16:03:00:785,0.0,0.0,0.0
0.2314310073852539,-0.4124285876750946,9.759527206420898,-0.0010251678020364214,0.003781679905385461,0.0005628633876146128,2.1991233825683594,2019-06-20 16:03:00:790,0.0,0.0,0.0
0.24340476095676422,-0.3860863447189331,9.721211433410645,0.005234789021403263,-0.00021403725227258724,0.002027959589355348,2.2041330337524414,2019-06-20 16:03:00:795,0.0,0.0,0.0
0.22424675524234772,-0.38369157910346985,9.718815803527832,0.005634360972861425,0.004580823288153135,0.001628387897971511,2.210012435913086,2019-06-20 16:03:00:800,0.0,0.0,0.0
0.24340476095676422,-0.3549546003341675,9.733184814453125,0.0021714059240900176,0.005646347798510033,0.0014951973341768988,2.214125633239746,2019-06-20 16:03:00:805,0.0,0.0,0.0
0.23382575809955597,-0.3717178404331207,9.699658393859863,0.0032369305644840782,0.00031872505166979784,0.0012288162065876742,2.219998359680176,2019-06-20 16:03:00:810,0.0,0.0,0.0
0.22185200452804565,-0.34298083186149597,9.74276351928711,0.005501170148992487,0.003781679905385461,0.0033598653573386336,2.224163055419922,2019-06-20 16:03:00:815,0.0,0.0,0.0
0.22185200452804565,-0.36932307481765747,9.74276351928711,-0.003156217017805962,0.004980395239611297,0.0008292445152038374,2.2291364669799805,2019-06-20 16:03:00:820,0.0,0.0,0.0
0.24101001024246216,-0.3621388375759125,9.840948104858398,0.004036073947251752,0.002050202446018339,-0.0005026612202701574,2.2350053787231445,2019-06-20 16:03:00:825,0.0,0.0,0.0
0.25537851452827454,-0.33819133043289185,9.776289939880371,0.0009726907199013442,0.00431444216056391,0.005224533250463206,2.2391157150268555,2019-06-20 16:03:00:830,0.0,0.0,0.0
0.20987825095653534,-0.3860863447189331,9.790658950805664,-0.0008919772382418092,0.0021833931398501137,-0.0030332819648770815,2.2450122833251953,2019-06-20 16:03:00:835,0.0,0.0,0.0
0.23622050881385803,-0.3621388375759125,9.807421684265137,0.0024377869216420794,0.0024497742674393385,0.003626246484927858,2.2500109672546387,2019-06-20 16:03:00:840,0.0,0.0,0.0
0.20748351514339447,-0.3932705819606781,9.771500587463379,0.0035033116920733026,0.0017838213184291141,0.0009624350789984497,2.255032539367676,2019-06-20 16:03:00:845,0.0,0.0,0.0
0.23382575809955597,-0.3717178404331207,9.74276351928711,-0.0024902641988329005,0.0019170118822237267,0.0009624350789984497,2.2591376304626465,2019-06-20 16:03:00:850,0.0,0.0,0.0
0.23622050881385803,-0.36453357338905334,9.766711235046387,0.0009726907199013442,0.0007182967430536347,-0.0036992350439244686,2.2650303840637207,2019-06-20 16:03:00:855,0.0,0.0,0.0
0.2505890130996704,-0.3549546003341675,9.730790138244629,0.0039028833834571395,0.0029825365226177876,0.004691770995284756,2.2693653106689453,2019-06-20 16:03:00:860,0.0,0.0,0.0
0.2050887644290924,-0.36453357338905334,9.733184814453125,0.0003067379009282828,0.004048061032974686,-0.0013018046355471218,2.274142265319824,2019-06-20 16:03:00:865,0.0,0.0,0.0
0.23382575809955597,-0.3525598347187042,9.807421684265137,0.0011058812836959564,0.0009846778706428594,-0.000902232944163285,2.280000686645508,2019-06-20 16:03:00:870,0.0,0.0,0.0
0.2386152595281601,-0.4052443206310272,9.71402645111084,-0.0014247395584388394,0.0031157270864124,-0.001834566890725571,2.2841243743896484,2019-06-20 16:03:00:875,0.0,0.0,0.0
0.21466775238513947,-0.3621388375759125,9.74276351928711,0.0024377869216420794,0.005646347798510033,0.00695601083986749,2.2891225814819336,2019-06-20 16:03:00:880,0.0,0.0,0.0
0.22664150595664978,-0.3717178404331207,9.754737854003906,0.0011058812836959564,5.234389563494396e-05,-0.0031664725286716937,2.2950077056884766,2019-06-20 16:03:00:885,0.0,0.0,0.0
0.21706250309944153,-0.3860863447189331,9.678105354309082,-0.0010251678020364214,0.007377825387914319,0.0014951973341768988,2.299118995666504,2019-06-20 16:03:00:890,0.0,0.0,0.0
0.2505890130996704,-0.35734933614730835,9.726000785827637,0.0021714059240900176,0.0021833931398501137,0.0012288162065876742,2.304133415222168,2019-06-20 16:03:00:895,0.0,0.0,0.0
0.20269401371479034,-0.36453357338905334,9.749947547912598,0.0039028833834571395,0.0029825365226177876,0.0002964822275160976,2.309122085571289,2019-06-20 16:03:00:900,0.0,0.0,0.0
0.21466775238513947,-0.39566534757614136,9.726000785827637,0.0016386436689115682,0.0017838213184291141,0.00016329164746684,2.315016269683838,2019-06-20 16:03:00:905,0.0,0.0,0.0
0.2050887644290924,-0.38369157910346985,9.749947547912598,0.0012390718474905686,0.002050202446018339,0.0022943408469817354,2.320037841796875,2019-06-20 16:03:00:911,0.0,0.0,0.0
0.20269401371479034,-0.35016509890556335,9.75234317779541,0.0009726907199013442,0.00631230087755742,0.00042967279131070986,2.324118137359619,2019-06-20 16:03:00:915,0.0,0.0,0.0
0.1739570051431656,-0.36453357338905334,9.692474365234375,-0.0008919772382418092,0.008842921329580727,0.0008292445152038374,2.3299946784973145,2019-06-20 16:03:00:920,0.0,0.0,0.0
0.2386152595281601,-0.3477703332901001,9.773895263671875,0.0003067379009282828,0.005246776367200522,0.004025818176311695,2.335010528564453,2019-06-20 16:03:00:925,0.0,0.0,0.0
0.20029926300048828,-0.4076390862464905,9.697263717651367,0.001372262411285181,0.003382108214001624,-0.005031140421796266,2.339122772216797,2019-06-20 16:03:00:930,0.0,0.0,0.0
0.22185200452804565,-0.4052443206310272,9.769105911254883,0.00017354732087902514,0.0019170118822237267,-0.003566044480129856,2.3441219329833984,2019-06-20 16:03:00:935,0.0,0.0,0.0
0.22903625667095184,-0.37650734186172485,9.706842422485352,0.003103740000689466,0.0021833931398501137,-0.00010308950450435256,2.3499975204467773,2019-06-20 16:03:00:940,0.0,0.0,0.0
0.19072026014328003,-0.3717178404331207,9.766711235046387,-0.003156217017805962,0.0060459197499681955,0.0002964822275160976,2.3541250228881836,2019-06-20 16:03:00:945,0.0,0.0,0.0
0.2457994967699051,-0.3669283390045166,9.781079292297363,0.0027041680492313038,0.005513157494789746,-0.005164331245665204,2.360006809234619,2019-06-20 16:03:00:950,0.0,0.0,0.0
0.19550976157188416,-0.3549546003341675,9.76431655883789,0.0012390718474905686,0.005912728926099258,-0.00036947065647554515,2.365041732788086,2019-06-20 16:03:00:956,0.0,0.0,0.0
0.2194572538137436,-0.4052443206310272,9.75234317779541,-0.0004924055468579722,0.004048061032974686,-0.000902232944163285,2.369133949279785,2019-06-20 16:03:00:960,0.0,0.0,0.0
0.22664150595664978,-0.38369157910346985,9.781079292297363,0.0012390718474905686,0.0064454911812777075,-0.001834566890725571,2.3741211891174316,2019-06-20 16:03:00:965,0.0,0.0,0.0
0.2122730016708374,-0.3669283390045166,9.75234317779541,0.0005731190285175073,0.005379966670920808,-0.004231997299102917,2.3800010681152344,2019-06-20 16:03:00:970,0.0,0.0,0.0
0.19790451228618622,-0.3741125762462616,9.745158195495605,0.0032369305644840782,0.004048061032974686,0.0013620067703822866,2.3841238021850586,2019-06-20 16:03:00:975,0.0,0.0,0.0
0.27453649044036865,-0.3549546003341675,9.745158195495605,0.0012390718474905686,0.0036484893415908493,0.0002964822275160976,2.3900113105773926,2019-06-20 16:03:00:980,0.0,0.0,0.0
0.24340476095676422,-0.35734933614730835,9.749947547912598,0.0007063095923121196,0.00431444216056391,-0.0010354235079578973,2.3941211700439453,2019-06-20 16:03:00:985,0.0,0.0,0.0
0.23382575809955597,-0.40284958481788635,9.82179069519043,0.0007063095923121196,0.0035152987777962367,-0.0026337102734932446,2.3991165161132812,2019-06-20 16:03:00:990,0.0,0.0,0.0
0.20269401371479034,-0.3789020776748657,9.721211433410645,4.035674489342885e-05,0.0013842496270452774,0.0025607219745709597,2.405015468597412,2019-06-20 16:03:00:995,0.0,0.0,0.0
0.17874650657176971,-0.3932705819606781,9.728395462036133,0.004169264511046364,0.005513157494789746,-0.00010308950450435256,2.409123420715332,2019-06-20 16:03:01:000,0.0,0.0,0.0
0.19790451228618622,-0.4004548192024231,9.809816360473633,0.0017718342327061804,0.0009846778706428594,0.00016329164746684,2.4141454696655273,2019-06-20 16:03:01:005,0.0,0.0,0.0
0.24340476095676422,-0.3980600833892822,9.680500030517578,-0.00022602440301410239,0.0005851061792590224,-0.0031664725286716937,2.419116973876953,2019-06-20 16:03:01:010,0.0,0.0,0.0
0.19790451228618622,-0.3932705819606781,9.75234317779541,-0.0007587866744471969,0.004447632984432848,-0.0010354235079578973,2.42501163482666,2019-06-20 16:03:01:015,0.0,0.0,0.0
0.21706250309944153,-0.4052443206310272,9.754737854003906,0.0043024550748409765,0.0012510590632506652,-0.0007690423803686727,2.429123878479004,2019-06-20 16:03:01:020,0.0,0.0,0.0
0.2386152595281601,-0.3262175917625427,9.740368843078613,0.00043992846472289506,0.0032489176502070124,-0.0011686140717525096,2.434122085571289,2019-06-20 16:03:01:025,0.0,0.0,0.0
0.22664150595664978,-0.3549546003341675,9.70205307006836,-0.00502088517100486,0.0019170118822237267,-0.005164331245665204,2.440000534057617,2019-06-20 16:03:01:030,0.0,0.0,0.0
0.28651025891304016,-0.39566534757614136,9.75234317779541,0.0011058812836959564,0.002716155395028563,0.0029602936659547966,2.445110321044922,2019-06-20 16:03:01:036,0.0,0.0,0.0
0.2194572538137436,-0.37650734186172485,9.759527206420898,0.0007063095923121196,0.00484720441574236,-0.0005026612202701574,2.4491348266601562,2019-06-20 16:03:01:040,0.0,0.0,0.0
0.24340476095676422,-0.36932307481765747,9.730790138244629,-0.00035921498306336,0.003382108214001624,-0.002234138582109408,2.454124927520752,2019-06-20 16:03:01:045,0.0,0.0,0.0
0.22185200452804565,-0.31184908747673035,9.797842979431152,0.0008395001561067318,0.0032489176502070124,0.002027959589355348,2.4600400924682617,2019-06-20 16:03:01:051,0.0,0.0,0.0
0.20748351514339447,-0.381296843290329,9.71402645111084,-0.0008919772382418092,0.003781679905385461,0.0006960539514092252,2.464153289794922,2019-06-20 16:03:01:055,0.0,0.0,0.0
0.24819424748420715,-0.3932705819606781,9.790658950805664,0.00017354732087902514,0.0064454911812777075,-0.0025005197096986324,2.4700050354003906,2019-06-20 16:03:01:060,0.0,0.0,0.0
0.2194572538137436,-0.3789020776748657,9.726000785827637,-9.283383109216743e-05,0.002316583703644726,-0.0014349951993417342,2.474135398864746,2019-06-20 16:03:01:065,0.0,0.0,0.0
0.18832550942897797,-0.35734933614730835,9.72360610961914,-0.0012915489946442272,0.00431444216056391,-0.0010354235079578973,2.480006217956543,2019-06-20 16:03:01:070,0.0,0.0,0.0
0.23622050881385803,-0.35016509890556335,9.735579490661621,0.0012390718474905686,0.0031157270864124,-0.003965616171513693,2.4841184616088867,2019-06-20 16:03:01:075,0.0,0.0,0.0
0.19790451228618622,-0.3549546003341675,9.757132530212402,0.002970549436894854,0.002716155395028563,0.0002964822275160976,2.4900074005126953,2019-06-20 16:03:01:080,0.0,0.0,0.0
0.2505890130996704,-0.37650734186172485,9.771500587463379,0.0009726907199013442,0.003914870469180074,0.0013620067703822866,2.4941349029541016,2019-06-20 16:03:01:085,0.0,0.0,0.0
0.20269401371479034,-0.3525598347187042,9.71402645111084,0.0024377869216420794,0.0031157270864124,-0.0006358518165740604,2.5000085830688477,2019-06-20 16:03:01:090,0.0,0.0,0.0
0.20987825095653534,-0.3789020776748657,9.754737854003906,0.0005731190285175073,0.0025829648312339507,0.0008292445152038374,2.5044846534729004,2019-06-20 16:03:01:095,0.0,0.0,0.0
0.20987825095653534,-0.3549546003341675,9.740368843078613,0.0008395001561067318,0.0041812515967692985,-0.0027669008372878568,2.5091400146484375,2019-06-20 16:03:01:100,0.0,0.0,0.0
0.20029926300048828,-0.39087584614753723,9.759527206420898,0.0003067379009282828,0.008176968770681992,0.005357724074332143,2.51412296295166,2019-06-20 16:03:01:105,0.0,0.0,0.0
0.2194572538137436,-0.36932307481765747,9.761921882629395,0.001372262411285181,0.0041812515967692985,0.004425389867695532,2.5191173553466797,2019-06-20 16:03:01:110,0.0,0.0,0.0
0.20029926300048828,-0.3789020776748657,9.745158195495605,0.0005731190285175073,0.007377825387914319,0.0014951973341768988,2.5250144004821777,2019-06-20 16:03:01:115,0.0,0.0,0.0
0.2457994967699051,-0.3789020776748657,9.726000785827637,-0.00022602440301410239,0.003781679905385461,-0.0031664725286716937,2.5291213989257812,2019-06-20 16:03:01:120,0.0,0.0,0.0
0.18353600800037384,-0.37650734186172485,9.766711235046387,-0.0012915489946442272,0.004980395239611297,0.0038926276125170823,2.5350074768066406,2019-06-20 16:03:01:125,0.0,0.0,0.0
0.23382575809955597,-0.35734933614730835,9.74276351928711,-9.283383109216743e-05,0.00031872505166979784,0.0005628633876146128,2.5391130447387695,2019-06-20 16:03:01:130,0.0,0.0,0.0
0.2194572538137436,-0.3477703332901001,9.812211036682129,-0.002756645326422125,0.004714014112022072,0.0021611501531499603,2.5441341400146484,2019-06-20 16:03:01:135,0.0,0.0,0.0
0.22664150595664978,-0.3525598347187042,9.761921882629395,-0.0006255961106525846,0.0011178684994560528,0.0025607219745709597,2.549121856689453,2019-06-20 16:03:01:140,0.0,0.0,0.0
0.18832550942897797,-0.36453357338905334,9.771500587463379,0.004169264511046364,0.006578682005146645,0.0038926276125170823,2.5550270080566406,2019-06-20 16:03:01:145,0.0,0.0,0.0
0.20748351514339447,-0.3717178404331207,9.757132530212402,0.0035033116920733026,0.0021833931398501137,-0.0010354235079578973,2.5591182708740234,2019-06-20 16:03:01:150,0.0,0.0,0.0
0.2314310073852539,-0.3717178404331207,9.735579490661621,0.006699885483218323,0.0012510590632506652,0.00042967279131070986,2.565018653869629,2019-06-20 16:03:01:155,0.0,0.0,0.0
0.19550976157188416,-0.3932705819606781,9.769105911254883,0.0048352170699451,0.004980395239611297,0.001095625642793062,2.5691375732421875,2019-06-20 16:03:01:160,0.0,0.0,0.0
0.24340476095676422,-0.40284958481788635,9.699658393859863,0.0016386436689115682,0.0036484893415908493,0.0002964822275160976,2.5750036239624023,2019-06-20 16:03:01:165,0.0,0.0,0.0
0.1931150108575821,-0.40284958481788635,9.766711235046387,0.0043024550748409765,0.0068450631327358685,-0.0013018046355471218,2.5791139602661133,2019-06-20 16:03:01:170,0.0,0.0,0.0
0.20269401371479034,-0.381296843290329,9.718815803527832,0.0008395001561067318,-0.0007467995237056817,0.0017615784617661236,2.5850181579589844,2019-06-20 16:03:01:175,0.0,0.0,0.0
0.2194572538137436,-0.3741125762462616,9.766711235046387,-0.0004924055468579722,0.0041812515967692985,0.0030934842297494092,2.5891213417053223,2019-06-20 16:03:01:180,0.0,0.0,0.0
0.24340476095676422,-0.3669283390045166,9.759527206420898,-9.283383109216743e-05,0.005113585543331584,-0.0015681857631363464,2.595005512237549,2019-06-20 16:03:01:185,0.0,0.0,0.0
0.22664150595664978,-0.35734933614730835,9.730790138244629,0.0028373588731002413,0.0035152987777962367,0.008820678732992063,2.599123001098633,2019-06-20 16:03:01:190,0.0,0.0,0.0
0.2050887644290924,-0.3669283390045166,9.754737854003906,0.006300313531760161,0.00631230087755742,-0.0017013763269309588,2.604126453399658,2019-06-20 16:03:01:195,0.0,0.0,0.0
0.22664150595664978,-0.36453357338905334,9.745158195495605,0.0015054529750797934,0.006179110053688482,0.0005628633876146128,2.609999179840088,2019-06-20 16:03:01:200,0.0,0.0,0.0
0.20987825095653534,-0.40284958481788635,9.711631774902344,-0.0004924055468579722,0.002316583703644726,0.0012288162065876742,2.614144802093506,2019-06-20 16:03:01:205,0.0,0.0,0.0
0.20748351514339447,-0.3525598347187042,9.70205307006836,0.0023045963578474673,0.004980395239611297,0.0008292445152038374,2.6200170516967773,2019-06-20 16:03:01:210,0.0,0.0,0.0
0.19790451228618622,-0.3789020776748657,9.761921882629395,0.0007063095923121196,0.003781679905385461,-0.00010308950450435256,2.6250038146972656,2019-06-20 16:03:01:215,0.0,0.0,0.0
0.19072026014328003,-0.39566534757614136,9.840948104858398,0.004702026766224813,0.006179110053688482,-0.0005026612202701574,2.62911319732666,2019-06-20 16:03:01:220,0.0,0.0,0.0
0.2122730016708374,-0.381296843290329,9.721211433410645,0.0008395001561067318,0.000851487306848247,-0.0014349951993417342,2.635014533996582,2019-06-20 16:03:01:225,0.0,0.0,0.0
0.22185200452804565,-0.4004548192024231,9.733184814453125,-0.0012915489946442272,0.00870973102586044,-0.0006358518165740604,2.640011787414551,2019-06-20 16:03:01:230,0.0,0.0,0.0
0.20987825095653534,-0.37650734186172485,9.783474922180176,-0.002756645326422125,0.006578682005146645,-0.0017013763269309588,2.6450281143188477,2019-06-20 16:03:01:235,0.0,0.0,0.0
0.20748351514339447,-0.36932307481765747,9.75234317779541,0.0021714059240900176,0.003382108214001624,0.0033598653573386336,2.6491451263427734,2019-06-20 16:03:01:240,0.0,0.0,0.0
0.23382575809955597,-0.3789020776748657,9.721211433410645,0.0023045963578474673,0.001650630754634502,-0.0029000914010824694,2.654120922088623,2019-06-20 16:03:01:245,0.0,0.0,0.0
0.20987825095653534,-0.3860863447189331,9.711631774902344,-0.001158358430849615,0.0017838213184291141,0.004425389867695532,2.65915584564209,2019-06-20 16:03:01:250,0.0,0.0,0.0
0.20987825095653534,-0.4196128249168396,9.757132530212402,0.005634360972861425,0.005912728926099258,0.003493055921133246,2.6641640663146973,2019-06-20 16:03:01:255,0.0,0.0,0.0
0.23622050881385803,-0.388481080532074,9.72360610961914,-0.0014247395584388394,0.0064454911812777075,-0.0005026612202701574,2.6691198348999023,2019-06-20 16:03:01:260,0.0,0.0,0.0
0.22185200452804565,-0.36932307481765747,9.730790138244629,-0.0018243112498226766,0.0007182967430536347,0.00042967279131070986,2.6750130653381348,2019-06-20 16:03:01:265,0.0,0.0,0.0
0.2194572538137436,-0.3932705819606781,9.733184814453125,0.004702026766224813,0.0036484893415908493,-0.0015681857631363464,2.6791248321533203,2019-06-20 16:03:01:270,0.0,0.0,0.0
0.26256275177001953,-0.381296843290329,9.740368843078613,0.0019050247965007928,0.0041812515967692985,0.0014951973341768988,2.6850080490112305,2019-06-20 16:03:01:275,0.0,0.0,0.0
0.24101001024246216,-0.3789020776748657,9.76431655883789,-0.002889835890216737,0.004714014112022072,0.0022943408469817354,2.689113140106201,2019-06-20 16:03:01:280,0.0,0.0,0.0
0.2577732503414154,-0.3789020776748657,9.740368843078613,-0.0023570736350382883,0.007244634564045381,3.010106944941304e-05,2.695037364959717,2019-06-20 16:03:01:286,0.0,0.0,0.0
0.22903625667095184,-0.3932705819606781,9.771500587463379,0.001372262411285181,0.004447632984432848,-0.0014349951993417342,2.699117660522461,2019-06-20 16:03:01:290,0.0,0.0,0.0
0.24819424748420715,-0.39087584614753723,9.71402645111084,0.0007063095923121196,0.0007182967430536347,0.0014951973341768988,2.705010414123535,2019-06-20 16:03:01:295,0.0,0.0,0.0
0.2505890130996704,-0.3980600833892822,9.759527206420898,-0.003422598145395187,0.0009846778706428594,-0.0014349951993417342,2.7100400924682617,2019-06-20 16:03:01:301,0.0,0.0,0.0
0.21706250309944153,-0.3405860960483551,9.735579490661621,4.035674489342885e-05,0.007244634564045381,0.0029602936659547966,2.7141265869140625,2019-06-20 16:03:01:305,0.0,0.0,0.0
0.2793259918689728,-0.34298083186149597,9.766711235046387,0.0023045963578474673,0.004447632984432848,0.005757295505641655,2.7200002670288086,2019-06-20 16:03:01:310,0.0,0.0,0.0
0.24340476095676422,-0.3669283390045166,9.754737854003906,-0.002756645326422125,0.002849345958823175,-0.0021009480183147955,2.7241220474243164,2019-06-20 16:03:01:315,0.0,0.0,0.0
0.24819424748420715,-0.3621388375759125,9.807421684265137,-0.0016911206860280642,0.004980395239611297,0.0017615784617661236,2.730011463165283,2019-06-20 16:03:01:320,0.0,0.0,0.0
0.1859307587146759,-0.3980600833892822,9.812211036682129,4.035674489342885e-05,0.006179110053688482,0.0009624350789984497,2.734121799468994,2019-06-20 16:03:01:325,0.0,0.0,0.0
0.22664150595664978,-0.3932705819606781,9.773895263671875,0.0021714059240900176,0.0035152987777962367,-0.0025005197096986324,2.74014949798584,2019-06-20 16:03:01:331,0.0,0.0,0.0
0.2050887644290924,-0.381296843290329,9.75234317779541,4.035674489342885e-05,0.002050202446018339,0.0024275314107763475,2.7441349029541016,2019-06-20 16:03:01:335,0.0,0.0,0.0
0.23622050881385803,-0.39566534757614136,9.733184814453125,0.0032369305644840782,0.0029825365226177876,-0.0015681857631363464,2.7500038146972656,2019-06-20 16:03:01:340,0.0,0.0,0.0
0.20748351514339447,-0.35734933614730835,9.776289939880371,0.0025709774854366916,0.004980395239611297,0.006156867457099816,2.7541494369506836,2019-06-20 16:03:01:345,0.0,0.0,0.0
0.20269401371479034,-0.3549546003341675,9.771500587463379,0.0007063095923121196,0.007111444260325094,0.0025607219745709597,2.7591428756713867,2019-06-20 16:03:01:350,0.0,0.0,0.0
0.20748351514339447,-0.3932705819606781,9.776289939880371,0.004169264511046364,0.00577953862237897,0.0013620067703822866,2.7650279998779297,2019-06-20 16:03:01:355,0.0,0.0,0.0
0.18353600800037384,-0.3549546003341675,9.718815803527832,0.0009726907199013442,0.004048061032974686,0.003493055921133246,2.7691211700439453,2019-06-20 16:03:01:360,0.0,0.0,0.0
0.21706250309944153,-0.3597441017627716,9.776289939880371,0.0020382153602954054,0.004048061032974686,-0.0007690423803686727,2.774134635925293,2019-06-20 16:03:01:365,0.0,0.0,0.0
0.22185200452804565,-0.3597441017627716,9.745158195495605,0.0035033116920733026,0.0060459197499681955,-0.000902232944163285,2.78001070022583,2019-06-20 16:03:01:370,0.0,0.0,0.0
0.22424675524234772,-0.3621388375759125,9.74276351928711,-0.0007587866744471969,0.002316583703644726,-0.0029000914010824694,2.78415584564209,2019-06-20 16:03:01:375,0.0,0.0,0.0
0.2529837489128113,-0.33100709319114685,9.721211433410645,0.005101598717682976,0.006711872308866931,-0.000902232944163285,2.78914737701416,2019-06-20 16:03:01:380,0.0,0.0,0.0
0.22664150595664978,-0.39087584614753723,9.766711235046387,4.035674489342885e-05,0.0032489176502070124,0.0005628633876146128,2.7950077056884766,2019-06-20 16:03:01:385,0.0,0.0,0.0
0.1667727679014206,-0.381296843290329,9.728395462036133,0.0023045963578474673,0.00777739681922383,0.00042967279131070986,2.799114227294922,2019-06-20 16:03:01:390,0.0,0.0,0.0
0.19550976157188416,-0.3717178404331207,9.788264274597168,-0.0012915489946442272,0.0032489176502070124,0.00549091437805243,2.8050289154052734,2019-06-20 16:03:01:395,0.0,0.0,0.0
0.22664150595664978,-0.3525598347187042,9.711631774902344,0.004568835942355876,0.0011178684994560528,0.0013620067703822866,2.8091182708740234,2019-06-20 16:03:01:400,0.0,0.0,0.0
0.21466775238513947,-0.3597441017627716,9.740368843078613,0.0019050247965007928,0.0005851061792590224,0.0018947690255607357,2.8141260147094727,2019-06-20 16:03:01:405,0.0,0.0,0.0
0.22424675524234772,-0.3621388375759125,9.797842979431152,-0.002090692377411901,0.004580823288153135,-0.0029000914010824694,2.820013999938965,2019-06-20 16:03:01:410,0.0,0.0,0.0
0.21706250309944153,-0.3789020776748657,9.747552871704102,-0.0016911206860280642,0.001650630754634502,-0.00010308950450435256,2.824997901916504,2019-06-20 16:03:01:415,0.0,0.0,0.0
0.23382575809955597,-0.3980600833892822,9.740368843078613,0.003103740000689466,0.003914870469180074,-0.0006358518165740604,2.829108715057373,2019-06-20 16:03:01:420,0.0,0.0,0.0
0.22424675524234772,-0.3789020776748657,9.72360610961914,0.0021714059240900176,0.0017838213184291141,-0.0030332819648770815,2.8350234031677246,2019-06-20 16:03:01:425,0.0,0.0,0.0
0.19790451228618622,-0.388481080532074,9.797842979431152,0.0019050247965007928,0.0035152987777962367,-0.0019677574545201833,2.8391261100769043,2019-06-20 16:03:01:430,0.0,0.0,0.0
0.24340476095676422,-0.39566534757614136,9.737974166870117,0.006966266610807547,0.0025829648312339507,0.001095625642793062,2.8450074195861816,2019-06-20 16:03:01:435,0.0,0.0,0.0
0.22903625667095184,-0.328612357378006,9.757132530212402,-0.0032894075816005744,0.002849345958823175,0.00016329164746684,2.8491387367248535,2019-06-20 16:03:01:440,0.0,0.0,0.0
0.21706250309944153,-0.381296843290329,9.80502700805664,0.0027041680492313038,0.00484720441574236,-0.005563903197123366,2.855013370513916,2019-06-20 16:03:01:445,0.0,0.0,0.0
0.20987825095653534,-0.3597441017627716,9.761921882629395,-0.003156217017805962,-0.0012795617788841308,0.002027959589355348,2.8591179847717285,2019-06-20 16:03:01:450,0.0,0.0,0.0
0.19790451228618622,-0.3525598347187042,9.737974166870117,0.004036073947251752,0.004447632984432848,0.0012288162065876742,2.8650150299072266,2019-06-20 16:03:01:455,0.0,0.0,0.0
0.20029926300048828,-0.3717178404331207,9.785869598388672,-9.283383109216743e-05,0.003781679905385461,-0.00010308950450435256,2.869119644165039,2019-06-20 16:03:01:460,0.0,0.0,0.0
0.2122730016708374,-0.4004548192024231,9.740368843078613,0.0027041680492313038,0.0021833931398501137,-0.004498378166617817,2.8750081062316895,2019-06-20 16:03:01:465,0.0,0.0,0.0
0.2050887644290924,-0.3669283390045166,9.72360610961914,0.00043992846472289506,0.0015174401908398898,0.0030934842297494092,2.879148483276367,2019-06-20 16:03:01:470,0.0,0.0,0.0
0.22424675524234772,-0.3597441017627716,9.788264274597168,-0.0008919772382418092,0.00577953862237897,-0.0032996633525406317,2.884140968322754,2019-06-20 16:03:01:475,0.0,0.0,0.0
0.2505890130996704,-0.3741125762462616,9.728395462036133,0.0021714059240900176,0.006711872308866931,-0.0031664725286716937,2.8891258239746094,2019-06-20 16:03:01:480,0.0,0.0,0.0
0.26735225319862366,-0.3525598347187042,9.75234317779541,0.00017354732087902514,0.0041812515967692985,0.004159008740106307,2.8941526412963867,2019-06-20 16:03:01:485,0.0,0.0,0.0
0.22424675524234772,-0.40284958481788635,9.759527206420898,0.0032369305644840782,0.0025829648312339507,3.010106944941304e-05,2.899141788482666,2019-06-20 16:03:01:490,0.0,0.0,0.0
0.19550976157188416,-0.35016509890556335,9.704447746276855,0.0007063095923121196,0.001650630754634502,0.0002964822275160976,2.9050064086914062,2019-06-20 16:03:01:495,0.0,0.0,0.0
0.2194572538137436,-0.33100709319114685,9.749947547912598,0.003370121128278691,0.002849345958823175,-0.00023628007642628753,2.909116744995117,2019-06-20 16:03:01:500,0.0,0.0,0.0
0.22185200452804565,-0.37650734186172485,9.737974166870117,-0.00035921498306336,0.00484720441574236,0.0030934842297494092,2.91501522064209,2019-06-20 16:03:01:505,0.0,0.0,0.0
0.2386152595281601,-0.3669283390045166,9.709237098693848,-0.0030230264540113496,0.004714014112022072,3.010106944941304e-05,2.9191246032714844,2019-06-20 16:03:01:510,0.0,0.0,0.0
0.22424675524234772,-0.3741125762462616,9.745158195495605,-0.0007587866744471969,0.0032489176502070124,0.003226674793544021,2.925154685974121,2019-06-20 16:03:01:516,0.0,0.0,0.0
0.2314310073852539,-0.388481080532074,9.783474922180176,-0.0030230264540113496,0.0011178684994560528,0.004958152122873981,2.929147720336914,2019-06-20 16:03:01:520,0.0,0.0,0.0
0.1739570051431656,-0.3621388375759125,9.776289939880371,0.0015054529750797934,0.00431444216056391,-0.0006358518165740604,2.9350099563598633,2019-06-20 16:03:01:525,0.0,0.0,0.0
0.20269401371479034,-0.381296843290329,9.795448303222656,0.0032369305644840782,0.0025829648312339507,-0.0023673291459040203,2.9391183853149414,2019-06-20 16:03:01:530,0.0,0.0,0.0
0.1931150108575821,-0.3860863447189331,9.776289939880371,-0.0010251678020364214,-0.002211895725446417,0.0021611501531499603,2.9450297355651855,2019-06-20 16:03:01:535,0.0,0.0,0.0
0.22903625667095184,-0.3549546003341675,9.769105911254883,0.0012390718474905686,0.008443349898271217,0.00016329164746684,2.949117660522461,2019-06-20 16:03:01:540,0.0,0.0,0.0
0.2122730016708374,-0.37650734186172485,9.690079689025879,0.0053679798452722005,0.0032489176502070124,0.0030934842297494092,2.9541263580322266,2019-06-20 16:03:01:545,0.0,0.0,0.0
0.2122730016708374,-0.3549546003341675,9.769105911254883,0.0009726907199013442,0.005912728926099258,0.0013620067703822866,2.9591188430786133,2019-06-20 16:03:01:550,0.0,0.0,0.0
0.19790451228618622,-0.42919182777404785,9.785869598388672,0.001372262411285181,0.00631230087755742,-0.001834566890725571,2.964125156402588,2019-06-20 16:03:01:555,0.0,0.0,0.0
0.22185200452804565,-0.36932307481765747,9.754737854003906,-0.00022602440301410239,0.005379966670920808,-0.004098806735308305,2.9700145721435547,2019-06-20 16:03:01:560,0.0,0.0,0.0
0.20269401371479034,-0.3860863447189331,9.711631774902344,0.0039028833834571395,0.0029825365226177876,-0.0006358518165740604,2.975104331970215,2019-06-20 16:03:01:566,0.0,0.0,0.0
0.19790451228618622,-0.36932307481765747,9.745158195495605,-0.0006255961106525846,5.234389563494396e-05,0.0025607219745709597,2.979137420654297,2019-06-20 16:03:01:570,0.0,0.0,0.0
0.26256275177001953,-0.3621388375759125,9.790658950805664,-0.001158358430849615,0.005379966670920808,0.00042967279131070986,2.98500919342041,2019-06-20 16:03:01:575,0.0,0.0,0.0
0.21706250309944153,-0.3741125762462616,9.824185371398926,-0.0008919772382418092,0.001650630754634502,0.003226674793544021,2.989171028137207,2019-06-20 16:03:01:580,0.0,0.0,0.0
0.22903625667095184,-0.4052443206310272,9.766711235046387,0.003103740000689466,-0.00021403725227258724,0.0006960539514092252,2.995016098022461,2019-06-20 16:03:01:585,0.0,0.0,0.0
0.23382575809955597,-0.3980600833892822,9.819396018981934,-0.0007587866744471969,0.003781679905385461,0.0018947690255607357,2.9991159439086914,2019-06-20 16:03:01:590,0.0,0.0,0.0
0.19072026014328003,-0.3717178404331207,9.797842979431152,0.002970549436894854,0.0012510590632506652,-0.0007690423803686727,3.0050153732299805,2019-06-20 16:03:01:595,0.0,0.0,0.0
0.20029926300048828,-0.388481080532074,9.692474365234375,0.0009726907199013442,0.002316583703644726,0.0018947690255607357,3.009124755859375,2019-06-20 16:03:01:600,0.0,0.0,0.0
0.20269401371479034,-0.3477703332901001,9.694869041442871,0.00043992846472289506,0.0029825365226177876,0.0002964822275160976,3.0141263008117676,2019-06-20 16:03:01:605,0.0,0.0,0.0
0.19790451228618622,-0.3669283390045166,9.749947547912598,-0.00035921498306336,0.0041812515967692985,0.003493055921133246,3.0191497802734375,2019-06-20 16:03:01:610,0.0,0.0,0.0
0.24819424748420715,-0.36932307481765747,9.749947547912598,0.0017718342327061804,0.004714014112022072,-0.00036947065647554515,3.024141788482666,2019-06-20 16:03:01:615,0.0,0.0,0.0
0.20748351514339447,-0.3669283390045166,9.781079292297363,0.0007063095923121196,0.002849345958823175,0.0028271031021601845,3.0300064086914062,2019-06-20 16:03:01:620,0.0,0.0,0.0
0.24819424748420715,-0.36453357338905334,9.709237098693848,0.0003067379009282828,-0.0016791336003051302,-0.0010354235079578973,3.0341711044311523,2019-06-20 16:03:01:625,0.0,0.0,0.0
0.20748351514339447,-0.3741125762462616,9.72360610961914,0.0021714059240900176,0.004048061032974686,-0.0025005197096986324,3.0391435623168945,2019-06-20 16:03:01:630,0.0,0.0,0.0
0.22185200452804565,-0.35734933614730835,9.730790138244629,0.0019050247965007928,0.0012510590632506652,-0.0030332819648770815,3.0450053215026855,2019-06-20 16:03:01:635,0.0,0.0,0.0
0.22903625667095184,-0.41721808910369873,9.721211433410645,0.003370121128278691,0.006711872308866931,-0.006096665452301814,3.049117088317871,2019-06-20 16:03:01:640,0.0,0.0,0.0
0.19790451228618622,-0.3669283390045166,9.783474922180176,-0.0012915489946442272,0.0032489176502070124,0.003493055921133246,3.054126739501953,2019-06-20 16:03:01:645,0.0,0.0,0.0
0.20269401371479034,-0.3741125762462616,9.666131973266602,0.0005731190285175073,0.0011178684994560528,-0.005830284324712591,3.0600109100341797,2019-06-20 16:03:01:650,0.0,0.0,0.0
0.2194572538137436,-0.3789020776748657,9.733184814453125,4.035674489342885e-05,0.0029825365226177876,-0.0007690423803686727,3.064122200012207,2019-06-20 16:03:01:655,0.0,0.0,0.0
0.20987825095653534,-0.41003382205963135,9.76431655883789,-0.004088550964368248,0.00577953862237897,-0.0027669008372878568,3.0700416564941406,2019-06-20 16:03:01:661,0.0,0.0,0.0
0.23382575809955597,-0.39566534757614136,9.754737854003906,0.0037696928196625274,0.004580823288153135,0.0009624350789984497,3.074117660522461,2019-06-20 16:03:01:665,0.0,0.0,0.0
0.2122730016708374,-0.3860863447189331,9.690079689025879,0.0023045963578474673,0.0004519156154644102,0.00016329164746684,3.079115867614746,2019-06-20 16:03:01:670,0.0,0.0,0.0
0.20987825095653534,-0.39566534757614136,9.749947547912598,0.0032369305644840782,0.004048061032974686,-0.0030332819648770815,3.0850415229797363,2019-06-20 16:03:01:676,0.0,0.0,0.0
0.20987825095653534,-0.3741125762462616,9.75234317779541,-9.283383109216743e-05,0.002050202446018339,0.001628387897971511,3.0891246795654297,2019-06-20 16:03:01:680,0.0,0.0,0.0
0.19550976157188416,-0.40284958481788635,9.766711235046387,0.0007063095923121196,0.002849345958823175,0.0002964822275160976,3.0941238403320312,2019-06-20 16:03:01:685,0.0,0.0,0.0
0.2194572538137436,-0.35016509890556335,9.718815803527832,0.0009726907199013442,0.0029825365226177876,-0.0011686140717525096,3.100006103515625,2019-06-20 16:03:01:690,0.0,0.0,0.0
0.26256275177001953,-0.37650734186172485,9.795448303222656,0.0043024550748409765,0.0029825365226177876,0.0012288162065876742,3.1041245460510254,2019-06-20 16:03:01:695,0.0,0.0,0.0
0.22903625667095184,-0.3669283390045166,9.788264274597168,0.0057675512765817125,0.008443349898271217,-0.0017013763269309588,3.1100082397460938,2019-06-20 16:03:01:700,0.0,0.0,0.0
0.17874650657176971,-0.37650734186172485,9.747552871704102,0.0015054529750797934,0.0024497742674393385,-0.001834566890725571,3.1143007278442383,2019-06-20 16:03:01:705,0.0,0.0,0.0
0.20029926300048828,-0.3789020776748657,9.75234317779541,0.002970549436894854,0.0041812515967692985,-0.0014349951993417342,3.119135856628418,2019-06-20 16:03:01:710,0.0,0.0,0.0
0.18114125728607178,-0.37650734186172485,9.745158195495605,-0.0004924055468579722,0.003914870469180074,0.0018947690255607357,3.1241254806518555,2019-06-20 16:03:01:715,0.0,0.0,0.0
0.21706250309944153,-0.34537559747695923,9.690079689025879,0.002970549436894854,0.000851487306848247,-0.004365187862897529,3.130000114440918,2019-06-20 16:03:01:720,0.0,0.0,0.0
0.22903625667095184,-0.36453357338905334,9.769105911254883,0.003103740000689466,0.0029825365226177876,0.0017615784617661236,3.1341543197631836,2019-06-20 16:03:01:725,0.0,0.0,0.0
0.2050887644290924,-0.3621388375759125,9.72360610961914,-0.001158358430849615,-0.0003472278323218449,-0.0026337102734932446,3.1391472816467285,2019-06-20 16:03:01:730,0.0,0.0,0.0
0.22185200452804565,-0.3932705819606781,9.776289939880371,0.0008395001561067318,0.00777739681922383,3.010106944941304e-05,3.145005226135254,2019-06-20 16:03:01:735,0.0,0.0,0.0
0.21706250309944153,-0.35016509890556335,9.735579490661621,0.002970549436894854,0.006179110053688482,0.0002964822275160976,3.149115562438965,2019-06-20 16:03:01:740,0.0,0.0,0.0
0.22664150595664978,-0.3741125762462616,9.709237098693848,0.003103740000689466,0.002716155395028563,-0.005164331245665204,3.155019760131836,2019-06-20 16:03:01:745,0.0,0.0,0.0
0.2194572538137436,-0.31903335452079773,9.75234317779541,0.0016386436689115682,0.005113585543331584,0.0022943408469817354,3.159121513366699,2019-06-20 16:03:01:750,0.0,0.0,0.0
0.22185200452804565,-0.3932705819606781,9.740368843078613,0.0008395001561067318,0.003382108214001624,0.0002964822275160976,3.1650218963623047,2019-06-20 16:03:01:755,0.0,0.0,0.0
0.22424675524234772,-0.4124285876750946,9.79305362701416,0.0024377869216420794,0.0005851061792590224,-0.000902232944163285,3.1700124740600586,2019-06-20 16:03:01:760,0.0,0.0,0.0
0.21466775238513947,-0.335796594619751,9.733184814453125,0.00043992846472289506,0.0005851061792590224,-0.00036947065647554515,3.1741247177124023,2019-06-20 16:03:01:765,0.0,0.0,0.0
0.2314310073852539,-0.3789020776748657,9.721211433410645,0.0043024550748409765,0.0060459197499681955,-0.00010308950450435256,3.1800131797790527,2019-06-20 16:03:01:770,0.0,0.0,0.0
0.24340476095676422,-0.3597441017627716,9.697263717651367,-0.00035921498306336,0.005379966670920808,-0.0036992350439244686,3.1850080490112305,2019-06-20 16:03:01:775,0.0,0.0,0.0
0.2457994967699051,-0.381296843290329,9.709237098693848,0.00043992846472289506,-0.0011463712150895187,-0.0007690423803686727,3.189112663269043,2019-06-20 16:03:01:780,0.0,0.0,0.0
0.2386152595281601,-0.3525598347187042,9.802632331848145,0.0023045963578474673,0.0015174401908398898,-0.0010354235079578973,3.195028305053711,2019-06-20 16:03:01:785,0.0,0.0,0.0
0.23382575809955597,-0.3860863447189331,9.730790138244629,0.0024377869216420794,0.0025829648312339507,0.0013620067703822866,3.199117660522461,2019-06-20 16:03:01:790,0.0,0.0,0.0
0.23382575809955597,-0.40284958481788635,9.745158195495605,-0.001557930122233452,0.0004519156154644102,0.0006960539514092252,3.2041397094726562,2019-06-20 16:03:01:795,0.0,0.0,0.0
0.2577732503414154,-0.38369157910346985,9.730790138244629,4.035674489342885e-05,0.00031872505166979784,-0.00010308950450435256,3.210031032562256,2019-06-20 16:03:01:800,0.0,0.0,0.0
0.22903625667095184,-0.36932307481765747,9.76431655883789,0.0048352170699451,0.003382108214001624,-0.0010354235079578973,3.2141237258911133,2019-06-20 16:03:01:805,0.0,0.0,0.0
0.2386152595281601,-0.3717178404331207,9.72360610961914,0.0017718342327061804,0.00431444216056391,-0.0007690423803686727,3.2191238403320312,2019-06-20 16:03:01:810,0.0,0.0,0.0
0.22424675524234772,-0.3525598347187042,9.800237655639648,-0.0007587866744471969,0.00577953862237897,0.003226674793544021,3.2241334915161133,2019-06-20 16:03:01:815,0.0,0.0,0.0
0.22185200452804565,-0.3669283390045166,9.735579490661621,0.0017718342327061804,0.0036484893415908493,-0.0038324256077190803,3.2300100326538086,2019-06-20 16:03:01:820,0.0,0.0,0.0
0.24819424748420715,-0.3860863447189331,9.848133087158203,0.00017354732087902514,-0.002211895725446417,0.0008292445152038374,3.235006809234619,2019-06-20 16:03:01:825,0.0,0.0,0.0
0.24101001024246216,-0.4076390862464905,9.754737854003906,0.001372262411285181,0.0041812515967692985,0.002693912538365572,3.239112377166748,2019-06-20 16:03:01:830,0.0,0.0,0.0
0.2122730016708374,-0.381296843290329,9.740368843078613,0.0019050247965007928,0.010973970350294526,0.00042967279131070986,3.245018482208252,2019-06-20 16:03:01:835,0.0,0.0,0.0
0.20748351514339447,-0.388481080532074,9.709237098693848,-0.0014247395584388394,0.005246776367200522,-0.00036947065647554515,3.250034809112549,2019-06-20 16:03:01:840,0.0,0.0,0.0
0.22424675524234772,-0.3597441017627716,9.754737854003906,0.004036073947251752,0.0005851061792590224,0.004824961819153694,3.2541446685791016,2019-06-20 16:03:01:845,0.0,0.0,0.0
0.2505890130996704,-0.3525598347187042,9.730790138244629,-0.0004924055468579722,0.0019170118822237267,0.001095625642793062,3.260016918182373,2019-06-20 16:03:01:850,0.0,0.0,0.0
0.24101001024246216,-0.36453357338905334,9.747552871704102,0.0020382153602954054,0.004980395239611297,0.00549091437805243,3.264120101928711,2019-06-20 16:03:01:855,0.0,0.0,0.0
0.2122730016708374,-0.4531393349170685,9.754737854003906,0.0021714059240900176,0.0013842496270452774,-0.00036947065647554515,3.2700252532958984,2019-06-20 16:03:01:860,0.0,0.0,0.0
0.23382575809955597,-0.34537559747695923,9.785869598388672,-0.0023570736350382883,0.005646347798510033,0.0021611501531499603,3.274125576019287,2019-06-20 16:03:01:865,0.0,0.0,0.0
0.22664150595664978,-0.39566534757614136,9.728395462036133,-0.0016911206860280642,-8.084668035065233e-05,0.0005628633876146128,3.280010223388672,2019-06-20 16:03:01:870,0.0,0.0,0.0
0.20748351514339447,-0.3717178404331207,9.699658393859863,0.0021714059240900176,0.004980395239611297,0.0021611501531499603,3.2841224670410156,2019-06-20 16:03:01:875,0.0,0.0,0.0
0.23382575809955597,-0.3932705819606781,9.745158195495605,0.0024377869216420794,0.002716155395028563,0.003493055921133246,3.289119243621826,2019-06-20 16:03:01:880,0.0,0.0,0.0
0.20987825095653534,-0.37650734186172485,9.74276351928711,0.004036073947251752,0.0060459197499681955,0.006023676633230879,3.295015335083008,2019-06-20 16:03:01:885,0.0,0.0,0.0
0.1931150108575821,-0.3597441017627716,9.737974166870117,0.003103740000689466,0.003382108214001624,0.004159008740106307,3.2991204261779785,2019-06-20 16:03:01:890,0.0,0.0,0.0
0.22424675524234772,-0.4052443206310272,9.728395462036133,0.0025709774854366916,0.0013842496270452774,-0.0019677574545201833,3.3050312995910645,2019-06-20 16:03:01:895,0.0,0.0,0.0
0.20987825095653534,-0.37650734186172485,9.718815803527832,0.0003067379009282828,0.002716155395028563,-0.0026337102734932446,3.309117317199707,2019-06-20 16:03:01:900,0.0,0.0,0.0
0.21466775238513947,-0.3932705819606781,9.769105911254883,0.0023045963578474673,0.0032489176502070124,-0.0010354235079578973,3.314126968383789,2019-06-20 16:03:01:905,0.0,0.0,0.0
0.18832550942897797,-0.3405860960483551,9.759527206420898,-0.00022602440301410239,0.005246776367200522,0.0037594370487224705,3.319121837615967,2019-06-20 16:03:01:910,0.0,0.0,0.0
0.19072026014328003,-0.35734933614730835,9.76431655883789,0.0015054529750797934,0.003781679905385461,0.0012288162065876742,3.325000762939453,2019-06-20 16:03:01:915,0.0,0.0,0.0
0.17635175585746765,-0.3860863447189331,9.797842979431152,0.0048352170699451,0.003382108214001624,0.00042967279131070986,3.329118251800537,2019-06-20 16:03:01:920,0.0,0.0,0.0
0.2050887644290924,-0.3525598347187042,9.726000785827637,0.0037696928196625274,0.004447632984432848,0.0038926276125170823,3.335017204284668,2019-06-20 16:03:01:925,0.0,0.0,0.0
