ACCELEROMETER X (m/s²),ACCELEROMETER Y (m/s²),ACCELEROMETER Z (m/s²),GYROSCOPE X (rad/s),GYROSCOPE Y (rad/s),GYROSCOPE Z (rad/s),Time since start in ms ,YYYY-MO-DD HH-MI-SS_SSS,MagX,MagY,MagZ
-0.10209536552429199,0.04125914350152016,9.857860565185547,0.0014278029739154064,-0.006075354962094676,0.005115583434297794,0.0,2019-06-20 11:23:35:975,0.0,0.0,0.0
-0.10688485950231552,0.08675938844680786,9.781228065490723,-0.0009696273694433586,-0.004477067676410679,-0.00047842053765953795,0.005008697509765625,2019-06-20 11:23:35:980,0.0,0.0,0.0
-0.09730586409568787,0.06281188875436783,9.836307525634766,-0.0015023896896403893,0.00031779271772323556,0.0020522003369845485,0.010012626647949219,2019-06-20 11:23:35:985,0.0,0.0,0.0
-0.08054261654615402,0.046048641204833984,9.781228065490723,0.0024933276143094675,-0.0024792092194914944,-0.0011443734541604713,0.015035629272460938,2019-06-20 11:23:35:990,0.0,0.0,0.0
-0.08293736726045609,0.038864392787218094,9.824334144592285,-0.0003036745179610067,-0.007274069776171861,0.0005871040702252323,0.020006179809570312,2019-06-20 11:23:35:995,0.0,0.0,0.0
-0.03743712231516838,0.07957513630390167,9.814754486083984,-0.003500248276596736,-0.007274069776171861,-0.003941375423884492,0.025011062622070312,2019-06-20 11:23:36:000,0.0,0.0,0.0
-0.0757531151175499,0.014916895888745785,9.807570457458496,-0.0007032462418541342,-0.0012804941453399838,-0.0034086131687060426,0.030014991760253906,2019-06-20 11:23:36:005,0.0,0.0,0.0
-0.054200369864702225,0.06760139018297195,9.84588623046875,0.0015609935377100185,-0.004477067676410679,0.002718153285994773,0.03501701354980469,2019-06-20 11:23:36:010,0.0,0.0,0.0
-0.0949111133813858,0.038864392787218094,9.80517578125,-0.0012360085620511645,-0.004743448803999903,-7.884882189373314e-05,0.040090084075927734,2019-06-20 11:23:36:015,0.0,0.0,0.0
-0.07096362113952637,0.04125914350152016,9.865044593811035,-0.0021683425086134506,-0.0003481601662684072,-0.0011443734541604713,0.04501485824584961,2019-06-20 11:23:36:020,0.0,0.0,0.0
-0.154779851436615,0.060417141765356064,9.862649917602539,-0.002967486021418287,-0.005808973834505452,0.0017858192093953241,0.05000591278076172,2019-06-20 11:23:36:025,0.0,0.0,0.0
-0.06617411971092224,0.06281188875436783,9.802781105041504,0.0008950406537183759,-0.005009829931589127,0.00018753233007745944,0.05500984191894531,2019-06-20 11:23:36:030,0.0,0.0,0.0
-0.05659512057900429,0.0316801443696022,9.850675582885742,-0.0032338671490075113,-0.002346018655696882,0.00045391347392132933,0.06001758575439453,2019-06-20 11:23:36:035,0.0,0.0,0.0
-0.07335836440324783,0.04365389049053192,9.821938514709473,-0.0003036745179610067,-0.0056757830106365145,0.004582821179119344,0.06501293182373047,2019-06-20 11:23:36:040,0.0,0.0,0.0
-0.0757531151175499,0.02210114523768425,9.857860565185547,0.0010282312175129882,-0.00687449834486235,0.0025849627222001605,0.0700063705444336,2019-06-20 11:23:36:045,0.0,0.0,0.0
-0.047016121447086334,0.058022391051054,9.786017417907715,-0.0012360085620511645,-0.005542592706916228,-0.002076707400722757,0.07500934600830078,2019-06-20 11:23:36:050,0.0,0.0,0.0
-0.08054261654615402,0.07478563487529755,9.869833946228027,-0.0008364368056487465,-0.010337453003522271,-0.00021203939381566809,0.08001422882080078,2019-06-20 11:23:36:055,0.0,0.0,0.0
-0.09251636266708374,0.04125914350152016,9.821938514709473,0.002360137050514855,-0.004343877372690392,-0.0007448016977580532,0.08539390563964844,2019-06-20 11:23:36:061,0.0,0.0,0.0
-0.0949111133813858,0.07478563487529755,9.814754486083984,9.58972140594435e-05,-0.0010141130177507593,0.0021853910308163235,0.08913326263427734,2019-06-20 11:23:36:064,0.0,0.0,0.0
-0.10209536552429199,0.09873313456773758,9.790806770324707,0.0014278029739154064,-0.008739166237986921,0.0009866757616090692,0.09497642517089844,2019-06-20 11:23:36:070,0.0,0.0,0.0
-0.10449011623859406,0.09633838385343552,9.824334144592285,-0.0016355802534350015,-0.004477067676410679,5.4341754091863145e-05,0.10000848770141602,2019-06-20 11:23:36:075,0.0,0.0,0.0
-0.08772686868906021,0.10831213742494583,9.819543838500977,-3.7293361926152775e-05,-0.002346018655696882,-0.00034522997386492567,0.10501384735107422,2019-06-20 11:23:36:080,0.0,0.0,0.0
-0.09970061480998993,0.026890644803643227,9.872228622436523,-0.002434723766239838,-0.0032783528623334932,0.0036504872325570587,0.11001253128051758,2019-06-20 11:23:36:085,0.0,0.0,0.0
-0.10209536552429199,0.053232889622449875,9.790806770324707,0.0003622783660306361,-0.005276211059178353,5.4341754091863145e-05,0.11501026153564453,2019-06-20 11:23:36:090,0.0,0.0,0.0
-0.0685688704252243,0.04844339191913605,9.891386985778809,-0.0009696273694433586,-0.008472785110397698,0.0011198663904222626,0.1200103759765625,2019-06-20 11:23:36:095,0.0,0.0,0.0
-0.08533211797475815,0.07718038558959961,9.809965133666992,-0.0008364368056487465,-0.008605975414117985,-7.884882189373314e-05,0.1250162124633789,2019-06-20 11:23:36:100,0.0,0.0,0.0
-0.11406911164522171,0.0843646377325058,9.826728820800781,0.002759708741898692,-0.006075354962094676,0.005115583434297794,0.13001537322998047,2019-06-20 11:23:36:105,0.0,0.0,0.0
-0.09012161195278168,0.046048641204833984,9.745306968688965,-0.004033010531775186,-0.005009829931589127,-0.002609469785938369,0.13417768478393555,2019-06-20 11:23:36:109,0.0,0.0,0.0
-0.09730586409568787,0.06520663946866989,9.778833389282227,0.0014278029739154064,-0.004743448803999903,-0.00034522997386492567,0.13997220993041992,2019-06-20 11:23:36:115,0.0,0.0,0.0
-0.0757531151175499,0.07239089161157608,9.759675025939941,-3.7293361926152775e-05,-0.004210686808895779,0.00045391347392132933,0.14500856399536133,2019-06-20 11:23:36:120,0.0,0.0,0.0
-0.0685688704252243,0.06760139018297195,9.829123497009277,-0.005498106993590246,-0.008339594286528761,-0.003275422604911431,0.1500539779663086,2019-06-20 11:23:36:125,0.0,0.0,0.0
-0.08293736726045609,0.09873313456773758,9.786017417907715,-0.0011028179982565524,-0.0040774962451011676,0.0035172966687624465,0.15502262115478516,2019-06-20 11:23:36:130,0.0,0.0,0.0
-0.0757531151175499,0.07478563487529755,9.774044036865234,-0.0016355802534350015,-0.003411543426128106,0.004050058923940896,0.16000652313232422,2019-06-20 11:23:36:135,0.0,0.0,0.0
-0.07096362113952637,0.07957513630390167,9.829123497009277,-0.0011028179982565524,-0.0038111151175119424,0.0009866757616090692,0.1650066375732422,2019-06-20 11:23:36:140,0.0,0.0,0.0
-0.06617411971092224,0.07239089161157608,9.910544395446777,0.0020937557928884677,-0.0020796375281076575,-7.884882189373314e-05,0.17000913619995117,2019-06-20 11:23:36:145,0.0,0.0,0.0
-0.10927961021661758,0.03646964207291603,9.867439270019531,0.0014278029739154064,-0.008339594286528761,0.0025849627222001605,0.17513465881347656,2019-06-20 11:23:36:150,0.0,0.0,0.0
-0.11406911164522171,0.08196988701820374,9.857860565185547,-0.00017048393791174905,-0.004743448803999903,0.0028513438497893852,0.1805248260498047,2019-06-20 11:23:36:156,0.0,0.0,0.0
-0.0757531151175499,0.05083814263343811,9.857860565185547,0.0011614218463261818,-0.006208545265814964,-0.00021203939381566809,0.18426036834716797,2019-06-20 11:23:36:159,0.0,0.0,0.0
-0.07335836440324783,0.017311645671725273,9.872228622436523,-0.0019019613810242262,-0.008472785110397698,-0.00021203939381566809,0.19010448455810547,2019-06-20 11:23:36:165,0.0,0.0,0.0
-0.061384618282318115,0.060417141765356064,9.79320240020752,0.0014278029739154064,-0.0015468752729292082,-0.00034522997386492567,0.1951456069946289,2019-06-20 11:23:36:170,0.0,0.0,0.0
-0.09970061480998993,0.03646964207291603,9.821938514709473,0.0007618500899237635,-0.005276211059178353,-0.0018103262731335328,0.20013761520385742,2019-06-20 11:23:36:175,0.0,0.0,0.0
-0.1212533637881279,0.05562764033675194,9.862649917602539,-0.002434723766239838,-0.009005546845427497,-0.004340947115268329,0.20513534545898438,2019-06-20 11:23:36:180,0.0,0.0,0.0
-0.08533211797475815,0.07957513630390167,9.802781105041504,-0.0005700556780595219,-0.007940022855219248,0.0020522003369845485,0.2101297378540039,2019-06-20 11:23:36:185,0.0,0.0,0.0
-0.08533211797475815,0.09394363313913345,9.826728820800781,0.0010282312175129882,-0.010737024954980431,-0.002875850913527594,0.21514463424682617,2019-06-20 11:23:36:190,0.0,0.0,0.0
-0.10688485950231552,0.046048641204833984,9.826728820800781,0.0030260898694879166,-0.00540940188304729,-0.005406471885699552,0.22014522552490234,2019-06-20 11:23:36:195,0.0,0.0,0.0
-0.11885861307382584,0.053232889622449875,9.841096878051758,0.0008950406537183759,-0.00540940188304729,-0.0027426603497329814,0.225433349609375,2019-06-20 11:23:36:201,0.0,0.0,0.0
-0.13083235919475555,0.05083814263343811,9.821938514709473,0.00382523325225559,-0.007007688648582638,0.0024517721584055483,0.2292013168334961,2019-06-20 11:23:36:204,0.0,0.0,0.0
-0.07814786583185196,0.04125914350152016,9.853070259094238,-0.00017048393791174905,-0.01087021525870072,5.4341754091863145e-05,0.23510265350341797,2019-06-20 11:23:36:210,0.0,0.0,0.0
-0.06617411971092224,0.053232889622449875,9.807570457458496,-0.0044325824832333474,-0.007274069776171861,-0.0022098980945545322,0.2401280403137207,2019-06-20 11:23:36:215,0.0,0.0,0.0
-0.08772686868906021,0.07957513630390167,9.783622741699219,-3.7293361926152775e-05,-0.009937881052064107,-0.0015439451455443083,0.24513864517211914,2019-06-20 11:23:36:220,0.0,0.0,0.0
-0.11646386235952377,0.06999614089727402,9.809965133666992,-0.0020351519448188384,-0.00687449834486235,-0.00034522997386492567,0.2501401901245117,2019-06-20 11:23:36:225,0.0,0.0,0.0
-0.09251636266708374,0.060417141765356064,9.826728820800781,-0.0015023896896403893,-0.005009829931589127,0.0007202946340198446,0.25513744354248047,2019-06-20 11:23:36:230,0.0,0.0,0.0
-0.09970061480998993,0.10591738671064377,9.83391284942627,0.0016941841015046311,-0.008605975414117985,0.0009866757616090692,0.26012516021728516,2019-06-20 11:23:36:235,0.0,0.0,0.0
-0.09012161195278168,0.053232889622449875,9.826728820800781,0.002360137050514855,-0.006741307520993413,-0.00034522997386492567,0.26514244079589844,2019-06-20 11:23:36:240,0.0,0.0,0.0
-0.08054261654615402,0.0843646377325058,9.778833389282227,0.0004954689298252484,-0.0032783528623334932,-0.001011182825347278,0.27013731002807617,2019-06-20 11:23:36:245,0.0,0.0,0.0
-0.08054261654615402,0.06760139018297195,9.781228065490723,-0.0025679143300344504,-0.011003405562421005,-0.005140090758110328,0.2754669189453125,2019-06-20 11:23:36:251,0.0,0.0,0.0
-0.07335836440324783,0.07478563487529755,9.819543838500977,-0.00043686508175561897,-0.005942164138225739,0.0036504872325570587,0.27918386459350586,2019-06-20 11:23:36:254,0.0,0.0,0.0
-0.08054261654615402,0.10112788528203964,9.809965133666992,-0.0012360085620511645,-0.007806832031350311,-0.0023430886583491444,0.2851076126098633,2019-06-20 11:23:36:260,0.0,0.0,0.0
-0.061384618282318115,0.07718038558959961,9.795597076416016,-0.0007032462418541342,-0.007806832031350311,0.0035172966687624465,0.2901430130004883,2019-06-20 11:23:36:265,0.0,0.0,0.0
-0.10449011623859406,0.07239089161157608,9.853070259094238,9.58972140594435e-05,-0.007407260600040799,-0.0007448016977580532,0.2951364517211914,2019-06-20 11:23:36:270,0.0,0.0,0.0
-0.06377936899662018,0.060417141765356064,9.821938514709473,0.0014278029739154064,-0.0063417360896839015,0.0036504872325570587,0.3001260757446289,2019-06-20 11:23:36:275,0.0,0.0,0.0
-0.09730586409568787,0.03646964207291603,9.879412651062012,0.0016941841015046311,-0.004210686808895779,0.005515155385755957,0.3051433563232422,2019-06-20 11:23:36:280,0.0,0.0,0.0
-0.10927961021661758,0.046048641204833984,9.836307525634766,-0.0019019613810242262,-0.007007688648582638,-0.0034086131687060426,0.31014299392700195,2019-06-20 11:23:36:285,0.0,0.0,0.0
-0.054200369864702225,0.07478563487529755,9.769254684448242,-0.004965344738411796,-0.005009829931589127,0.0008534851978144569,0.3151378631591797,2019-06-20 11:23:36:290,0.0,0.0,0.0
-0.08293736726045609,0.07718038558959961,9.848280906677246,0.0019605652290938555,-0.006208545265814964,-0.0008779922615526655,0.320159912109375,2019-06-20 11:23:36:295,0.0,0.0,0.0
-0.0757531151175499,0.06999614089727402,9.730938911437988,0.0010282312175129882,-0.005009829931589127,0.0021853910308163235,0.3251490592956543,2019-06-20 11:23:36:300,0.0,0.0,0.0
-0.07096362113952637,0.05562764033675194,9.797991752624512,0.0019605652290938555,-0.005808973834505452,-0.0006116111339634409,0.33013439178466797,2019-06-20 11:23:36:305,0.0,0.0,0.0
-0.08533211797475815,0.017311645671725273,9.857860565185547,0.0004954689298252484,-0.0026123997832861066,0.0024517721584055483,0.33513736724853516,2019-06-20 11:23:36:310,0.0,0.0,0.0
-0.09012161195278168,0.04365389049053192,9.809965133666992,-0.003899819967980573,-0.009138738189445085,0.000320722910126717,0.34014129638671875,2019-06-20 11:23:36:315,0.0,0.0,0.0
-0.0685688704252243,0.060417141765356064,9.807570457458496,-0.004033010531775186,-0.007806832031350311,-0.0022098980945545322,0.3451356887817383,2019-06-20 11:23:36:320,0.0,0.0,0.0
-0.11885861307382584,0.06999614089727402,9.786017417907715,-0.0005700556780595219,-0.006075354962094676,-0.00034522997386492567,0.350130558013916,2019-06-20 11:23:36:325,0.0,0.0,0.0
-0.08293736726045609,0.05083814263343811,9.84588623046875,0.0019605652290938555,-0.008339594286528761,-0.0008779922615526655,0.3551464080810547,2019-06-20 11:23:36:330,0.0,0.0,0.0
-0.07096362113952637,0.07957513630390167,9.750096321105957,-0.0005700556780595219,-0.007407260600040799,0.001652628645600712,0.3601388931274414,2019-06-20 11:23:36:335,0.0,0.0,0.0
-0.10688485950231552,0.03646964207291603,9.77643871307373,0.0011614218463261818,-0.0031451620384645557,0.001652628645600712,0.3651437759399414,2019-06-20 11:23:36:340,0.0,0.0,0.0
-0.08293736726045609,0.026890644803643227,9.781228065490723,-0.0044325824832333474,-0.0035447339899227176,0.0007202946340198446,0.3701901435852051,2019-06-20 11:23:36:345,0.0,0.0,0.0
-0.10688485950231552,0.060417141765356064,9.774044036865234,-0.0020351519448188384,-0.007007688648582638,0.00018753233007745944,0.3751378059387207,2019-06-20 11:23:36:350,0.0,0.0,0.0
-0.08772686868906021,0.046048641204833984,9.807570457458496,-0.0008364368056487465,-0.005276211059178353,-0.004074565987679104,0.3813934326171875,2019-06-20 11:23:36:357,0.0,0.0,0.0
-0.09970061480998993,0.04844339191913605,9.819543838500977,-0.0011028179982565524,-0.0026123997832861066,0.006713870199833141,0.3864779472351074,2019-06-20 11:23:36:362,0.0,0.0,0.0
-0.1212533637881279,0.058022391051054,9.814754486083984,-0.0027011048938290626,-0.0011473035815453717,-0.002476279222143757,0.3914451599121094,2019-06-20 11:23:36:367,0.0,0.0,0.0
-0.09012161195278168,0.02210114523768425,9.769254684448242,-0.002967486021418287,-0.004477067676410679,-0.001410754581749696,0.3951234817504883,2019-06-20 11:23:36:370,0.0,0.0,0.0
-0.05898986756801605,0.09394363313913345,9.757280349731445,-0.0012360085620511645,-0.009671500444623534,-0.0036749942962952674,0.4001302719116211,2019-06-20 11:23:36:375,0.0,0.0,0.0
-0.09970061480998993,0.060417141765356064,9.81714916229248,0.003958423816050202,-0.00048135073006301944,-0.0030090414773222057,0.40643310546875,2019-06-20 11:23:36:382,0.0,0.0,0.0
-0.09251636266708374,0.06520663946866989,9.774044036865234,-0.0019019613810242262,-0.00540940188304729,0.0037836777963516713,0.41143226623535156,2019-06-20 11:23:36:387,0.0,0.0,0.0
-0.06617411971092224,0.1035226359963417,9.900965690612793,-0.0028342954576236743,-0.0038111151175119424,-0.005140090758110328,0.4165639877319336,2019-06-20 11:23:36:392,0.0,0.0,0.0
-0.08293736726045609,0.07478563487529755,9.800386428833008,0.003692042688460978,-0.005542592706916228,5.4341754091863145e-05,0.42014265060424805,2019-06-20 11:23:36:395,0.0,0.0,0.0
-0.09970061480998993,0.08675938844680786,9.790806770324707,-0.00017048393791174905,-0.0035447339899227176,-0.00380818486008988,0.425140380859375,2019-06-20 11:23:36:400,0.0,0.0,0.0
-0.11646386235952377,0.046048641204833984,9.860255241394043,0.0022269464867202427,-0.004343877372690392,-0.001943516836928145,0.43013858795166016,2019-06-20 11:23:36:405,0.0,0.0,0.0
-0.10927961021661758,0.10591738671064377,9.850675582885742,-0.0016355802534350015,-0.006208545265814964,0.0009866757616090692,0.4364051818847656,2019-06-20 11:23:36:412,0.0,0.0,0.0
-0.10209536552429199,0.09394363313913345,9.826728820800781,-0.00017048393791174905,-0.008206403982808473,-0.003275422604911431,0.4414196014404297,2019-06-20 11:23:36:417,0.0,0.0,0.0
-0.0949111133813858,0.06999614089727402,9.831518173217773,0.00022908778598137848,-0.005143020755458065,0.0019190097731899363,0.4464607238769531,2019-06-20 11:23:36:422,0.0,0.0,0.0
-0.05898986756801605,0.060417141765356064,9.87462329864502,-0.004033010531775186,-0.005542592706916228,0.00045391347392132933,0.4514350891113281,2019-06-20 11:23:36:427,0.0,0.0,0.0
-0.09970061480998993,0.09873313456773758,9.769254684448242,-0.0011028179982565524,-0.0038111151175119424,0.0037836777963516713,0.4551258087158203,2019-06-20 11:23:36:430,0.0,0.0,0.0
-0.08772686868906021,0.07478563487529755,9.826728820800781,0.002892899305693304,-0.003011971474669944,0.0013862475180114872,0.46016788482666016,2019-06-20 11:23:36:435,0.0,0.0,0.0
-0.13083235919475555,0.010127396322786808,9.850675582885742,0.00022908778598137848,-0.00980469074834382,0.004183249487735508,0.4664316177368164,2019-06-20 11:23:36:442,0.0,0.0,0.0
-0.08772686868906021,0.07718038558959961,9.843491554260254,-0.0009696273694433586,-0.007407260600040799,-0.0012775640179550837,0.4714164733886719,2019-06-20 11:23:36:447,0.0,0.0,0.0
-0.10927961021661758,0.07718038558959961,9.80517578125,9.58972140594435e-05,-0.003944305681306555,0.005115583434297794,0.47643566131591797,2019-06-20 11:23:36:452,0.0,0.0,0.0
-0.11885861307382584,0.06520663946866989,9.829123497009277,-0.0005700556780595219,-0.006608117217273125,-0.002875850913527594,0.4814128875732422,2019-06-20 11:23:36:457,0.0,0.0,0.0
-0.09730586409568787,0.06520663946866989,9.797991752624512,0.0018273746652992433,-0.005009829931589127,-0.0007448016977580532,0.48511743545532227,2019-06-20 11:23:36:460,0.0,0.0,0.0
-0.11646386235952377,0.04365389049053192,9.745306968688965,0.0016941841015046311,-0.004477067676410679,-0.004474137679062942,0.4901304244995117,2019-06-20 11:23:36:465,0.0,0.0,0.0
-0.11646386235952377,0.1298648864030838,9.80517578125,-0.003766629404185961,-0.00540940188304729,0.001253056954216875,0.4964303970336914,2019-06-20 11:23:36:472,0.0,0.0,0.0
-0.12364811450242996,0.06281188875436783,9.850675582885742,0.0004954689298252484,-0.003944305681306555,0.0005871040702252323,0.501434326171875,2019-06-20 11:23:36:477,0.0,0.0,0.0
-0.08772686868906021,0.06760139018297195,9.786017417907715,-0.0028342954576236743,-0.008605975414117985,-0.0018103262731335328,0.5067434310913086,2019-06-20 11:23:36:482,0.0,0.0,0.0
-0.10927961021661758,0.06999614089727402,9.762070655822754,-0.0008364368056487465,-0.006608117217273125,0.003250915541173222,0.5151491165161133,2019-06-20 11:23:36:490,0.0,0.0,0.0
-0.09970061480998993,0.060417141765356064,9.814754486083984,0.0014278029739154064,-0.00687449834486235,0.0011198663904222626,0.5201511383056641,2019-06-20 11:23:36:495,0.0,0.0,0.0
-0.09730586409568787,0.058022391051054,9.819543838500977,-0.0005700556780595219,-0.004343877372690392,-0.0007448016977580532,0.5251407623291016,2019-06-20 11:23:36:500,0.0,0.0,0.0
-0.13083235919475555,0.02928539365530014,9.829123497009277,0.0015609935377100185,-0.0075404509037610866,-0.0012775640179550837,0.5301346778869629,2019-06-20 11:23:36:505,0.0,0.0,0.0
-0.09730586409568787,0.04365389049053192,9.83391284942627,-0.0019019613810242262,-0.006208545265814964,-0.0012775640179550837,0.5351381301879883,2019-06-20 11:23:36:510,0.0,0.0,0.0
-0.054200369864702225,0.09633838385343552,9.850675582885742,0.003958423816050202,-0.0056757830106365145,-0.0015439451455443083,0.5401301383972168,2019-06-20 11:23:36:515,0.0,0.0,0.0
-0.10688485950231552,0.06520663946866989,9.83391284942627,9.58972140594435e-05,-0.005542592706916228,0.0035172966687624465,0.5451450347900391,2019-06-20 11:23:36:520,0.0,0.0,0.0
-0.061384618282318115,0.04365389049053192,9.826728820800781,-0.002967486021418287,-0.0040774962451011676,-0.007137948954955187,0.5501384735107422,2019-06-20 11:23:36:525,0.0,0.0,0.0
-0.09730586409568787,0.07718038558959961,9.829123497009277,0.002360137050514855,-0.004876639627868841,0.001253056954216875,0.5556111335754395,2019-06-20 11:23:36:531,0.0,0.0,0.0
-0.09730586409568787,0.06281188875436783,9.838702201843262,-0.0031006765852128995,-0.007940022855219248,-0.0007448016977580532,0.5593585968017578,2019-06-20 11:23:36:535,0.0,0.0,0.0
-0.09251636266708374,0.058022391051054,9.800386428833008,0.0004954689298252484,-0.005009829931589127,0.0020522003369845485,0.5664501190185547,2019-06-20 11:23:36:542,0.0,0.0,0.0
-0.11646386235952377,0.07239089161157608,9.759675025939941,-0.0019019613810242262,-0.00687449834486235,0.002718153285994773,0.5714254379272461,2019-06-20 11:23:36:547,0.0,0.0,0.0
-0.0949111133813858,0.024495894089341164,9.795597076416016,0.0016941841015046311,-0.00687449834486235,0.0017858192093953241,0.576446533203125,2019-06-20 11:23:36:552,0.0,0.0,0.0
-0.054200369864702225,0.08675938844680786,9.81714916229248,-3.7293361926152775e-05,-0.007274069776171861,0.00045391347392132933,0.5814332962036133,2019-06-20 11:23:36:557,0.0,0.0,0.0
-0.07096362113952637,0.07478563487529755,9.824334144592285,-0.006297250376357919,-0.008206403982808473,0.001253056954216875,0.5864276885986328,2019-06-20 11:23:36:562,0.0,0.0,0.0
-0.08533211797475815,0.06281188875436783,9.843491554260254,0.002360137050514855,-0.0011473035815453717,0.002718153285994773,0.5914115905761719,2019-06-20 11:23:36:567,0.0,0.0,0.0
-0.10688485950231552,0.038864392787218094,9.76446533203125,-0.0028342954576236743,-0.006075354962094676,0.0007202946340198446,0.5964641571044922,2019-06-20 11:23:36:572,0.0,0.0,0.0
-0.11406911164522171,0.058022391051054,9.795597076416016,-0.00043686508175561897,-0.010337453003522271,0.0009866757616090692,0.6018357276916504,2019-06-20 11:23:36:577,0.0,0.0,0.0
-0.0949111133813858,0.05083814263343811,9.797991752624512,-0.00017048393791174905,-0.0075404509037610866,0.0009866757616090692,0.6101365089416504,2019-06-20 11:23:36:585,0.0,0.0,0.0
-0.07814786583185196,0.0316801443696022,9.824334144592285,0.0022269464867202427,-0.007407260600040799,0.0024517721584055483,0.615138053894043,2019-06-20 11:23:36:590,0.0,0.0,0.0
-0.07335836440324783,0.014916895888745785,9.850675582885742,0.00022908778598137848,-0.005942164138225739,-0.0008779922615526655,0.6201610565185547,2019-06-20 11:23:36:595,0.0,0.0,0.0
-0.09251636266708374,0.03646964207291603,9.797991752624512,0.0016941841015046311,-0.005808973834505452,-0.002076707400722757,0.6251363754272461,2019-06-20 11:23:36:600,0.0,0.0,0.0
-0.09251636266708374,0.06760139018297195,9.79320240020752,0.0015609935377100185,-0.004343877372690392,-0.001011182825347278,0.6301250457763672,2019-06-20 11:23:36:605,0.0,0.0,0.0
-0.0757531151175499,0.02210114523768425,9.769254684448242,-0.0025679143300344504,-0.00687449834486235,0.000320722910126717,0.6351461410522461,2019-06-20 11:23:36:610,0.0,0.0,0.0
-0.11167436093091965,0.02210114523768425,9.795597076416016,-0.0012360085620511645,-0.003011971474669944,0.005248774258166731,0.6401405334472656,2019-06-20 11:23:36:615,0.0,0.0,0.0
-0.11885861307382584,0.06281188875436783,9.745306968688965,-0.004033010531775186,-0.00540940188304729,-0.001011182825347278,0.6451363563537598,2019-06-20 11:23:36:620,0.0,0.0,0.0
-0.13083235919475555,0.046048641204833984,9.814754486083984,0.0050239483264071004,-0.007673641727630024,0.0011198663904222626,0.6505718231201172,2019-06-20 11:23:36:626,0.0,0.0,0.0
-0.0949111133813858,0.05562764033675194,9.79320240020752,0.0003622783660306361,-0.006741307520993413,0.0037836777963516713,0.6542930603027344,2019-06-20 11:23:36:629,0.0,0.0,0.0
-0.07814786583185196,0.09154888242483139,9.841096878051758,-0.0016355802534350015,-0.00540940188304729,-0.0036749942962952674,0.6614322662353516,2019-06-20 11:23:36:637,0.0,0.0,0.0
-0.10688485950231552,0.038864392787218094,9.790806770324707,0.001294612410120794,-0.003411543426128106,-0.00034522997386492567,0.6664447784423828,2019-06-20 11:23:36:642,0.0,0.0,0.0
-0.08772686868906021,0.034074895083904266,9.829123497009277,0.002360137050514855,-0.004477067676410679,0.0024517721584055483,0.6714305877685547,2019-06-20 11:23:36:647,0.0,0.0,0.0
-0.08293736726045609,0.06760139018297195,9.860255241394043,0.0018273746652992433,-0.005009829931589127,-0.0006116111339634409,0.6764287948608398,2019-06-20 11:23:36:652,0.0,0.0,0.0
-0.08772686868906021,0.08196988701820374,9.824334144592285,-0.0036334388403913486,-0.004610258500279616,-0.004340947115268329,0.6814212799072266,2019-06-20 11:23:36:657,0.0,0.0,0.0
-0.07814786583185196,0.10591738671064377,9.857860565185547,0.0018273746652992433,-0.008472785110397698,0.0031177249773786096,0.6864681243896484,2019-06-20 11:23:36:662,0.0,0.0,0.0
-0.08293736726045609,0.07478563487529755,9.850675582885742,-0.0025679143300344504,-0.007806832031350311,-0.0008779922615526655,0.6914358139038086,2019-06-20 11:23:36:667,0.0,0.0,0.0
-0.0685688704252243,0.09633838385343552,9.797991752624512,-0.0017687708172296136,-0.010603834651260146,0.0020522003369845485,0.6964812278747559,2019-06-20 11:23:36:672,0.0,0.0,0.0
-0.11406911164522171,0.06760139018297195,9.853070259094238,0.0024933276143094675,-0.0075404509037610866,0.0017858192093953241,0.701448917388916,2019-06-20 11:23:36:677,0.0,0.0,0.0
-0.0949111133813858,0.07239089161157608,9.800386428833008,-0.00017048393791174905,-0.0032783528623334932,0.0005871040702252323,0.7064380645751953,2019-06-20 11:23:36:682,0.0,0.0,0.0
-0.10209536552429199,0.058022391051054,9.831518173217773,0.0011614218463261818,-0.004343877372690392,0.0019190097731899363,0.7114229202270508,2019-06-20 11:23:36:687,0.0,0.0,0.0
-0.07096362113952637,0.07957513630390167,9.84588623046875,0.002759708741898692,-0.007806832031350311,0.000320722910126717,0.7164411544799805,2019-06-20 11:23:36:692,0.0,0.0,0.0
-0.08772686868906021,0.1107068806886673,9.836307525634766,-3.7293361926152775e-05,-0.0040774962451011676,-0.00047842053765953795,0.7214593887329102,2019-06-20 11:23:36:697,0.0,0.0,0.0
-0.07335836440324783,0.026890644803643227,9.83391284942627,-0.0011028179982565524,-0.009671500444623534,0.0035172966687624465,0.7264375686645508,2019-06-20 11:23:36:702,0.0,0.0,0.0
-0.13083235919475555,0.0843646377325058,9.771649360656738,0.0007618500899237635,-0.004477067676410679,0.0025849627222001605,0.7314233779907227,2019-06-20 11:23:36:707,0.0,0.0,0.0
-0.10927961021661758,0.1107068806886673,9.781228065490723,-0.0036334388403913486,-0.0020796375281076575,-0.0018103262731335328,0.7364559173583984,2019-06-20 11:23:36:712,0.0,0.0,0.0
-0.08293736726045609,0.06520663946866989,9.762070655822754,0.00022908778598137848,-0.0006145413263669223,-0.00021203939381566809,0.7416200637817383,2019-06-20 11:23:36:717,0.0,0.0,0.0
-0.07096362113952637,0.06999614089727402,9.774044036865234,-0.0008364368056487465,-0.004210686808895779,0.0025849627222001605,0.7465276718139648,2019-06-20 11:23:36:722,0.0,0.0,0.0
-0.11167436093091965,0.06520663946866989,9.774044036865234,0.0006286595261291513,-0.004343877372690392,-0.002076707400722757,0.7514228820800781,2019-06-20 11:23:36:727,0.0,0.0,0.0
-0.12364811450242996,0.09394363313913345,9.836307525634766,0.001294612410120794,-0.005942164138225739,0.0036504872325570587,0.7564420700073242,2019-06-20 11:23:36:732,0.0,0.0,0.0
-0.08772686868906021,0.046048641204833984,9.831518173217773,0.0010282312175129882,-0.005143020755458065,0.0020522003369845485,0.7614326477050781,2019-06-20 11:23:36:737,0.0,0.0,0.0
-0.10209536552429199,0.046048641204833984,9.786017417907715,-0.0036334388403913486,-0.0032783528623334932,-0.0015439451455443083,0.7664313316345215,2019-06-20 11:23:36:742,0.0,0.0,0.0
-0.08293736726045609,0.06999614089727402,9.826728820800781,9.58972140594435e-05,-0.005942164138225739,0.005248774258166731,0.771418571472168,2019-06-20 11:23:36:747,0.0,0.0,0.0
-0.11885861307382584,0.03646964207291603,9.783622741699219,-0.0012360085620511645,-0.0056757830106365145,0.0015194380818060996,0.776463508605957,2019-06-20 11:23:36:752,0.0,0.0,0.0
-0.0949111133813858,0.024495894089341164,9.812359809875488,-0.0009696273694433586,-0.00687449834486235,0.0009866757616090692,0.7814393043518066,2019-06-20 11:23:36:757,0.0,0.0,0.0
-0.09251636266708374,0.05083814263343811,9.771649360656738,-3.7293361926152775e-05,-0.006208545265814964,0.0009866757616090692,0.78643798828125,2019-06-20 11:23:36:762,0.0,0.0,0.0
-0.09251636266708374,0.046048641204833984,9.908149719238281,-0.0021683425086134506,-0.007407260600040799,0.004050058923940896,0.7918806076049805,2019-06-20 11:23:36:767,0.0,0.0,0.0
-0.08533211797475815,0.07239089161157608,9.795597076416016,-0.001369199125845777,-0.0007477318901615347,-0.0034086131687060426,0.8001413345336914,2019-06-20 11:23:36:775,0.0,0.0,0.0
-0.10927961021661758,0.06520663946866989,9.809965133666992,0.003958423816050202,-0.001413684709134596,0.000320722910126717,0.8051385879516602,2019-06-20 11:23:36:780,0.0,0.0,0.0
-0.1212533637881279,0.060417141765356064,9.800386428833008,0.0010282312175129882,-0.0032783528623334932,0.0017858192093953241,0.8101358413696289,2019-06-20 11:23:36:785,0.0,0.0,0.0
-0.10688485950231552,0.060417141765356064,9.812359809875488,-0.0011028179982565524,-0.005942164138225739,-0.002076707400722757,0.8151378631591797,2019-06-20 11:23:36:790,0.0,0.0,0.0
-0.1284376084804535,0.07718038558959961,9.802781105041504,-0.00576448812117947,-0.005542592706916228,0.002318581594610936,0.8201274871826172,2019-06-20 11:23:36:795,0.0,0.0,0.0
-0.09251636266708374,0.04365389049053192,9.87462329864502,-0.0025679143300344504,-0.00540940188304729,-0.001943516836928145,0.8251485824584961,2019-06-20 11:23:36:800,0.0,0.0,0.0
-0.08293736726045609,0.07957513630390167,9.788412094116211,0.0007618500899237635,-0.0010141130177507593,0.001652628645600712,0.8301401138305664,2019-06-20 11:23:36:805,0.0,0.0,0.0
-0.11406911164522171,0.06760139018297195,9.869833946228027,-0.0015023896896403893,-0.006741307520993413,0.0025849627222001605,0.8351702690124512,2019-06-20 11:23:36:810,0.0,0.0,0.0
-0.10449011623859406,0.06520663946866989,9.800386428833008,-0.0023015332024452257,-0.007274069776171861,0.00045391347392132933,0.8401603698730469,2019-06-20 11:23:36:815,0.0,0.0,0.0
-0.07096362113952637,0.07239089161157608,9.814754486083984,0.0022269464867202427,-0.0032783528623334932,0.0005871040702252323,0.8451356887817383,2019-06-20 11:23:36:820,0.0,0.0,0.0
-0.10449011623859406,0.02928539365530014,9.841096878051758,0.002360137050514855,-0.007140879472451575,0.0024517721584055483,0.8501248359680176,2019-06-20 11:23:36:825,0.0,0.0,0.0
-0.11646386235952377,0.09154888242483139,9.797991752624512,-0.0011028179982565524,-0.007407260600040799,-0.00021203939381566809,0.8551397323608398,2019-06-20 11:23:36:830,0.0,0.0,0.0
-0.09251636266708374,0.04844339191913605,9.788412094116211,-0.0008364368056487465,-0.008073213158939536,-0.0008779922615526655,0.8601369857788086,2019-06-20 11:23:36:835,0.0,0.0,0.0
-0.0757531151175499,0.07239089161157608,9.790806770324707,-0.00043686508175561897,-0.005942164138225739,0.004183249487735508,0.8651361465454102,2019-06-20 11:23:36:840,0.0,0.0,0.0
-0.0949111133813858,0.060417141765356064,9.850675582885742,0.0026265181781040797,-0.0028787809108753314,-0.0012775640179550837,0.8713932037353516,2019-06-20 11:23:36:847,0.0,0.0,0.0
-0.09012161195278168,0.0843646377325058,9.79320240020752,0.004224804943639427,-0.007140879472451575,0.0037836777963516713,0.8764553070068359,2019-06-20 11:23:36:852,0.0,0.0,0.0
-0.07096362113952637,0.07239089161157608,9.788412094116211,-0.0005700556780595219,-0.005276211059178353,-0.0008779922615526655,0.8817138671875,2019-06-20 11:23:36:857,0.0,0.0,0.0
-0.0685688704252243,0.1035226359963417,9.769254684448242,-0.0005700556780595219,-0.0032783528623334932,0.0008534851978144569,0.8901400566101074,2019-06-20 11:23:36:865,0.0,0.0,0.0
-0.0949111133813858,0.04125914350152016,9.774044036865234,0.004224804943639427,-0.004876639627868841,0.004982393130577507,0.8951373100280762,2019-06-20 11:23:36:870,0.0,0.0,0.0
-0.09970061480998993,0.058022391051054,9.843491554260254,0.0007618500899237635,-0.00980469074834382,0.0011198663904222626,0.900139331817627,2019-06-20 11:23:36:875,0.0,0.0,0.0
-0.05898986756801605,0.07239089161157608,9.778833389282227,-0.0009696273694433586,-0.006474926393404189,0.0028513438497893852,0.9051380157470703,2019-06-20 11:23:36:880,0.0,0.0,0.0
-0.09730586409568787,0.03646964207291603,9.812359809875488,-0.0009696273694433586,-0.007007688648582638,-0.0012775640179550837,0.9101285934448242,2019-06-20 11:23:36:885,0.0,0.0,0.0
-0.05180561915040016,0.060417141765356064,9.85546588897705,0.002892899305693304,-0.005276211059178353,-0.0006116111339634409,0.9151430130004883,2019-06-20 11:23:36:890,0.0,0.0,0.0
-0.08533211797475815,0.04365389049053192,9.912939071655273,-0.0009696273694433586,-0.009005546845427497,0.000320722910126717,0.920140266418457,2019-06-20 11:23:36:895,0.0,0.0,0.0
-0.09730586409568787,0.09633838385343552,9.87462329864502,-0.0020351519448188384,-0.0031451620384645557,-0.002476279222143757,0.9251441955566406,2019-06-20 11:23:36:900,0.0,0.0,0.0
-0.09970061480998993,0.060417141765356064,9.8961763381958,0.0007618500899237635,-0.004876639627868841,-0.0006116111339634409,0.9302835464477539,2019-06-20 11:23:36:905,0.0,0.0,0.0
-0.09012161195278168,0.06760139018297195,9.797991752624512,-0.004166201095569797,-0.003944305681306555,-0.00034522997386492567,0.9351491928100586,2019-06-20 11:23:36:910,0.0,0.0,0.0
-0.10209536552429199,0.058022391051054,9.809965133666992,0.0007618500899237635,-0.007806832031350311,0.001652628645600712,0.9401335716247559,2019-06-20 11:23:36:915,0.0,0.0,0.0
-0.11885861307382584,0.07718038558959961,9.797991752624512,0.0026265181781040797,-0.0040774962451011676,0.0015194380818060996,0.9451427459716797,2019-06-20 11:23:36:920,0.0,0.0,0.0
-0.0757531151175499,0.05083814263343811,9.877017974853516,-3.7293361926152775e-05,-0.003944305681306555,0.0009866757616090692,0.9501409530639648,2019-06-20 11:23:36:925,0.0,0.0,0.0
-0.10209536552429199,0.05083814263343811,9.838702201843262,0.0011614218463261818,-0.00887235654170721,-0.002875850913527594,0.9551386833190918,2019-06-20 11:23:36:930,0.0,0.0,0.0
-0.09251636266708374,0.05562764033675194,9.884202003479004,0.0035588521246663657,-0.005942164138225739,0.004050058923940896,0.9613971710205078,2019-06-20 11:23:36:937,0.0,0.0,0.0
-0.0949111133813858,0.04125914350152016,9.826728820800781,-0.0015023896896403893,-0.005808973834505452,-0.0016771357093389207,0.9664630889892578,2019-06-20 11:23:36:942,0.0,0.0,0.0
-0.07096362113952637,0.058022391051054,9.807570457458496,-0.0016355802534350015,-0.006741307520993413,0.00018753233007745944,0.9714322090148926,2019-06-20 11:23:36:947,0.0,0.0,0.0
-0.11646386235952377,0.04125914350152016,9.795597076416016,-0.001369199125845777,-0.0015468752729292082,-0.0030090414773222057,0.9761142730712891,2019-06-20 11:23:36:951,0.0,0.0,0.0
-0.11646386235952377,0.06999614089727402,9.759675025939941,-0.0003036745179610067,-0.002745590347080719,0.006447489072243917,0.9801445007324219,2019-06-20 11:23:36:955,0.0,0.0,0.0
-0.11406911164522171,0.05562764033675194,9.812359809875488,-0.0009696273694433586,-0.006075354962094676,-0.00021203939381566809,0.9851303100585938,2019-06-20 11:23:36:960,0.0,0.0,0.0
-0.08293736726045609,0.07957513630390167,9.862649917602539,-0.0036334388403913486,-0.0075404509037610866,-0.0012775640179550837,0.990142822265625,2019-06-20 11:23:36:965,0.0,0.0,0.0
-0.06377936899662018,0.053232889622449875,9.800386428833008,0.0003622783660306361,-0.006741307520993413,0.0036504872325570587,0.9951381683349609,2019-06-20 11:23:36:970,0.0,0.0,0.0
-0.11406911164522171,0.05083814263343811,9.848280906677246,0.0030260898694879166,-0.0022128280919022697,-0.0023430886583491444,1.0001411437988281,2019-06-20 11:23:36:975,0.0,0.0,0.0
-0.07335836440324783,0.06520663946866989,9.848280906677246,0.002759708741898692,-0.008073213158939536,0.0020522003369845485,1.0064105987548828,2019-06-20 11:23:36:982,0.0,0.0,0.0
-0.07814786583185196,0.04365389049053192,9.829123497009277,-0.002434723766239838,-0.0035447339899227176,0.00045391347392132933,1.011423110961914,2019-06-20 11:23:36:987,0.0,0.0,0.0
-0.05898986756801605,0.05083814263343811,9.80517578125,0.0014278029739154064,-0.0018132564005184332,-0.001011182825347278,1.0169353485107422,2019-06-20 11:23:36:992,0.0,0.0,0.0
-0.07335836440324783,0.04844339191913605,9.783622741699219,-0.0021683425086134506,-0.003944305681306555,-0.003275422604911431,1.0252561569213867,2019-06-20 11:23:37:000,0.0,0.0,0.0
-0.11646386235952377,0.05083814263343811,9.79320240020752,0.0015609935377100185,-0.010337453003522271,-0.0015439451455443083,1.0301342010498047,2019-06-20 11:23:37:005,0.0,0.0,0.0
-0.0949111133813858,0.038864392787218094,9.81714916229248,-0.006430440680078206,-0.0040774962451011676,0.0036504872325570587,1.035139560699463,2019-06-20 11:23:37:010,0.0,0.0,0.0
-0.06617411971092224,0.04844339191913605,9.857860565185547,-0.0019019613810242262,-0.006075354962094676,0.0015194380818060996,1.0401411056518555,2019-06-20 11:23:37:015,0.0,0.0,0.0
-0.05659512057900429,0.034074895083904266,9.83391284942627,-0.0005700556780595219,-0.008339594286528761,0.0005871040702252323,1.0451421737670898,2019-06-20 11:23:37:020,0.0,0.0,0.0
-0.061384618282318115,0.053232889622449875,9.867439270019531,0.0026265181781040797,-0.004743448803999903,0.00045391347392132933,1.0501298904418945,2019-06-20 11:23:37:025,0.0,0.0,0.0
-0.08293736726045609,0.07718038558959961,9.857860565185547,0.0007618500899237635,-0.00367792455371733,0.0021853910308163235,1.0551490783691406,2019-06-20 11:23:37:030,0.0,0.0,0.0
-0.11167436093091965,0.060417141765356064,9.771649360656738,-0.0025679143300344504,-0.007673641727630024,-0.002476279222143757,1.060135841369629,2019-06-20 11:23:37:035,0.0,0.0,0.0
-0.1284376084804535,0.06281188875436783,9.80517578125,0.00022908778598137848,-0.006608117217273125,-0.00021203939381566809,1.0651392936706543,2019-06-20 11:23:37:040,0.0,0.0,0.0
-0.0949111133813858,0.08196988701820374,9.783622741699219,-0.0016355802534350015,-0.007140879472451575,0.0013862475180114872,1.0702166557312012,2019-06-20 11:23:37:045,0.0,0.0,0.0
-0.11406911164522171,0.046048641204833984,9.853070259094238,0.0019605652290938555,-0.008339594286528761,-7.884882189373314e-05,1.0751476287841797,2019-06-20 11:23:37:050,0.0,0.0,0.0
-0.0949111133813858,0.04844339191913605,9.848280906677246,-0.0021683425086134506,-0.006208545265814964,0.001253056954216875,1.0801301002502441,2019-06-20 11:23:37:055,0.0,0.0,0.0
-0.0685688704252243,0.02210114523768425,9.862649917602539,0.0015609935377100185,-0.005143020755458065,0.0008534851978144569,1.0851411819458008,2019-06-20 11:23:37:060,0.0,0.0,0.0
-0.09012161195278168,0.06520663946866989,9.841096878051758,0.0019605652290938555,-0.0028787809108753314,0.003250915541173222,1.0901374816894531,2019-06-20 11:23:37:065,0.0,0.0,0.0
-0.08293736726045609,0.04125914350152016,9.814754486083984,0.0003622783660306361,-0.002745590347080719,0.003384106104967834,1.0951414108276367,2019-06-20 11:23:37:070,0.0,0.0,0.0
-0.09251636266708374,0.07478563487529755,9.81714916229248,0.0007618500899237635,-0.0028787809108753314,0.0007202946340198446,1.100128173828125,2019-06-20 11:23:37:075,0.0,0.0,0.0
-0.0949111133813858,0.07957513630390167,9.747701644897461,0.0020937557928884677,-0.004343877372690392,-0.0035418037325006552,1.10514497756958,2019-06-20 11:23:37:080,0.0,0.0,0.0
-0.08772686868906021,0.07478563487529755,9.783622741699219,-0.0015023896896403893,-0.006474926393404189,-0.0011443734541604713,1.110137939453125,2019-06-20 11:23:37:085,0.0,0.0,0.0
-0.13562186062335968,0.07478563487529755,9.829123497009277,-0.0005700556780595219,-0.006208545265814964,0.00045391347392132933,1.1151390075683594,2019-06-20 11:23:37:090,0.0,0.0,0.0
-0.09251636266708374,0.04125914350152016,9.848280906677246,-3.7293361926152775e-05,-0.00687449834486235,0.0007202946340198446,1.1201963424682617,2019-06-20 11:23:37:095,0.0,0.0,0.0
-0.14280611276626587,0.08915413916110992,9.826728820800781,9.58972140594435e-05,-0.004477067676410679,0.0037836777963516713,1.1251425743103027,2019-06-20 11:23:37:100,0.0,0.0,0.0
-0.09251636266708374,0.05562764033675194,9.843491554260254,-0.0012360085620511645,-0.005143020755458065,0.003384106104967834,1.1301250457763672,2019-06-20 11:23:37:105,0.0,0.0,0.0
-0.0494108721613884,0.08196988701820374,9.80517578125,-0.0019019613810242262,-0.002745590347080719,-0.0030090414773222057,1.1351451873779297,2019-06-20 11:23:37:110,0.0,0.0,0.0
-0.1284376084804535,0.08915413916110992,9.809965133666992,-0.0015023896896403893,-0.005143020755458065,-0.00034522997386492567,1.1401433944702148,2019-06-20 11:23:37:115,0.0,0.0,0.0
-0.08772686868906021,0.10831213742494583,9.76446533203125,-0.0021683425086134506,-0.008472785110397698,0.0005871040702252323,1.1451358795166016,2019-06-20 11:23:37:120,0.0,0.0,0.0
-0.09730586409568787,0.03646964207291603,9.81714916229248,0.0004954689298252484,-0.008206403982808473,0.0028513438497893852,1.1501288414001465,2019-06-20 11:23:37:125,0.0,0.0,0.0
-0.0949111133813858,0.07718038558959961,9.838702201843262,-0.0025679143300344504,-0.009937881052064107,-0.002476279222143757,1.1551446914672852,2019-06-20 11:23:37:130,0.0,0.0,0.0
-0.09251636266708374,0.09154888242483139,9.807570457458496,-0.001369199125845777,-0.00980469074834382,0.00431644005153012,1.160140037536621,2019-06-20 11:23:37:135,0.0,0.0,0.0
-0.12604285776615143,0.060417141765356064,9.941676139831543,-0.0008364368056487465,-0.003411543426128106,0.003384106104967834,1.1665449142456055,2019-06-20 11:23:37:142,0.0,0.0,0.0
-0.09730586409568787,0.08675938844680786,9.898571014404297,0.0004954689298252484,-0.004610258500279616,0.0005871040702252323,1.1699938774108887,2019-06-20 11:23:37:145,0.0,0.0,0.0
-0.11406911164522171,0.034074895083904266,9.838702201843262,0.0007618500899237635,-0.0008809224539561469,0.0005871040702252323,1.175736904144287,2019-06-20 11:23:37:151,0.0,0.0,0.0
-0.10688485950231552,0.06520663946866989,9.841096878051758,-0.0015023896896403893,-0.0040774962451011676,0.0008534851978144569,1.1807336807250977,2019-06-20 11:23:37:156,0.0,0.0,0.0
-0.09970061480998993,0.053232889622449875,9.790806770324707,-0.00043686508175561897,-0.003411543426128106,-0.0012775640179550837,1.1848478317260742,2019-06-20 11:23:37:160,0.0,0.0,0.0
-0.08293736726045609,0.0843646377325058,9.807570457458496,0.0003622783660306361,-0.0031451620384645557,-0.001410754581749696,1.1907291412353516,2019-06-20 11:23:37:166,0.0,0.0,0.0
-0.09012161195278168,0.05083814263343811,9.790806770324707,-0.0020351519448188384,-0.005276211059178353,0.0009866757616090692,1.1948513984680176,2019-06-20 11:23:37:170,0.0,0.0,0.0
-0.10688485950231552,0.053232889622449875,9.802781105041504,-0.0032338671490075113,-0.005942164138225739,-0.004474137679062942,1.2007384300231934,2019-06-20 11:23:37:176,0.0,0.0,0.0
-0.09970061480998993,0.02928539365530014,9.83391284942627,0.0004954689298252484,-0.006608117217273125,-0.002609469785938369,1.2048540115356445,2019-06-20 11:23:37:180,0.0,0.0,0.0
-0.09730586409568787,0.05562764033675194,9.831518173217773,-0.0028342954576236743,-0.00687449834486235,-0.0035418037325006552,1.2107758522033691,2019-06-20 11:23:37:186,0.0,0.0,0.0
-0.0757531151175499,0.07239089161157608,9.83391284942627,0.0014278029739154064,-0.0019464469643130453,0.0013862475180114872,1.215756893157959,2019-06-20 11:23:37:191,0.0,0.0,0.0
-0.0949111133813858,0.058022391051054,9.821938514709473,-0.0016355802534350015,-0.0015468752729292082,-0.003275422604911431,1.2198376655578613,2019-06-20 11:23:37:195,0.0,0.0,0.0
-0.08054261654615402,0.10112788528203964,9.826728820800781,-0.004033010531775186,0.00018460213767397795,-0.0018103262731335328,1.2257499694824219,2019-06-20 11:23:37:201,0.0,0.0,0.0
-0.08293736726045609,0.038864392787218094,9.80517578125,0.0020937557928884677,-0.0032783528623334932,0.001253056954216875,1.229837417602539,2019-06-20 11:23:37:205,0.0,0.0,0.0
-0.08533211797475815,0.05083814263343811,9.762070655822754,0.0004954689298252484,-0.011269787210158881,0.001652628645600712,1.2357254028320312,2019-06-20 11:23:37:211,0.0,0.0,0.0
-0.1284376084804535,0.07478563487529755,9.83391284942627,-0.0020351519448188384,0.0008505550054109754,-0.0018103262731335328,1.239840030670166,2019-06-20 11:23:37:215,0.0,0.0,0.0
-0.11167436093091965,0.06520663946866989,9.826728820800781,-0.003367057712802124,-0.008339594286528761,0.0020522003369845485,1.2457308769226074,2019-06-20 11:23:37:221,0.0,0.0,0.0
-0.09012161195278168,0.07239089161157608,9.867439270019531,-0.005098535042132083,-0.008605975414117985,0.002318581594610936,1.2498464584350586,2019-06-20 11:23:37:225,0.0,0.0,0.0
-0.07335836440324783,0.06520663946866989,9.786017417907715,-0.00722958406284588,-0.00367792455371733,-0.0016771357093389207,1.2557363510131836,2019-06-20 11:23:37:231,0.0,0.0,0.0
-0.08054261654615402,0.06281188875436783,9.73572826385498,0.0007618500899237635,-0.007140879472451575,-0.001410754581749696,1.259873390197754,2019-06-20 11:23:37:235,0.0,0.0,0.0
-0.07814786583185196,0.08196988701820374,9.836307525634766,-0.0019019613810242262,-0.004743448803999903,0.0015194380818060996,1.2657318115234375,2019-06-20 11:23:37:241,0.0,0.0,0.0
-0.11167436093091965,0.034074895083904266,9.84588623046875,-0.0003036745179610067,0.00045098328151784784,-0.0006116111339634409,1.2698369026184082,2019-06-20 11:23:37:245,0.0,0.0,0.0
-0.10209536552429199,0.1035226359963417,9.788412094116211,0.004357995507434039,-0.007274069776171861,0.0015194380818060996,1.2757320404052734,2019-06-20 11:23:37:251,0.0,0.0,0.0
-0.10449011623859406,0.04125914350152016,9.836307525634766,-0.0003036745179610067,-0.005143020755458065,-0.0018103262731335328,1.2798409461975098,2019-06-20 11:23:37:255,0.0,0.0,0.0
-0.0949111133813858,0.058022391051054,9.81714916229248,-0.0015023896896403893,-0.01087021525870072,0.0021853910308163235,1.285731315612793,2019-06-20 11:23:37:261,0.0,0.0,0.0
-0.08054261654615402,0.0843646377325058,9.826728820800781,0.0019605652290938555,-0.007806832031350311,-0.0022098980945545322,1.2898378372192383,2019-06-20 11:23:37:265,0.0,0.0,0.0
-0.09012161195278168,0.07239089161157608,9.869833946228027,-0.0007032462418541342,-0.010204262699801982,-0.0034086131687060426,1.2957334518432617,2019-06-20 11:23:37:271,0.0,0.0,0.0
-0.0757531151175499,0.07718038558959961,9.857860565185547,-0.0036334388403913486,-0.001413684709134596,-0.002875850913527594,1.2998485565185547,2019-06-20 11:23:37:275,0.0,0.0,0.0
-0.07814786583185196,0.053232889622449875,9.84588623046875,-0.00576448812117947,-0.0063417360896839015,-0.001011182825347278,1.3057632446289062,2019-06-20 11:23:37:281,0.0,0.0,0.0
-0.08293736726045609,0.026890644803643227,9.802781105041504,0.001294612410120794,-0.007274069776171861,-0.0018103262731335328,1.3098506927490234,2019-06-20 11:23:37:285,0.0,0.0,0.0
-0.08293736726045609,0.06281188875436783,9.831518173217773,-0.0007032462418541342,-0.00980469074834382,0.0037836777963516713,1.3157320022583008,2019-06-20 11:23:37:291,0.0,0.0,0.0
-0.09730586409568787,0.046048641204833984,9.800386428833008,0.0006286595261291513,-0.007806832031350311,0.0021853910308163235,1.3198399543762207,2019-06-20 11:23:37:295,0.0,0.0,0.0
-0.08293736726045609,0.07239089161157608,9.80517578125,-0.0027011048938290626,-0.006474926393404189,-0.0012775640179550837,1.3257560729980469,2019-06-20 11:23:37:301,0.0,0.0,0.0
-0.04222662001848221,0.04844339191913605,9.812359809875488,-0.00017048393791174905,-0.004876639627868841,-0.0056728530132887775,1.3298454284667969,2019-06-20 11:23:37:305,0.0,0.0,0.0
-0.05659512057900429,0.053232889622449875,9.831518173217773,0.0004954689298252484,-0.007007688648582638,0.0036504872325570587,1.3357329368591309,2019-06-20 11:23:37:311,0.0,0.0,0.0
-0.05659512057900429,0.0843646377325058,9.812359809875488,-0.0016355802534350015,-0.005143020755458065,-0.002476279222143757,1.3398370742797852,2019-06-20 11:23:37:315,0.0,0.0,0.0
-0.06377936899662018,0.04844339191913605,9.826728820800781,-0.004698963610822572,-0.004610258500279616,0.0037836777963516713,1.3457317352294922,2019-06-20 11:23:37:321,0.0,0.0,0.0
-0.061384618282318115,0.04844339191913605,9.769254684448242,-0.002967486021418287,-0.006741307520993413,0.0008534851978144569,1.3502044677734375,2019-06-20 11:23:37:325,0.0,0.0,0.0
-0.13322710990905762,0.058022391051054,9.786017417907715,0.0019605652290938555,-0.006608117217273125,0.0028513438497893852,1.355757713317871,2019-06-20 11:23:37:331,0.0,0.0,0.0
-0.08772686868906021,0.06281188875436783,9.84588623046875,-0.0027011048938290626,-0.0056757830106365145,-0.0042077565514737165,1.3607263565063477,2019-06-20 11:23:37:336,0.0,0.0,0.0
-0.09970061480998993,0.07239089161157608,9.778833389282227,0.0030260898694879166,-0.003411543426128106,0.0015194380818060996,1.364842414855957,2019-06-20 11:23:37:340,0.0,0.0,0.0
-0.09730586409568787,0.08196988701820374,9.888992309570312,-0.00043686508175561897,-0.00687449834486235,-0.0015439451455443083,1.3698453903198242,2019-06-20 11:23:37:345,0.0,0.0,0.0
-0.08533211797475815,0.09394363313913345,9.843491554260254,-0.0027011048938290626,-0.006208545265814964,-0.0015439451455443083,1.375732421875,2019-06-20 11:23:37:351,0.0,0.0,0.0
-0.08054261654615402,0.07718038558959961,9.819543838500977,0.0010282312175129882,-0.008605975414117985,0.0011198663904222626,1.379837989807129,2019-06-20 11:23:37:355,0.0,0.0,0.0
-0.07814786583185196,0.06999614089727402,9.745306968688965,0.0004954689298252484,-0.004477067676410679,-0.0018103262731335328,1.3857307434082031,2019-06-20 11:23:37:361,0.0,0.0,0.0
-0.06617411971092224,0.060417141765356064,9.84588623046875,0.0011614218463261818,-0.007140879472451575,0.001652628645600712,1.3898463249206543,2019-06-20 11:23:37:365,0.0,0.0,0.0
-0.08533211797475815,0.058022391051054,9.750096321105957,9.58972140594435e-05,-0.006608117217273125,0.0015194380818060996,1.3957343101501465,2019-06-20 11:23:37:371,0.0,0.0,0.0
-0.0949111133813858,0.058022391051054,9.80517578125,-0.0021683425086134506,-0.007806832031350311,0.00018753233007745944,1.4007749557495117,2019-06-20 11:23:37:376,0.0,0.0,0.0
-0.08293736726045609,0.0843646377325058,9.862649917602539,-0.0021683425086134506,-0.0031451620384645557,-0.0036749942962952674,1.4048538208007812,2019-06-20 11:23:37:380,0.0,0.0,0.0
-0.1212533637881279,0.07478563487529755,9.771649360656738,-0.0012360085620511645,-0.008206403982808473,-0.0035418037325006552,1.4107260704040527,2019-06-20 11:23:37:386,0.0,0.0,0.0
-0.12364811450242996,0.05083814263343811,9.85546588897705,0.0004954689298252484,-0.009405118796885659,-0.002076707400722757,1.4148426055908203,2019-06-20 11:23:37:390,0.0,0.0,0.0
-0.08533211797475815,0.060417141765356064,9.809965133666992,-0.0028342954576236743,-0.004743448803999903,0.0024517721584055483,1.4207329750061035,2019-06-20 11:23:37:396,0.0,0.0,0.0
-0.0949111133813858,0.07478563487529755,9.850675582885742,9.58972140594435e-05,-0.0007477318901615347,-0.0023430886583491444,1.4248452186584473,2019-06-20 11:23:37:400,0.0,0.0,0.0
-0.10209536552429199,0.06520663946866989,9.848280906677246,-0.0005700556780595219,-0.008206403982808473,-0.0006116111339634409,1.4307241439819336,2019-06-20 11:23:37:406,0.0,0.0,0.0
-0.13322710990905762,0.06760139018297195,9.85546588897705,0.00022908778598137848,-0.0028787809108753314,-0.006072424444598289,1.434844970703125,2019-06-20 11:23:37:410,0.0,0.0,0.0
-0.09970061480998993,0.038864392787218094,9.872228622436523,-0.0012360085620511645,-0.005276211059178353,-0.0016771357093389207,1.4407320022583008,2019-06-20 11:23:37:416,0.0,0.0,0.0
-0.14999036490917206,0.04844339191913605,9.821938514709473,-0.001369199125845777,-0.007007688648582638,0.0009866757616090692,1.4448785781860352,2019-06-20 11:23:37:420,0.0,0.0,0.0
-0.10209536552429199,0.05562764033675194,9.84588623046875,-0.003500248276596736,-0.008206403982808473,-0.0007448016977580532,1.4507522583007812,2019-06-20 11:23:37:426,0.0,0.0,0.0
-0.1284376084804535,0.09154888242483139,9.76446533203125,0.0019605652290938555,-0.008739166237986921,-0.0007448016977580532,1.4548468589782715,2019-06-20 11:23:37:430,0.0,0.0,0.0
-0.10209536552429199,0.07718038558959961,9.831518173217773,-0.001369199125845777,-0.005009829931589127,-0.003275422604911431,1.460723876953125,2019-06-20 11:23:37:436,0.0,0.0,0.0
-0.05180561915040016,0.05083814263343811,9.862649917602539,-0.0009696273694433586,-0.005942164138225739,-0.001410754581749696,1.4648418426513672,2019-06-20 11:23:37:440,0.0,0.0,0.0
-0.09251636266708374,0.08675938844680786,9.865044593811035,-0.00043686508175561897,-0.0038111151175119424,-0.0007448016977580532,1.470733642578125,2019-06-20 11:23:37:446,0.0,0.0,0.0
-0.1212533637881279,0.04365389049053192,9.809965133666992,-0.005098535042132083,-0.006474926393404189,-0.003275422604911431,1.4757332801818848,2019-06-20 11:23:37:451,0.0,0.0,0.0
-0.09970061480998993,0.06520663946866989,9.757280349731445,0.0015609935377100185,-0.0022128280919022697,0.002984534413583997,1.4798383712768555,2019-06-20 11:23:37:455,0.0,0.0,0.0
-0.12364811450242996,0.05562764033675194,9.809965133666992,-0.0019019613810242262,-0.0056757830106365145,-0.00047842053765953795,1.4857301712036133,2019-06-20 11:23:37:461,0.0,0.0,0.0
-0.09730586409568787,0.053232889622449875,9.807570457458496,-0.001369199125845777,-0.0024792092194914944,-0.001011182825347278,1.4898438453674316,2019-06-20 11:23:37:465,0.0,0.0,0.0
-0.05898986756801605,0.03646964207291603,9.850675582885742,-0.0003036745179610067,-0.00687449834486235,0.0005871040702252323,1.4957561492919922,2019-06-20 11:23:37:471,0.0,0.0,0.0
-0.0757531151175499,0.046048641204833984,9.747701644897461,0.002360137050514855,-0.013134454583134803,0.003384106104967834,1.4998388290405273,2019-06-20 11:23:37:475,0.0,0.0,0.0
-0.10927961021661758,0.07239089161157608,9.771649360656738,0.001294612410120794,-0.005143020755458065,0.00045391347392132933,1.5057306289672852,2019-06-20 11:23:37:481,0.0,0.0,0.0
-0.10449011623859406,0.034074895083904266,9.836307525634766,-0.002434723766239838,-0.0020796375281076575,-0.002076707400722757,1.5098443031311035,2019-06-20 11:23:37:485,0.0,0.0,0.0
-0.1212533637881279,0.060417141765356064,9.80517578125,-0.0003036745179610067,-0.004477067676410679,-0.0008779922615526655,1.5157322883605957,2019-06-20 11:23:37:491,0.0,0.0,0.0
-0.10927961021661758,0.03646964207291603,9.771649360656738,0.0031592804332825283,-0.004343877372690392,0.0013862475180114872,1.5198397636413574,2019-06-20 11:23:37:495,0.0,0.0,0.0
-0.11167436093091965,0.06760139018297195,9.786017417907715,9.58972140594435e-05,-0.007407260600040799,0.0005871040702252323,1.5248470306396484,2019-06-20 11:23:37:500,0.0,0.0,0.0
-0.10209536552429199,0.07478563487529755,9.750096321105957,0.001294612410120794,-0.010737024954980431,0.003384106104967834,1.5307326316833496,2019-06-20 11:23:37:506,0.0,0.0,0.0
-0.07814786583185196,0.09873313456773758,9.893781661987305,0.0011614218463261818,-0.0040774962451011676,-0.00047842053765953795,1.5348472595214844,2019-06-20 11:23:37:510,0.0,0.0,0.0
-0.0757531151175499,0.0316801443696022,9.865044593811035,-0.001369199125845777,-0.006741307520993413,0.00018753233007745944,1.5400810241699219,2019-06-20 11:23:37:515,0.0,0.0,0.0
-0.08054261654615402,0.03646964207291603,9.857860565185547,0.0003622783660306361,-0.0063417360896839015,0.0007202946340198446,1.5462970733642578,2019-06-20 11:23:37:522,0.0,0.0,0.0
-0.09730586409568787,0.058022391051054,9.84588623046875,0.0024933276143094675,-0.005808973834505452,0.00431644005153012,1.551302433013916,2019-06-20 11:23:37:527,0.0,0.0,0.0
-0.06617411971092224,0.05083814263343811,9.838702201843262,-0.0023015332024452257,-0.008739166237986921,0.003916868360146284,1.5563135147094727,2019-06-20 11:23:37:532,0.0,0.0,0.0
-0.1212533637881279,0.07478563487529755,9.819543838500977,-0.001369199125845777,-0.007940022855219248,0.001253056954216875,1.5612945556640625,2019-06-20 11:23:37:536,0.0,0.0,0.0
-0.10927961021661758,0.053232889622449875,9.771649360656738,-0.001369199125845777,-0.00540940188304729,0.00018753233007745944,1.5663089752197266,2019-06-20 11:23:37:542,0.0,0.0,0.0
-0.1212533637881279,0.1107068806886673,9.809965133666992,9.58972140594435e-05,-0.007806832031350311,-0.003275422604911431,1.5712995529174805,2019-06-20 11:23:37:547,0.0,0.0,0.0
-0.11167436093091965,0.02210114523768425,9.81714916229248,-0.0012360085620511645,-0.006474926393404189,-0.004074565987679104,1.5763187408447266,2019-06-20 11:23:37:552,0.0,0.0,0.0
-0.08772686868906021,0.017311645671725273,9.843491554260254,0.0004954689298252484,-0.005942164138225739,0.005248774258166731,1.5813007354736328,2019-06-20 11:23:37:557,0.0,0.0,0.0
-0.07814786583185196,0.0843646377325058,9.809965133666992,-0.0005700556780595219,-0.0038111151175119424,0.0015194380818060996,1.586437702178955,2019-06-20 11:23:37:562,0.0,0.0,0.0
-0.06377936899662018,0.053232889622449875,9.814754486083984,0.002892899305693304,-0.00021496958621914958,-0.002076707400722757,1.5913491249084473,2019-06-20 11:23:37:567,0.0,0.0,0.0
-0.08054261654615402,0.038864392787218094,9.83391284942627,0.0019605652290938555,-0.004876639627868841,0.0005871040702252323,1.5963053703308105,2019-06-20 11:23:37:572,0.0,0.0,0.0
-0.11406911164522171,0.08675938844680786,9.853070259094238,-0.00043686508175561897,-0.009937881052064107,-0.0006116111339634409,1.6012983322143555,2019-06-20 11:23:37:577,0.0,0.0,0.0
-0.10688485950231552,0.06999614089727402,9.814754486083984,0.0014278029739154064,-0.00540940188304729,0.002318581594610936,1.6063165664672852,2019-06-20 11:23:37:582,0.0,0.0,0.0
-0.0949111133813858,0.06999614089727402,9.800386428833008,-0.0021683425086134506,-0.005009829931589127,0.0017858192093953241,1.6113100051879883,2019-06-20 11:23:37:587,0.0,0.0,0.0
-0.09251636266708374,0.034074895083904266,9.778833389282227,-0.0017687708172296136,-0.008472785110397698,-7.884882189373314e-05,1.6163287162780762,2019-06-20 11:23:37:592,0.0,0.0,0.0
-0.07814786583185196,0.02928539365530014,9.81714916229248,-0.0016355802534350015,-0.005808973834505452,-0.0008779922615526655,1.6213045120239258,2019-06-20 11:23:37:597,0.0,0.0,0.0
-0.08293736726045609,0.05562764033675194,9.853070259094238,-0.00017048393791174905,-0.00687449834486235,0.004183249487735508,1.6263542175292969,2019-06-20 11:23:37:602,0.0,0.0,0.0
-0.0949111133813858,0.07957513630390167,9.853070259094238,-0.0003036745179610067,-0.0075404509037610866,-0.001011182825347278,1.6314692497253418,2019-06-20 11:23:37:607,0.0,0.0,0.0
-0.0494108721613884,0.08196988701820374,9.783622741699219,0.0024933276143094675,-0.0032783528623334932,0.004582821179119344,1.6412572860717773,2019-06-20 11:23:37:616,0.0,0.0,0.0
-0.11167436093091965,0.058022391051054,9.76446533203125,-0.0032338671490075113,-0.004477067676410679,-0.0016771357093389207,1.6463141441345215,2019-06-20 11:23:37:622,0.0,0.0,0.0
-0.11167436093091965,0.04365389049053192,9.769254684448242,0.003292470997077141,-0.003411543426128106,-0.0012775640179550837,1.6513123512268066,2019-06-20 11:23:37:627,0.0,0.0,0.0
-0.0757531151175499,0.04125914350152016,9.76446533203125,-0.0015023896896403893,-0.004610258500279616,-0.001410754581749696,1.6563019752502441,2019-06-20 11:23:37:632,0.0,0.0,0.0
-0.0757531151175499,0.05083814263343811,9.80517578125,0.0020937557928884677,-0.008073213158939536,0.003384106104967834,1.661294937133789,2019-06-20 11:23:37:636,0.0,0.0,0.0
-0.06377936899662018,0.058022391051054,9.841096878051758,-0.003766629404185961,-0.003411543426128106,-0.0022098980945545322,1.6663284301757812,2019-06-20 11:23:37:642,0.0,0.0,0.0
-0.0949111133813858,0.05083814263343811,9.881807327270508,0.0014278029739154064,-0.002346018655696882,-0.00034522997386492567,1.6713142395019531,2019-06-20 11:23:37:647,0.0,0.0,0.0
-0.09730586409568787,0.0843646377325058,9.802781105041504,-0.0015023896896403893,-0.005143020755458065,0.0008534851978144569,1.6763129234313965,2019-06-20 11:23:37:652,0.0,0.0,0.0
-0.08293736726045609,0.1035226359963417,9.79320240020752,-0.0003036745179610067,-0.0032783528623334932,0.0009866757616090692,1.6815509796142578,2019-06-20 11:23:37:657,0.0,0.0,0.0
-0.10449011623859406,0.10112788528203964,9.893781661987305,-0.0017687708172296136,-0.002745590347080719,0.00045391347392132933,1.6863136291503906,2019-06-20 11:23:37:662,0.0,0.0,0.0
-0.11406911164522171,0.10591738671064377,9.80517578125,-0.0020351519448188384,-0.006741307520993413,-0.0008779922615526655,1.6913013458251953,2019-06-20 11:23:37:667,0.0,0.0,0.0
-0.10209536552429199,0.034074895083904266,9.807570457458496,-0.0011028179982565524,-0.007673641727630024,-0.004340947115268329,1.6963157653808594,2019-06-20 11:23:37:672,0.0,0.0,0.0
-0.11406911164522171,0.058022391051054,9.869833946228027,-0.0007032462418541342,-0.010337453003522271,-0.001410754581749696,1.7013092041015625,2019-06-20 11:23:37:677,0.0,0.0,0.0
-0.07335836440324783,0.08675938844680786,9.80517578125,9.58972140594435e-05,-0.0075404509037610866,-0.0012775640179550837,1.7063016891479492,2019-06-20 11:23:37:682,0.0,0.0,0.0
-0.08293736726045609,0.07239089161157608,9.83391284942627,0.0004954689298252484,-0.003944305681306555,0.0007202946340198446,1.7112951278686523,2019-06-20 11:23:37:686,0.0,0.0,0.0
-0.11646386235952377,0.07239089161157608,9.790806770324707,-0.0023015332024452257,-0.003944305681306555,-0.0012775640179550837,1.716324806213379,2019-06-20 11:23:37:692,0.0,0.0,0.0
-0.11646386235952377,0.019706394523382187,9.850675582885742,-0.0017687708172296136,-0.005808973834505452,0.0021853910308163235,1.7213168144226074,2019-06-20 11:23:37:697,0.0,0.0,0.0
-0.12364811450242996,0.053232889622449875,9.831518173217773,-0.00043686508175561897,-0.0056757830106365145,0.0019190097731899363,1.7265009880065918,2019-06-20 11:23:37:702,0.0,0.0,0.0
-0.11167436093091965,0.06999614089727402,9.81714916229248,9.58972140594435e-05,-0.00687449834486235,-0.00021203939381566809,1.731353759765625,2019-06-20 11:23:37:707,0.0,0.0,0.0
-0.11406911164522171,0.05083814263343811,9.795597076416016,-0.0007032462418541342,-0.008339594286528761,-0.0016771357093389207,1.736302375793457,2019-06-20 11:23:37:712,0.0,0.0,0.0
-0.08533211797475815,0.07957513630390167,9.778833389282227,0.001294612410120794,-0.007940022855219248,0.0024517721584055483,1.7413053512573242,2019-06-20 11:23:37:717,0.0,0.0,0.0
-0.08533211797475815,0.053232889622449875,9.795597076416016,0.004091614379844815,-0.01087021525870072,0.0025849627222001605,1.7463140487670898,2019-06-20 11:23:37:722,0.0,0.0,0.0
-0.08293736726045609,0.07718038558959961,9.814754486083984,0.0011614218463261818,-0.006474926393404189,-0.0022098980945545322,1.7513113021850586,2019-06-20 11:23:37:727,0.0,0.0,0.0
-0.08533211797475815,0.058022391051054,9.83391284942627,-0.004166201095569797,-0.004743448803999903,-0.0008779922615526655,1.7563114166259766,2019-06-20 11:23:37:732,0.0,0.0,0.0
-0.10688485950231552,0.07239089161157608,9.869833946228027,0.0024933276143094675,-0.005276211059178353,-0.0007448016977580532,1.761296272277832,2019-06-20 11:23:37:736,0.0,0.0,0.0
-0.09730586409568787,0.06281188875436783,9.797991752624512,-0.006963202935256655,-0.00687449834486235,-0.0035418037325006552,1.7663230895996094,2019-06-20 11:23:37:742,0.0,0.0,0.0
-0.09730586409568787,0.060417141765356064,9.838702201843262,-0.0019019613810242262,-0.0056757830106365145,-0.0011443734541604713,1.7713146209716797,2019-06-20 11:23:37:747,0.0,0.0,0.0
-0.05898986756801605,0.08915413916110992,9.843491554260254,0.0026265181781040797,-0.010071072396081696,0.0008534851978144569,1.7764568328857422,2019-06-20 11:23:37:752,0.0,0.0,0.0
-0.12604285776615143,0.11310163140296936,9.800386428833008,0.002759708741898692,-0.0056757830106365145,0.0008534851978144569,1.781301498413086,2019-06-20 11:23:37:757,0.0,0.0,0.0
-0.06617411971092224,0.046048641204833984,9.752490997314453,0.0006286595261291513,-0.006741307520993413,-0.0016771357093389207,1.7863178253173828,2019-06-20 11:23:37:762,0.0,0.0,0.0
-0.0685688704252243,0.06281188875436783,9.829123497009277,-0.0008364368056487465,-0.00540940188304729,-0.0030090414773222057,1.7913141250610352,2019-06-20 11:23:37:767,0.0,0.0,0.0
-0.0685688704252243,0.058022391051054,9.900965690612793,0.003692042688460978,-0.004876639627868841,0.000320722910126717,1.796302318572998,2019-06-20 11:23:37:772,0.0,0.0,0.0
-0.08054261654615402,0.05562764033675194,9.83391284942627,-0.0008364368056487465,-0.0063417360896839015,0.003384106104967834,1.801300048828125,2019-06-20 11:23:37:777,0.0,0.0,0.0
-0.12604285776615143,0.060417141765356064,9.807570457458496,0.0014278029739154064,-0.00367792455371733,-0.001011182825347278,1.8063268661499023,2019-06-20 11:23:37:782,0.0,0.0,0.0
-0.11167436093091965,0.0843646377325058,9.865044593811035,-0.001369199125845777,-0.006741307520993413,-0.0012775640179550837,1.8113174438476562,2019-06-20 11:23:37:787,0.0,0.0,0.0
-0.10449011623859406,0.09873313456773758,9.848280906677246,-0.0017687708172296136,-0.004477067676410679,0.000320722910126717,1.8163151741027832,2019-06-20 11:23:37:792,0.0,0.0,0.0
-0.14999036490917206,0.017311645671725273,9.814754486083984,0.0003622783660306361,-0.004876639627868841,-0.002875850913527594,1.8213939666748047,2019-06-20 11:23:37:797,0.0,0.0,0.0
-0.11885861307382584,0.07478563487529755,9.752490997314453,0.00022908778598137848,-0.006075354962094676,0.0017858192093953241,1.8263483047485352,2019-06-20 11:23:37:802,0.0,0.0,0.0
-0.0685688704252243,0.08915413916110992,9.781228065490723,0.0014278029739154064,-0.009271928493165372,0.00018753233007745944,1.831301212310791,2019-06-20 11:23:37:807,0.0,0.0,0.0
-0.07096362113952637,0.053232889622449875,9.77643871307373,-0.0023015332024452257,-0.004343877372690392,-0.002609469785938369,1.836313247680664,2019-06-20 11:23:37:812,0.0,0.0,0.0
-0.10688485950231552,0.04125914350152016,9.850675582885742,0.001294612410120794,-0.005276211059178353,0.0025849627222001605,1.8413071632385254,2019-06-20 11:23:37:817,0.0,0.0,0.0
-0.09012161195278168,0.07478563487529755,9.790806770324707,-0.0009696273694433586,-0.008339594286528761,0.001253056954216875,1.8463072776794434,2019-06-20 11:23:37:822,0.0,0.0,0.0
-0.07814786583185196,0.07478563487529755,9.879412651062012,-0.0003036745179610067,-0.0063417360896839015,-0.002875850913527594,1.8512992858886719,2019-06-20 11:23:37:827,0.0,0.0,0.0
-0.11406911164522171,0.05562764033675194,9.781228065490723,0.002759708741898692,-0.005276211059178353,0.005381964561887018,1.8563241958618164,2019-06-20 11:23:37:832,0.0,0.0,0.0
-0.0949111133813858,0.06999614089727402,9.841096878051758,-0.0025679143300344504,-0.0040774962451011676,0.0017858192093953241,1.861311912536621,2019-06-20 11:23:37:837,0.0,0.0,0.0
-0.09012161195278168,0.10112788528203964,9.884202003479004,0.0035588521246663657,-0.0032783528623334932,-0.001011182825347278,1.8664255142211914,2019-06-20 11:23:37:842,0.0,0.0,0.0
-0.0685688704252243,0.06520663946866989,9.83391284942627,0.0020937557928884677,-0.006608117217273125,-0.00021203939381566809,1.8714408874511719,2019-06-20 11:23:37:847,0.0,0.0,0.0
-0.10209536552429199,0.046048641204833984,9.843491554260254,-0.0007032462418541342,-0.0022128280919022697,0.0015194380818060996,1.8763036727905273,2019-06-20 11:23:37:852,0.0,0.0,0.0
-0.06617411971092224,0.06999614089727402,9.819543838500977,-0.004166201095569797,-0.005808973834505452,0.0015194380818060996,1.8812971115112305,2019-06-20 11:23:37:857,0.0,0.0,0.0
-0.07814786583185196,0.060417141765356064,9.781228065490723,-0.004033010531775186,-0.010470643307242556,-0.001410754581749696,1.8863186836242676,2019-06-20 11:23:37:862,0.0,0.0,0.0
-0.11885861307382584,0.06760139018297195,9.781228065490723,-0.0003036745179610067,-0.006075354962094676,-0.002076707400722757,1.8913097381591797,2019-06-20 11:23:37:867,0.0,0.0,0.0
-0.08533211797475815,0.07957513630390167,9.771649360656738,-0.0003036745179610067,-0.0028787809108753314,0.0028513438497893852,1.8963103294372559,2019-06-20 11:23:37:872,0.0,0.0,0.0
-0.08772686868906021,0.04365389049053192,9.826728820800781,-0.0011028179982565524,-0.007274069776171861,-0.0035418037325006552,1.9012975692749023,2019-06-20 11:23:37:877,0.0,0.0,0.0
-0.06617411971092224,0.060417141765356064,9.841096878051758,-0.0005700556780595219,-0.005542592706916228,-0.001943516836928145,1.906322956085205,2019-06-20 11:23:37:882,0.0,0.0,0.0
-0.05180561915040016,0.058022391051054,9.812359809875488,0.0003622783660306361,-0.006741307520993413,0.0005871040702252323,1.9113121032714844,2019-06-20 11:23:37:887,0.0,0.0,0.0
-0.09251636266708374,0.04365389049053192,9.869833946228027,0.0007618500899237635,-0.00687449834486235,0.0071134421512913035,1.9164113998413086,2019-06-20 11:23:37:892,0.0,0.0,0.0
-0.09251636266708374,0.08915413916110992,9.872228622436523,-0.003899819967980573,-0.0026123997832861066,0.005381964561887018,1.9212989807128906,2019-06-20 11:23:37:897,0.0,0.0,0.0
-0.0685688704252243,0.05562764033675194,9.829123497009277,0.0024933276143094675,-0.00540940188304729,0.004982393130577507,1.9263381958007812,2019-06-20 11:23:37:902,0.0,0.0,0.0
-0.09970061480998993,0.0843646377325058,9.80517578125,0.0020937557928884677,-0.0031451620384645557,0.0036504872325570587,1.931337833404541,2019-06-20 11:23:37:907,0.0,0.0,0.0
-0.061384618282318115,0.04125914350152016,9.900965690612793,0.0006286595261291513,-0.007806832031350311,-0.00047842053765953795,1.9363107681274414,2019-06-20 11:23:37:912,0.0,0.0,0.0
-0.05180561915040016,0.06520663946866989,9.80517578125,-0.001369199125845777,-0.005143020755458065,0.0007202946340198446,1.9412975311279297,2019-06-20 11:23:37:917,0.0,0.0,0.0
-0.07335836440324783,0.04365389049053192,9.821938514709473,9.58972140594435e-05,-0.007007688648582638,0.001253056954216875,1.9463257789611816,2019-06-20 11:23:37:922,0.0,0.0,0.0
-0.06377936899662018,0.06281188875436783,9.900965690612793,-0.002434723766239838,-0.006741307520993413,0.002718153285994773,1.9513139724731445,2019-06-20 11:23:37:927,0.0,0.0,0.0
-0.061384618282318115,0.04844339191913605,9.77643871307373,-0.002434723766239838,-0.005808973834505452,-0.002875850913527594,1.9563159942626953,2019-06-20 11:23:37:932,0.0,0.0,0.0
-0.08772686868906021,0.06999614089727402,9.824334144592285,-0.0021683425086134506,-0.0020796375281076575,0.0009866757616090692,1.9614214897155762,2019-06-20 11:23:37:937,0.0,0.0,0.0
-0.10688485950231552,0.06760139018297195,9.850675582885742,-0.0021683425086134506,-0.0038111151175119424,-0.0035418037325006552,1.9663286209106445,2019-06-20 11:23:37:942,0.0,0.0,0.0
-0.09730586409568787,0.08196988701820374,9.814754486083984,-0.0028342954576236743,-0.0019464469643130453,-0.0011443734541604713,1.9712944030761719,2019-06-20 11:23:37:946,0.0,0.0,0.0
-0.0949111133813858,0.06999614089727402,9.781228065490723,-0.0005700556780595219,-0.002745590347080719,0.001652628645600712,1.9763078689575195,2019-06-20 11:23:37:952,0.0,0.0,0.0
-0.08533211797475815,0.06760139018297195,9.824334144592285,-0.0017687708172296136,-0.007806832031350311,0.0025849627222001605,1.9813041687011719,2019-06-20 11:23:37:957,0.0,0.0,0.0
-0.07335836440324783,0.034074895083904266,9.802781105041504,0.0011614218463261818,-0.0056757830106365145,5.4341754091863145e-05,1.986304759979248,2019-06-20 11:23:37:962,0.0,0.0,0.0
-0.06617411971092224,0.05083814263343811,9.752490997314453,9.58972140594435e-05,-0.004876639627868841,0.000320722910126717,1.9913005828857422,2019-06-20 11:23:37:967,0.0,0.0,0.0
-0.09970061480998993,0.05083814263343811,9.848280906677246,-0.0031006765852128995,-0.004610258500279616,0.0007202946340198446,1.9963207244873047,2019-06-20 11:23:37:972,0.0,0.0,0.0
-0.09012161195278168,0.060417141765356064,9.819543838500977,-0.0008364368056487465,-0.007806832031350311,0.0009866757616090692,2.001312255859375,2019-06-20 11:23:37:977,0.0,0.0,0.0
-0.09251636266708374,0.0843646377325058,9.87462329864502,-0.0009696273694433586,-0.004610258500279616,0.0017858192093953241,2.006497859954834,2019-06-20 11:23:37:982,0.0,0.0,0.0
-0.09730586409568787,0.017311645671725273,9.809965133666992,-0.003367057712802124,-0.00540940188304729,0.0021853910308163235,2.011385440826416,2019-06-20 11:23:37:987,0.0,0.0,0.0
-0.10449011623859406,0.07718038558959961,9.850675582885742,-0.0044325824832333474,-0.004477067676410679,-0.004340947115268329,2.0163087844848633,2019-06-20 11:23:37:992,0.0,0.0,0.0
-0.08054261654615402,0.09633838385343552,9.797991752624512,0.0008950406537183759,-0.009405118796885659,-0.004074565987679104,2.021303176879883,2019-06-20 11:23:37:997,0.0,0.0,0.0
-0.10449011623859406,0.07239089161157608,9.831518173217773,-0.004166201095569797,-0.0018132564005184332,0.003384106104967834,2.0263118743896484,2019-06-20 11:23:38:002,0.0,0.0,0.0
-0.09730586409568787,0.02928539365530014,9.853070259094238,0.0006286595261291513,-0.009271928493165372,-0.00021203939381566809,2.031313896179199,2019-06-20 11:23:38:007,0.0,0.0,0.0
-0.061384618282318115,0.09394363313913345,9.73572826385498,0.0008950406537183759,-0.009138738189445085,0.0035172966687624465,2.036308765411377,2019-06-20 11:23:38:012,0.0,0.0,0.0
-0.06617411971092224,0.058022391051054,9.886597633361816,-0.0028342954576236743,-0.005542592706916228,-0.0016771357093389207,2.0412979125976562,2019-06-20 11:23:38:017,0.0,0.0,0.0
-0.09012161195278168,0.0843646377325058,9.788412094116211,-3.7293361926152775e-05,-0.005009829931589127,-0.0006116111339634409,2.0463242530822754,2019-06-20 11:23:38:022,0.0,0.0,0.0
-0.07096362113952637,0.02210114523768425,9.853070259094238,0.0015609935377100185,-0.003411543426128106,-0.004607328502931879,2.0513124465942383,2019-06-20 11:23:38:027,0.0,0.0,0.0
-0.09251636266708374,0.06281188875436783,9.826728820800781,0.0030260898694879166,-0.005276211059178353,-0.0016771357093389207,2.056551933288574,2019-06-20 11:23:38:032,0.0,0.0,0.0
-0.11406911164522171,0.06760139018297195,9.853070259094238,0.0022269464867202427,-0.007407260600040799,-0.001943516836928145,2.0613012313842773,2019-06-20 11:23:38:037,0.0,0.0,0.0
-0.10209536552429199,0.06281188875436783,9.84588623046875,0.002892899305693304,-0.00687449834486235,0.0024517721584055483,2.0663137435913086,2019-06-20 11:23:38:042,0.0,0.0,0.0
-0.10688485950231552,0.08675938844680786,9.848280906677246,0.0026265181781040797,-0.006741307520993413,5.4341754091863145e-05,2.071305751800537,2019-06-20 11:23:38:047,0.0,0.0,0.0
-0.1212533637881279,0.03646964207291603,9.891386985778809,0.0011614218463261818,-0.007940022855219248,-0.001410754581749696,2.076308250427246,2019-06-20 11:23:38:052,0.0,0.0,0.0
-0.07335836440324783,0.07718038558959961,9.85546588897705,0.002360137050514855,-0.008073213158939536,-0.0023430886583491444,2.081295967102051,2019-06-20 11:23:38:056,0.0,0.0,0.0
-0.10209536552429199,0.09394363313913345,9.826728820800781,-0.0007032462418541342,-0.0022128280919022697,0.0015194380818060996,2.0863237380981445,2019-06-20 11:23:38:062,0.0,0.0,0.0
-0.08533211797475815,0.08915413916110992,9.797991752624512,-0.0008364368056487465,-0.007673641727630024,5.4341754091863145e-05,2.091315269470215,2019-06-20 11:23:38:067,0.0,0.0,0.0
-0.11885861307382584,0.053232889622449875,9.829123497009277,-3.7293361926152775e-05,-0.006075354962094676,-0.0027426603497329814,2.096312999725342,2019-06-20 11:23:38:072,0.0,0.0,0.0
-0.12364811450242996,0.07718038558959961,9.821938514709473,0.0008950406537183759,-0.006208545265814964,-0.002076707400722757,2.1016435623168945,2019-06-20 11:23:38:077,0.0,0.0,0.0
-0.13562186062335968,0.053232889622449875,9.807570457458496,-0.0017687708172296136,-0.004610258500279616,-0.0007448016977580532,2.1063313484191895,2019-06-20 11:23:38:082,0.0,0.0,0.0
-0.08772686868906021,0.06999614089727402,9.821938514709473,0.0020937557928884677,-0.004210686808895779,-0.005939234140878001,2.1112966537475586,2019-06-20 11:23:38:086,0.0,0.0,0.0
-0.05659512057900429,0.06520663946866989,9.843491554260254,0.0016941841015046311,-0.0026123997832861066,-0.0018103262731335328,2.1163129806518555,2019-06-20 11:23:38:092,0.0,0.0,0.0
-0.05898986756801605,0.05562764033675194,9.795597076416016,-0.002967486021418287,-0.0018132564005184332,0.0019190097731899363,2.121307373046875,2019-06-20 11:23:38:097,0.0,0.0,0.0
-0.0494108721613884,0.05562764033675194,9.836307525634766,-0.0003036745179610067,-0.0022128280919022697,0.0009866757616090692,2.126307487487793,2019-06-20 11:23:38:102,0.0,0.0,0.0
-0.10209536552429199,0.06999614089727402,9.80517578125,-3.7293361926152775e-05,-0.009138738189445085,-0.0016771357093389207,2.1313247680664062,2019-06-20 11:23:38:107,0.0,0.0,0.0
-0.09730586409568787,0.05083814263343811,9.829123497009277,-0.0020351519448188384,-0.003011971474669944,-0.001011182825347278,2.1363182067871094,2019-06-20 11:23:38:112,0.0,0.0,0.0
-0.0685688704252243,0.07478563487529755,9.829123497009277,0.00022908778598137848,-0.004477067676410679,0.001253056954216875,2.1413049697875977,2019-06-20 11:23:38:117,0.0,0.0,0.0
-0.09251636266708374,0.03646964207291603,9.848280906677246,-0.004565772786953634,-0.0035447339899227176,-0.00034522997386492567,2.1463122367858887,2019-06-20 11:23:38:122,0.0,0.0,0.0
-0.08772686868906021,0.09154888242483139,9.812359809875488,-0.0016355802534350015,-0.006608117217273125,0.006447489072243917,2.1562623977661133,2019-06-20 11:23:38:131,0.0,0.0,0.0
-0.061384618282318115,0.06520663946866989,9.843491554260254,-3.7293361926152775e-05,0.0017828889519732613,0.0008534851978144569,2.161294460296631,2019-06-20 11:23:38:136,0.0,0.0,0.0
-0.06617411971092224,0.09154888242483139,9.865044593811035,0.0003622783660306361,-0.005942164138225739,0.0017858192093953241,2.166314125061035,2019-06-20 11:23:38:142,0.0,0.0,0.0
-0.08054261654615402,0.09873313456773758,9.886597633361816,0.003958423816050202,-0.006075354962094676,-0.0015439451455443083,2.171306610107422,2019-06-20 11:23:38:147,0.0,0.0,0.0
-0.08293736726045609,0.06999614089727402,9.790806770324707,-0.0005700556780595219,-0.006474926393404189,0.0021853910308163235,2.176321029663086,2019-06-20 11:23:38:152,0.0,0.0,0.0
-0.10688485950231552,0.05562764033675194,9.807570457458496,0.0014278029739154064,-0.00980469074834382,0.0020522003369845485,2.1813011169433594,2019-06-20 11:23:38:157,0.0,0.0,0.0
-0.0685688704252243,0.038864392787218094,9.809965133666992,0.0014278029739154064,-0.008339594286528761,0.0035172966687624465,2.1863222122192383,2019-06-20 11:23:38:162,0.0,0.0,0.0
-0.08772686868906021,0.10112788528203964,9.807570457458496,-0.003766629404185961,-0.0063417360896839015,-0.00021203939381566809,2.191343307495117,2019-06-20 11:23:38:167,0.0,0.0,0.0
-0.09251636266708374,0.05083814263343811,9.843491554260254,-0.0019019613810242262,-0.006608117217273125,0.0017858192093953241,2.196382522583008,2019-06-20 11:23:38:172,0.0,0.0,0.0
-0.09012161195278168,0.07957513630390167,9.836307525634766,-0.0009696273694433586,-0.007806832031350311,0.0013862475180114872,2.2013206481933594,2019-06-20 11:23:38:177,0.0,0.0,0.0
-0.06617411971092224,0.03646964207291603,9.807570457458496,-0.0015023896896403893,-0.005276211059178353,-0.0008779922615526655,2.206308364868164,2019-06-20 11:23:38:182,0.0,0.0,0.0
-0.08293736726045609,0.07478563487529755,9.742912292480469,0.0003622783660306361,-0.006208545265814964,0.005248774258166731,2.2112960815429688,2019-06-20 11:23:38:186,0.0,0.0,0.0
-0.07814786583185196,0.07957513630390167,9.812359809875488,0.0007618500899237635,-0.006741307520993413,0.002718153285994773,2.2163147926330566,2019-06-20 11:23:38:192,0.0,0.0,0.0
-0.10209536552429199,0.05562764033675194,9.83391284942627,-0.0020351519448188384,-0.006474926393404189,0.009111300348136163,2.221311569213867,2019-06-20 11:23:38:197,0.0,0.0,0.0
-0.09970061480998993,0.026890644803643227,9.877017974853516,-0.0011028179982565524,-0.004477067676410679,-7.884882189373314e-05,2.2263050079345703,2019-06-20 11:23:38:202,0.0,0.0,0.0
-0.1212533637881279,0.08915413916110992,9.83391284942627,-0.0003036745179610067,-0.001413684709134596,-0.00047842053765953795,2.2313175201416016,2019-06-20 11:23:38:207,0.0,0.0,0.0
-0.09012161195278168,0.026890644803643227,9.821938514709473,0.004890758022686814,-0.008073213158939536,0.001253056954216875,2.2363200187683105,2019-06-20 11:23:38:212,0.0,0.0,0.0
-0.09012161195278168,0.09154888242483139,9.862649917602539,0.003692042688460978,-0.00687449834486235,-0.0034086131687060426,2.2413816452026367,2019-06-20 11:23:38:217,0.0,0.0,0.0
-0.08054261654615402,0.046048641204833984,9.812359809875488,-0.0015023896896403893,-0.008206403982808473,-0.0018103262731335328,2.2463889122009277,2019-06-20 11:23:38:222,0.0,0.0,0.0
-0.09251636266708374,0.06520663946866989,9.802781105041504,0.001294612410120794,-0.008339594286528761,5.4341754091863145e-05,2.251297950744629,2019-06-20 11:23:38:227,0.0,0.0,0.0
-0.08054261654615402,0.09154888242483139,9.848280906677246,-0.0019019613810242262,-0.0006145413263669223,0.0015194380818060996,2.256314277648926,2019-06-20 11:23:38:232,0.0,0.0,0.0
-0.10209536552429199,0.06999614089727402,9.81714916229248,0.003425661560871753,-0.0019464469643130453,-7.884882189373314e-05,2.2613039016723633,2019-06-20 11:23:38:237,0.0,0.0,0.0
-0.09970061480998993,0.07718038558959961,9.80517578125,-0.0021683425086134506,-0.007673641727630024,0.0021853910308163235,2.2663068771362305,2019-06-20 11:23:38:242,0.0,0.0,0.0
-0.11885861307382584,0.06281188875436783,9.778833389282227,0.0026265181781040797,-0.004210686808895779,0.0011198663904222626,2.2712907791137695,2019-06-20 11:23:38:246,0.0,0.0,0.0
-0.07814786583185196,0.12747013568878174,9.807570457458496,-0.00017048393791174905,-0.00540940188304729,-0.002609469785938369,2.276322841644287,2019-06-20 11:23:38:252,0.0,0.0,0.0
-0.12364811450242996,0.038864392787218094,9.812359809875488,0.0011614218463261818,-0.00687449834486235,-0.004740518806652166,2.2813100814819336,2019-06-20 11:23:38:257,0.0,0.0,0.0
-0.06617411971092224,0.026890644803643227,9.84588623046875,0.0030260898694879166,-0.007940022855219248,0.0007202946340198446,2.286314010620117,2019-06-20 11:23:38:262,0.0,0.0,0.0
-0.10927961021661758,0.09633838385343552,9.860255241394043,-0.003367057712802124,-0.004610258500279616,0.00045391347392132933,2.291412830352783,2019-06-20 11:23:38:267,0.0,0.0,0.0
-0.11167436093091965,0.08675938844680786,9.85546588897705,0.0022269464867202427,-0.006474926393404189,0.002984534413583997,2.2963180541992188,2019-06-20 11:23:38:272,0.0,0.0,0.0
-0.10449011623859406,0.053232889622449875,9.841096878051758,-0.0008364368056487465,-0.008339594286528761,-0.0007448016977580532,2.301301956176758,2019-06-20 11:23:38:277,0.0,0.0,0.0
-0.0757531151175499,0.07239089161157608,9.786017417907715,-0.0011028179982565524,-0.0056757830106365145,0.0013862475180114872,2.3063173294067383,2019-06-20 11:23:38:282,0.0,0.0,0.0
-0.06617411971092224,0.06281188875436783,9.80517578125,0.0004954689298252484,-0.005143020755458065,-0.0012775640179550837,2.3113088607788086,2019-06-20 11:23:38:287,0.0,0.0,0.0
-0.12604285776615143,0.04365389049053192,9.850675582885742,0.001294612410120794,-0.0015468752729292082,-0.0008779922615526655,2.3163013458251953,2019-06-20 11:23:38:292,0.0,0.0,0.0
-0.08293736726045609,0.06520663946866989,9.790806770324707,-0.00043686508175561897,-0.006608117217273125,-0.002076707400722757,2.321298122406006,2019-06-20 11:23:38:297,0.0,0.0,0.0
-0.10688485950231552,0.05083814263343811,9.83391284942627,-0.0017687708172296136,-0.0038111151175119424,-0.0035418037325006552,2.326326370239258,2019-06-20 11:23:38:302,0.0,0.0,0.0
-0.08533211797475815,0.060417141765356064,9.869833946228027,-0.00017048393791174905,-0.0031451620384645557,0.0011198663904222626,2.331317901611328,2019-06-20 11:23:38:307,0.0,0.0,0.0
-0.09012161195278168,0.04365389049053192,9.836307525634766,0.001294612410120794,-0.00687449834486235,0.0025849627222001605,2.3364219665527344,2019-06-20 11:23:38:312,0.0,0.0,0.0
-0.061384618282318115,0.05083814263343811,9.807570457458496,0.00022908778598137848,-0.005009829931589127,-0.0022098980945545322,2.341327667236328,2019-06-20 11:23:38:317,0.0,0.0,0.0
-0.11406911164522171,0.06999614089727402,9.81714916229248,-0.00043686508175561897,5.141156168838168e-05,-0.0023430886583491444,2.346312999725342,2019-06-20 11:23:38:322,0.0,0.0,0.0
-0.08533211797475815,0.053232889622449875,9.795597076416016,0.00022908778598137848,-0.005808973834505452,0.001652628645600712,2.3512983322143555,2019-06-20 11:23:38:327,0.0,0.0,0.0
-0.08293736726045609,0.06281188875436783,9.766860008239746,-0.0021683425086134506,-0.007673641727630024,0.003250915541173222,2.356316566467285,2019-06-20 11:23:38:332,0.0,0.0,0.0
-0.08293736726045609,0.019706394523382187,9.800386428833008,0.0010282312175129882,-0.0063417360896839015,0.0015194380818060996,2.3613100051879883,2019-06-20 11:23:38:337,0.0,0.0,0.0
-0.054200369864702225,0.02928539365530014,9.848280906677246,0.0003622783660306361,-0.004610258500279616,-0.0006116111339634409,2.366305351257324,2019-06-20 11:23:38:342,0.0,0.0,0.0
-0.06617411971092224,0.06760139018297195,9.824334144592285,-0.001369199125845777,-0.008073213158939536,0.0007202946340198446,2.3712949752807617,2019-06-20 11:23:38:346,0.0,0.0,0.0
-0.0685688704252243,0.053232889622449875,9.824334144592285,-0.0008364368056487465,-0.008739166237986921,-7.884882189373314e-05,2.3763179779052734,2019-06-20 11:23:38:352,0.0,0.0,0.0
-0.07814786583185196,0.06281188875436783,9.81714916229248,-0.0019019613810242262,-0.007274069776171861,-0.00034522997386492567,2.381345748901367,2019-06-20 11:23:38:357,0.0,0.0,0.0
-0.07335836440324783,0.07957513630390167,9.795597076416016,-0.0036334388403913486,-0.0018132564005184332,0.0007202946340198446,2.386408805847168,2019-06-20 11:23:38:362,0.0,0.0,0.0
-0.054200369864702225,0.053232889622449875,9.819543838500977,0.0030260898694879166,-0.00687449834486235,0.0031177249773786096,2.391298294067383,2019-06-20 11:23:38:367,0.0,0.0,0.0
-0.1212533637881279,0.04844339191913605,9.829123497009277,-0.0019019613810242262,-0.0035447339899227176,-0.002076707400722757,2.396315097808838,2019-06-20 11:23:38:372,0.0,0.0,0.0
-0.08772686868906021,0.08196988701820374,9.826728820800781,0.004224804943639427,-0.006741307520993413,-0.0016771357093389207,2.401308536529541,2019-06-20 11:23:38:377,0.0,0.0,0.0
-0.07814786583185196,0.04844339191913605,9.872228622436523,-0.0017687708172296136,-0.004743448803999903,0.00431644005153012,2.4063072204589844,2019-06-20 11:23:38:382,0.0,0.0,0.0
-0.09012161195278168,0.06520663946866989,9.836307525634766,-0.0003036745179610067,-0.010204262699801982,0.004716012002988282,2.4112977981567383,2019-06-20 11:23:38:387,0.0,0.0,0.0
-0.07814786583185196,0.038864392787218094,9.841096878051758,0.0015609935377100185,-0.003411543426128106,-0.00034522997386492567,2.4163246154785156,2019-06-20 11:23:38:392,0.0,0.0,0.0
-0.10209536552429199,0.06520663946866989,9.850675582885742,-0.0003036745179610067,-0.0019464469643130453,-0.0027426603497329814,2.4213051795959473,2019-06-20 11:23:38:397,0.0,0.0,0.0
-0.0949111133813858,0.05083814263343811,9.85546588897705,-0.0011028179982565524,-0.005143020755458065,-0.00047842053765953795,2.4263110160827637,2019-06-20 11:23:38:402,0.0,0.0,0.0
-0.0757531151175499,0.05083814263343811,9.795597076416016,-0.0017687708172296136,-0.0056757830106365145,0.0021853910308163235,2.4316587448120117,2019-06-20 11:23:38:407,0.0,0.0,0.0
-0.10449011623859406,0.058022391051054,9.797991752624512,0.0019605652290938555,-0.005942164138225739,-0.0016771357093389207,2.436319351196289,2019-06-20 11:23:38:412,0.0,0.0,0.0
-0.09970061480998993,0.07957513630390167,9.884202003479004,0.0031592804332825283,-0.00687449834486235,-0.0012775640179550837,2.4414219856262207,2019-06-20 11:23:38:417,0.0,0.0,0.0
-0.061384618282318115,0.06999614089727402,9.819543838500977,0.002759708741898692,-0.009671500444623534,0.001253056954216875,2.446446418762207,2019-06-20 11:23:38:422,0.0,0.0,0.0
-0.061384618282318115,0.08196988701820374,9.841096878051758,-0.0023015332024452257,-0.0018132564005184332,-7.884882189373314e-05,2.451430320739746,2019-06-20 11:23:38:427,0.0,0.0,0.0
-0.1404113620519638,0.060417141765356064,9.83391284942627,-0.00043686508175561897,-0.004477067676410679,-0.001410754581749696,2.456430435180664,2019-06-20 11:23:38:432,0.0,0.0,0.0
-0.07096362113952637,0.058022391051054,9.886597633361816,9.58972140594435e-05,-0.010737024954980431,0.0011198663904222626,2.461422920227051,2019-06-20 11:23:38:437,0.0,0.0,0.0
-0.12364811450242996,0.07478563487529755,9.841096878051758,-0.00043686508175561897,-0.0022128280919022697,-0.005939234140878001,2.466456413269043,2019-06-20 11:23:38:442,0.0,0.0,0.0
-0.10927961021661758,0.060417141765356064,9.807570457458496,0.0024933276143094675,-0.006208545265814964,0.0007202946340198446,2.471437931060791,2019-06-20 11:23:38:447,0.0,0.0,0.0
-0.09730586409568787,0.04125914350152016,9.809965133666992,-0.00429939165936441,-0.0031451620384645557,0.0025849627222001605,2.47653865814209,2019-06-20 11:23:38:452,0.0,0.0,0.0
-0.06617411971092224,0.04844339191913605,9.843491554260254,-0.00017048393791174905,-0.008073213158939536,0.00045391347392132933,2.481443405151367,2019-06-20 11:23:38:457,0.0,0.0,0.0
-0.09730586409568787,0.05083814263343811,9.812359809875488,-0.003500248276596736,-0.006075354962094676,0.004582821179119344,2.4864354133605957,2019-06-20 11:23:38:462,0.0,0.0,0.0
-0.09970061480998993,0.00294314743950963,9.81714916229248,0.0019605652290938555,-0.0035447339899227176,0.005914726817065468,2.491421699523926,2019-06-20 11:23:38:467,0.0,0.0,0.0
-0.09730586409568787,0.07239089161157608,9.80517578125,0.003425661560871753,-0.006075354962094676,0.001253056954216875,2.4964494705200195,2019-06-20 11:23:38:472,0.0,0.0,0.0
-0.1284376084804535,0.06760139018297195,9.814754486083984,-0.003367057712802124,-0.009538309100605945,-0.0006116111339634409,2.501434326171875,2019-06-20 11:23:38:477,0.0,0.0,0.0
-0.10209536552429199,0.06999614089727402,9.841096878051758,9.58972140594435e-05,-0.007806832031350311,0.00045391347392132933,2.506429672241211,2019-06-20 11:23:38:482,0.0,0.0,0.0
-0.12364811450242996,0.06520663946866989,9.836307525634766,-0.004565772786953634,-0.004210686808895779,-0.0007448016977580532,2.511420249938965,2019-06-20 11:23:38:487,0.0,0.0,0.0
-0.0949111133813858,0.04365389049053192,9.795597076416016,-0.0007032462418541342,-0.0022128280919022697,-0.0008779922615526655,2.5160932540893555,2019-06-20 11:23:38:491,0.0,0.0,0.0
-0.09730586409568787,0.05083814263343811,9.829123497009277,-0.0007032462418541342,-0.004210686808895779,0.0013862475180114872,2.5198559761047363,2019-06-20 11:23:38:495,0.0,0.0,0.0
-0.11167436093091965,0.05562764033675194,9.829123497009277,0.004624376895097589,-0.00540940188304729,0.004582821179119344,2.5257568359375,2019-06-20 11:23:38:501,0.0,0.0,0.0
-0.11885861307382584,0.06520663946866989,9.774044036865234,-0.004166201095569797,-0.007673641727630024,0.0021853910308163235,2.5298614501953125,2019-06-20 11:23:38:505,0.0,0.0,0.0
-0.0757531151175499,0.04844339191913605,9.843491554260254,0.00022908778598137848,-0.0075404509037610866,5.4341754091863145e-05,2.5348472595214844,2019-06-20 11:23:38:510,0.0,0.0,0.0
-0.08533211797475815,0.10112788528203964,9.829123497009277,-0.0015023896896403893,-0.0035447339899227176,-0.001011182825347278,2.5407276153564453,2019-06-20 11:23:38:516,0.0,0.0,0.0
-0.08533211797475815,0.04844339191913605,9.850675582885742,0.0050239483264071004,-0.005009829931589127,0.0005871040702252323,2.544846534729004,2019-06-20 11:23:38:520,0.0,0.0,0.0
-0.11885861307382584,0.09154888242483139,9.872228622436523,0.003425661560871753,-0.004477067676410679,0.0031177249773786096,2.5507259368896484,2019-06-20 11:23:38:526,0.0,0.0,0.0
-0.09251636266708374,0.07478563487529755,9.821938514709473,0.0006286595261291513,0.00018460213767397795,0.000320722910126717,2.554851531982422,2019-06-20 11:23:38:530,0.0,0.0,0.0
-0.10688485950231552,0.06520663946866989,9.831518173217773,0.005290329453996326,-0.005808973834505452,-0.0015439451455443083,2.5607361793518066,2019-06-20 11:23:38:536,0.0,0.0,0.0
-0.12364811450242996,0.08196988701820374,9.80517578125,-0.002967486021418287,-0.007140879472451575,-0.002076707400722757,2.5648488998413086,2019-06-20 11:23:38:540,0.0,0.0,0.0
-0.10209536552429199,0.060417141765356064,9.800386428833008,0.0020937557928884677,-0.0026123997832861066,0.0036504872325570587,2.5707807540893555,2019-06-20 11:23:38:546,0.0,0.0,0.0
-0.07335836440324783,0.05562764033675194,9.814754486083984,0.001294612410120794,-0.0063417360896839015,-7.884882189373314e-05,2.57487154006958,2019-06-20 11:23:38:550,0.0,0.0,0.0
-0.08293736726045609,0.09394363313913345,9.814754486083984,-0.003500248276596736,-0.006474926393404189,-0.001410754581749696,2.5807294845581055,2019-06-20 11:23:38:556,0.0,0.0,0.0
-0.061384618282318115,0.07718038558959961,9.821938514709473,-0.0036334388403913486,-0.005942164138225739,0.0015194380818060996,2.5848469734191895,2019-06-20 11:23:38:560,0.0,0.0,0.0
-0.08054261654615402,0.060417141765356064,9.819543838500977,-0.0009696273694433586,0.00018460213767397795,-0.0035418037325006552,2.5907344818115234,2019-06-20 11:23:38:566,0.0,0.0,0.0
-0.09970061480998993,0.034074895083904266,9.87462329864502,0.0014278029739154064,-0.006608117217273125,0.002718153285994773,2.5957374572753906,2019-06-20 11:23:38:571,0.0,0.0,0.0
-0.09251636266708374,0.06999614089727402,9.922518730163574,-3.7293361926152775e-05,-0.005808973834505452,0.00431644005153012,2.599842071533203,2019-06-20 11:23:38:575,0.0,0.0,0.0
-0.08054261654615402,0.05083814263343811,9.821938514709473,0.0011614218463261818,-0.004876639627868841,0.0025849627222001605,2.605733871459961,2019-06-20 11:23:38:581,0.0,0.0,0.0
-0.09730586409568787,0.09394363313913345,9.814754486083984,-0.0003036745179610067,-0.005276211059178353,-0.001943516836928145,2.6107349395751953,2019-06-20 11:23:38:586,0.0,0.0,0.0
-0.10927961021661758,0.08915413916110992,9.809965133666992,-0.003500248276596736,-0.007673641727630024,0.00431644005153012,2.6148505210876465,2019-06-20 11:23:38:590,0.0,0.0,0.0
-0.10449011623859406,0.07718038558959961,9.762070655822754,-0.003766629404185961,-0.0075404509037610866,0.0035172966687624465,2.6207594871520996,2019-06-20 11:23:38:596,0.0,0.0,0.0
-0.10927961021661758,0.10112788528203964,9.829123497009277,-0.0011028179982565524,-0.0019464469643130453,-0.00034522997386492567,2.624852180480957,2019-06-20 11:23:38:600,0.0,0.0,0.0
-0.11406911164522171,0.07239089161157608,9.848280906677246,-0.0021683425086134506,-0.0026123997832861066,0.002984534413583997,2.630748748779297,2019-06-20 11:23:38:606,0.0,0.0,0.0
-0.10209536552429199,0.04365389049053192,9.824334144592285,0.004357995507434039,-0.007940022855219248,0.005781536513345181,2.6348495483398438,2019-06-20 11:23:38:610,0.0,0.0,0.0
-0.09012161195278168,0.038864392787218094,9.83391284942627,-0.0011028179982565524,-0.004876639627868841,0.0019190097731899363,2.6407365798950195,2019-06-20 11:23:38:616,0.0,0.0,0.0
-0.08054261654615402,0.05562764033675194,9.814754486083984,-0.003500248276596736,-0.006075354962094676,-0.001011182825347278,2.644850730895996,2019-06-20 11:23:38:620,0.0,0.0,0.0
-0.10688485950231552,0.04844339191913605,9.809965133666992,-0.0036334388403913486,-0.007007688648582638,0.0005871040702252323,2.6507248878479004,2019-06-20 11:23:38:626,0.0,0.0,0.0
-0.0685688704252243,0.04844339191913605,9.786017417907715,0.0011614218463261818,-0.005942164138225739,0.0028513438497893852,2.65484619140625,2019-06-20 11:23:38:630,0.0,0.0,0.0
-0.08293736726045609,0.10591738671064377,9.83391284942627,-0.002967486021418287,-0.004743448803999903,0.0048492023067085695,2.6607351303100586,2019-06-20 11:23:38:636,0.0,0.0,0.0
-0.06377936899662018,0.053232889622449875,9.814754486083984,0.0015609935377100185,-0.006208545265814964,-0.002875850913527594,2.6648926734924316,2019-06-20 11:23:38:640,0.0,0.0,0.0
-0.09012161195278168,0.03646964207291603,9.819543838500977,0.0007618500899237635,-0.006608117217273125,-0.0015439451455443083,2.6698527336120605,2019-06-20 11:23:38:645,0.0,0.0,0.0
-0.03743712231516838,0.0316801443696022,9.84588623046875,-0.0012360085620511645,-0.0040774962451011676,-0.0015439451455443083,2.6757330894470215,2019-06-20 11:23:38:651,0.0,0.0,0.0
-0.09251636266708374,0.08196988701820374,9.800386428833008,0.0026265181781040797,-0.008073213158939536,-0.001943516836928145,2.6798477172851562,2019-06-20 11:23:38:655,0.0,0.0,0.0
-0.08772686868906021,0.0316801443696022,9.872228622436523,-0.0007032462418541342,-0.006474926393404189,-0.002476279222143757,2.6857357025146484,2019-06-20 11:23:38:661,0.0,0.0,0.0
-0.11167436093091965,0.053232889622449875,9.79320240020752,-0.002434723766239838,-0.005276211059178353,-0.0008779922615526655,2.6898441314697266,2019-06-20 11:23:38:665,0.0,0.0,0.0
-0.047016121447086334,0.07957513630390167,9.83391284942627,0.0006286595261291513,-0.004876639627868841,0.0011198663904222626,2.6957297325134277,2019-06-20 11:23:38:671,0.0,0.0,0.0
-0.09012161195278168,0.07718038558959961,9.788412094116211,0.0022269464867202427,-0.004610258500279616,0.0013862475180114872,2.6998519897460938,2019-06-20 11:23:38:675,0.0,0.0,0.0
-0.12364811450242996,0.05562764033675194,9.800386428833008,0.00022908778598137848,-0.006474926393404189,-0.0007448016977580532,2.7057385444641113,2019-06-20 11:23:38:681,0.0,0.0,0.0
-0.08533211797475815,0.10112788528203964,9.869833946228027,-0.0031006765852128995,-0.006741307520993413,-0.0007448016977580532,2.7098817825317383,2019-06-20 11:23:38:685,0.0,0.0,0.0
-0.09251636266708374,0.07478563487529755,9.838702201843262,-0.0016355802534350015,-0.006741307520993413,0.0007202946340198446,2.714865207672119,2019-06-20 11:23:38:690,0.0,0.0,0.0
-0.09251636266708374,0.04844339191913605,9.819543838500977,-0.002434723766239838,-0.0038111151175119424,-0.0016771357093389207,2.7207260131835938,2019-06-20 11:23:38:696,0.0,0.0,0.0
-0.07814786583185196,0.060417141765356064,9.809965133666992,0.0035588521246663657,-0.006208545265814964,0.001652628645600712,2.724846839904785,2019-06-20 11:23:38:700,0.0,0.0,0.0
-0.054200369864702225,0.053232889622449875,9.843491554260254,0.0003622783660306361,-0.00367792455371733,0.002718153285994773,2.73075008392334,2019-06-20 11:23:38:706,0.0,0.0,0.0
-0.11885861307382584,0.05083814263343811,9.790806770324707,0.0003622783660306361,-0.005276211059178353,0.00018753233007745944,2.7348475456237793,2019-06-20 11:23:38:710,0.0,0.0,0.0
-0.11167436093091965,0.07478563487529755,9.797991752624512,-0.0028342954576236743,-0.013134454583134803,-7.884882189373314e-05,2.7407264709472656,2019-06-20 11:23:38:716,0.0,0.0,0.0
-0.08293736726045609,0.09394363313913345,9.771649360656738,0.0006286595261291513,-0.003944305681306555,-0.002609469785938369,2.744847297668457,2019-06-20 11:23:38:720,0.0,0.0,0.0
-0.06617411971092224,0.09633838385343552,9.836307525634766,-0.001369199125845777,-0.00367792455371733,-0.004607328502931879,2.750737190246582,2019-06-20 11:23:38:726,0.0,0.0,0.0
-0.0494108721613884,0.07957513630390167,9.85546588897705,-0.002967486021418287,-0.007407260600040799,0.0025849627222001605,2.754849433898926,2019-06-20 11:23:38:730,0.0,0.0,0.0
-0.08772686868906021,0.07239089161157608,9.812359809875488,0.0003622783660306361,-0.005942164138225739,-0.0031422320411168183,2.7598791122436523,2019-06-20 11:23:38:735,0.0,0.0,0.0
-0.09970061480998993,0.046048641204833984,9.843491554260254,0.0008950406537183759,-0.005808973834505452,0.00018753233007745944,2.7657365798950195,2019-06-20 11:23:38:741,0.0,0.0,0.0
-0.07096362113952637,0.058022391051054,9.850675582885742,0.0024933276143094675,-0.007407260600040799,-0.00047842053765953795,2.769843101501465,2019-06-20 11:23:38:745,0.0,0.0,0.0
-0.07096362113952637,0.07718038558959961,9.841096878051758,0.001294612410120794,-0.0026123997832861066,-0.00034522997386492567,2.7757301330566406,2019-06-20 11:23:38:751,0.0,0.0,0.0
-0.09730586409568787,0.08915413916110992,9.786017417907715,-0.0031006765852128995,-0.006741307520993413,0.000320722910126717,2.77984619140625,2019-06-20 11:23:38:755,0.0,0.0,0.0
-0.08293736726045609,0.04365389049053192,9.860255241394043,0.002360137050514855,-0.008206403982808473,0.000320722910126717,2.784848213195801,2019-06-20 11:23:38:760,0.0,0.0,0.0
-0.05180561915040016,0.04125914350152016,9.853070259094238,-0.0025679143300344504,-0.007007688648582638,-0.0006116111339634409,2.790877342224121,2019-06-20 11:23:38:766,0.0,0.0,0.0
-0.08772686868906021,0.08196988701820374,9.910544395446777,0.002360137050514855,-0.006075354962094676,0.0031177249773786096,2.794997215270996,2019-06-20 11:23:38:770,0.0,0.0,0.0
-0.061384618282318115,0.09394363313913345,9.783622741699219,-0.0025679143300344504,-0.009671500444623534,-0.0015439451455443083,2.800011157989502,2019-06-20 11:23:38:775,0.0,0.0,0.0
-0.10688485950231552,0.07239089161157608,9.819543838500977,0.0019605652290938555,-0.008073213158939536,0.0019190097731899363,2.805065155029297,2019-06-20 11:23:38:780,0.0,0.0,0.0
-0.07814786583185196,0.02928539365530014,9.886597633361816,-0.0009696273694433586,-0.004477067676410679,0.00018753233007745944,2.810023307800293,2019-06-20 11:23:38:785,0.0,0.0,0.0
-0.08293736726045609,0.060417141765356064,9.809965133666992,0.0010282312175129882,-0.003011971474669944,0.0005871040702252323,2.8150124549865723,2019-06-20 11:23:38:790,0.0,0.0,0.0
-0.0685688704252243,0.08196988701820374,9.853070259094238,-0.0009696273694433586,-0.009271928493165372,-0.001410754581749696,2.8200035095214844,2019-06-20 11:23:38:795,0.0,0.0,0.0
-0.0685688704252243,0.02928539365530014,9.85546588897705,0.0020937557928884677,-0.005542592706916228,-0.002476279222143757,2.825012683868408,2019-06-20 11:23:38:800,0.0,0.0,0.0
-0.08293736726045609,0.07718038558959961,9.865044593811035,-0.0032338671490075113,-0.008739166237986921,0.00045391347392132933,2.830033779144287,2019-06-20 11:23:38:805,0.0,0.0,0.0
-0.07335836440324783,0.046048641204833984,9.853070259094238,-0.002967486021418287,-0.004610258500279616,-0.001410754581749696,2.8350162506103516,2019-06-20 11:23:38:810,0.0,0.0,0.0
-0.07335836440324783,0.06520663946866989,9.853070259094238,-0.003899819967980573,-0.004343877372690392,0.0008534851978144569,2.8400039672851562,2019-06-20 11:23:38:815,0.0,0.0,0.0
-0.09012161195278168,0.05562764033675194,9.843491554260254,0.0010282312175129882,-0.003944305681306555,0.002318581594610936,2.8450117111206055,2019-06-20 11:23:38:820,0.0,0.0,0.0
-0.054200369864702225,0.06520663946866989,9.886597633361816,-0.0003036745179610067,-0.005009829931589127,0.001652628645600712,2.850055694580078,2019-06-20 11:23:38:825,0.0,0.0,0.0
-0.09970061480998993,0.07957513630390167,9.824334144592285,-0.0012360085620511645,-0.006608117217273125,-7.884882189373314e-05,2.855038642883301,2019-06-20 11:23:38:830,0.0,0.0,0.0
-0.09970061480998993,0.07478563487529755,9.829123497009277,-0.0008364368056487465,-0.003011971474669944,-0.001011182825347278,2.860001564025879,2019-06-20 11:23:38:835,0.0,0.0,0.0
-0.06617411971092224,0.0843646377325058,9.853070259094238,-0.0011028179982565524,-0.0038111151175119424,-0.007803902034002573,2.86501407623291,2019-06-20 11:23:38:840,0.0,0.0,0.0
-0.07814786583185196,0.09873313456773758,9.8961763381958,0.0010282312175129882,-0.004743448803999903,5.4341754091863145e-05,2.870014190673828,2019-06-20 11:23:38:845,0.0,0.0,0.0
-0.08772686868906021,0.05083814263343811,9.848280906677246,-0.00043686508175561897,-0.004477067676410679,0.0008534851978144569,2.875016212463379,2019-06-20 11:23:38:850,0.0,0.0,0.0
-0.0757531151175499,0.046048641204833984,9.809965133666992,-0.0016355802534350015,-0.004610258500279616,0.0019190097731899363,2.8800034523010254,2019-06-20 11:23:38:855,0.0,0.0,0.0
-0.10209536552429199,0.07957513630390167,9.786017417907715,0.0030260898694879166,-0.005143020755458065,-0.00047842053765953795,2.885016918182373,2019-06-20 11:23:38:860,0.0,0.0,0.0
-0.06377936899662018,0.06760139018297195,9.814754486083984,-0.004166201095569797,-0.005009829931589127,0.0007202946340198446,2.8900146484375,2019-06-20 11:23:38:865,0.0,0.0,0.0
-0.07335836440324783,0.05083814263343811,9.797991752624512,-0.0019019613810242262,-0.003411543426128106,-0.0023430886583491444,2.895014762878418,2019-06-20 11:23:38:870,0.0,0.0,0.0
-0.11646386235952377,0.046048641204833984,9.85546588897705,9.58972140594435e-05,-0.0032783528623334932,0.0013862475180114872,2.9000139236450195,2019-06-20 11:23:38:875,0.0,0.0,0.0
-0.09970061480998993,0.038864392787218094,9.76446533203125,0.0008950406537183759,-0.007140879472451575,0.0028513438497893852,2.9051036834716797,2019-06-20 11:23:38:880,0.0,0.0,0.0
-0.0949111133813858,0.07239089161157608,9.821938514709473,-0.003899819967980573,-0.01233531172051578,0.0013862475180114872,2.9100112915039062,2019-06-20 11:23:38:885,0.0,0.0,0.0
-0.11646386235952377,0.046048641204833984,9.797991752624512,0.0014278029739154064,-0.010071072396081696,0.004183249487735508,2.9150123596191406,2019-06-20 11:23:38:890,0.0,0.0,0.0
-0.09730586409568787,0.06520663946866989,9.841096878051758,-0.003367057712802124,-0.008206403982808473,0.002718153285994773,2.9200143814086914,2019-06-20 11:23:38:895,0.0,0.0,0.0
-0.0685688704252243,0.06999614089727402,9.850675582885742,-0.0015023896896403893,-0.004610258500279616,0.0020522003369845485,2.925016403198242,2019-06-20 11:23:38:900,0.0,0.0,0.0
-0.0757531151175499,0.09154888242483139,9.83391284942627,-0.0028342954576236743,-0.0040774962451011676,-0.0023430886583491444,2.9300050735473633,2019-06-20 11:23:38:905,0.0,0.0,0.0
-0.08293736726045609,0.08675938844680786,9.898571014404297,-0.0009696273694433586,-0.010337453003522271,-0.001410754581749696,2.9350171089172363,2019-06-20 11:23:38:910,0.0,0.0,0.0
-0.08054261654615402,0.04844339191913605,9.757280349731445,-0.0007032462418541342,-0.0040774962451011676,0.002718153285994773,2.9400129318237305,2019-06-20 11:23:38:915,0.0,0.0,0.0
-0.10927961021661758,0.0843646377325058,9.81714916229248,-0.00017048393791174905,-0.00367792455371733,-0.002609469785938369,2.945016384124756,2019-06-20 11:23:38:920,0.0,0.0,0.0
-0.07096362113952637,0.06520663946866989,9.831518173217773,-0.0019019613810242262,-0.005542592706916228,0.0008534851978144569,2.9501147270202637,2019-06-20 11:23:38:925,0.0,0.0,0.0
-0.09970061480998993,0.06520663946866989,9.807570457458496,-0.0017687708172296136,-0.007274069776171861,0.0028513438497893852,2.9550251960754395,2019-06-20 11:23:38:930,0.0,0.0,0.0
-0.09012161195278168,0.12268063426017761,9.795597076416016,-0.0020351519448188384,-0.0040774962451011676,0.0019190097731899363,2.9600048065185547,2019-06-20 11:23:38:935,0.0,0.0,0.0
-0.06617411971092224,0.026890644803643227,9.819543838500977,-0.00043686508175561897,-0.00540940188304729,0.005914726817065468,2.965007781982422,2019-06-20 11:23:38:940,0.0,0.0,0.0
-0.08533211797475815,0.07239089161157608,9.84588623046875,0.0004954689298252484,-0.005808973834505452,-0.0023430886583491444,2.9700136184692383,2019-06-20 11:23:38:945,0.0,0.0,0.0
-0.10688485950231552,0.08915413916110992,9.836307525634766,0.0006286595261291513,-0.009538309100605945,-0.001410754581749696,2.97501277923584,2019-06-20 11:23:38:950,0.0,0.0,0.0
-0.0685688704252243,0.053232889622449875,9.821938514709473,-0.00017048393791174905,-0.0015468752729292082,0.003384106104967834,2.9800033569335938,2019-06-20 11:23:38:955,0.0,0.0,0.0
-0.07814786583185196,0.06999614089727402,9.795597076416016,-0.0012360085620511645,-0.008206403982808473,-0.0042077565514737165,2.9850106239318848,2019-06-20 11:23:38:960,0.0,0.0,0.0
-0.09251636266708374,0.04125914350152016,9.824334144592285,-0.003766629404185961,-0.003411543426128106,0.0019190097731899363,2.990017890930176,2019-06-20 11:23:38:965,0.0,0.0,0.0
-0.10449011623859406,0.07239089161157608,9.800386428833008,0.005689901405454487,-0.0056757830106365145,-0.0011443734541604713,2.995014190673828,2019-06-20 11:23:38:970,0.0,0.0,0.0
-0.08533211797475815,0.060417141765356064,9.848280906677246,-0.00043686508175561897,-0.007274069776171861,0.00018753233007745944,3.0000662803649902,2019-06-20 11:23:38:975,0.0,0.0,0.0
-0.08772686868906021,0.05562764033675194,9.83391284942627,0.0015609935377100185,-0.0056757830106365145,0.001253056954216875,3.0050125122070312,2019-06-20 11:23:38:980,0.0,0.0,0.0
-0.0685688704252243,0.053232889622449875,9.853070259094238,0.0031592804332825283,-0.003944305681306555,0.0011198663904222626,3.0100059509277344,2019-06-20 11:23:38:985,0.0,0.0,0.0
-0.06617411971092224,0.04365389049053192,9.769254684448242,0.002892899305693304,-0.004343877372690392,-0.0035418037325006552,3.0150136947631836,2019-06-20 11:23:38:990,0.0,0.0,0.0
-0.09730586409568787,0.07718038558959961,9.790806770324707,0.0011614218463261818,-0.0026123997832861066,-0.0012775640179550837,3.0200138092041016,2019-06-20 11:23:38:995,0.0,0.0,0.0
-0.08772686868906021,0.06281188875436783,9.750096321105957,-0.00043686508175561897,-0.0018132564005184332,-0.0023430886583491444,3.0250096321105957,2019-06-20 11:23:39:000,0.0,0.0,0.0
-0.09970061480998993,0.07239089161157608,9.759675025939941,-0.0027011048938290626,-0.004477067676410679,0.0013862475180114872,3.0300025939941406,2019-06-20 11:23:39:005,0.0,0.0,0.0
-0.1284376084804535,0.04844339191913605,9.781228065490723,-0.0007032462418541342,-0.004210686808895779,0.00045391347392132933,3.0350160598754883,2019-06-20 11:23:39:010,0.0,0.0,0.0
-0.08533211797475815,0.060417141765356064,9.838702201843262,-0.00043686508175561897,-0.01233531172051578,-0.0016771357093389207,3.0400161743164062,2019-06-20 11:23:39:015,0.0,0.0,0.0
-0.05898986756801605,0.06520663946866989,9.814754486083984,0.0004954689298252484,-0.009538309100605945,-7.884882189373314e-05,3.045121192932129,2019-06-20 11:23:39:020,0.0,0.0,0.0
-0.07096362113952637,0.03646964207291603,9.848280906677246,-0.00043686508175561897,-0.004210686808895779,-0.0034086131687060426,3.0500097274780273,2019-06-20 11:23:39:025,0.0,0.0,0.0
-0.08054261654615402,0.06520663946866989,9.853070259094238,0.004224804943639427,-0.002745590347080719,-0.00047842053765953795,3.0550107955932617,2019-06-20 11:23:39:030,0.0,0.0,0.0
-0.05180561915040016,0.1035226359963417,9.819543838500977,-0.004033010531775186,-0.0015468752729292082,0.0011198663904222626,3.060013771057129,2019-06-20 11:23:39:035,0.0,0.0,0.0
-0.11885861307382584,0.04125914350152016,9.853070259094238,0.0003622783660306361,-0.005276211059178353,-0.0031422320411168183,3.0650129318237305,2019-06-20 11:23:39:040,0.0,0.0,0.0
-0.05898986756801605,0.07478563487529755,9.802781105041504,0.0020937557928884677,-0.007940022855219248,5.4341754091863145e-05,3.07000732421875,2019-06-20 11:23:39:045,0.0,0.0,0.0
-0.07335836440324783,0.04365389049053192,9.762070655822754,-0.0003036745179610067,-0.004876639627868841,0.001652628645600712,3.0750155448913574,2019-06-20 11:23:39:050,0.0,0.0,0.0
-0.08533211797475815,0.07478563487529755,9.838702201843262,-0.004166201095569797,-0.007806832031350311,0.0015194380818060996,3.080014228820801,2019-06-20 11:23:39:055,0.0,0.0,0.0
-0.08533211797475815,0.046048641204833984,9.79320240020752,-0.0007032462418541342,-0.007806832031350311,0.0019190097731899363,3.085015296936035,2019-06-20 11:23:39:060,0.0,0.0,0.0
-0.06377936899662018,0.024495894089341164,9.867439270019531,0.00382523325225559,-0.005808973834505452,-0.0022098980945545322,3.090094566345215,2019-06-20 11:23:39:065,0.0,0.0,0.0
-0.07814786583185196,0.0843646377325058,9.869833946228027,-0.00043686508175561897,-0.0010141130177507593,0.001652628645600712,3.0950560569763184,2019-06-20 11:23:39:070,0.0,0.0,0.0
-0.08054261654615402,0.060417141765356064,9.819543838500977,-0.0023015332024452257,-0.002745590347080719,0.0011198663904222626,3.1000051498413086,2019-06-20 11:23:39:075,0.0,0.0,0.0
-0.08293736726045609,0.07478563487529755,9.807570457458496,0.0011614218463261818,-0.0026123997832861066,-0.0030090414773222057,3.1050143241882324,2019-06-20 11:23:39:080,0.0,0.0,0.0
-0.07096362113952637,0.06760139018297195,9.781228065490723,-0.0023015332024452257,-0.004743448803999903,-0.0016771357093389207,3.110013008117676,2019-06-20 11:23:39:085,0.0,0.0,0.0
-0.10927961021661758,0.07239089161157608,9.83391284942627,-0.0008364368056487465,-0.009405118796885659,-0.0008779922615526655,3.115011692047119,2019-06-20 11:23:39:090,0.0,0.0,0.0
-0.1284376084804535,0.060417141765356064,9.83391284942627,-0.0011028179982565524,-0.007274069776171861,0.0048492023067085695,3.1200013160705566,2019-06-20 11:23:39:095,0.0,0.0,0.0
-0.09730586409568787,0.07478563487529755,9.762070655822754,0.002892899305693304,-0.009138738189445085,-7.884882189373314e-05,3.125009536743164,2019-06-20 11:23:39:100,0.0,0.0,0.0
-0.09730586409568787,0.060417141765356064,9.790806770324707,0.0015609935377100185,-0.009005546845427497,0.0024517721584055483,3.1300125122070312,2019-06-20 11:23:39:105,0.0,0.0,0.0
-0.11406911164522171,0.046048641204833984,9.730938911437988,-0.0021683425086134506,-0.004743448803999903,0.0028513438497893852,3.1350173950195312,2019-06-20 11:23:39:110,0.0,0.0,0.0
-0.08293736726045609,0.07718038558959961,9.81714916229248,0.0003622783660306361,-0.004477067676410679,0.002318581594610936,3.139185905456543,2019-06-20 11:23:39:114,0.0,0.0,0.0
-0.12364811450242996,0.06520663946866989,9.79320240020752,0.0007618500899237635,-0.004743448803999903,0.0019190097731899363,3.144979476928711,2019-06-20 11:23:39:120,0.0,0.0,0.0
-0.11406911164522171,0.1035226359963417,9.821938514709473,0.0015609935377100185,-0.002346018655696882,0.0008534851978144569,3.1500062942504883,2019-06-20 11:23:39:125,0.0,0.0,0.0
-0.09730586409568787,0.04125914350152016,9.819543838500977,9.58972140594435e-05,-0.008206403982808473,-0.00034522997386492567,3.1550092697143555,2019-06-20 11:23:39:130,0.0,0.0,0.0
-0.12364811450242996,0.06520663946866989,9.819543838500977,0.0019605652290938555,-0.004743448803999903,0.00045391347392132933,3.1600112915039062,2019-06-20 11:23:39:135,0.0,0.0,0.0
-0.1284376084804535,0.04365389049053192,9.81714916229248,-0.0019019613810242262,-0.00367792455371733,0.002984534413583997,3.1650123596191406,2019-06-20 11:23:39:140,0.0,0.0,0.0
-0.08054261654615402,0.019706394523382187,9.87462329864502,0.0018273746652992433,-0.007274069776171861,-0.0007448016977580532,3.170003890991211,2019-06-20 11:23:39:145,0.0,0.0,0.0
-0.05659512057900429,0.06520663946866989,9.85546588897705,-0.0008364368056487465,-0.005542592706916228,-0.002476279222143757,3.1750097274780273,2019-06-20 11:23:39:150,0.0,0.0,0.0
-0.11406911164522171,0.02210114523768425,9.888992309570312,-0.00429939165936441,-0.005009829931589127,5.4341754091863145e-05,3.18001651763916,2019-06-20 11:23:39:155,0.0,0.0,0.0
-0.12604285776615143,0.053232889622449875,9.778833389282227,-0.0032338671490075113,-0.005542592706916228,-0.0012775640179550837,3.1850438117980957,2019-06-20 11:23:39:160,0.0,0.0,0.0
-0.0949111133813858,0.060417141765356064,9.857860565185547,-0.0019019613810242262,-0.002745590347080719,-7.884882189373314e-05,3.1900243759155273,2019-06-20 11:23:39:165,0.0,0.0,0.0
-0.12364811450242996,0.06281188875436783,9.819543838500977,-0.005498106993590246,-0.0038111151175119424,0.0009866757616090692,3.195009708404541,2019-06-20 11:23:39:170,0.0,0.0,0.0
-0.10449011623859406,0.0843646377325058,9.80517578125,-0.00043686508175561897,-0.007007688648582638,-0.0011443734541604713,3.200009346008301,2019-06-20 11:23:39:175,0.0,0.0,0.0
-0.08293736726045609,0.053232889622449875,9.814754486083984,-0.0019019613810242262,-0.007940022855219248,0.0019190097731899363,3.205009937286377,2019-06-20 11:23:39:180,0.0,0.0,0.0
-0.11646386235952377,0.05083814263343811,9.843491554260254,-0.001369199125845777,-0.00887235654170721,-0.00021203939381566809,3.2100143432617188,2019-06-20 11:23:39:185,0.0,0.0,0.0
-0.09012161195278168,0.05562764033675194,9.814754486083984,0.0007618500899237635,-0.012068930072777904,-0.004607328502931879,3.215015411376953,2019-06-20 11:23:39:190,0.0,0.0,0.0
-0.0685688704252243,0.038864392787218094,9.80517578125,-0.004166201095569797,-0.004343877372690392,-0.001943516836928145,3.220004081726074,2019-06-20 11:23:39:195,0.0,0.0,0.0
-0.08293736726045609,0.038864392787218094,9.81714916229248,-0.0016355802534350015,-0.004477067676410679,0.001253056954216875,3.2250099182128906,2019-06-20 11:23:39:200,0.0,0.0,0.0
-0.09730586409568787,0.07478563487529755,9.809965133666992,0.0015609935377100185,-0.006608117217273125,-0.003275422604911431,3.2303829193115234,2019-06-20 11:23:39:206,0.0,0.0,0.0
-0.0949111133813858,0.11789113283157349,9.826728820800781,0.002759708741898692,-0.009538309100605945,-0.0022098980945545322,3.234149932861328,2019-06-20 11:23:39:209,0.0,0.0,0.0
-0.10209536552429199,0.038864392787218094,9.867439270019531,0.0014278029739154064,-0.0035447339899227176,0.005248774258166731,3.2399697303771973,2019-06-20 11:23:39:215,0.0,0.0,0.0
-0.13801661133766174,0.03646964207291603,9.80517578125,-0.0003036745179610067,-0.004343877372690392,-0.0016771357093389207,3.2450122833251953,2019-06-20 11:23:39:220,0.0,0.0,0.0
-0.05898986756801605,0.06999614089727402,9.771649360656738,0.0022269464867202427,-0.004477067676410679,-7.884882189373314e-05,3.250014305114746,2019-06-20 11:23:39:225,0.0,0.0,0.0
-0.10688485950231552,0.1035226359963417,9.788412094116211,-0.00043686508175561897,-0.0003481601662684072,-0.0011443734541604713,3.2550148963928223,2019-06-20 11:23:39:230,0.0,0.0,0.0
-0.05898986756801605,0.06999614089727402,9.800386428833008,-0.0003036745179610067,-0.004343877372690392,0.001652628645600712,3.2600021362304688,2019-06-20 11:23:39:235,0.0,0.0,0.0
-0.07814786583185196,0.058022391051054,9.821938514709473,-0.0021683425086134506,-0.005942164138225739,0.00018753233007745944,3.2650113105773926,2019-06-20 11:23:39:240,0.0,0.0,0.0
-0.08533211797475815,0.04365389049053192,9.809965133666992,-0.0009696273694433586,-0.0011473035815453717,0.003250915541173222,3.270015239715576,2019-06-20 11:23:39:245,0.0,0.0,0.0
-0.10209536552429199,0.0843646377325058,9.786017417907715,0.0024933276143094675,-0.010204262699801982,0.0031177249773786096,3.2750167846679688,2019-06-20 11:23:39:250,0.0,0.0,0.0
-0.09251636266708374,0.08196988701820374,9.781228065490723,-0.003367057712802124,-0.00540940188304729,0.003916868360146284,3.280427932739258,2019-06-20 11:23:39:256,0.0,0.0,0.0
-0.10688485950231552,0.06520663946866989,9.774044036865234,-0.0005700556780595219,-0.004477067676410679,-0.002476279222143757,3.2841238975524902,2019-06-20 11:23:39:259,0.0,0.0,0.0
-0.10209536552429199,0.03646964207291603,9.781228065490723,-0.0020351519448188384,-0.0075404509037610866,0.0019190097731899363,3.2899694442749023,2019-06-20 11:23:39:265,0.0,0.0,0.0
-0.08772686868906021,0.04365389049053192,9.867439270019531,0.002360137050514855,-0.007274069776171861,-0.0031422320411168183,3.295015811920166,2019-06-20 11:23:39:270,0.0,0.0,0.0
-0.0685688704252243,0.06520663946866989,9.84588623046875,0.0031592804332825283,-0.006608117217273125,-0.0016771357093389207,3.300016403198242,2019-06-20 11:23:39:275,0.0,0.0,0.0
-0.08293736726045609,0.05562764033675194,9.788412094116211,-0.0025679143300344504,-0.008206403982808473,0.0007202946340198446,3.305013656616211,2019-06-20 11:23:39:280,0.0,0.0,0.0
-0.04222662001848221,0.04125914350152016,9.77643871307373,0.0014278029739154064,-0.0075404509037610866,0.0007202946340198446,3.3100056648254395,2019-06-20 11:23:39:285,0.0,0.0,0.0
-0.09012161195278168,0.06281188875436783,9.757280349731445,0.0020937557928884677,-0.007673641727630024,-0.00021203939381566809,3.3151440620422363,2019-06-20 11:23:39:290,0.0,0.0,0.0
-0.0685688704252243,0.053232889622449875,9.800386428833008,-0.00043686508175561897,-0.0038111151175119424,0.0009866757616090692,3.320136070251465,2019-06-20 11:23:39:295,0.0,0.0,0.0
-0.0494108721613884,0.053232889622449875,9.750096321105957,-0.0016355802534350015,-0.007407260600040799,0.000320722910126717,3.3251423835754395,2019-06-20 11:23:39:300,0.0,0.0,0.0
-0.10449011623859406,0.07957513630390167,9.80517578125,-0.0007032462418541342,-0.00980469074834382,0.0017858192093953241,3.330148696899414,2019-06-20 11:23:39:305,0.0,0.0,0.0
-0.05659512057900429,0.09154888242483139,9.795597076416016,-3.7293361926152775e-05,-0.004343877372690392,0.0021853910308163235,3.3351364135742188,2019-06-20 11:23:39:310,0.0,0.0,0.0
