ACCELEROMETER X (m/s²),ACCELEROMETER Y (m/s²),ACCELEROMETER Z (m/s²),GYROSCOPE X (rad/s),GYROSCOPE Y (rad/s),GYROSCOPE Z (rad/s),Time since start in ms ,YYYY-MO-DD HH-MI-SS_SSS
-0.1907777339220047,0.1312250941991806,9.792760848999023,-0.0008540179600696353,0.003530349278995737,0.000996132259129196,0.0,2019-06-18 15:35:23:290
-0.15006698668003082,0.11925134807825089,9.807129859924316,0.0010106500630920993,0.004196302097968799,0.00166208520813942,0.004105567932128906,2019-06-18 15:35:23:294
-0.1716197431087494,0.14080409705638885,9.895735740661621,0.0050063673020233745,0.00632735137875692,0.003659943795095767,0.009133338928222656,2019-06-18 15:35:23:299
-0.23148848116397858,0.12164609879255295,9.840656280517578,0.001676602947083742,0.012054545881999576,-0.0010017262628085697,0.014992237091064453,2019-06-18 15:35:23:305
-0.1835934817790985,0.16954109072685242,9.850234985351562,0.0007442689355028748,0.014318785206433657,-0.0006021545714247328,0.019985198974609375,2019-06-18 15:35:23:310
-0.25783073902130127,0.10009334981441498,9.787971496582031,0.0030085085850298653,0.01218773618571986,0.002860800412328093,0.024100303649902344,2019-06-18 15:35:23:314
-0.25304123759269714,0.07375110685825348,9.802340507507324,-0.0005876368324804107,0.0061941605548879826,0.0007297511315399715,0.029998779296875,2019-06-18 15:35:23:320
-0.26740971207618713,0.10248810052871704,9.790366172790527,0.004473605046844925,0.004462683485632349,-0.0016676791468002124,0.03410530090332031,2019-06-18 15:35:23:324
-0.2817782163619995,0.13601459562778473,9.783182144165039,0.00473998617443415,0.003397158715201125,0.0052582305606311145,0.039992332458496094,2019-06-18 15:35:23:330
-0.2290937304496765,0.15517260134220123,9.80473518371582,0.0030085085850298653,0.0002005850053293314,0.0001969888601068769,0.04500007629394531,2019-06-18 15:35:23:335
-0.24825172126293182,0.13361984491348267,9.835866928100586,0.0010106500630920993,0.0049954457408107975,-0.002999584914783498,0.049106597900390625,2019-06-18 15:35:23:339
-0.23148848116397858,0.14080409705638885,9.86220932006836,-0.0009872085238642476,0.01032306881274394,-0.005663396190675744,0.054991722106933594,2019-06-18 15:35:23:345
-0.22669897973537445,0.14319884777069092,9.919683456420898,-0.0035178293009804624,0.01378602295125521,-0.00885996972174644,0.05910682678222656,2019-06-18 15:35:23:349
-0.22669897973537445,0.1647515892982483,9.87418270111084,0.0018097935108783545,0.01365283264753492,-0.0037987282975511715,0.06499052047729492,2019-06-18 15:35:23:355
-0.26740971207618713,0.15517260134220123,9.773603439331055,0.0008774594992974871,0.010056687165006064,0.003393562667506543,0.07001686096191406,2019-06-18 15:35:23:360
-0.25783073902130127,0.16954109072685242,9.778392791748047,-0.0005876368324804107,0.006593732506346145,-0.0020672508381840496,0.07499885559082031,2019-06-18 15:35:23:365
-0.3224889636039734,0.10727760195732117,9.783182144165039,-5.487451634704159e-05,0.003796730406584962,0.000996132259129196,0.07910728454589844,2019-06-18 15:35:23:369
-0.29854145646095276,0.12164609879255295,9.871788024902344,0.0018097935108783545,-0.0013977018414792427,0.00166208520813942,0.0849905014038086,2019-06-18 15:35:23:375
-0.24106748402118683,0.14080409705638885,9.850234985351562,0.004207223659181376,0.0006001567454771042,-0.005929777318264968,0.08999252319335938,2019-06-18 15:35:23:380
-0.20754098892211914,0.15277785062789917,9.857419967651367,0.0027421274574406405,0.003530349278995737,0.0012625133867184206,0.09499311447143555,2019-06-18 15:35:23:385
-0.17640922963619232,0.1503830999135971,9.888551712036133,7.831605963855469e-05,0.007392875889113818,0.0007297511315399715,0.09998512268066406,2019-06-18 15:35:23:390
-0.1907777339220047,0.1048828512430191,9.893341064453125,-0.0005876368324804107,0.012986880088636184,-0.0024668226596050486,0.10499382019042969,2019-06-18 15:35:23:395
-0.17401449382305145,0.10009334981441498,9.869393348693848,-0.0032514481733912377,0.010056687165006064,0.0013957039505130327,0.10910940170288086,2019-06-18 15:35:23:399
-0.2290937304496765,0.14559359848499298,9.76402473449707,0.001676602947083742,0.013386452040094348,0.002860800412328093,0.11499357223510742,2019-06-18 15:35:23:405
-0.2243042290210724,0.18630434572696686,9.80473518371582,-0.0009872085238642476,0.0076592570167030435,-0.0036655377337565594,0.11999225616455078,2019-06-18 15:35:23:410
-0.1907777339220047,0.12883034348487854,9.80473518371582,-0.00018806509233263786,0.005261826868400022,-0.0011349168916217633,0.12410259246826172,2019-06-18 15:35:23:414
-0.20993572473526,0.13601459562778473,9.780787467956543,0.001143840691905293,0.0008665378730663289,-0.005530205886955456,0.12999725341796875,2019-06-18 15:35:23:420
-0.20035673677921295,0.12643559277057648,9.787971496582031,-0.0015199708440612782,0.001798871819628615,-0.0022004415320158242,0.1349935531616211,2019-06-18 15:35:23:425
-0.19317248463630676,0.17193584144115448,9.86220932006836,0.0014102218194945173,0.0025980153324334514,-0.0012681074554163755,0.13998889923095703,2019-06-18 15:35:23:430
-0.16922499239444733,0.15996210277080536,9.86220932006836,0.006604654067558721,0.007126494761524595,0.00499184943304189,0.1441035270690918,2019-06-18 15:35:23:434
-0.15485648810863495,0.12643559277057648,9.890946388244629,0.00154341238328913,0.007126494761524595,0.004325896614068829,0.14999103546142578,2019-06-18 15:35:23:440
-0.1716197431087494,0.08333010226488113,9.869393348693848,-0.0012535897164720534,0.01232092752973745,-0.0011349168916217633,0.15410327911376953,2019-06-18 15:35:23:444
-0.1907777339220047,0.1767253428697586,9.76402473449707,0.0012770312556999051,0.01218773618571986,0.007788851532803074,0.1599903106689453,2019-06-18 15:35:23:450
-0.20035673677921295,0.1647515892982483,9.771208763122559,0.0007442689355028748,0.010855831067922388,0.004459087177863441,0.1649932861328125,2019-06-18 15:35:23:455
-0.22669897973537445,0.14080409705638885,9.732892990112305,0.0012770312556999051,0.005528207995989247,0.0011293228229238084,0.16912555694580078,2019-06-18 15:35:23:459
-0.19317248463630676,0.14798834919929504,9.773603439331055,0.0036744614040029266,0.0024648247686388392,0.0017952757719340324,0.17504501342773438,2019-06-18 15:35:23:465
-0.15485648810863495,0.14319884777069092,9.799945831298828,-0.0013867802802666658,0.0011329190006555533,0.003793134358890379,0.18003511428833008,2019-06-18 15:35:23:470
-0.16683024168014526,0.15996210277080536,9.826288223266602,0.0010106500630920993,0.0008665378730663289,0.007788851532803074,0.18411922454833984,2019-06-18 15:35:23:474
-0.16683024168014526,0.12404084950685501,9.821497917175293,-0.0012535897164720534,0.005927779427298759,0.002061656899523257,0.1899886131286621,2019-06-18 15:35:23:480
-0.1452774852514267,0.12404084950685501,9.83347225189209,-0.0003212556723818955,0.008591591223339655,-0.0006021545714247328,0.19499731063842773,2019-06-18 15:35:23:485
-0.15964598953723907,0.15277785062789917,9.859814643859863,-0.00018806509233263786,0.008458400399470718,0.0067233270224461746,0.19999027252197266,2019-06-18 15:35:23:490
-0.17401449382305145,0.14319884777069092,9.883761405944824,0.0036744614040029266,0.010056687165006064,0.0069897081500354,0.20499515533447266,2019-06-18 15:35:23:495
-0.20035673677921295,0.12883034348487854,9.87418270111084,-0.00018806509233263786,0.0061941605548879826,0.005657802512089276,0.20998859405517578,2019-06-18 15:35:23:500
-0.20993572473526,0.14080409705638885,9.80473518371582,-0.0008540179600696353,0.0039299209703795735,0.012716902133129402,0.21499347686767578,2019-06-18 15:35:23:505
-0.18598823249340057,0.13601459562778473,9.807129859924316,0.005272748429612599,0.003530349278995737,0.014181998594944463,0.21999168395996094,2019-06-18 15:35:23:510
-0.20514623820781708,0.13361984491348267,9.795156478881836,0.0030085085850298653,0.0021984436410496144,0.004325896614068829,0.2249908447265625,2019-06-18 15:35:23:515
-0.1261194944381714,0.10727760195732117,9.826288223266602,-0.0005876368324804107,0.0039299209703795735,0.006590136198577237,0.22998905181884766,2019-06-18 15:35:23:520
-0.1309089958667755,0.11685659736394882,9.835866928100586,0.0072706071466061084,0.008192019271881493,0.003793134358890379,0.23410320281982422,2019-06-18 15:35:23:524
-0.1117509976029396,0.049803610891103745,9.819103240966797,0.0010106500630920993,0.009390734606107327,0.004192706050274216,0.2391204833984375,2019-06-18 15:35:23:529
-0.1309089958667755,0.13601459562778473,9.843050956726074,0.0028753180212352527,0.010989021371642677,0.005125040256910827,0.24500083923339844,2019-06-18 15:35:23:535
-0.1189352422952652,0.12404084950685501,9.857419967651367,0.0030085085850298653,0.01325326069607676,0.003926324922684992,0.24910688400268555,2019-06-18 15:35:23:539
-0.17880398035049438,0.11685659736394882,9.761629104614258,-0.0033846387371858503,0.01325326069607676,-0.0022004415320158242,0.25499391555786133,2019-06-18 15:35:23:545
-0.1716197431087494,0.12883034348487854,9.720918655395508,0.005139557605743661,0.0061941605548879826,0.0069897081500354,0.2599906921386719,2019-06-18 15:35:23:550
-0.19317248463630676,0.11446185410022736,9.771208763122559,0.001676602947083742,0.008591591223339655,0.005657802512089276,0.2640986442565918,2019-06-18 15:35:23:554
-0.2243042290210724,0.15996210277080536,9.802340507507324,0.004606795350565213,0.0032639681514065122,0.0012625133867184206,0.2700157165527344,2019-06-18 15:35:23:560
-0.20514623820781708,0.11685659736394882,9.831077575683594,0.002076174638467579,0.006460541682477208,-0.0022004415320158242,0.27499914169311523,2019-06-18 15:35:23:565
-0.18838298320770264,0.10727760195732117,9.871788024902344,-0.0017863519716505025,0.010056687165006064,0.005391421384500052,0.2791023254394531,2019-06-18 15:35:23:569
-0.17401449382305145,0.11206710338592529,9.814313888549805,0.0024757463298514157,0.013120070392356473,0.005924183639678501,0.2849893569946289,2019-06-18 15:35:23:575
-0.19556723535060883,0.12404084950685501,9.747261047363281,-0.003917400992364299,0.015384309716790555,0.003793134358890379,0.2891063690185547,2019-06-18 15:35:23:579
-0.20993572473526,0.13601459562778473,9.8167085647583,0.0027421274574406405,0.010855831067922388,0.006323755070988013,0.29410457611083984,2019-06-18 15:35:23:584
-0.20754098892211914,0.15277785062789917,9.787971496582031,0.0036744614040029266,0.008991162654649167,0.0021948473332807066,0.2999868392944336,2019-06-18 15:35:23:590
-0.21951472759246826,0.1503830999135971,9.795156478881836,0.005938700988511335,0.005661398299709534,0.004592277481583728,0.3049955368041992,2019-06-18 15:35:23:595
-0.21951472759246826,0.15277785062789917,9.778392791748047,0.001143840691905293,0.006593732506346145,0.006057373943398788,0.30910253524780273,2019-06-18 15:35:23:599
-0.19556723535060883,0.12643559277057648,9.823892593383789,7.831605963855469e-05,0.007392875889113818,0.0035267532313011545,0.3149895668029785,2019-06-18 15:35:23:605
-0.17880398035049438,0.0857248529791832,9.76402473449707,0.0010106500630920993,0.006460541682477208,0.0008629416953345836,0.3199911117553711,2019-06-18 15:35:23:610
-0.18119873106479645,0.14559359848499298,9.831077575683594,0.0032748897126190896,0.007392875889113818,0.002061656899523257,0.3249936103820801,2019-06-18 15:35:23:615
-0.1835934817790985,0.15996210277080536,9.869393348693848,0.005805510684791048,0.009257544302387042,0.0021948473332807066,0.3291044235229492,2019-06-18 15:35:23:619
-0.18598823249340057,0.11446185410022736,9.835866928100586,0.0010106500630920993,0.009257544302387042,0.0021948473332807066,0.3349909782409668,2019-06-18 15:35:23:625
-0.18598823249340057,0.15277785062789917,9.809524536132812,-0.0011203991526774412,0.012454117833457736,-0.0012681074554163755,0.33999204635620117,2019-06-18 15:35:23:630
-0.24585697054862976,0.1503830999135971,9.847840309143066,0.0026089368936460283,0.007392875889113818,0.0067233270224461746,0.3441038131713867,2019-06-18 15:35:23:634
-0.20754098892211914,0.1312250941991806,9.819103240966797,0.0019429840746729666,6.739442934373515e-05,0.005391421384500052,0.3499917984008789,2019-06-18 15:35:23:640
-0.19317248463630676,0.12164609879255295,9.821497917175293,-5.487451634704159e-05,0.007925638144292268,-0.0011349168916217633,0.3541250228881836,2019-06-18 15:35:23:644
-0.18119873106479645,0.1384093463420868,9.87418270111084,0.006338272939969498,0.0019320623834232272,-0.0035323471699619468,0.36000680923461914,2019-06-18 15:35:23:650
-0.20275148749351501,0.13601459562778473,9.828682899475098,0.0038076519677975387,0.0039299209703795735,-0.0011349168916217633,0.3641195297241211,2019-06-18 15:35:23:654
-0.16683024168014526,0.10009334981441498,9.785576820373535,-0.0011203991526774412,0.005528207995989247,-0.0027332037871942733,0.3692922592163086,2019-06-18 15:35:23:660
-0.20514623820781708,0.11925134807825089,9.778392791748047,0.0012770312556999051,0.01032306881274394,-0.0004689640076301205,0.3771629333496094,2019-06-18 15:35:23:667
-0.19317248463630676,0.1767253428697586,9.823892593383789,-0.0011203991526774412,0.005794589123578471,-0.0023336320958104364,0.3862600326538086,2019-06-18 15:35:23:677
-0.1907777339220047,0.09290910512208939,9.826288223266602,-0.002452304790623564,0.003796730406584962,-0.00486425280790807,0.39504003524780273,2019-06-18 15:35:23:685
-0.22190947830677032,0.1048828512430191,9.740077018737793,-0.0003212556723818955,0.008058828968161205,0.0017952757719340324,0.3994178771972656,2019-06-18 15:35:23:690
-0.22190947830677032,0.18151484429836273,9.780787467956543,0.0003446972116097473,0.003796730406584962,-0.0011349168916217633,0.40584468841552734,2019-06-18 15:35:23:696
-0.1979619860649109,0.12404084950685501,9.864603996276855,0.001143840691905293,0.00632735137875692,-0.003399156606167335,0.4106879234313965,2019-06-18 15:35:23:701
-0.21951472759246826,0.15996210277080536,9.802340507507324,-0.0009872085238642476,0.006593732506346145,-0.0037987282975511715,0.4158172607421875,2019-06-18 15:35:23:706
-0.16922499239444733,0.1384093463420868,9.857419967651367,-0.0020527330992397273,0.00486225491694186,-0.004464681376598559,0.4206981658935547,2019-06-18 15:35:23:711
-0.18598823249340057,0.12164609879255295,9.790366172790527,0.0004778877754043595,0.006593732506346145,6.379828412128062e-05,0.42576026916503906,2019-06-18 15:35:23:716
-0.2290937304496765,0.11685659736394882,9.826288223266602,0.004207223659181376,0.010989021371642677,0.002461228460869931,0.43068361282348633,2019-06-18 15:35:23:721
-0.18119873106479645,0.12643559277057648,9.823892593383789,-0.0003212556723818955,0.0019320623834232272,0.0035267532313011545,0.435793399810791,2019-06-18 15:35:23:726
-0.157251238822937,0.14319884777069092,9.811919212341309,-0.00045444623617650777,0.008591591223339655,-0.0014012980192109879,0.4406929016113281,2019-06-18 15:35:23:731
-0.1979619860649109,0.13601459562778473,9.850234985351562,-0.0015199708440612782,0.009124352958369454,0.000996132259129196,0.4457578659057617,2019-06-18 15:35:23:736
-0.19556723535060883,0.12164609879255295,9.840656280517578,0.0018097935108783545,0.0032639681514065122,0.0067233270224461746,0.4506845474243164,2019-06-18 15:35:23:741
-0.15964598953723907,0.15517260134220123,9.799945831298828,-0.0017863519716505025,0.006726922810066432,6.379828412128062e-05,0.45575523376464844,2019-06-18 15:35:23:746
-0.18598823249340057,0.13361984491348267,9.821497917175293,0.0010106500630920993,0.003796730406584962,-0.0011349168916217633,0.46068668365478516,2019-06-18 15:35:23:751
-0.18598823249340057,0.1503830999135971,9.8167085647583,0.0010106500630920993,0.0016656812558340024,-0.006595730397312356,0.46572208404541016,2019-06-18 15:35:23:756
-0.18119873106479645,0.14080409705638885,9.785576820373535,-0.0021859236630343394,0.007392875889113818,0.0031271815399173176,0.4707164764404297,2019-06-18 15:35:23:761
-0.18838298320770264,0.11925134807825089,9.744866371154785,0.0024757463298514157,0.008724781527059942,-0.0028663943509888855,0.4757518768310547,2019-06-18 15:35:23:766
-0.20754098892211914,0.14080409705638885,9.76402473449707,-0.0003212556723818955,0.005128636044531084,-0.0037987282975511715,0.48069190979003906,2019-06-18 15:35:23:771
-0.16683024168014526,0.12404084950685501,9.811919212341309,-0.0019195425354451149,0.0025980153324334514,0.003793134358890379,0.48574256896972656,2019-06-18 15:35:23:776
-0.18838298320770264,0.12883034348487854,9.759234428405762,0.0023425557660568036,0.003397158715201125,-0.0035323471699619468,0.49068784713745117,2019-06-18 15:35:23:781
-0.18598823249340057,0.12643559277057648,9.807129859924316,0.004473605046844925,0.002997587023817288,-0.0060629681421339055,0.4957704544067383,2019-06-18 15:35:23:786
-0.15964598953723907,0.14319884777069092,9.821497917175293,0.002076174638467579,0.004462683485632349,0.006190564767267726,0.5007047653198242,2019-06-18 15:35:23:791
-0.19317248463630676,0.13361984491348267,9.811919212341309,0.004340414222975988,0.007792447840571981,-0.0011349168916217633,0.5055484771728516,2019-06-18 15:35:23:796
-0.15485648810863495,0.14080409705638885,9.828682899475098,-0.0016531614078558903,0.006593732506346145,-0.0037987282975511715,0.509119987487793,2019-06-18 15:35:23:799
-0.157251238822937,0.15996210277080536,9.84544563293457,0.00154341238328913,0.009390734606107327,0.002461228460869931,0.5152902603149414,2019-06-18 15:35:23:806
-0.20514623820781708,0.12164609879255295,9.790366172790527,0.002209365202262191,0.00686011363393537,-0.004065109425140397,0.5193419456481934,2019-06-18 15:35:23:810
-0.1644354909658432,0.14080409705638885,9.76402473449707,0.0010106500630920993,0.004595873789352636,-0.0022004415320158242,0.5242786407470703,2019-06-18 15:35:23:815
-0.1907777339220047,0.12404084950685501,9.780787467956543,-0.0019195425354451149,0.007259685065244881,-0.009525923320942476,0.5292673110961914,2019-06-18 15:35:23:820
-0.19317248463630676,0.1312250941991806,9.730497360229492,0.0008774594992974871,0.0076592570167030435,-0.006329349269723131,0.5342626571655273,2019-06-18 15:35:23:825
-0.21233047544956207,0.1503830999135971,9.76402473449707,0.0034080802764137014,0.005261826868400022,-0.004065109425140397,0.5392799377441406,2019-06-18 15:35:23:830
-0.22669897973537445,0.14319884777069092,9.821497917175293,-0.0027186859182127886,0.005128636044531084,-0.0028663943509888855,0.5442709922790527,2019-06-18 15:35:23:835
-0.18119873106479645,0.14080409705638885,9.855024337768555,0.00154341238328913,0.007792447840571981,-0.0012681074554163755,0.5492658615112305,2019-06-18 15:35:23:840
-0.14767223596572876,0.11446185410022736,9.76402473449707,0.001676602947083742,0.004729064613221573,-0.004597871680318845,0.55426025390625,2019-06-18 15:35:23:845
-0.20754098892211914,0.14559359848499298,9.80473518371582,0.003541270840208314,0.00486225491694186,-0.0035323471699619468,0.5593137741088867,2019-06-18 15:35:23:850
-0.16683024168014526,0.19588333368301392,9.802340507507324,0.002209365202262191,0.010056687165006064,-0.00020258286378625062,0.5642728805541992,2019-06-18 15:35:23:855
-0.15964598953723907,0.17433059215545654,9.831077575683594,-0.0015199708440612782,0.007259685065244881,-0.0026000132233996607,0.5692672729492188,2019-06-18 15:35:23:860
-0.2171199768781662,0.12164609879255295,9.814313888549805,-0.0037842104285696868,0.012454117833457736,-0.004597871680318845,0.5742683410644531,2019-06-18 15:35:23:865
-0.25304123759269714,0.09051435440778732,9.84544563293457,0.0028753180212352527,0.006460541682477208,-0.0035323471699619468,0.579279899597168,2019-06-18 15:35:23:870
-0.20035673677921295,0.08811960369348526,9.80473518371582,0.00154341238328913,0.006460541682477208,-0.0008685356990139574,0.5842766761779785,2019-06-18 15:35:23:875
-0.16204074025154114,0.09769860655069351,9.780787467956543,0.0008774594992974871,0.007925638144292268,-0.0053970150630865184,0.589271068572998,2019-06-18 15:35:23:880
-0.22669897973537445,0.15517260134220123,9.838261604309082,0.0034080802764137014,0.005128636044531084,-0.005263824759366232,0.5942654609680176,2019-06-18 15:35:23:885
-0.21472522616386414,0.14319884777069092,9.847840309143066,-0.0029850670458020133,0.007126494761524595,-0.0010017262628085697,0.5992803573608398,2019-06-18 15:35:23:890
-0.1835934817790985,0.09769860655069351,9.797551155090332,0.001143840691905293,0.008991162654649167,-0.0014012980192109879,0.6042680740356445,2019-06-18 15:35:23:895
-0.18838298320770264,0.0785406082868576,9.780787467956543,0.0036744614040029266,0.012054545881999576,0.0017952757719340324,0.6092767715454102,2019-06-18 15:35:23:900
-0.23867273330688477,0.09769860655069351,9.807129859924316,0.004873176478154437,0.01032306881274394,0.0005965605677453591,0.6142706871032715,2019-06-18 15:35:23:905
-0.23867273330688477,0.13601459562778473,9.80473518371582,-0.0037842104285696868,0.011122211675362963,-0.0010017262628085697,0.6192770004272461,2019-06-18 15:35:23:910
-0.1835934817790985,0.15996210277080536,9.783182144165039,0.0018097935108783545,0.008058828968161205,-0.0016676791468002124,0.6242742538452148,2019-06-18 15:35:23:915
-0.23148848116397858,0.09051435440778732,9.811919212341309,0.0004778877754043595,0.008991162654649167,0.003659943795095767,0.629274845123291,2019-06-18 15:35:23:920
-0.23148848116397858,0.0593826100230217,9.759234428405762,0.00473998617443415,0.004595873789352636,0.00326037210371193,0.6342716217041016,2019-06-18 15:35:23:925
-0.2434622347354889,0.12164609879255295,9.752050399780273,0.007137416322737172,0.0027312058962280636,0.00326037210371193,0.6392793655395508,2019-06-18 15:35:23:930
-0.24585697054862976,0.17912009358406067,9.771208763122559,-0.0017863519716505025,0.009923496861285777,-0.000735345135219345,0.6442713737487793,2019-06-18 15:35:23:935
-0.21233047544956207,0.17912009358406067,9.847840309143066,-0.0012535897164720534,0.0025980153324334514,0.0040595154864796045,0.6492767333984375,2019-06-18 15:35:23:940
-0.19556723535060883,0.14080409705638885,9.799945831298828,-0.0012535897164720534,0.0076592570167030435,0.002061656899523257,0.654271125793457,2019-06-18 15:35:23:945
-0.20035673677921295,0.056987859308719635,9.811919212341309,0.0004778877754043595,0.005128636044531084,0.006190564767267726,0.6592788696289062,2019-06-18 15:35:23:950
-0.20275148749351501,0.14559359848499298,9.7352876663208,0.0038076519677975387,0.005661398299709534,0.005790992815809564,0.6642723083496094,2019-06-18 15:35:23:955
-0.20514623820781708,0.20546233654022217,9.823892593383789,0.003940842531592151,0.0049954457408107975,0.0052582305606311145,0.6692743301391602,2019-06-18 15:35:23:960
-0.2171199768781662,0.18630434572696686,9.811919212341309,-0.0016531614078558903,0.0016656812558340024,0.0027276098485334807,0.6742720603942871,2019-06-18 15:35:23:965
-0.2171199768781662,0.12404084950685501,9.8167085647583,0.0023425557660568036,0.00486225491694186,0.008721185219291034,0.6792755126953125,2019-06-18 15:35:23:970
-0.2362779825925827,0.08333010226488113,9.795156478881836,0.0024757463298514157,0.0049954457408107975,0.007655660708934136,0.6843481063842773,2019-06-18 15:35:23:975
-0.20275148749351501,0.10727760195732117,9.86220932006836,0.00154341238328913,0.006993303937655657,0.008188422964112586,0.6893086433410645,2019-06-18 15:35:23:980
-0.20754098892211914,0.1839095950126648,9.826288223266602,0.0008774594992974871,0.002864396460022676,0.005790992815809564,0.6942682266235352,2019-06-18 15:35:23:985
-0.21472522616386414,0.20067283511161804,9.838261604309082,0.0024757463298514157,0.0061941605548879826,0.005657802512089276,0.6992673873901367,2019-06-18 15:35:23:990
-0.21951472759246826,0.1575673520565033,9.859814643859863,0.0006110783717082625,0.003397158715201125,0.0025944190246645436,0.7042608261108398,2019-06-18 15:35:23:995
-0.24106748402118683,0.12404084950685501,9.852629661560059,0.0004778877754043595,0.006060970251167696,0.00326037210371193,0.7092776298522949,2019-06-18 15:35:24:000
-0.2243042290210724,0.11925134807825089,9.826288223266602,0.0024757463298514157,0.002997587023817288,0.007389279581344911,0.714268684387207,2019-06-18 15:35:24:005
-0.20035673677921295,0.12164609879255295,9.799945831298828,0.0032748897126190896,0.0021984436410496144,0.012050949574230667,0.7192659378051758,2019-06-18 15:35:24:010
-0.16204074025154114,0.1767253428697586,9.843050956726074,-0.0020527330992397273,0.003796730406584962,0.008188422964112586,0.7242631912231445,2019-06-18 15:35:24:015
-0.19556723535060883,0.12643559277057648,9.807129859924316,0.0008774594992974871,0.0019320623834232272,0.008188422964112586,0.7292823791503906,2019-06-18 15:35:24:020
-0.20754098892211914,0.10727760195732117,9.787971496582031,0.0019429840746729666,0.00632735137875692,0.006057373943398788,0.7342686653137207,2019-06-18 15:35:24:025
-0.15485648810863495,0.11446185410022736,9.83347225189209,0.006071891812380273,0.005927779427298759,0.00898756634688026,0.7392778396606445,2019-06-18 15:35:24:030
-0.157251238822937,0.14559359848499298,9.811919212341309,0.0028753180212352527,0.005128636044531084,0.0067233270224461746,0.7442712783813477,2019-06-18 15:35:24:035
-0.1380932480096817,0.15996210277080536,9.790366172790527,0.0006110783717082625,0.004196302097968799,0.0011293228229238084,0.7492799758911133,2019-06-18 15:35:24:040
-0.1309089958667755,0.14080409705638885,9.8167085647583,-0.0023191142268289516,0.005128636044531084,0.0003301794401561345,0.754270076751709,2019-06-18 15:35:24:045
-0.1716197431087494,0.08811960369348526,9.802340507507324,0.0007442689355028748,0.001399300128244778,0.004459087177863441,0.7592763900756836,2019-06-18 15:35:24:050
-0.157251238822937,0.0785406082868576,9.792760848999023,0.006871035195147947,0.005794589123578471,0.012184139877950953,0.7642712593078613,2019-06-18 15:35:24:055
-0.15006698668003082,0.11925134807825089,9.7257080078125,0.0003446972116097473,0.00632735137875692,0.004325896614068829,0.7692704200744629,2019-06-18 15:35:24:060
-0.15246173739433289,0.1839095950126648,9.799945831298828,0.001143840691905293,0.0024648247686388392,0.0001969888601068769,0.7742986679077148,2019-06-18 15:35:24:065
-0.16683024168014526,0.1767253428697586,9.807129859924316,-0.0009872085238642476,0.007925638144292268,0.00645694589485695,0.7792763710021973,2019-06-18 15:35:24:070
-0.12851424515247345,0.11685659736394882,9.835866928100586,-0.0027186859182127886,0.008724781527059942,0.0040595154864796045,0.784271240234375,2019-06-18 15:35:24:075
-0.16922499239444733,0.1048828512430191,9.76402473449707,-0.0020527330992397273,0.008058828968161205,0.002461228460869931,0.7892746925354004,2019-06-18 15:35:24:080
-0.15006698668003082,0.14559359848499298,9.785576820373535,0.004606795350565213,0.007126494761524595,0.006856517326166462,0.7942705154418945,2019-06-18 15:35:24:085
-0.1380932480096817,0.16235683858394623,9.76402473449707,0.0007442689355028748,0.005661398299709534,0.00166208520813942,0.7992815971374512,2019-06-18 15:35:24:090
-0.15964598953723907,0.14080409705638885,9.759234428405762,0.0004778877754043595,0.002997587023817288,0.0025944190246645436,0.8042697906494141,2019-06-18 15:35:24:095
-0.17880398035049438,0.12404084950685501,9.76402473449707,0.00021150663156048962,0.008458400399470718,0.004325896614068829,0.8092727661132812,2019-06-18 15:35:24:100
-0.19317248463630676,0.1647515892982483,9.785576820373535,0.001143840691905293,0.0024648247686388392,0.005524611688220339,0.8142709732055664,2019-06-18 15:35:24:105
-0.1716197431087494,0.10727760195732117,9.730497360229492,0.0038076519677975387,0.007259685065244881,0.004192706050274216,0.819277286529541,2019-06-18 15:35:24:110
-0.15246173739433289,0.19827808439731598,9.766419410705566,-0.0012535897164720534,0.007526066192834106,-0.0016676791468002124,0.8242731094360352,2019-06-18 15:35:24:115
-0.15246173739433289,0.19109384715557098,9.852629661560059,0.0026089368936460283,0.010456259116464226,-0.0024668226596050486,0.8292760848999023,2019-06-18 15:35:24:120
-0.15485648810863495,0.14319884777069092,9.886157035827637,-0.0013867802802666658,0.010989021371642677,-0.0008685356990139574,0.8342738151550293,2019-06-18 15:35:24:125
-0.19317248463630676,0.1503830999135971,9.819103240966797,-0.0005876368324804107,0.009390734606107327,0.004459087177863441,0.8392763137817383,2019-06-18 15:35:24:130
-0.19317248463630676,0.16954109072685242,9.790366172790527,0.001143840691905293,0.007792447840571981,0.005391421384500052,0.8442716598510742,2019-06-18 15:35:24:135
-0.21233047544956207,0.17193584144115448,9.831077575683594,0.004606795350565213,0.006993303937655657,0.0017952757719340324,0.8492746353149414,2019-06-18 15:35:24:140
-0.1907777339220047,0.12883034348487854,9.80473518371582,0.00154341238328913,0.007925638144292268,0.004192706050274216,0.8542981147766113,2019-06-18 15:35:24:145
-0.18119873106479645,0.1312250941991806,9.850234985351562,0.0038076519677975387,0.007925638144292268,0.00326037210371193,0.8593530654907227,2019-06-18 15:35:24:150
-0.20514623820781708,0.12164609879255295,9.866998672485352,0.002209365202262191,0.007259685065244881,-0.0018008697105948246,0.8650012016296387,2019-06-18 15:35:24:155
-0.19317248463630676,0.14080409705638885,9.840656280517578,0.0027421274574406405,0.005927779427298759,-0.0010017262628085697,0.869105339050293,2019-06-18 15:35:24:159
-0.16922499239444733,0.16714634001255035,9.835866928100586,0.0010106500630920993,0.004595873789352636,0.0035267532313011545,0.8750085830688477,2019-06-18 15:35:24:165
-0.23148848116397858,0.18630434572696686,9.864603996276855,0.0003446972116097473,0.008058828968161205,-0.003399156606167335,0.8791112899780273,2019-06-18 15:35:24:169
-0.20275148749351501,0.12883034348487854,9.835866928100586,-0.0008540179600696353,0.003796730406584962,-0.0027332037871942733,0.8849897384643555,2019-06-18 15:35:24:175
-0.1979619860649109,0.1647515892982483,9.809524536132812,-0.003118257609596625,0.005661398299709534,-0.006995301828621867,0.8891010284423828,2019-06-18 15:35:24:179
-0.1907777339220047,0.1575673520565033,9.819103240966797,0.0023425557660568036,0.004462683485632349,-0.0035323471699619468,0.894989013671875,2019-06-18 15:35:24:185
-0.20993572473526,0.17433059215545654,9.785576820373535,0.0018097935108783545,0.003397158715201125,0.001528894514307645,0.8991107940673828,2019-06-18 15:35:24:189
-0.19556723535060883,0.1503830999135971,9.831077575683594,-0.0027186859182127886,-0.000598558458711569,-0.006728920701032642,0.9049882888793945,2019-06-18 15:35:24:195
-0.20514623820781708,0.14798834919929504,9.807129859924316,-0.0015199708440612782,0.004329492661763411,-0.009392731976924888,0.9091091156005859,2019-06-18 15:35:24:199
-0.1979619860649109,0.14559359848499298,9.878972053527832,0.0030085085850298653,0.0019320623834232272,-0.004331490552729621,0.9149904251098633,2019-06-18 15:35:24:205
-0.1835934817790985,0.1312250941991806,9.80473518371582,-0.0019195425354451149,0.006993303937655657,-0.006329349269723131,0.9199914932250977,2019-06-18 15:35:24:210
-0.15964598953723907,0.1503830999135971,9.778392791748047,0.001143840691905293,0.004196302097968799,-0.0036655377337565594,0.9241065979003906,2019-06-18 15:35:24:214
-0.1835934817790985,0.14798834919929504,9.86220932006836,0.0014102218194945173,0.0049954457408107975,-0.003931918861345784,0.9299912452697754,2019-06-18 15:35:24:220
-0.1835934817790985,0.15277785062789917,9.80473518371582,7.831605963855469e-05,0.003796730406584962,-0.0036655377337565594,0.934107780456543,2019-06-18 15:35:24:224
-0.20035673677921295,0.11446185410022736,9.823892593383789,-0.0008540179600696353,0.0053950171721203095,-0.007128492652490805,0.9399871826171875,2019-06-18 15:35:24:230
-0.19556723535060883,0.11206710338592529,9.780787467956543,0.00021150663156048962,0.0061941605548879826,-0.005263824759366232,0.9441061019897461,2019-06-18 15:35:24:234
-0.17880398035049438,0.15277785062789917,9.75444507598877,0.00154341238328913,0.007126494761524595,-0.004065109425140397,0.9499883651733398,2019-06-18 15:35:24:240
-0.20514623820781708,0.1647515892982483,9.747261047363281,-0.0011203991526774412,0.00632735137875692,-0.0015344885830056003,0.9541072845458984,2019-06-18 15:35:24:244
-0.16922499239444733,0.19109384715557098,9.749655723571777,0.004606795350565213,0.004729064613221573,-0.0041982999889350085,0.9599928855895996,2019-06-18 15:35:24:250
-0.16922499239444733,0.10967235267162323,9.84544563293457,0.001676602947083742,0.004595873789352636,-0.0011349168916217633,0.9641075134277344,2019-06-18 15:35:24:254
-0.1979619860649109,0.15277785062789917,9.835866928100586,0.003141699148824477,0.003397158715201125,-0.0023336320958104364,0.9699888229370117,2019-06-18 15:35:24:260
-0.1835934817790985,0.12883034348487854,9.778392791748047,-0.0011203991526774412,0.0039299209703795735,-0.007927636035258477,0.9741311073303223,2019-06-18 15:35:24:264
-0.15246173739433289,0.1503830999135971,9.864603996276855,0.0024757463298514157,0.008591591223339655,-0.0072616829562110905,0.9799871444702148,2019-06-18 15:35:24:270
-0.18838298320770264,0.1767253428697586,9.859814643859863,-0.0025854953544181764,0.00832521009575043,-0.009525923320942476,0.9841079711914062,2019-06-18 15:35:24:274
-0.15964598953723907,0.11925134807825089,9.802340507507324,-0.005249306890384747,0.0025980153324334514,-0.005530205886955456,0.9899892807006836,2019-06-18 15:35:24:280
-0.20035673677921295,0.0857248529791832,9.768814086914062,0.00154341238328913,0.00832521009575043,-0.0053970150630865184,0.9949960708618164,2019-06-18 15:35:24:285
-0.18838298320770264,0.0785406082868576,9.795156478881836,0.0014102218194945173,0.005261826868400022,-0.0011349168916217633,0.9991083145141602,2019-06-18 15:35:24:289
-0.20993572473526,0.13601459562778473,9.75444507598877,-0.0008540179600696353,0.004729064613221573,-0.0041982999889350085,1.0049896240234375,2019-06-18 15:35:24:295
-0.20754098892211914,0.13601459562778473,9.785576820373535,0.004606795350565213,0.00486225491694186,-0.005929777318264968,1.0091075897216797,2019-06-18 15:35:24:299
-0.18598823249340057,0.13601459562778473,9.802340507507324,-0.005915259449283483,0.005528207995989247,-0.006196158445854193,1.0149898529052734,2019-06-18 15:35:24:305
-0.16922499239444733,0.0857248529791832,9.795156478881836,-0.0015199708440612782,0.009124352958369454,-0.007661254907669253,1.019993782043457,2019-06-18 15:35:24:310
-0.20275148749351501,0.10967235267162323,9.75444507598877,0.0010106500630920993,0.004329492661763411,-0.004464681376598559,1.0241479873657227,2019-06-18 15:35:24:314
-0.20035673677921295,0.11925134807825089,9.869393348693848,0.0019429840746729666,0.013386452040094348,-0.002999584914783498,1.0299997329711914,2019-06-18 15:35:24:320
-0.20754098892211914,0.14559359848499298,9.83347225189209,0.0003446972116097473,0.007792447840571981,-0.008460398290436927,1.0341005325317383,2019-06-18 15:35:24:324
-0.2171199768781662,0.09769860655069351,9.773603439331055,-0.002452304790623564,0.006993303937655657,-0.0023336320958104364,1.0399913787841797,2019-06-18 15:35:24:330
-0.1979619860649109,0.09051435440778732,9.771208763122559,0.002076174638467579,0.004729064613221573,-0.006329349269723131,1.0441083908081055,2019-06-18 15:35:24:334
-0.20754098892211914,0.13361984491348267,9.785576820373535,-0.00045444623617650777,0.0031307775876119005,-0.005663396190675744,1.0499801635742188,2019-06-18 15:35:24:340
-0.20514623820781708,0.09530385583639145,9.80473518371582,-0.0008540179600696353,0.007259685065244881,-0.007661254907669253,1.0540995597839355,2019-06-18 15:35:24:344
-0.25783073902130127,0.1503830999135971,9.809524536132812,-0.0009872085238642476,0.008458400399470718,-0.007394873780080028,1.0599908828735352,2019-06-18 15:35:24:350
-0.21951472759246826,0.14798834919929504,9.799945831298828,-0.00018806509233263786,0.007126494761524595,-0.010058685576120925,1.0641698837280273,2019-06-18 15:35:24:354
-0.20035673677921295,0.1647515892982483,9.819103240966797,-0.0023191142268289516,0.010056687165006064,-6.939229186431566e-05,1.069981575012207,2019-06-18 15:35:24:360
-0.19317248463630676,0.1048828512430191,9.790366172790527,-0.0011203991526774412,0.006593732506346145,-0.0041982999889350085,1.0750088691711426,2019-06-18 15:35:24:365
-0.2171199768781662,0.12883034348487854,9.847840309143066,0.0003446972116097473,0.009657115213547902,-0.0064625395734434175,1.079111099243164,2019-06-18 15:35:24:369
-0.25783073902130127,0.09290910512208939,9.850234985351562,-0.0009872085238642476,0.006726922810066432,-0.0024668226596050486,1.0849900245666504,2019-06-18 15:35:24:375
-0.2506464719772339,0.11685659736394882,9.86220932006836,-0.0013867802802666658,0.00979030655756549,-0.0053970150630865184,1.0891022682189941,2019-06-18 15:35:24:379
-0.26501497626304626,0.1503830999135971,9.847840309143066,0.00021150663156048962,0.005528207995989247,-0.004597871680318845,1.0949888229370117,2019-06-18 15:35:24:385
-0.23388323187828064,0.15277785062789917,9.807129859924316,0.005405938733332886,0.008857972350928878,-0.0035323471699619468,1.0991077423095703,2019-06-18 15:35:24:389
-0.24585697054862976,0.12643559277057648,9.785576820373535,0.0006110783717082625,0.004063111534174186,0.0008629416953345836,1.1049909591674805,2019-06-18 15:35:24:395
-0.20514623820781708,0.09530385583639145,9.80473518371582,0.003141699148824477,0.0061941605548879826,-0.000735345135219345,1.1091070175170898,2019-06-18 15:35:24:399
-0.22190947830677032,0.1384093463420868,9.864603996276855,-0.0015199708440612782,0.008058828968161205,-0.005796587014544681,1.1149916648864746,2019-06-18 15:35:24:405
-0.24106748402118683,0.10967235267162323,9.869393348693848,0.001676602947083742,0.007925638144292268,0.00326037210371193,1.1191072463989258,2019-06-18 15:35:24:409
-0.25304123759269714,0.0785406082868576,9.821497917175293,0.0036744614040029266,0.00832521009575043,-0.008194017162847702,1.1249895095825195,2019-06-18 15:35:24:415
-0.2362779825925827,0.14798834919929504,9.766419410705566,0.0010106500630920993,0.004729064613221573,-0.0003357734438355082,1.1291084289550781,2019-06-18 15:35:24:419
-0.20275148749351501,0.1384093463420868,9.792760848999023,7.831605963855469e-05,0.0049954457408107975,-0.0026000132233996607,1.1349897384643555,2019-06-18 15:35:24:425
-0.24585697054862976,0.12404084950685501,9.787971496582031,-5.487451634704159e-05,0.011122211675362963,0.004325896614068829,1.1391215324401855,2019-06-18 15:35:24:429
-0.20275148749351501,0.14080409705638885,9.759234428405762,0.0019429840746729666,0.0061941605548879826,0.0035267532313011545,1.1450023651123047,2019-06-18 15:35:24:435
-0.24585697054862976,0.11206710338592529,9.84544563293457,0.0019429840746729666,0.0027312058962280636,0.0008629416953345836,1.1491007804870605,2019-06-18 15:35:24:439
-0.1907777339220047,0.08811960369348526,9.814313888549805,-0.0015199708440612782,0.0008665378730663289,-0.0008685356990139574,1.1549854278564453,2019-06-18 15:35:24:445
-0.19317248463630676,0.15517260134220123,9.811919212341309,-5.487451634704159e-05,0.00832521009575043,-0.0004689640076301205,1.159109115600586,2019-06-18 15:35:24:449
-0.21951472759246826,0.1575673520565033,9.787971496582031,-0.0013867802802666658,0.006060970251167696,0.003393562667506543,1.164992332458496,2019-06-18 15:35:24:455
-0.21951472759246826,0.12164609879255295,9.819103240966797,-0.0008540179600696353,0.007925638144292268,0.00166208520813942,1.169100284576416,2019-06-18 15:35:24:459
-0.1979619860649109,0.11925134807825089,9.83347225189209,0.0012770312556999051,0.011521783626821125,0.009253947994618133,1.175004005432129,2019-06-18 15:35:24:465
-0.1835934817790985,0.1503830999135971,9.814313888549805,-0.0019195425354451149,0.004063111534174186,0.0008629416953345836,1.1791095733642578,2019-06-18 15:35:24:469
-0.24825172126293182,0.15996210277080536,9.823892593383789,0.0008774594992974871,0.002864396460022676,0.007256089277624623,1.1852483749389648,2019-06-18 15:35:24:476
-0.20754098892211914,0.1384093463420868,9.852629661560059,0.0006110783717082625,0.003796730406584962,-0.0006021545714247328,1.1893367767333984,2019-06-18 15:35:24:480
-0.20514623820781708,0.13361984491348267,9.819103240966797,0.006871035195147947,0.0036635398427903496,0.006323755070988013,1.1949982643127441,2019-06-18 15:35:24:485
-0.1716197431087494,0.11446185410022736,9.802340507507324,0.0019429840746729666,0.004196302097968799,0.005125040256910827,1.1991024017333984,2019-06-18 15:35:24:489
-0.17640922963619232,0.10727760195732117,9.866998672485352,0.0003446972116097473,0.0076592570167030435,0.00645694589485695,1.2049832344055176,2019-06-18 15:35:24:495
-0.17880398035049438,0.12883034348487854,9.840656280517578,0.006737844891427659,0.001798871819628615,0.009253947994618133,1.209113597869873,2019-06-18 15:35:24:499
-0.22669897973537445,0.14559359848499298,9.828682899475098,0.0019429840746729666,0.006060970251167696,0.003793134358890379,1.2149925231933594,2019-06-18 15:35:24:505
-0.18119873106479645,0.11925134807825089,9.838261604309082,0.004606795350565213,0.0053950171721203095,0.006856517326166462,1.2191009521484375,2019-06-18 15:35:24:509
-0.16922499239444733,0.1048828512430191,9.850234985351562,0.002209365202262191,0.0061941605548879826,0.00898756634688026,1.224989891052246,2019-06-18 15:35:24:515
-0.17880398035049438,0.16954109072685242,9.799945831298828,-0.0009872085238642476,0.003397158715201125,0.009653519946076296,1.2299957275390625,2019-06-18 15:35:24:520
-0.1452774852514267,0.12883034348487854,9.790366172790527,0.0004778877754043595,0.004595873789352636,0.006190564767267726,1.2341084480285645,2019-06-18 15:35:24:524
-0.157251238822937,0.15277785062789917,9.790366172790527,-0.0037842104285696868,0.003796730406584962,0.00991990055351687,1.2399911880493164,2019-06-18 15:35:24:530
-0.17880398035049438,0.1312250941991806,9.878972053527832,0.004207223659181376,0.004595873789352636,0.011118615367594054,1.2441082000732422,2019-06-18 15:35:24:534
-0.17401449382305145,0.14319884777069092,9.814313888549805,-0.0015199708440612782,0.007259685065244881,0.011651377622772505,1.2499895095825195,2019-06-18 15:35:24:540
-0.15485648810863495,0.1312250941991806,9.787971496582031,0.0034080802764137014,0.008058828968161205,0.002860800412328093,1.2541074752807617,2019-06-18 15:35:24:544
-0.15006698668003082,0.14080409705638885,9.835866928100586,0.00021150663156048962,0.004196302097968799,0.010452662808695319,1.2599868774414062,2019-06-18 15:35:24:550
-0.18119873106479645,0.1575673520565033,9.819103240966797,0.0032748897126190896,0.0031307775876119005,0.008454804091701809,1.2641091346740723,2019-06-18 15:35:24:554
-0.15246173739433289,0.18151484429836273,9.771208763122559,0.002076174638467579,0.009257544302387042,0.009653519946076296,1.2699871063232422,2019-06-18 15:35:24:560
-0.14048798382282257,0.1575673520565033,9.780787467956543,0.0027421274574406405,0.0023316342048442266,0.005790992815809564,1.2741293907165527,2019-06-18 15:35:24:564
-0.1380932480096817,0.1647515892982483,9.780787467956543,0.0027421274574406405,0.008724781527059942,0.010719044456433194,1.279989242553711,2019-06-18 15:35:24:570
-0.17880398035049438,0.11446185410022736,9.790366172790527,-0.0005876368324804107,-0.0019304640966576916,0.012317331221968542,1.2841081619262695,2019-06-18 15:35:24:574
-0.1644354909658432,0.18151484429836273,9.792760848999023,0.0036744614040029266,0.005661398299709534,0.01138499701533193,1.289987564086914,2019-06-18 15:35:24:580
-0.18119873106479645,0.14798834919929504,9.795156478881836,-0.0009872085238642476,0.007392875889113818,0.0067233270224461746,1.2941093444824219,2019-06-18 15:35:24:584
-0.13569849729537964,0.16714634001255035,9.761629104614258,-0.0015199708440612782,0.007392875889113818,0.01138499701533193,1.2999858856201172,2019-06-18 15:35:24:590
-0.15485648810863495,0.12883034348487854,9.83347225189209,0.005539129557201824,0.007259685065244881,0.011251806711611644,1.3041067123413086,2019-06-18 15:35:24:594
-0.15964598953723907,0.13361984491348267,9.76402473449707,0.006471463243689784,0.005661398299709534,0.011518187319052216,1.3099875450134277,2019-06-18 15:35:24:600
-0.15246173739433289,0.15996210277080536,9.785576820373535,0.0006110783717082625,0.007925638144292268,0.004592277481583728,1.3141069412231445,2019-06-18 15:35:24:604
-0.16922499239444733,0.15996210277080536,9.76402473449707,0.0023425557660568036,0.006060970251167696,0.008188422964112586,1.3199892044067383,2019-06-18 15:35:24:610
-0.157251238822937,0.14559359848499298,9.821497917175293,0.0023425557660568036,0.011122211675362963,0.005657802512089276,1.324995994567871,2019-06-18 15:35:24:615
-0.17880398035049438,0.1647515892982483,9.811919212341309,0.00473998617443415,0.005261826868400022,0.010585853112415606,1.3291096687316895,2019-06-18 15:35:24:619
-0.18119873106479645,0.14319884777069092,9.83347225189209,0.004340414222975988,0.0049954457408107975,0.01138499701533193,1.3349876403808594,2019-06-18 15:35:24:625
-0.1835934817790985,0.15517260134220123,9.799945831298828,0.005405938733332886,0.00686011363393537,0.008454804091701809,1.3391084671020508,2019-06-18 15:35:24:629
-0.1380932480096817,0.16235683858394623,9.826288223266602,0.0027421274574406405,0.008058828968161205,0.00898756634688026,1.3449907302856445,2019-06-18 15:35:24:635
-0.1644354909658432,0.16954109072685242,9.790366172790527,0.0006110783717082625,0.00486225491694186,0.008587994915570746,1.3491077423095703,2019-06-18 15:35:24:639
-0.19556723535060883,0.1647515892982483,9.821497917175293,0.0026089368936460283,0.010589449420184513,0.00792204183652336,1.3553133010864258,2019-06-18 15:35:24:646
-0.18598823249340057,0.19109384715557098,9.821497917175293,0.0026089368936460283,0.012054545881999576,0.005524611688220339,1.359257698059082,2019-06-18 15:35:24:650
-0.18119873106479645,0.1503830999135971,9.766419410705566,-0.002452304790623564,0.007259685065244881,0.00326037210371193,1.364262580871582,2019-06-18 15:35:24:655
-0.21951472759246826,0.15517260134220123,9.768814086914062,-5.487451634704159e-05,0.009124352958369454,0.00898756634688026,1.3700199127197266,2019-06-18 15:35:24:660
-0.18119873106479645,0.18630434572696686,9.80473518371582,0.0027421274574406405,0.007259685065244881,0.008321613787981522,1.3741340637207031,2019-06-18 15:35:24:664
-0.22669897973537445,0.16954109072685242,9.799945831298828,-0.0017863519716505025,0.004196302097968799,0.006190564767267726,1.379988670349121,2019-06-18 15:35:24:670
-0.20754098892211914,0.15996210277080536,9.797551155090332,0.0024757463298514157,0.0036635398427903496,-0.0027332037871942733,1.384103775024414,2019-06-18 15:35:24:674
-0.20514623820781708,0.13361984491348267,9.84544563293457,-0.0009872085238642476,0.004729064613221573,0.0035267532313011545,1.3899869918823242,2019-06-18 15:35:24:680
-0.18119873106479645,0.14798834919929504,9.84544563293457,-0.00045444623617650777,0.005528207995989247,0.0027276098485334807,1.3949880599975586,2019-06-18 15:35:24:685
-0.20275148749351501,0.1575673520565033,9.766419410705566,-0.0003212556723818955,0.007259685065244881,-0.0011349168916217633,1.399101734161377,2019-06-18 15:35:24:689
-0.2243042290210724,0.1384093463420868,9.80473518371582,0.001676602947083742,0.0076592570167030435,0.003793134358890379,1.404104232788086,2019-06-18 15:35:24:694
-0.16922499239444733,0.1384093463420868,9.826288223266602,0.005139557605743661,0.010056687165006064,-0.0008685356990139574,1.4099912643432617,2019-06-18 15:35:24:700
-0.18119873106479645,0.16954109072685242,9.795156478881836,-0.0016531614078558903,0.008192019271881493,0.0007297511315399715,1.414102554321289,2019-06-18 15:35:24:704
-0.1835934817790985,0.16235683858394623,9.7352876663208,-0.0017863519716505025,0.007792447840571981,-0.003931918861345784,1.4199848175048828,2019-06-18 15:35:24:710
-0.20035673677921295,0.1503830999135971,9.773603439331055,0.001676602947083742,0.005528207995989247,-0.0022004415320158242,1.4241032600402832,2019-06-18 15:35:24:714
-0.1309089958667755,0.15996210277080536,9.821497917175293,0.004207223659181376,0.005528207995989247,-0.006329349269723131,1.4299893379211426,2019-06-18 15:35:24:720
-0.16204074025154114,0.14080409705638885,9.766419410705566,0.0024757463298514157,0.005128636044531084,-0.0031327754785781103,1.434103012084961,2019-06-18 15:35:24:724
-0.1979619860649109,0.1767253428697586,9.857419967651367,0.0024757463298514157,0.007259685065244881,-0.0053970150630865184,1.439988136291504,2019-06-18 15:35:24:730
-0.1835934817790985,0.13601459562778473,9.771208763122559,-0.0020527330992397273,0.010589449420184513,-0.00486425280790807,1.4449892044067383,2019-06-18 15:35:24:735
-0.2171199768781662,0.14319884777069092,9.802340507507324,0.0008774594992974871,0.005927779427298759,-0.0103250661835615,1.4491009712219238,2019-06-18 15:35:24:739
-0.17640922963619232,0.12643559277057648,9.809524536132812,0.0023425557660568036,0.007392875889113818,-0.00832720798671664,1.4549894332885742,2019-06-18 15:35:24:745
-0.21472522616386414,0.12883034348487854,9.847840309143066,-0.0009872085238642476,0.011521783626821125,-0.012189734596834723,1.4591035842895508,2019-06-18 15:35:24:749
-0.2171199768781662,0.09530385583639145,9.809524536132812,0.007004226019016884,0.005661398299709534,-0.008060826338978765,1.4649877548217773,2019-06-18 15:35:24:755
-0.2243042290210724,0.15277785062789917,9.807129859924316,-0.0029850670458020133,0.007392875889113818,-0.01325525910719162,1.4691028594970703,2019-06-18 15:35:24:759
-0.24825172126293182,0.17912009358406067,9.795156478881836,-0.00511611606651581,0.00832521009575043,-0.010857828438739949,1.475010871887207,2019-06-18 15:35:24:765
-0.22190947830677032,0.1312250941991806,9.821497917175293,-0.0032514481733912377,0.007792447840571981,-0.016185450990524437,1.4791021347045898,2019-06-18 15:35:24:769
-0.2171199768781662,0.12404084950685501,9.8167085647583,0.0026089368936460283,0.0049954457408107975,-0.008060826338978765,1.4849834442138672,2019-06-18 15:35:24:775
-0.22190947830677032,0.10009334981441498,9.787971496582031,0.0003446972116097473,0.004729064613221573,-0.014853545872726966,1.4891080856323242,2019-06-18 15:35:24:779
-0.18838298320770264,0.14080409705638885,9.785576820373535,0.0010106500630920993,0.007925638144292268,-0.00486425280790807,1.4949874877929688,2019-06-18 15:35:24:785
-0.1979619860649109,0.11925134807825089,9.80473518371582,-0.0019195425354451149,0.010589449420184513,-0.016585022941982604,1.4991044998168945,2019-06-18 15:35:24:789
-0.19317248463630676,0.11446185410022736,9.811919212341309,-0.0012535897164720534,0.007526066192834106,-0.008460398290436927,1.50498628616333,2019-06-18 15:35:24:795
-0.23388323187828064,0.14319884777069092,9.768814086914062,0.004873176478154437,0.011521783626821125,-0.007528064083800316,1.5091028213500977,2019-06-18 15:35:24:799
-0.23148848116397858,0.13601459562778473,9.80473518371582,-0.0017863519716505025,0.0053950171721203095,-0.007128492652490805,1.5149898529052734,2019-06-18 15:35:24:805
-0.1644354909658432,0.10009334981441498,9.77599811553955,-0.00045444623617650777,0.004063111534174186,-0.007394873780080028,1.5199871063232422,2019-06-18 15:35:24:810
-0.20514623820781708,0.1312250941991806,9.80473518371582,-0.0011203991526774412,0.0061941605548879826,-0.01272249685201317,1.5241103172302246,2019-06-18 15:35:24:814
-0.19556723535060883,0.13361984491348267,9.799945831298828,0.0010106500630920993,0.007392875889113818,-0.005929777318264968,1.5299978256225586,2019-06-18 15:35:24:820
-0.18598823249340057,0.09290910512208939,9.838261604309082,-0.0005876368324804107,0.002997587023817288,-0.004331490552729621,1.5341033935546875,2019-06-18 15:35:24:824
-0.1644354909658432,0.11685659736394882,9.821497917175293,0.0023425557660568036,0.006593732506346145,-0.006595730397312356,1.5399842262268066,2019-06-18 15:35:24:830
-0.15964598953723907,0.11685659736394882,9.807129859924316,0.003940842531592151,0.006460541682477208,-0.0024668226596050486,1.544100284576416,2019-06-18 15:35:24:834
-0.18598823249340057,0.10009334981441498,9.790366172790527,-0.0019195425354451149,0.00832521009575043,-0.0037987282975511715,1.549992561340332,2019-06-18 15:35:24:840
-0.20514623820781708,0.11446185410022736,9.898130416870117,0.0018097935108783545,0.00832521009575043,-0.0018008697105948246,1.5549955368041992,2019-06-18 15:35:24:845
-0.1716197431087494,0.1048828512430191,9.807129859924316,0.0018097935108783545,0.006593732506346145,0.000996132259129196,1.559255599975586,2019-06-18 15:35:24:850
-0.18598823249340057,0.1312250941991806,9.795156478881836,0.0010106500630920993,0.007526066192834106,-0.0024668226596050486,1.565556526184082,2019-06-18 15:35:24:856
-0.16204074025154114,0.14559359848499298,9.783182144165039,-0.0029850670458020133,0.006993303937655657,-0.0031327754785781103,1.5705537796020508,2019-06-18 15:35:24:861
-0.1716197431087494,0.11446185410022736,9.783182144165039,-0.0021859236630343394,0.009523924909827616,-0.0014012980192109879,1.575608253479004,2019-06-18 15:35:24:866
-0.16204074025154114,0.12164609879255295,9.847840309143066,0.00154341238328913,0.004329492661763411,-0.0027332037871942733,1.5805549621582031,2019-06-18 15:35:24:871
-0.16922499239444733,0.0785406082868576,9.890946388244629,-0.00018806509233263786,0.010855831067922388,-0.0026000132233996607,1.5855827331542969,2019-06-18 15:35:24:876
-0.2243042290210724,0.11925134807825089,9.864603996276855,0.0027421274574406405,0.0039299209703795735,0.004192706050274216,1.5905561447143555,2019-06-18 15:35:24:881
-0.1979619860649109,0.13361984491348267,9.847840309143066,-5.487451634704159e-05,0.008591591223339655,0.005125040256910827,1.5955791473388672,2019-06-18 15:35:24:886
-0.22669897973537445,0.12883034348487854,9.843050956726074,0.0004778877754043595,0.007526066192834106,0.002328037897075319,1.6005496978759766,2019-06-18 15:35:24:891
-0.21951472759246826,0.14080409705638885,9.826288223266602,-0.0011203991526774412,0.010189877468726351,-0.0006021545714247328,1.605574607849121,2019-06-18 15:35:24:896
-0.21472522616386414,0.11685659736394882,9.809524536132812,-0.0020527330992397273,0.007526066192834106,-0.0035323471699619468,1.6105518341064453,2019-06-18 15:35:24:901
-0.21472522616386414,0.1384093463420868,9.819103240966797,-0.0013867802802666658,0.006993303937655657,0.0052582305606311145,1.6155815124511719,2019-06-18 15:35:24:906
-0.21951472759246826,0.12404084950685501,9.76402473449707,0.003141699148824477,0.005661398299709534,0.0025944190246645436,1.6205520629882812,2019-06-18 15:35:24:911
-0.1979619860649109,0.16235683858394623,9.787971496582031,0.003940842531592151,0.0027312058962280636,0.005125040256910827,1.6255788803100586,2019-06-18 15:35:24:916
-0.2171199768781662,0.1384093463420868,9.778392791748047,0.0023425557660568036,0.0023316342048442266,0.005524611688220339,1.6305532455444336,2019-06-18 15:35:24:921
-0.20993572473526,0.14080409705638885,9.87418270111084,-0.006714403352199807,0.00979030655756549,-0.0004689640076301205,1.63557767868042,2019-06-18 15:35:24:926
-0.1835934817790985,0.12883034348487854,9.831077575683594,0.0023425557660568036,0.006460541682477208,0.0013957039505130327,1.640549659729004,2019-06-18 15:35:24:931
-0.21233047544956207,0.12164609879255295,9.8167085647583,-0.0012535897164720534,0.005794589123578471,0.002860800412328093,1.645576000213623,2019-06-18 15:35:24:936
-0.19556723535060883,0.0857248529791832,9.826288223266602,0.0028753180212352527,0.006593732506346145,-0.003399156606167335,1.6505465507507324,2019-06-18 15:35:24:941
-0.19556723535060883,0.1503830999135971,9.749655723571777,-0.0008540179600696353,0.0020652529472178394,0.004192706050274216,1.6555843353271484,2019-06-18 15:35:24:946
-0.20993572473526,0.14080409705638885,9.795156478881836,0.001143840691905293,0.008991162654649167,0.00166208520813942,1.6605534553527832,2019-06-18 15:35:24:951
-0.1979619860649109,0.08093535900115967,9.869393348693848,7.831605963855469e-05,0.0076592570167030435,-0.000735345135219345,1.6655855178833008,2019-06-18 15:35:24:956
-0.23388323187828064,0.11925134807825089,9.77599811553955,0.004207223659181376,0.004329492661763411,0.004592277481583728,1.6705479621887207,2019-06-18 15:35:24:961
-0.24585697054862976,0.11206710338592529,9.797551155090332,7.831605963855469e-05,0.005261826868400022,0.005391421384500052,1.675605297088623,2019-06-18 15:35:24:966
-0.157251238822937,0.11925134807825089,9.819103240966797,0.0036744614040029266,0.006460541682477208,0.005924183639678501,1.6805496215820312,2019-06-18 15:35:24:971
-0.21233047544956207,0.11206710338592529,9.847840309143066,0.0019429840746729666,0.007792447840571981,-6.939229186431566e-05,1.6855792999267578,2019-06-18 15:35:24:976
-0.20275148749351501,0.16714634001255035,9.708945274353027,0.0004778877754043595,0.00486225491694186,0.005524611688220339,1.6905508041381836,2019-06-18 15:35:24:981
-0.18838298320770264,0.0785406082868576,9.742471694946289,0.002076174638467579,0.0053950171721203095,0.0067233270224461746,1.695725440979004,2019-06-18 15:35:24:986
-0.16204074025154114,0.13601459562778473,9.71373462677002,-0.00018806509233263786,0.005927779427298759,0.00499184943304189,1.7005629539489746,2019-06-18 15:35:24:991
-0.17640922963619232,0.18630434572696686,9.77599811553955,0.00021150663156048962,0.007259685065244881,0.0069897081500354,1.7054963111877441,2019-06-18 15:35:24:996
-0.19556723535060883,0.15277785062789917,9.799945831298828,0.002076174638467579,0.00486225491694186,0.002061656899523257,1.7091169357299805,2019-06-18 15:35:24:999
-0.19317248463630676,0.16714634001255035,9.835866928100586,-0.0029850670458020133,0.002864396460022676,0.001528894514307645,1.714993953704834,2019-06-18 15:35:25:005
-0.1979619860649109,0.11925134807825089,9.795156478881836,0.0036744614040029266,0.0023316342048442266,0.007788851532803074,1.7191009521484375,2019-06-18 15:35:25:009
-0.1907777339220047,0.13361984491348267,9.823892593383789,0.003141699148824477,0.006060970251167696,0.005924183639678501,1.7249870300292969,2019-06-18 15:35:25:015
-0.20035673677921295,0.17912009358406067,9.835866928100586,0.0023425557660568036,0.003796730406584962,0.006057373943398788,1.729996681213379,2019-06-18 15:35:25:020
-0.21233047544956207,0.14080409705638885,9.823892593383789,0.0008774594992974871,0.005661398299709534,0.003926324922684992,1.7341108322143555,2019-06-18 15:35:25:024
-0.15246173739433289,0.11685659736394882,9.783182144165039,-0.0003212556723818955,0.0023316342048442266,0.00499184943304189,1.740004539489746,2019-06-18 15:35:25:030
-0.19556723535060883,0.17912009358406067,9.780787467956543,0.0023425557660568036,0.0031307775876119005,-0.003931918861345784,1.7441177368164062,2019-06-18 15:35:25:034
-0.1835934817790985,0.15277785062789917,9.847840309143066,-0.0009872085238642476,0.0076592570167030435,-6.939229186431566e-05,1.749983787536621,2019-06-18 15:35:25:040
-0.17880398035049438,0.14559359848499298,9.802340507507324,0.004473605046844925,0.00632735137875692,0.005391421384500052,1.7550134658813477,2019-06-18 15:35:25:045
-0.19556723535060883,0.1767253428697586,9.811919212341309,0.003141699148824477,0.003397158715201125,0.006190564767267726,1.759108543395996,2019-06-18 15:35:25:049
-0.15485648810863495,0.1503830999135971,9.787971496582031,-0.00045444623617650777,0.0061941605548879826,-0.0022004415320158242,1.7650346755981445,2019-06-18 15:35:25:055
-0.18838298320770264,0.14319884777069092,9.814313888549805,-0.00018806509233263786,0.004196302097968799,0.005790992815809564,1.7691631317138672,2019-06-18 15:35:25:059
-0.17401449382305145,0.09769860655069351,9.843050956726074,-0.0023191142268289516,0.008458400399470718,0.003793134358890379,1.7750215530395508,2019-06-18 15:35:25:065
-0.157251238822937,0.13601459562778473,9.795156478881836,0.004873176478154437,0.004329492661763411,0.0052582305606311145,1.779123306274414,2019-06-18 15:35:25:069
-0.16922499239444733,0.14798834919929504,9.831077575683594,-0.0007208273962750229,0.0007333473092717165,0.002328037897075319,1.7841663360595703,2019-06-18 15:35:25:074
-0.19317248463630676,0.15517260134220123,9.850234985351562,0.0024757463298514157,0.00486225491694186,0.0004633700039507468,1.789987564086914,2019-06-18 15:35:25:080
-0.16204074025154114,0.16235683858394623,9.859814643859863,-0.0011203991526774412,0.005794589123578471,0.0003301794401561345,1.7941055297851562,2019-06-18 15:35:25:084
-0.19317248463630676,0.11206710338592529,9.840656280517578,0.0012770312556999051,0.006060970251167696,0.0029939909761227054,1.7999906539916992,2019-06-18 15:35:25:090
-0.19317248463630676,0.12643559277057648,9.77599811553955,0.001143840691905293,0.007925638144292268,0.0008629416953345836,1.8041572570800781,2019-06-18 15:35:25:094
-0.15246173739433289,0.15517260134220123,9.814313888549805,-0.0016531614078558903,0.004196302097968799,0.0011293228229238084,1.8099851608276367,2019-06-18 15:35:25:100
-0.19556723535060883,0.14319884777069092,9.814313888549805,-0.0011203991526774412,0.00632735137875692,0.004592277481583728,1.814103126525879,2019-06-18 15:35:25:104
-0.17640922963619232,0.16954109072685242,9.802340507507324,0.0024757463298514157,0.005661398299709534,-0.0027332037871942733,1.8199920654296875,2019-06-18 15:35:25:110
-0.16683024168014526,0.16235683858394623,9.83347225189209,-0.0027186859182127886,0.006593732506346145,-0.0031327754785781103,1.8241071701049805,2019-06-18 15:35:25:114
-0.18838298320770264,0.1647515892982483,9.852629661560059,-0.0011203991526774412,0.009390734606107327,-0.0011349168916217633,1.8299832344055176,2019-06-18 15:35:25:120
-0.15485648810863495,0.15996210277080536,9.821497917175293,-0.0013867802802666658,0.006993303937655657,-0.006196158445854193,1.8349933624267578,2019-06-18 15:35:25:125
-0.16922499239444733,0.1048828512430191,9.783182144165039,-0.0008540179600696353,0.009523924909827616,-0.00020258286378625062,1.8391122817993164,2019-06-18 15:35:25:129
-0.16683024168014526,0.14080409705638885,9.8167085647583,0.0028753180212352527,0.009124352958369454,0.002061656899523257,1.8441181182861328,2019-06-18 15:35:25:134
-0.17880398035049438,0.1503830999135971,9.811919212341309,0.0010106500630920993,0.004595873789352636,0.0001969888601068769,1.8499879837036133,2019-06-18 15:35:25:140
-0.18838298320770264,0.17433059215545654,9.835866928100586,7.831605963855469e-05,0.010456259116464226,0.003793134358890379,1.8541069030761719,2019-06-18 15:35:25:144
-0.18838298320770264,0.13601459562778473,9.814313888549805,-0.0011203991526774412,0.005794589123578471,-0.0018008697105948246,1.8599882125854492,2019-06-18 15:35:25:150
-0.20754098892211914,0.16714634001255035,9.823892593383789,-0.0015199708440612782,0.00486225491694186,0.002061656899523257,1.8641071319580078,2019-06-18 15:35:25:154
-0.1907777339220047,0.12883034348487854,9.843050956726074,-5.487451634704159e-05,0.007126494761524595,-0.0018008697105948246,1.8700175285339355,2019-06-18 15:35:25:160
-0.157251238822937,0.1384093463420868,9.790366172790527,0.0014102218194945173,0.00832521009575043,-0.0006021545714247328,1.874119758605957,2019-06-18 15:35:25:164
-0.20993572473526,0.11685659736394882,9.819103240966797,0.0036744614040029266,0.007526066192834106,0.0005965605677453591,1.8799867630004883,2019-06-18 15:35:25:170
-0.1835934817790985,0.12883034348487854,9.756839752197266,0.00154341238328913,0.007925638144292268,-0.003399156606167335,1.8841056823730469,2019-06-18 15:35:25:174
-0.2243042290210724,0.11925134807825089,9.809524536132812,-0.0015199708440612782,0.00979030655756549,-0.0060629681421339055,1.8899908065795898,2019-06-18 15:35:25:180
-0.1644354909658432,0.15517260134220123,9.76402473449707,0.0028753180212352527,0.008591591223339655,-0.0012681074554163755,1.8941078186035156,2019-06-18 15:35:25:184
-0.1835934817790985,0.15277785062789917,9.852629661560059,0.004873176478154437,0.010056687165006064,-0.004997443631777007,1.8999834060668945,2019-06-18 15:35:25:190
-0.21233047544956207,0.12883034348487854,9.749655723571777,0.0028753180212352527,0.008591591223339655,-0.0024668226596050486,1.904104232788086,2019-06-18 15:35:25:194
-0.20275148749351501,0.13601459562778473,9.843050956726074,0.004873176478154437,0.004063111534174186,0.0005965605677453591,1.9099950790405273,2019-06-18 15:35:25:200
-0.20275148749351501,0.14559359848499298,9.773603439331055,0.00154341238328913,0.007526066192834106,-0.004997443631777007,1.9141106605529785,2019-06-18 15:35:25:204
-0.18598823249340057,0.14798834919929504,9.749655723571777,0.0026089368936460283,0.009390734606107327,0.0005965605677453591,1.9199886322021484,2019-06-18 15:35:25:210
-0.1907777339220047,0.13361984491348267,9.8167085647583,7.831605963855469e-05,0.005794589123578471,0.004858658609172953,1.9241085052490234,2019-06-18 15:35:25:214
-0.17401449382305145,0.14559359848499298,9.814313888549805,-0.004716544635206299,0.005528207995989247,-0.007394873780080028,1.9299945831298828,2019-06-18 15:35:25:220
-0.1835934817790985,0.15277785062789917,9.835866928100586,0.003141699148824477,0.010589449420184513,-0.005663396190675744,1.9341087341308594,2019-06-18 15:35:25:224
-0.19317248463630676,0.14559359848499298,9.756839752197266,0.0004778877754043595,0.0049954457408107975,-0.0022004415320158242,1.9399805068969727,2019-06-18 15:35:25:230
-0.15246173739433289,0.13361984491348267,9.780787467956543,0.0008774594992974871,0.008192019271881493,0.0011293228229238084,1.944101333618164,2019-06-18 15:35:25:234
-0.20514623820781708,0.08811960369348526,9.792760848999023,0.004074033095386763,0.0049954457408107975,-0.0016676791468002124,1.949997901916504,2019-06-18 15:35:25:240
-0.16204074025154114,0.12404084950685501,9.752050399780273,0.0024757463298514157,0.006993303937655657,-0.004597871680318845,1.9541072845458984,2019-06-18 15:35:25:244
-0.19317248463630676,0.13601459562778473,9.852629661560059,0.001143840691905293,0.005661398299709534,0.0017952757719340324,1.960007667541504,2019-06-18 15:35:25:250
-0.2243042290210724,0.11206710338592529,9.86220932006836,-0.0017863519716505025,0.002864396460022676,-0.0036655377337565594,1.9641132354736328,2019-06-18 15:35:25:254
-0.17401449382305145,0.1384093463420868,9.80473518371582,0.004473605046844925,0.009257544302387042,-0.0003357734438355082,1.9699821472167969,2019-06-18 15:35:25:260
-0.17880398035049438,0.11206710338592529,9.883761405944824,0.0007442689355028748,0.004729064613221573,-0.0037987282975511715,1.974104881286621,2019-06-18 15:35:25:264
-0.16683024168014526,0.13361984491348267,9.821497917175293,0.0010106500630920993,0.002864396460022676,-0.005663396190675744,1.9799909591674805,2019-06-18 15:35:25:270
-0.18598823249340057,0.1503830999135971,9.86220932006836,0.004074033095386763,0.005661398299709534,0.003393562667506543,1.984116554260254,2019-06-18 15:35:25:274
-0.1979619860649109,0.13361984491348267,9.795156478881836,7.831605963855469e-05,0.005661398299709534,-0.0016676791468002124,1.9891138076782227,2019-06-18 15:35:25:279
-0.18838298320770264,0.13361984491348267,9.792760848999023,0.002209365202262191,0.006726922810066432,-0.002999584914783498,1.9949917793273926,2019-06-18 15:35:25:285
-0.21472522616386414,0.11925134807825089,9.740077018737793,-0.0009872085238642476,0.006726922810066432,0.0001969888601068769,1.999107837677002,2019-06-18 15:35:25:289
-0.19317248463630676,0.10727760195732117,9.87418270111084,-0.0015199708440612782,0.009257544302387042,-0.000735345135219345,2.0049915313720703,2019-06-18 15:35:25:295
-0.19317248463630676,0.14559359848499298,9.783182144165039,-0.0011203991526774412,0.00486225491694186,-0.0020672508381840496,2.009108543395996,2019-06-18 15:35:25:299
-0.1907777339220047,0.14559359848499298,9.799945831298828,0.0026089368936460283,0.00632735137875692,0.005657802512089276,2.0142078399658203,2019-06-18 15:35:25:304
-0.17401449382305145,0.12404084950685501,9.771208763122559,0.0038076519677975387,0.005927779427298759,0.01085223476015348,2.0200037956237793,2019-06-18 15:35:25:310
-0.20993572473526,0.08811960369348526,9.76402473449707,0.0036744614040029266,0.0061941605548879826,0.003926324922684992,2.02410888671875,2019-06-18 15:35:25:314
-0.23867273330688477,0.11206710338592529,9.802340507507324,0.0036744614040029266,0.008192019271881493,0.004325896614068829,2.029989242553711,2019-06-18 15:35:25:320
-0.18119873106479645,0.12643559277057648,9.77599811553955,-0.0003212556723818955,0.0049954457408107975,0.005524611688220339,2.034101963043213,2019-06-18 15:35:25:324
-0.20035673677921295,0.12883034348487854,9.869393348693848,-0.0003212556723818955,0.009257544302387042,-0.0015344885830056003,2.0399909019470215,2019-06-18 15:35:25:330
-0.17401449382305145,0.11206710338592529,9.732892990112305,0.0006110783717082625,0.007792447840571981,0.002328037897075319,2.046440601348877,2019-06-18 15:35:25:337
-0.14767223596572876,0.12883034348487854,9.807129859924316,0.0034080802764137014,0.005927779427298759,0.0025944190246645436,2.0541601181030273,2019-06-18 15:35:25:344
-0.17401449382305145,0.12883034348487854,9.795156478881836,0.00473998617443415,0.0036635398427903496,0.0005965605677453591,2.0600414276123047,2019-06-18 15:35:25:350
-0.20035673677921295,0.11206710338592529,9.799945831298828,0.0003446972116097473,0.008058828968161205,0.003793134358890379,2.0642547607421875,2019-06-18 15:35:25:355
-0.17640922963619232,0.1384093463420868,9.807129859924316,-0.0003212556723818955,0.006593732506346145,0.0031271815399173176,2.0700292587280273,2019-06-18 15:35:25:360
-0.16683024168014526,0.13601459562778473,9.75444507598877,-0.0025854953544181764,0.0076592570167030435,-0.00020258286378625062,2.0741100311279297,2019-06-18 15:35:25:364
-0.18119873106479645,0.12164609879255295,9.802340507507324,0.001143840691905293,0.005128636044531084,0.0012625133867184206,2.079115867614746,2019-06-18 15:35:25:369
-0.18598823249340057,0.11685659736394882,9.852629661560059,0.005539129557201824,0.006993303937655657,-0.00020258286378625062,2.084991455078125,2019-06-18 15:35:25:375
-0.2290937304496765,0.19109384715557098,9.864603996276855,0.0018097935108783545,0.0032639681514065122,-0.003399156606167335,2.0900020599365234,2019-06-18 15:35:25:380
-0.16204074025154114,0.15996210277080536,9.881366729736328,0.003141699148824477,0.005661398299709534,-0.003931918861345784,2.0941476821899414,2019-06-18 15:35:25:384
-0.20514623820781708,0.11446185410022736,9.835866928100586,-0.0015199708440612782,0.008192019271881493,0.0011293228229238084,2.0999913215637207,2019-06-18 15:35:25:390
-0.21472522616386414,0.11925134807825089,9.80473518371582,-0.0015199708440612782,0.0061941605548879826,0.0013957039505130327,2.104987144470215,2019-06-18 15:35:25:395
-0.19317248463630676,0.1384093463420868,9.859814643859863,0.0010106500630920993,0.009657115213547902,0.00166208520813942,2.1099982261657715,2019-06-18 15:35:25:400
-0.14767223596572876,0.16714634001255035,9.771208763122559,-0.00045444623617650777,0.0027312058962280636,-0.000735345135219345,2.114996910095215,2019-06-18 15:35:25:405
-0.19317248463630676,0.1312250941991806,9.814313888549805,-0.0011203991526774412,0.00632735137875692,0.003926324922684992,2.119098663330078,2019-06-18 15:35:25:409
-0.2290937304496765,0.11925134807825089,9.871788024902344,-0.0028518764820074007,0.0049954457408107975,0.003659943795095767,2.1249961853027344,2019-06-18 15:35:25:415
-0.19317248463630676,0.1384093463420868,9.749655723571777,-0.00045444623617650777,0.0027312058962280636,0.005657802512089276,2.129117012023926,2019-06-18 15:35:25:419
-0.20993572473526,0.14080409705638885,9.76402473449707,-0.00045444623617650777,0.0023316342048442266,0.0001969888601068769,2.1349925994873047,2019-06-18 15:35:25:425
-0.16922499239444733,0.1384093463420868,9.778392791748047,0.0019429840746729666,0.0004669661491732013,0.005524611688220339,2.139103889465332,2019-06-18 15:35:25:429
-0.23867273330688477,0.15517260134220123,9.783182144165039,0.0012770312556999051,0.0076592570167030435,0.008854376043159971,2.1450204849243164,2019-06-18 15:35:25:435
-0.1979619860649109,0.15996210277080536,9.744866371154785,0.0014102218194945173,0.005128636044531084,0.0012625133867184206,2.149115562438965,2019-06-18 15:35:25:439
-0.2362779825925827,0.1384093463420868,9.749655723571777,0.0023425557660568036,0.004329492661763411,0.004858658609172953,2.154994487762451,2019-06-18 15:35:25:445
-0.20993572473526,0.13361984491348267,9.799945831298828,0.0024757463298514157,0.0049954457408107975,0.0005965605677453591,2.1591053009033203,2019-06-18 15:35:25:449
-0.17640922963619232,0.12404084950685501,9.855024337768555,-0.0028518764820074007,0.00632735137875692,-0.0028663943509888855,2.164987564086914,2019-06-18 15:35:25:455
-0.21233047544956207,0.1575673520565033,9.780787467956543,7.831605963855469e-05,0.004462683485632349,-0.0010017262628085697,2.1700005531311035,2019-06-18 15:35:25:460
-0.18119873106479645,0.1767253428697586,9.771208763122559,-0.0017863519716505025,0.006593732506346145,0.002328037897075319,2.1741065979003906,2019-06-18 15:35:25:464
-0.21472522616386414,0.0857248529791832,9.847840309143066,-0.00045444623617650777,0.005794589123578471,-0.001934060274389437,2.1799874305725098,2019-06-18 15:35:25:470
-0.16922499239444733,0.11925134807825089,9.869393348693848,0.004473605046844925,0.009657115213547902,0.007655660708934136,2.1841020584106445,2019-06-18 15:35:25:474
-0.22190947830677032,0.14319884777069092,9.773603439331055,0.0012770312556999051,0.005128636044531084,0.006323755070988013,2.19002628326416,2019-06-18 15:35:25:480
-0.20275148749351501,0.1647515892982483,9.787971496582031,-0.0028518764820074007,0.004462683485632349,-6.939229186431566e-05,2.194120407104492,2019-06-18 15:35:25:484
-0.23388323187828064,0.15996210277080536,9.797551155090332,0.007803369401784558,0.004462683485632349,0.0005965605677453591,2.1999869346618652,2019-06-18 15:35:25:490
-0.2362779825925827,0.08093535900115967,9.855024337768555,-0.00018806509233263786,0.007126494761524595,0.0025944190246645436,2.204110622406006,2019-06-18 15:35:25:494
-0.19317248463630676,0.14798834919929504,9.799945831298828,-0.00045444623617650777,0.005128636044531084,0.002328037897075319,2.209991455078125,2019-06-18 15:35:25:500
-0.16683024168014526,0.15996210277080536,9.84544563293457,0.0019429840746729666,0.0025980153324334514,0.004592277481583728,2.2141075134277344,2019-06-18 15:35:25:504
-0.1907777339220047,0.1312250941991806,9.807129859924316,0.0012770312556999051,0.0019320623834232272,-0.0012681074554163755,2.219989776611328,2019-06-18 15:35:25:510
-0.20275148749351501,0.1647515892982483,9.857419967651367,0.003141699148824477,0.0053950171721203095,0.0035267532313011545,2.2241101264953613,2019-06-18 15:35:25:514
-0.16683024168014526,0.12404084950685501,9.778392791748047,0.001676602947083742,0.005128636044531084,0.0004633700039507468,2.2299952507019043,2019-06-18 15:35:25:520
-0.20993572473526,0.15996210277080536,9.831077575683594,-0.0012535897164720534,0.006593732506346145,-0.0016676791468002124,2.2341222763061523,2019-06-18 15:35:25:524
-0.20275148749351501,0.15277785062789917,9.881366729736328,0.005272748429612599,0.004196302097968799,-0.0015344885830056003,2.2391295433044434,2019-06-18 15:35:25:529
-0.18119873106479645,0.1503830999135971,9.821497917175293,0.002076174638467579,0.011388593323100838,-0.0006021545714247328,2.2449917793273926,2019-06-18 15:35:25:535
-0.20754098892211914,0.11685659736394882,9.756839752197266,-0.0016531614078558903,0.0032639681514065122,0.0025944190246645436,2.2499942779541016,2019-06-18 15:35:25:540
-0.18838298320770264,0.12883034348487854,9.778392791748047,0.0012770312556999051,0.0009997284368609412,0.0029939909761227054,2.2549948692321777,2019-06-18 15:35:25:545
-0.16922499239444733,0.12164609879255295,9.831077575683594,0.00154341238328913,0.00686011363393537,0.000996132259129196,2.2591075897216797,2019-06-18 15:35:25:549
-0.18838298320770264,0.12164609879255295,9.792760848999023,0.0038076519677975387,0.002997587023817288,0.004459087177863441,2.2649903297424316,2019-06-18 15:35:25:555
-0.15246173739433289,0.1503830999135971,9.792760848999023,-0.00045444623617650777,0.004329492661763411,0.001528894514307645,2.2691078186035156,2019-06-18 15:35:25:559
-0.15964598953723907,0.12883034348487854,9.780787467956543,-0.0023191142268289516,0.006993303937655657,0.005790992815809564,2.274995803833008,2019-06-18 15:35:25:565
-0.18598823249340057,0.12883034348487854,9.802340507507324,0.0004778877754043595,0.005128636044531084,0.003793134358890379,2.2791337966918945,2019-06-18 15:35:25:569
-0.18119873106479645,0.15517260134220123,9.80473518371582,-0.0017863519716505025,0.009257544302387042,0.0004633700039507468,2.2850117683410645,2019-06-18 15:35:25:575
-0.16204074025154114,0.16714634001255035,9.821497917175293,0.0032748897126190896,0.007526066192834106,-0.00020258286378625062,2.289125442504883,2019-06-18 15:35:25:579
-0.1835934817790985,0.14080409705638885,9.797551155090332,0.0007442689355028748,0.007925638144292268,0.0031271815399173176,2.2949953079223633,2019-06-18 15:35:25:585
-0.17880398035049438,0.14080409705638885,9.75444507598877,0.0007442689355028748,0.00686011363393537,0.0027276098485334807,2.299107551574707,2019-06-18 15:35:25:589
-0.19556723535060883,0.14319884777069092,9.819103240966797,-5.487451634704159e-05,0.006060970251167696,0.0040595154864796045,2.30499267578125,2019-06-18 15:35:25:595
-0.16922499239444733,0.10248810052871704,9.771208763122559,0.0014102218194945173,0.006993303937655657,0.0001969888601068769,2.309109687805176,2019-06-18 15:35:25:599
-0.2171199768781662,0.11446185410022736,9.823892593383789,0.004074033095386763,0.005661398299709534,-0.0010017262628085697,2.314992904663086,2019-06-18 15:35:25:605
-0.1644354909658432,0.14319884777069092,9.83347225189209,-0.0019195425354451149,0.01032306881274394,-0.0018008697105948246,2.3199925422668457,2019-06-18 15:35:25:610
-0.17640922963619232,0.12164609879255295,9.802340507507324,-0.0019195425354451149,0.008458400399470718,0.000996132259129196,2.324105739593506,2019-06-18 15:35:25:614
-0.17880398035049438,0.15996210277080536,9.876577377319336,0.0014102218194945173,0.008857972350928878,-0.0016676791468002124,2.3299922943115234,2019-06-18 15:35:25:620
-0.19317248463630676,0.1384093463420868,9.850234985351562,0.0027421274574406405,0.006726922810066432,0.003926324922684992,2.3341264724731445,2019-06-18 15:35:25:624
-0.17880398035049438,0.14080409705638885,9.807129859924316,-0.00045444623617650777,0.009923496861285777,0.0007297511315399715,2.339994430541992,2019-06-18 15:35:25:630
-0.16683024168014526,0.1312250941991806,9.807129859924316,0.0003446972116097473,0.013120070392356473,0.002061656899523257,2.3441057205200195,2019-06-18 15:35:25:634
-0.18598823249340057,0.1575673520565033,9.773603439331055,0.0018097935108783545,0.008058828968161205,0.0025944190246645436,2.3499908447265625,2019-06-18 15:35:25:640
-0.20035673677921295,0.1647515892982483,9.771208763122559,0.0034080802764137014,0.010722639723904802,0.004192706050274216,2.354109764099121,2019-06-18 15:35:25:644
-0.2171199768781662,0.1575673520565033,9.792760848999023,0.0010106500630920993,0.0032639681514065122,-0.0008685356990139574,2.359988212585449,2019-06-18 15:35:25:650
-0.17401449382305145,0.1503830999135971,9.838261604309082,-0.0008540179600696353,0.004462683485632349,0.0025944190246645436,2.3641066551208496,2019-06-18 15:35:25:654
-0.1644354909658432,0.1575673520565033,9.876577377319336,0.002076174638467579,0.004729064613221573,-0.0018008697105948246,2.3699989318847656,2019-06-18 15:35:25:660
-0.1644354909658432,0.18630434572696686,9.826288223266602,0.00154341238328913,0.003530349278995737,0.004592277481583728,2.3750314712524414,2019-06-18 15:35:25:665
-0.1835934817790985,0.16954109072685242,9.8167085647583,0.0012770312556999051,0.008058828968161205,0.0035267532313011545,2.379143714904785,2019-06-18 15:35:25:669
-0.16683024168014526,0.16235683858394623,9.840656280517578,0.00021150663156048962,0.013120070392356473,-0.004731062504187783,2.384995937347412,2019-06-18 15:35:25:675
-0.20754098892211914,0.12404084950685501,9.814313888549805,-0.0025854953544181764,0.009523924909827616,-0.0036655377337565594,2.3891091346740723,2019-06-18 15:35:25:679
-0.19317248463630676,0.1384093463420868,9.783182144165039,-0.0023191142268289516,0.006993303937655657,0.0007297511315399715,2.394990921020508,2019-06-18 15:35:25:685
-0.20035673677921295,0.12164609879255295,9.797551155090332,-0.0036510198647750746,0.0027312058962280636,-0.0003357734438355082,2.3991103172302246,2019-06-18 15:35:25:689
-0.21951472759246826,0.1839095950126648,9.835866928100586,0.0006110783717082625,0.0023316342048442266,0.0005965605677453591,2.404989719390869,2019-06-18 15:35:25:695
-0.16922499239444733,0.1647515892982483,9.799945831298828,0.0036744614040029266,0.0036635398427903496,-0.0036655377337565594,2.4091081619262695,2019-06-18 15:35:25:699
-0.15485648810863495,0.1503830999135971,9.821497917175293,-0.003917400992364299,0.00486225491694186,-0.0003357734438355082,2.4149951934814453,2019-06-18 15:35:25:705
-0.15964598953723907,0.10967235267162323,9.819103240966797,-0.00018806509233263786,0.009523924909827616,-0.0010017262628085697,2.4191274642944336,2019-06-18 15:35:25:709
-0.17640922963619232,0.12643559277057648,9.835866928100586,0.0026089368936460283,0.004729064613221573,0.0013957039505130327,2.42501163482666,2019-06-18 15:35:25:715
-0.16683024168014526,0.11925134807825089,9.814313888549805,-0.0017863519716505025,0.010722639723904802,0.0019284663357286445,2.429108142852783,2019-06-18 15:35:25:719
-0.17640922963619232,0.15517260134220123,9.814313888549805,0.0003446972116097473,0.003530349278995737,0.0021948473332807066,2.434995651245117,2019-06-18 15:35:25:725
-0.20514623820781708,0.15996210277080536,9.876577377319336,0.0026089368936460283,0.004729064613221573,0.0025944190246645436,2.4391117095947266,2019-06-18 15:35:25:729
-0.18838298320770264,0.13601459562778473,9.76402473449707,0.002076174638467579,0.004595873789352636,-0.0012681074554163755,2.4449892044067383,2019-06-18 15:35:25:735
-0.1644354909658432,0.12404084950685501,9.737682342529297,0.003940842531592151,0.005261826868400022,-0.0028663943509888855,2.449108123779297,2019-06-18 15:35:25:739
-0.20035673677921295,0.12883034348487854,9.828682899475098,-0.00018806509233263786,-0.0007317490225061812,0.002461228460869931,2.4549942016601562,2019-06-18 15:35:25:745
-0.19317248463630676,0.1384093463420868,9.797551155090332,0.004873176478154437,0.003397158715201125,-0.005663396190675744,2.4591102600097656,2019-06-18 15:35:25:749
-0.15006698668003082,0.15277785062789917,9.840656280517578,0.0019429840746729666,0.002864396460022676,-0.0012681074554163755,2.464992046356201,2019-06-18 15:35:25:755
-0.1452774852514267,0.10248810052871704,9.843050956726074,-0.00018806509233263786,0.004196302097968799,-0.005263824759366232,2.469158172607422,2019-06-18 15:35:25:759
-0.1644354909658432,0.17433059215545654,9.847840309143066,0.005539129557201824,0.008058828968161205,-0.0022004415320158242,2.475010871887207,2019-06-18 15:35:25:765
-0.18119873106479645,0.1503830999135971,9.809524536132812,0.0026089368936460283,0.007526066192834106,0.003659943795095767,2.479109764099121,2019-06-18 15:35:25:769
-0.17880398035049438,0.15996210277080536,9.84544563293457,0.0023425557660568036,0.006460541682477208,0.005125040256910827,2.4849939346313477,2019-06-18 15:35:25:775
-0.15964598953723907,0.14559359848499298,9.76402473449707,0.002076174638467579,0.010056687165006064,0.004459087177863441,2.48911190032959,2019-06-18 15:35:25:779
-0.16683024168014526,0.14559359848499298,9.835866928100586,0.002076174638467579,0.003530349278995737,0.0001969888601068769,2.494990348815918,2019-06-18 15:35:25:785
-0.15964598953723907,0.13601459562778473,9.8167085647583,0.0024757463298514157,0.005261826868400022,0.0004633700039507468,2.499993324279785,2019-06-18 15:35:25:790
-0.1452774852514267,0.12643559277057648,9.811919212341309,0.0038076519677975387,-0.00046536786240766596,-0.0018008697105948246,2.5041098594665527,2019-06-18 15:35:25:794
-0.1452774852514267,0.11685659736394882,9.768814086914062,0.0026089368936460283,0.004462683485632349,0.005391421384500052,2.5099897384643555,2019-06-18 15:35:25:800
-0.17640922963619232,0.16714634001255035,9.766419410705566,0.0014102218194945173,0.006726922810066432,-0.0027332037871942733,2.5141096115112305,2019-06-18 15:35:25:804
-0.17640922963619232,0.1647515892982483,9.831077575683594,-0.00018806509233263786,0.009124352958369454,-0.00979230392838305,2.520017623901367,2019-06-18 15:35:25:810
-0.1907777339220047,0.17433059215545654,9.778392791748047,-0.0003212556723818955,0.008857972350928878,-0.003399156606167335,2.5241098403930664,2019-06-18 15:35:25:814
-0.18838298320770264,0.10967235267162323,9.819103240966797,0.004207223659181376,0.0076592570167030435,0.0001969888601068769,2.529989242553711,2019-06-18 15:35:25:820
-0.17880398035049438,0.16235683858394623,9.783182144165039,0.003541270840208314,0.006460541682477208,-0.004731062504187783,2.534109115600586,2019-06-18 15:35:25:824
-0.21472522616386414,0.14080409705638885,9.821497917175293,0.003940842531592151,0.004462683485632349,-0.004731062504187783,2.5399913787841797,2019-06-18 15:35:25:830
-0.20514623820781708,0.11206710338592529,9.780787467956543,0.00154341238328913,0.005794589123578471,-0.00020258286378625062,2.5441083908081055,2019-06-18 15:35:25:834
-0.17880398035049438,0.12643559277057648,9.823892593383789,0.0026089368936460283,0.004729064613221573,0.0029939909761227054,2.5499887466430664,2019-06-18 15:35:25:840
-0.14048798382282257,0.08811960369348526,9.866998672485352,0.00021150663156048962,0.007126494761524595,0.003926324922684992,2.554107666015625,2019-06-18 15:35:25:844
-0.14048798382282257,0.12404084950685501,9.773603439331055,0.004340414222975988,0.007526066192834106,0.0004633700039507468,2.5599942207336426,2019-06-18 15:35:25:850
-0.20993572473526,0.15996210277080536,9.866998672485352,0.0030085085850298653,0.006726922810066432,0.0005965605677453591,2.564136505126953,2019-06-18 15:35:25:854
-0.16204074025154114,0.17912009358406067,9.821497917175293,0.004873176478154437,0.00686011363393537,-0.0028663943509888855,2.5699901580810547,2019-06-18 15:35:25:860
-0.21472522616386414,0.14319884777069092,9.831077575683594,-0.0005876368324804107,0.007925638144292268,-0.0027332037871942733,2.5741138458251953,2019-06-18 15:35:25:864
-0.18119873106479645,0.1503830999135971,9.802340507507324,-0.0009872085238642476,0.006593732506346145,-0.0031327754785781103,2.580015182495117,2019-06-18 15:35:25:870
-0.22190947830677032,0.10727760195732117,9.766419410705566,0.003940842531592151,0.0025980153324334514,0.0001969888601068769,2.5850019454956055,2019-06-18 15:35:25:875
-0.20035673677921295,0.1575673520565033,9.876577377319336,-5.487451634704159e-05,0.0016656812558340024,0.0012625133867184206,2.5891122817993164,2019-06-18 15:35:25:879
-0.18838298320770264,0.14798834919929504,9.855024337768555,0.00154341238328913,0.009657115213547902,-0.0037987282975511715,2.5949935913085938,2019-06-18 15:35:25:885
-0.15246173739433289,0.12164609879255295,9.783182144165039,-0.0003212556723818955,0.0008665378730663289,-0.001934060274389437,2.5991129875183105,2019-06-18 15:35:25:889
-0.17401449382305145,0.10727760195732117,9.831077575683594,0.004340414222975988,0.00486225491694186,0.003793134358890379,2.605010986328125,2019-06-18 15:35:25:895
-0.15485648810863495,0.10727760195732117,9.84544563293457,0.0036744614040029266,0.0036635398427903496,-0.006196158445854193,2.609137535095215,2019-06-18 15:35:25:899
-0.20514623820781708,0.1503830999135971,9.8167085647583,0.0010106500630920993,0.007259685065244881,-0.0031327754785781103,2.6149964332580566,2019-06-18 15:35:25:905
-0.21951472759246826,0.16954109072685242,9.787971496582031,0.0010106500630920993,0.004329492661763411,-0.0018008697105948246,2.6191062927246094,2019-06-18 15:35:25:909
-0.19556723535060883,0.13361984491348267,9.838261604309082,-5.487451634704159e-05,0.0061941605548879826,-0.006595730397312356,2.624990940093994,2019-06-18 15:35:25:915
-0.21472522616386414,0.12883034348487854,9.86220932006836,0.0028753180212352527,0.005794589123578471,-0.0022004415320158242,2.6291074752807617,2019-06-18 15:35:25:919
-0.2434622347354889,0.11925134807825089,9.795156478881836,0.004074033095386763,0.006593732506346145,0.003659943795095767,2.634993553161621,2019-06-18 15:35:25:925
-0.20514623820781708,0.11206710338592529,9.759234428405762,0.001143840691905293,0.006993303937655657,-0.005796587014544681,2.639108657836914,2019-06-18 15:35:25:929
-0.22669897973537445,0.14798834919929504,9.814313888549805,0.003141699148824477,0.007792447840571981,-0.003931918861345784,2.6449928283691406,2019-06-18 15:35:25:935
-0.22190947830677032,0.12404084950685501,9.828682899475098,0.001143840691905293,0.005794589123578471,-0.004331490552729621,2.649139404296875,2019-06-18 15:35:25:939
-0.22190947830677032,0.12643559277057648,9.77599811553955,-0.0019195425354451149,0.007259685065244881,-0.0035323471699619468,2.6550135612487793,2019-06-18 15:35:25:945
-0.2243042290210724,0.10967235267162323,9.828682899475098,-0.002452304790623564,0.004729064613221573,-0.005263824759366232,2.659113883972168,2019-06-18 15:35:25:949
-0.2434622347354889,0.16954109072685242,9.783182144165039,0.005139557605743661,0.009523924909827616,-0.0010017262628085697,2.6649932861328125,2019-06-18 15:35:25:955
-0.22669897973537445,0.1575673520565033,9.840656280517578,0.0007442689355028748,0.007792447840571981,-0.00020258286378625062,2.6691112518310547,2019-06-18 15:35:25:959
-0.24585697054862976,0.1575673520565033,9.799945831298828,7.831605963855469e-05,0.0031307775876119005,-0.0008685356990139574,2.674988269805908,2019-06-18 15:35:25:965
-0.25304123759269714,0.13601459562778473,9.802340507507324,-0.0017863519716505025,0.005261826868400022,-0.0060629681421339055,2.6791324615478516,2019-06-18 15:35:25:969
-0.22190947830677032,0.12164609879255295,9.847840309143066,0.00473998617443415,0.004063111534174186,-0.0014012980192109879,2.6849966049194336,2019-06-18 15:35:25:975
-0.2362779825925827,0.15517260134220123,9.807129859924316,-0.0012535897164720534,0.0039299209703795735,-0.004065109425140397,2.689112663269043,2019-06-18 15:35:25:979
-0.21951472759246826,0.12404084950685501,9.866998672485352,0.0003446972116097473,0.006060970251167696,-0.001934060274389437,2.6949896812438965,2019-06-18 15:35:25:985
-0.19556723535060883,0.14319884777069092,9.843050956726074,0.003141699148824477,0.0076592570167030435,-0.0014012980192109879,2.6991348266601562,2019-06-18 15:35:25:989
-0.2506464719772339,0.1384093463420868,9.811919212341309,-0.0020527330992397273,0.005794589123578471,-0.004731062504187783,2.704120635986328,2019-06-18 15:35:25:994
-0.1716197431087494,0.11206710338592529,9.838261604309082,-0.0007208273962750229,0.010056687165006064,-0.005663396190675744,2.709989547729492,2019-06-18 15:35:26:000
-0.20035673677921295,0.1312250941991806,9.866998672485352,0.0030085085850298653,0.0027312058962280636,-0.004331490552729621,2.7141079902648926,2019-06-18 15:35:26:004
-0.18119873106479645,0.12164609879255295,9.811919212341309,0.004207223659181376,0.012587308137178023,0.0019284663357286445,2.7199888229370117,2019-06-18 15:35:26:010
-0.1907777339220047,0.1575673520565033,9.857419967651367,0.00021150663156048962,0.007392875889113818,-0.0016676791468002124,2.724107265472412,2019-06-18 15:35:26:014
-0.17401449382305145,0.10967235267162323,9.819103240966797,-0.0009872085238642476,0.005261826868400022,-0.0037987282975511715,2.729987144470215,2019-06-18 15:35:26:020
-0.20514623820781708,0.10248810052871704,9.847840309143066,0.0012770312556999051,0.010056687165006064,-0.0015344885830056003,2.7341079711914062,2019-06-18 15:35:26:024
-0.19317248463630676,0.1312250941991806,9.866998672485352,0.005938700988511335,0.006993303937655657,0.008454804091701809,2.739993095397949,2019-06-18 15:35:26:030
-0.20035673677921295,0.1647515892982483,9.799945831298828,0.0032748897126190896,0.010589449420184513,0.002461228460869931,2.744110107421875,2019-06-18 15:35:26:034
-0.20035673677921295,0.12883034348487854,9.819103240966797,0.0004778877754043595,0.01218773618571986,0.00326037210371193,2.7491445541381836,2019-06-18 15:35:26:039
-0.1907777339220047,0.13361984491348267,9.80473518371582,0.0018097935108783545,0.008857972350928878,0.003793134358890379,2.754997730255127,2019-06-18 15:35:26:045
-0.20754098892211914,0.10727760195732117,9.771208763122559,0.0027421274574406405,0.005927779427298759,0.007389279581344911,2.759993553161621,2019-06-18 15:35:26:050
-0.18838298320770264,0.15996210277080536,9.792760848999023,0.0038076519677975387,0.004196302097968799,0.007389279581344911,2.764113426208496,2019-06-18 15:35:26:054
-0.20993572473526,0.1312250941991806,9.797551155090332,-0.0011203991526774412,0.007925638144292268,0.005391421384500052,2.769990921020508,2019-06-18 15:35:26:060
-0.20275148749351501,0.12404084950685501,9.814313888549805,-0.0007208273962750229,0.006726922810066432,0.00166208520813942,2.7741074562072754,2019-06-18 15:35:26:064
-0.157251238822937,0.12883034348487854,9.7352876663208,0.005272748429612599,0.009124352958369454,-0.0006021545714247328,2.7799901962280273,2019-06-18 15:35:26:070
-0.22190947830677032,0.13361984491348267,9.840656280517578,0.003141699148824477,0.005661398299709534,0.010585853112415606,2.7841100692749023,2019-06-18 15:35:26:074
-0.1644354909658432,0.12164609879255295,9.799945831298828,0.00021150663156048962,0.0036635398427903496,0.004592277481583728,2.789992332458496,2019-06-18 15:35:26:080
-0.17640922963619232,0.1503830999135971,9.75444507598877,0.00620508211610056,0.008591591223339655,0.005790992815809564,2.7941551208496094,2019-06-18 15:35:26:084
-0.20275148749351501,0.1575673520565033,9.809524536132812,-0.0007208273962750229,0.004196302097968799,0.00645694589485695,2.8000001907348633,2019-06-18 15:35:26:090
-0.1979619860649109,0.09290910512208939,9.783182144165039,0.001143840691905293,0.005794589123578471,0.00898756634688026,2.8049979209899902,2019-06-18 15:35:26:095
-0.19317248463630676,0.1503830999135971,9.811919212341309,-0.0003212556723818955,0.006060970251167696,0.006057373943398788,2.809993267059326,2019-06-18 15:35:26:100
-0.21233047544956207,0.10248810052871704,9.766419410705566,0.0034080802764137014,0.007126494761524595,0.008055232660392297,2.814107894897461,2019-06-18 15:35:26:104
-0.20035673677921295,0.18869909644126892,9.814313888549805,0.004074033095386763,0.005128636044531084,0.005524611688220339,2.8199901580810547,2019-06-18 15:35:26:110
-0.18598823249340057,0.13601459562778473,9.852629661560059,0.0032748897126190896,0.005794589123578471,0.009253947994618133,2.8241071701049805,2019-06-18 15:35:26:114
-0.22190947830677032,0.14798834919929504,9.876577377319336,0.0019429840746729666,0.004595873789352636,0.004592277481583728,2.829991340637207,2019-06-18 15:35:26:120
-0.1979619860649109,0.11446185410022736,9.869393348693848,0.0036744614040029266,0.006060970251167696,0.00326037210371193,2.8349928855895996,2019-06-18 15:35:26:125
-0.18598823249340057,0.14080409705638885,9.843050956726074,0.0028753180212352527,0.0019320623834232272,0.010452662808695319,2.83912992477417,2019-06-18 15:35:26:129
-0.17640922963619232,0.12404084950685501,9.831077575683594,0.004873176478154437,0.0053950171721203095,0.0035267532313011545,2.8449997901916504,2019-06-18 15:35:26:135
-0.17880398035049438,0.10248810052871704,9.83347225189209,-5.487451634704159e-05,0.011122211675362963,0.006057373943398788,2.8491086959838867,2019-06-18 15:35:26:139
-0.1907777339220047,0.14798834919929504,9.811919212341309,0.001676602947083742,0.010855831067922388,0.0075224704052138484,2.854991912841797,2019-06-18 15:35:26:145
-0.18119873106479645,0.14319884777069092,9.811919212341309,-0.0003212556723818955,0.00632735137875692,0.008188422964112586,2.859111785888672,2019-06-18 15:35:26:149
-0.18838298320770264,0.11206710338592529,9.826288223266602,0.0023425557660568036,0.003530349278995737,0.0019284663357286445,2.864992141723633,2019-06-18 15:35:26:155
-0.16204074025154114,0.12164609879255295,9.797551155090332,0.002209365202262191,0.0027312058962280636,0.00792204183652336,2.8691091537475586,2019-06-18 15:35:26:159
-0.1716197431087494,0.15517260134220123,9.835866928100586,7.831605963855469e-05,0.006593732506346145,0.002061656899523257,2.8749942779541016,2019-06-18 15:35:26:165
-0.18598823249340057,0.1767253428697586,9.766419410705566,0.0032748897126190896,0.00486225491694186,0.004592277481583728,2.880031108856201,2019-06-18 15:35:26:170
-0.17880398035049438,0.16954109072685242,9.8167085647583,0.002076174638467579,0.007526066192834106,0.006057373943398788,2.8841114044189453,2019-06-18 15:35:26:174
-0.15246173739433289,0.13601459562778473,9.795156478881836,0.00473998617443415,0.002997587023817288,0.00645694589485695,2.8900184631347656,2019-06-18 15:35:26:180
-0.15485648810863495,0.16714634001255035,9.869393348693848,0.00620508211610056,0.009523924909827616,0.008587994915570746,2.8950181007385254,2019-06-18 15:35:26:185
-0.21233047544956207,0.13361984491348267,9.795156478881836,-0.0003212556723818955,0.00686011363393537,-0.008194017162847702,2.899111747741699,2019-06-18 15:35:26:189
-0.16683024168014526,0.1575673520565033,9.740077018737793,-0.0008540179600696353,0.0061941605548879826,-0.004065109425140397,2.904994010925293,2019-06-18 15:35:26:195
-0.17401449382305145,0.14080409705638885,9.809524536132812,0.004074033095386763,0.0039299209703795735,0.0003301794401561345,2.909109115600586,2019-06-18 15:35:26:199
-0.17880398035049438,0.14080409705638885,9.8167085647583,0.0008774594992974871,0.006460541682477208,6.379828412128062e-05,2.9149913787841797,2019-06-18 15:35:26:205
-0.14767223596572876,0.12883034348487854,9.787971496582031,0.0032748897126190896,-0.000598558458711569,0.0004633700039507468,2.9191088676452637,2019-06-18 15:35:26:209
-0.16204074025154114,0.12643559277057648,9.80473518371582,-0.0020527330992397273,0.007259685065244881,-0.002999584914783498,2.924994468688965,2019-06-18 15:35:26:215
-0.16922499239444733,0.1312250941991806,9.826288223266602,0.003141699148824477,0.008724781527059942,-0.0008685356990139574,2.9291129112243652,2019-06-18 15:35:26:219
-0.18838298320770264,0.11925134807825089,9.835866928100586,-0.0015199708440612782,0.008991162654649167,-0.0031327754785781103,2.935029983520508,2019-06-18 15:35:26:225
-0.1644354909658432,0.10967235267162323,9.799945831298828,0.0038076519677975387,0.0036635398427903496,-0.0012681074554163755,2.939128875732422,2019-06-18 15:35:26:229
-0.18598823249340057,0.12643559277057648,9.759234428405762,0.0010106500630920993,0.003530349278995737,-0.0016676791468002124,2.9449968338012695,2019-06-18 15:35:26:235
-0.17401449382305145,0.1575673520565033,9.807129859924316,0.0010106500630920993,0.004595873789352636,-0.0041982999889350085,2.949110984802246,2019-06-18 15:35:26:239
-0.12372474372386932,0.15996210277080536,9.843050956726074,0.002209365202262191,0.0019320623834232272,-0.0026000132233996607,2.954989433288574,2019-06-18 15:35:26:245
-0.1380932480096817,0.1312250941991806,9.84544563293457,0.0008774594992974871,0.0076592570167030435,-0.0022004415320158242,2.959108352661133,2019-06-18 15:35:26:249
-0.16204074025154114,0.16235683858394623,9.807129859924316,0.0027421274574406405,0.003796730406584962,0.0007297511315399715,2.964996337890625,2019-06-18 15:35:26:255
-0.15246173739433289,0.1647515892982483,9.792760848999023,0.0008774594992974871,0.008458400399470718,-0.0011349168916217633,2.969202995300293,2019-06-18 15:35:26:259
-0.16204074025154114,0.15277785062789917,9.898130416870117,0.003141699148824477,0.00486225491694186,-0.007128492652490805,2.9749956130981445,2019-06-18 15:35:26:265
-0.157251238822937,0.1575673520565033,9.780787467956543,0.0028753180212352527,0.005794589123578471,-0.0014012980192109879,2.9791173934936523,2019-06-18 15:35:26:269
-0.16683024168014526,0.1575673520565033,9.795156478881836,0.0026089368936460283,0.0076592570167030435,-0.005663396190675744,2.9850006103515625,2019-06-18 15:35:26:275
-0.14048798382282257,0.14080409705638885,9.847840309143066,0.002076174638467579,0.010589449420184513,-0.0015344885830056003,2.989102363586426,2019-06-18 15:35:26:279
-0.1979619860649109,0.17193584144115448,9.811919212341309,0.00021150663156048962,0.0049954457408107975,0.0031271815399173176,2.994992256164551,2019-06-18 15:35:26:285
-0.15006698668003082,0.15277785062789917,9.799945831298828,-0.0012535897164720534,0.006993303937655657,-0.0020672508381840496,2.999110698699951,2019-06-18 15:35:26:289
-0.1979619860649109,0.15277785062789917,9.840656280517578,0.004473605046844925,0.010855831067922388,-0.0012681074554163755,3.0049943923950195,2019-06-18 15:35:26:295
-0.18119873106479645,0.1312250941991806,9.797551155090332,-0.0019195425354451149,0.006993303937655657,-0.0008685356990139574,3.0091075897216797,2019-06-18 15:35:26:299
-0.16204074025154114,0.18869909644126892,9.821497917175293,0.0014102218194945173,0.01218773618571986,-0.0032659660423727224,3.0149879455566406,2019-06-18 15:35:26:305
-0.17401449382305145,0.16954109072685242,9.821497917175293,0.0038076519677975387,0.009390734606107327,-0.0018008697105948246,3.0191097259521484,2019-06-18 15:35:26:309
-0.1835934817790985,0.16235683858394623,9.83347225189209,0.00021150663156048962,0.010056687165006064,0.003926324922684992,3.0249977111816406,2019-06-18 15:35:26:315
-0.20275148749351501,0.11685659736394882,9.852629661560059,0.005405938733332886,0.008857972350928878,-0.003399156606167335,3.029995918273926,2019-06-18 15:35:26:320
-0.20993572473526,0.14080409705638885,9.811919212341309,0.0007442689355028748,0.004063111534174186,-0.0031327754785781103,3.0341224670410156,2019-06-18 15:35:26:324
-0.23388323187828064,0.19827808439731598,9.744866371154785,0.005539129557201824,0.004595873789352636,6.379828412128062e-05,3.040011405944824,2019-06-18 15:35:26:330
-0.21472522616386414,0.17433059215545654,9.799945831298828,0.001676602947083742,0.008591591223339655,-0.004331490552729621,3.044997215270996,2019-06-18 15:35:26:335
-0.1907777339220047,0.15277785062789917,9.814313888549805,-0.00018806509233263786,0.010456259116464226,-0.0041982999889350085,3.049107551574707,2019-06-18 15:35:26:339
-0.1979619860649109,0.1048828512430191,9.826288223266602,0.001143840691905293,0.007259685065244881,-0.0060629681421339055,3.0549917221069336,2019-06-18 15:35:26:345
-0.21951472759246826,0.19109384715557098,9.826288223266602,0.0026089368936460283,0.009523924909827616,-0.0023336320958104364,3.059112548828125,2019-06-18 15:35:26:349
-0.20754098892211914,0.18151484429836273,9.799945831298828,0.0010106500630920993,0.0117881642342617,-0.0006021545714247328,3.064990997314453,2019-06-18 15:35:26:355
-0.24585697054862976,0.15277785062789917,9.850234985351562,0.005805510684791048,0.0076592570167030435,-0.0010017262628085697,3.0691118240356445,2019-06-18 15:35:26:359
-0.20993572473526,0.11206710338592529,9.799945831298828,0.0024757463298514157,0.00632735137875692,-0.0015344885830056003,3.0749950408935547,2019-06-18 15:35:26:365
-0.20993572473526,0.15277785062789917,9.8167085647583,0.00021150663156048962,0.007792447840571981,0.0027276098485334807,3.0791378021240234,2019-06-18 15:35:26:369
-0.20993572473526,0.1575673520565033,9.859814643859863,0.003141699148824477,0.0025980153324334514,-0.0035323471699619468,3.085012435913086,2019-06-18 15:35:26:375
-0.20754098892211914,0.13601459562778473,9.87418270111084,0.0023425557660568036,0.004595873789352636,-0.0027332037871942733,3.0891189575195312,2019-06-18 15:35:26:379
-0.2290937304496765,0.17433059215545654,9.809524536132812,-0.0023191142268289516,0.006060970251167696,-0.009659113624662763,3.0949950218200684,2019-06-18 15:35:26:385
-0.20754098892211914,0.1647515892982483,9.843050956726074,0.0014102218194945173,0.005661398299709534,-0.010591447831299375,3.099109649658203,2019-06-18 15:35:26:389
-0.17880398035049438,0.13361984491348267,9.814313888549805,0.00154341238328913,0.006460541682477208,-0.006595730397312356,3.1049909591674805,2019-06-18 15:35:26:395
-0.2434622347354889,0.11685659736394882,9.780787467956543,0.0004778877754043595,0.008192019271881493,-0.0020672508381840496,3.1091108322143555,2019-06-18 15:35:26:399
-0.1979619860649109,0.12164609879255295,9.773603439331055,-0.0017863519716505025,0.005927779427298759,-0.0022004415320158242,3.1149978637695312,2019-06-18 15:35:26:405
-0.23148848116397858,0.11925134807825089,9.749655723571777,0.0019429840746729666,0.003397158715201125,-0.0041982999889350085,3.119112968444824,2019-06-18 15:35:26:409
-0.1979619860649109,0.11446185410022736,9.797551155090332,0.00021150663156048962,0.004196302097968799,-0.006862111524901579,3.124990463256836,2019-06-18 15:35:26:415
-0.23867273330688477,0.10727760195732117,9.850234985351562,-0.006847593655920095,0.008192019271881493,-0.006728920701032642,3.1291399002075195,2019-06-18 15:35:26:419
-0.22190947830677032,0.0785406082868576,9.835866928100586,0.00154341238328913,0.00632735137875692,6.379828412128062e-05,3.1350016593933105,2019-06-18 15:35:26:425
-0.15485648810863495,0.11925134807825089,9.84544563293457,0.0026089368936460283,0.009124352958369454,-0.0064625395734434175,3.139101505279541,2019-06-18 15:35:26:429
-0.21233047544956207,0.10248810052871704,9.821497917175293,-0.0009872085238642476,0.011521783626821125,-0.00885996972174644,3.144987106323242,2019-06-18 15:35:26:435
-0.18598823249340057,0.13361984491348267,9.823892593383789,0.0026089368936460283,0.009124352958369454,-0.005929777318264968,3.14910888671875,2019-06-18 15:35:26:439
-0.24585697054862976,0.07135635614395142,9.8167085647583,-0.0005876368324804107,0.010722639723904802,-0.007394873780080028,3.154996395111084,2019-06-18 15:35:26:445
-0.22669897973537445,0.08811960369348526,9.787971496582031,0.00021150663156048962,0.012720498440898311,-0.004464681376598559,3.1591010093688965,2019-06-18 15:35:26:449
-0.20035673677921295,0.1312250941991806,9.826288223266602,-0.0032514481733912377,0.010589449420184513,-0.0018008697105948246,3.164987564086914,2019-06-18 15:35:26:455
-0.20514623820781708,0.11446185410022736,9.823892593383789,-0.0017863519716505025,0.005128636044531084,-0.004065109425140397,3.169112205505371,2019-06-18 15:35:26:459
-0.24585697054862976,0.016277113929390907,9.799945831298828,-0.0025854953544181764,0.010456259116464226,-0.005530205886955456,3.175124168395996,2019-06-18 15:35:26:465
-0.21951472759246826,0.10967235267162323,9.828682899475098,-0.00018806509233263786,0.0036635398427903496,-0.007661254907669253,3.179131507873535,2019-06-18 15:35:26:469
-0.24106748402118683,0.1048828512430191,9.809524536132812,-5.487451634704159e-05,0.005528207995989247,-0.0031327754785781103,3.184999942779541,2019-06-18 15:35:26:475
-0.23148848116397858,0.17193584144115448,9.838261604309082,-0.0011203991526774412,0.008857972350928878,0.0019284663357286445,3.1891026496887207,2019-06-18 15:35:26:479
-0.21472522616386414,0.17912009358406067,9.797551155090332,0.005405938733332886,0.008724781527059942,-0.0010017262628085697,3.1949868202209473,2019-06-18 15:35:26:485
-0.18119873106479645,0.11685659736394882,9.759234428405762,0.0006110783717082625,0.005661398299709534,-0.0011349168916217633,3.199112892150879,2019-06-18 15:35:26:489
-0.20754098892211914,0.10967235267162323,9.847840309143066,-0.0008540179600696353,0.008591591223339655,-0.007927636035258477,3.2049942016601562,2019-06-18 15:35:26:495
-0.20035673677921295,0.11925134807825089,9.90291976928711,0.0026089368936460283,0.0025980153324334514,0.0001969888601068769,3.2091007232666016,2019-06-18 15:35:26:499
-0.2171199768781662,0.15517260134220123,9.83347225189209,0.004606795350565213,0.005794589123578471,-0.004997443631777007,3.2149906158447266,2019-06-18 15:35:26:505
-0.20754098892211914,0.17193584144115448,9.780787467956543,-0.003917400992364299,0.0049954457408107975,0.005790992815809564,3.2191152572631836,2019-06-18 15:35:26:509
-0.17640922963619232,0.12643559277057648,9.84544563293457,0.0008774594992974871,0.0061941605548879826,-0.002999584914783498,3.2250099182128906,2019-06-18 15:35:26:515
-0.15485648810863495,0.12164609879255295,9.795156478881836,0.001143840691905293,0.003796730406584962,6.379828412128062e-05,3.2291154861450195,2019-06-18 15:35:26:519
-0.18598823249340057,0.11685659736394882,9.797551155090332,0.0010106500630920993,0.004329492661763411,0.0052582305606311145,3.2349886894226074,2019-06-18 15:35:26:525
-0.14288273453712463,0.1575673520565033,9.871788024902344,0.002209365202262191,0.004329492661763411,0.004725468305452665,3.23911190032959,2019-06-18 15:35:26:529
-0.14288273453712463,0.14319884777069092,9.780787467956543,-0.0016531614078558903,0.006460541682477208,0.0008629416953345836,3.2449936866760254,2019-06-18 15:35:26:535
-0.1716197431087494,0.12643559277057648,9.77599811553955,-0.0025854953544181764,0.009390734606107327,-0.0018008697105948246,3.249100685119629,2019-06-18 15:35:26:539
-0.18119873106479645,0.09530385583639145,9.76402473449707,0.0006110783717082625,0.0032639681514065122,0.008188422964112586,3.2549877166748047,2019-06-18 15:35:26:545
-0.20035673677921295,0.11446185410022736,9.773603439331055,7.831605963855469e-05,0.005661398299709534,0.012184139877950953,3.260000228881836,2019-06-18 15:35:26:550
-0.1835934817790985,0.1048828512430191,9.797551155090332,7.831605963855469e-05,0.0036635398427903496,0.010719044456433194,3.264108180999756,2019-06-18 15:35:26:554
-0.22190947830677032,0.11206710338592529,9.835866928100586,0.00021150663156048962,0.003796730406584962,0.0004633700039507468,3.270015239715576,2019-06-18 15:35:26:560
-0.19317248463630676,0.12404084950685501,9.790366172790527,0.002076174638467579,0.00486225491694186,0.006323755070988013,3.2741317749023438,2019-06-18 15:35:26:564
-0.13569849729537964,0.08811960369348526,9.84544563293457,-5.487451634704159e-05,0.008058828968161205,0.011518187319052216,3.27999210357666,2019-06-18 15:35:26:570
-0.15246173739433289,0.11206710338592529,9.828682899475098,-0.0003212556723818955,0.005927779427298759,0.007655660708934136,3.2849998474121094,2019-06-18 15:35:26:575
-0.16683024168014526,0.11685659736394882,9.792760848999023,0.0004778877754043595,0.004063111534174186,0.006190564767267726,3.2891101837158203,2019-06-18 15:35:26:579
-0.18119873106479645,0.09051435440778732,9.77599811553955,0.0004778877754043595,0.0076592570167030435,0.00792204183652336,3.2949886322021484,2019-06-18 15:35:26:585
-0.16683024168014526,0.11925134807825089,9.77599811553955,0.0030085085850298653,0.007392875889113818,0.004858658609172953,3.2991085052490234,2019-06-18 15:35:26:589
-0.18119873106479645,0.07614585757255554,9.737682342529297,0.0038076519677975387,0.005261826868400022,0.010585853112415606,3.3049964904785156,2019-06-18 15:35:26:595
-0.157251238822937,0.13601459562778473,9.831077575683594,0.005405938733332886,0.003796730406584962,0.014315189938962051,3.309112548828125,2019-06-18 15:35:26:599
-0.14288273453712463,0.12883034348487854,9.814313888549805,0.0004778877754043595,0.0002005850053293314,0.005657802512089276,3.3150129318237305,2019-06-18 15:35:26:605
-0.1261194944381714,0.13361984491348267,9.809524536132812,-0.0021859236630343394,0.007259685065244881,0.008321613787981522,3.319124221801758,2019-06-18 15:35:26:609
-0.14767223596572876,0.10727760195732117,9.828682899475098,-5.487451634704159e-05,0.007126494761524595,0.008721185219291034,3.324993133544922,2019-06-18 15:35:26:615
-0.15246173739433289,0.08333010226488113,9.881366729736328,0.0014102218194945173,0.007925638144292268,0.0035267532313011545,3.3291125297546387,2019-06-18 15:35:26:619
-0.19556723535060883,0.10248810052871704,9.850234985351562,0.002076174638467579,0.011921355578279287,0.013382855732325439,3.334991455078125,2019-06-18 15:35:26:625
-0.20035673677921295,0.12643559277057648,9.838261604309082,0.0050063673020233745,0.012986880088636184,0.01631304761565826,3.3399930000305176,2019-06-18 15:35:26:630
-0.21472522616386414,0.1503830999135971,9.747261047363281,-0.0008540179600696353,0.011921355578279287,0.014847952194140498,3.3441076278686523,2019-06-18 15:35:26:634
-0.19317248463630676,0.15996210277080536,9.744866371154785,-0.00018806509233263786,0.0053950171721203095,0.010585853112415606,3.349994659423828,2019-06-18 15:35:26:640
-0.20035673677921295,0.12404084950685501,9.742471694946289,-0.0015199708440612782,0.003530349278995737,0.013516046036045726,3.354109764099121,2019-06-18 15:35:26:644
-0.1907777339220047,0.12643559277057648,9.785576820373535,0.004074033095386763,0.0021984436410496144,0.014714760850122912,3.3600096702575684,2019-06-18 15:35:26:650
-0.19556723535060883,0.09290910512208939,9.826288223266602,0.002209365202262191,0.002997587023817288,0.009520328602058708,3.364119529724121,2019-06-18 15:35:26:654
-0.18838298320770264,0.10248810052871704,9.864603996276855,0.009801227598629416,0.0036635398427903496,0.019509621146728953,3.3699893951416016,2019-06-18 15:35:26:660
-0.15485648810863495,0.1647515892982483,9.831077575683594,-0.0008540179600696353,0.0019320623834232272,0.017112191518574585,3.37410831451416,2019-06-18 15:35:26:664
-0.1979619860649109,0.17912009358406067,9.871788024902344,0.0012770312556999051,0.012720498440898311,0.012450521525688828,3.3799924850463867,2019-06-18 15:35:26:670
-0.17640922963619232,0.13361984491348267,9.847840309143066,0.00154341238328913,0.014585166854171532,0.014981142497860787,3.3841094970703125,2019-06-18 15:35:26:674
-0.22190947830677032,0.14080409705638885,9.77599811553955,0.006338272939969498,0.010989021371642677,0.014581570546402627,3.38999080657959,2019-06-18 15:35:26:680
-0.2290937304496765,0.1312250941991806,9.823892593383789,0.00154341238328913,0.012986880088636184,0.01831090737294907,3.3941097259521484,2019-06-18 15:35:26:684
-0.2171199768781662,0.19827808439731598,9.730497360229492,0.0030085085850298653,0.005128636044531084,0.019509621146728953,3.399993896484375,2019-06-18 15:35:26:690
-0.25783073902130127,0.18630434572696686,9.761629104614258,0.003541270840208314,0.00686011363393537,0.012317331221968542,3.4041547775268555,2019-06-18 15:35:26:694
-0.25783073902130127,0.1839095950126648,9.766419410705566,-0.0020527330992397273,0.0027312058962280636,0.018577287980389646,3.410000801086426,2019-06-18 15:35:26:700
-0.18598823249340057,0.15996210277080536,9.821497917175293,0.001143840691905293,-0.0007317490225061812,0.007655660708934136,3.414999008178711,2019-06-18 15:35:26:705
-0.20035673677921295,0.1647515892982483,9.809524536132812,0.008069750529373781,0.0027312058962280636,0.017511763470032745,3.419112205505371,2019-06-18 15:35:26:709
-0.1716197431087494,0.2222255915403366,9.857419967651367,0.003541270840208314,0.007126494761524595,0.013516046036045726,3.424990653991699,2019-06-18 15:35:26:715
-0.21951472759246826,0.21743609011173248,9.878972053527832,0.002209365202262191,0.006593732506346145,0.014714760850122912,3.4291086196899414,2019-06-18 15:35:26:719
-0.20514623820781708,0.2030675858259201,9.823892593383789,-0.0007208273962750229,0.014451976550451245,0.009786710249796583,3.4349966049194336,2019-06-18 15:35:26:725
-0.20275148749351501,0.15277785062789917,9.785576820373535,0.0026089368936460283,0.013519642343814635,0.01085223476015348,3.439115524291992,2019-06-18 15:35:26:729
-0.2434622347354889,0.1647515892982483,9.807129859924316,0.004207223659181376,0.007126494761524595,0.016046667008217684,3.4449920654296875,2019-06-18 15:35:26:735
-0.27219921350479126,0.24617308378219604,9.75444507598877,-0.0012535897164720534,0.0032639681514065122,0.009653519946076296,3.4491100311279297,2019-06-18 15:35:26:739
-0.24106748402118683,0.19827808439731598,9.742471694946289,0.00473998617443415,-0.003928322813651202,0.0137824276837836,3.454991340637207,2019-06-18 15:35:26:745
-0.21233047544956207,0.16714634001255035,9.771208763122559,0.004074033095386763,-0.0016640829690684673,0.007788851532803074,3.460023880004883,2019-06-18 15:35:26:750
-0.14288273453712463,0.16954109072685242,9.91489315032959,0.0027421274574406405,0.0015324906920393903,0.009520328602058708,3.4650015830993652,2019-06-18 15:35:26:755
-0.13569849729537964,0.18630434572696686,9.871788024902344,0.004606795350565213,0.0036635398427903496,0.010053090857237157,3.4691085815429688,2019-06-18 15:35:26:759
-0.19556723535060883,0.2030675858259201,9.890946388244629,0.0030085085850298653,0.011521783626821125,0.007122898453755686,3.474991798400879,2019-06-18 15:35:26:765
-0.1644354909658432,0.25814682245254517,9.893341064453125,0.004873176478154437,0.018048122032980105,-0.0008685356990139574,3.4791107177734375,2019-06-18 15:35:26:769
-0.20514623820781708,0.21743609011173248,9.807129859924316,-0.0005876368324804107,0.016849406178605617,0.004858658609172953,3.484118938446045,2019-06-18 15:35:26:774
-0.22669897973537445,0.2030675858259201,9.778392791748047,0.0014102218194945173,0.015384309716790555,0.0019284663357286445,3.489990234375,2019-06-18 15:35:26:780
-0.2243042290210724,0.15996210277080536,9.730497360229492,0.0027421274574406405,0.009390734606107327,0.00326037210371193,3.494107246398926,2019-06-18 15:35:26:784
-0.2171199768781662,0.20067283511161804,9.761629104614258,0.0024757463298514157,0.004196302097968799,0.007256089277624623,3.4999895095825195,2019-06-18 15:35:26:790
-0.22669897973537445,0.2222255915403366,9.799945831298828,0.004606795350565213,-0.0008649395863007935,-0.001934060274389437,3.5041074752807617,2019-06-18 15:35:26:794
-0.1907777339220047,0.2294098436832428,9.77599811553955,-0.0003212556723818955,0.00686011363393537,-0.0023336320958104364,3.5100250244140625,2019-06-18 15:35:26:800
-0.11654049158096313,0.15996210277080536,9.922078132629395,0.002076174638467579,0.007392875889113818,0.001528894514307645,3.5141825675964355,2019-06-18 15:35:26:804
-0.16204074025154114,0.14080409705638885,9.929262161254883,0.0019429840746729666,0.018980455199319412,-0.005663396190675744,3.5199995040893555,2019-06-18 15:35:26:810
-0.20035673677921295,0.16954109072685242,9.888551712036133,0.003541270840208314,0.020845123612592636,-0.0004689640076301205,3.5241098403930664,2019-06-18 15:35:26:814
-0.20754098892211914,0.2102518379688263,9.811919212341309,0.0007442689355028748,0.019912790446253326,-0.0035323471699619468,3.5299854278564453,2019-06-18 15:35:26:820
-0.2362779825925827,0.20785708725452423,9.747261047363281,0.0008774594992974871,0.021377886908068387,-0.008060826338978765,3.534099578857422,2019-06-18 15:35:26:824
-0.2243042290210724,0.1575673520565033,9.706550598144531,0.0014102218194945173,0.008991162654649167,-0.01179016264537656,3.539992332458496,2019-06-18 15:35:26:830
-0.26501497626304626,0.11685659736394882,9.720918655395508,0.003141699148824477,0.006593732506346145,-0.006728920701032642,3.5441112518310547,2019-06-18 15:35:26:834
-0.2506464719772339,0.12404084950685501,9.807129859924316,0.008602512784552232,0.0031307775876119005,-0.006862111524901579,3.5499868392944336,2019-06-18 15:35:26:840
-0.1979619860649109,0.18151484429836273,9.778392791748047,-0.0007208273962750229,-0.0008649395863007935,-0.013921211666090358,3.554990291595459,2019-06-18 15:35:26:845
-0.1716197431087494,0.1575673520565033,9.864603996276855,-0.0008540179600696353,0.004329492661763411,-0.010857828438739949,3.559140205383301,2019-06-18 15:35:26:849
-0.10456674546003342,0.1503830999135971,9.878972053527832,0.00021150663156048962,0.010056687165006064,-0.007528064083800316,3.5650110244750977,2019-06-18 15:35:26:855
-0.08780349791049957,0.1312250941991806,9.90291976928711,0.002076174638467579,0.01964640775821815,-0.008593589114305866,3.569108009338379,2019-06-18 15:35:26:859
-0.16204074025154114,0.1384093463420868,9.778392791748047,0.0023425557660568036,0.015917071971969007,-0.00872677941802615,3.5749902725219727,2019-06-18 15:35:26:865
-0.23388323187828064,0.13361984491348267,9.71373462677002,0.00154341238328913,0.014585166854171532,-0.004065109425140397,3.579113006591797,2019-06-18 15:35:26:869
-0.22190947830677032,0.10009334981441498,9.8167085647583,0.00154341238328913,0.007792447840571981,-0.010591447831299375,3.5850133895874023,2019-06-18 15:35:26:875
-0.17880398035049438,0.11206710338592529,9.752050399780273,0.0003446972116097473,-0.0023300357880415286,-0.007128492652490805,3.589111328125,2019-06-18 15:35:26:879
-0.1716197431087494,0.09769860655069351,9.701761245727539,7.831605963855469e-05,0.0006001567454771042,-0.013788021362370069,3.5949954986572266,2019-06-18 15:35:26:885
