ACCELEROMETER X (m/s²),ACCELEROMETER Y (m/s²),ACCELEROMETER Z (m/s²),GYROSCOPE X (rad/s),GYROSCOPE Y (rad/s),GYROSCOPE Z (rad/s),Time since start in ms ,YYYY-MO-DD HH-MI-SS_SSS,MagX,MagY,MagZ
-0.24372565746307373,-4.807280540466309,9.149469375610352,0.10930551045731604,-0.027783552907927746,0.022131078798613233,0.0,2019-06-21 13:10:26:000,0.0,0.0,0.0
0.7932009696960449,-2.6975059509277344,9.242864608764648,0.1884207110729509,-0.004475203463647623,0.06088953312291974,0.004109382629394531,2019-06-21 13:10:26:005,0.0,0.0,0.0
-1.062730073928833,3.6150543689727783,11.343059539794922,-0.09540840351998282,0.001251991429706518,-0.0029087490152941535,0.009118080139160156,2019-06-21 13:10:26:010,0.0,0.0,0.0
0.7237532138824463,-0.11596575379371643,10.059473991394043,-0.07796043732221968,0.0041821839632251515,-0.014496328585574073,0.014995574951171875,2019-06-21 13:10:26:015,0.0,0.0,0.0
-0.10483016818761826,-3.324930429458618,8.660940170288086,0.08599715841229268,0.017900813854590494,0.028124653909296464,0.019114017486572266,2019-06-21 13:10:26:020,0.0,0.0,0.0
-0.29641014337539673,1.5771223306655884,10.184000968933105,-0.02348549386940568,-0.01792745170727509,0.00894521168257499,0.025020599365234375,2019-06-21 13:10:26:025,0.0,0.0,0.0
0.2448032945394516,1.4717532396316528,9.805630683898926,-0.08075743890183221,-0.01100154134965795,-0.012764851516318438,0.0300140380859375,2019-06-21 13:10:26:030,0.0,0.0,0.0
0.0939340591430664,-1.4666045904159546,9.135100364685059,0.04017959822516225,0.014704239283222497,0.004949494768736622,0.034117698669433594,2019-06-21 13:10:26:035,0.0,0.0,0.0
0.11309205740690231,0.22648344933986664,10.076237678527832,0.02086696777531509,0.031885823833247756,0.012807738812841724,0.039992332458496094,2019-06-21 13:10:26:040,0.0,0.0,0.0
-0.516727089881897,0.6455646753311157,9.93494701385498,-0.02095487289723372,0.0072455671905755584,0.006015019279093521,0.04499483108520508,2019-06-21 13:10:26:045,0.0,0.0,0.0
0.24240854382514954,-0.08243925869464874,9.434444427490234,-0.00523838532917217,-0.021257214501768772,0.006281400406682744,0.04911041259765625,2019-06-21 13:10:26:050,0.0,0.0,0.0
-0.4305161237716675,-0.6739424467086792,9.750551223754883,0.019535060576923016,0.008177900877063521,0.00308482687561205,0.054999351501464844,2019-06-21 13:10:26:055,0.0,0.0,0.0
0.12267105281352997,0.07082471996545792,9.8319730758667,0.0015543339445017069,0.0041821839632251515,0.0006873965322532847,0.05910778045654297,2019-06-21 13:10:26:060,0.0,0.0,0.0
-0.1862516552209854,0.10195647180080414,9.652366638183594,-0.01855744326907935,-0.015530021038823418,-0.0025091770638359916,0.06499862670898438,2019-06-21 13:10:26:065,0.0,0.0,0.0
0.25438228249549866,-0.1830187439918518,9.618840217590332,-0.009633674194468702,0.015503382145841522,-0.003974273525651052,0.06911563873291016,2019-06-21 13:10:26:070,0.0,0.0,0.0
0.05322331190109253,-0.3290984630584717,9.669130325317383,0.023131206059451875,0.02189652920798291,0.0018861116714233767,0.07504558563232422,2019-06-21 13:10:26:075,0.0,0.0,0.0
-0.2796469032764435,-0.08962351083755493,9.841551780700684,0.006349194501182075,0.011374474408134215,0.0001546342608201902,0.0791330337524414,2019-06-21 13:10:26:080,0.0,0.0,0.0
0.005328318104147911,0.09956172108650208,9.81520938873291,-0.016160011560330378,0.003782612271841314,0.0028184457480228253,0.08500099182128906,2019-06-21 13:10:26:085,0.0,0.0,0.0
0.07956556230783463,-0.30515098571777344,9.34583854675293,0.006748766452640236,-0.009270064280402316,-0.0006445091707114195,0.08910894393920898,2019-06-21 13:10:26:090,0.0,0.0,0.0
-0.22217290103435516,0.04687722399830818,9.764920234680176,-0.0019086208441953755,5.327622958150625e-05,-0.011033373406765504,0.09499359130859375,2019-06-21 13:10:26:095,0.0,0.0,0.0
0.101118303835392,0.05406147614121437,9.9133939743042,-0.010832389008545886,0.015902954097299683,-0.006238513110159461,0.09911346435546875,2019-06-21 13:10:26:100,0.0,0.0,0.0
0.1202763020992279,-0.4584149718284607,9.702656745910645,0.02086696777531509,0.01656890665619842,0.008812021378854704,0.10499715805053711,2019-06-21 13:10:26:105,0.0,0.0,0.0
-0.29641014337539673,-0.02496526576578617,9.709840774536133,-0.0033737171759732733,-0.0075385861708493805,0.0017529211076287644,0.11000442504882812,2019-06-21 13:10:26:110,0.0,0.0,0.0
-0.05932992324233055,0.35579994320869446,9.839157104492188,-0.00870133998783209,0.001651563121090355,-0.008635943258462482,0.1141061782836914,2019-06-21 13:10:26:115,0.0,0.0,0.0
0.22325053811073303,-0.3793882131576538,9.719419479370117,0.012076389004424728,0.0056472804250402115,-0.0010440808620952565,0.12003517150878906,2019-06-21 13:10:26:120,0.0,0.0,0.0
-0.08327741920948029,-0.2692297399044037,10.102580070495605,0.013674675769960076,0.005380899297450987,0.0053490667201947836,0.1250295639038086,2019-06-21 13:10:26:125,0.0,0.0,0.0
-0.03059292770922184,0.46116891503334045,9.812814712524414,-0.006836672094707517,0.01110809380069364,-0.0010440808620952565,0.12910747528076172,2019-06-21 13:10:26:130,0.0,0.0,0.0
0.06280230730772018,0.195351704955101,9.57334041595459,-0.007236243526017029,-7.991434640409003e-05,-0.0023759865000413795,0.13499975204467773,2019-06-21 13:10:26:135,0.0,0.0,0.0
0.022091565653681755,-0.4775729477405548,9.889447212219238,0.00435133604426289,0.008311091700932456,0.005082685592605559,0.1391153335571289,2019-06-21 13:10:26:140,0.0,0.0,0.0
0.1394343078136444,0.18098321557044983,9.822394371032715,0.008213862394306647,0.0032498500166628654,0.008146068299807315,0.14499664306640625,2019-06-21 13:10:26:145,0.0,0.0,0.0
-0.05932992324233055,0.30311545729637146,9.59728717803955,-0.008035387428933354,-0.0056739182777248084,-0.007570418748105583,0.14910507202148438,2019-06-21 13:10:26:150,0.0,0.0,0.0
0.0939340591430664,-0.17343974113464355,9.606866836547852,-0.006170719015660131,0.0041821839632251515,-0.003974273525651052,0.1549978256225586,2019-06-21 13:10:26:155,0.0,0.0,0.0
0.2448032945394516,-0.36980921030044556,9.865499496459961,0.014740200280316973,0.018167194462031067,0.004683113641147397,0.15911483764648438,2019-06-21 13:10:26:160,0.0,0.0,0.0
-0.08806692063808441,0.0780089721083641,9.702656745910645,0.007814290962997135,0.013905095380306173,0.0006873965322532847,0.16501140594482422,2019-06-21 13:10:26:165,0.0,0.0,0.0
-0.1551199108362198,0.34382617473602295,9.709840774536133,-0.017758299366163025,-0.004208822075984073,-0.00876913408233142,0.16914653778076172,2019-06-21 13:10:26:170,0.0,0.0,0.0
0.04124956205487251,-0.16625550389289856,9.62602424621582,-0.00031033404615073726,-0.0028769164380379507,-0.005572560551260725,0.1741194725036621,2019-06-21 13:10:26:175,0.0,0.0,0.0
0.0484338141977787,-0.2548612356185913,9.800841331481934,0.011010864494067829,0.003383040580457477,0.002152492799012601,0.1799907684326172,2019-06-21 13:10:26:180,0.0,0.0,0.0
-0.11680391430854797,0.12111446261405945,9.851130485534668,-0.006570290967118294,0.00298346888907364,0.0012201588524503152,0.18410587310791016,2019-06-21 13:10:26:185,0.0,0.0,0.0
0.09872355312108994,0.0013769810320809484,9.860710144042969,0.0018207150720909312,0.012439998918491112,-0.003041939579088766,0.18999958038330078,2019-06-21 13:10:26:190,0.0,0.0,0.0
0.0484338141977787,-0.18062399327754974,9.731393814086914,-0.0031073360483840485,0.014437857635484622,-0.002242795936246767,0.19411087036132812,2019-06-21 13:10:26:195,0.0,0.0,0.0
-0.2868311405181885,-0.15428175032138824,9.671525001525879,-0.009100911939290253,0.0011188008659119059,-0.0005113186069168071,0.19999027252197266,2019-06-21 13:10:26:200,0.0,0.0,0.0
-0.0066454303450882435,0.11871971935033798,9.673919677734375,-0.0048388133777140085,-0.0016782012338492774,0.0009537776598425092,0.20499610900878906,2019-06-21 13:10:26:205,0.0,0.0,0.0
-0.01622442901134491,-0.10399200767278671,9.70505142211914,0.0042181454804682775,-0.0012786295424654405,-0.004240654653240277,0.2102031707763672,2019-06-21 13:10:26:211,0.0,0.0,0.0
-0.07369842380285263,-0.17343974113464355,9.647577285766602,0.004750907735646727,0.006979186062986335,-0.00677127536533791,0.21413087844848633,2019-06-21 13:10:26:215,0.0,0.0,0.0
-0.06411942094564438,0.06364047527313232,9.769709587097168,-0.0048388133777140085,0.01457104897950221,-0.004373845217034889,0.21999406814575195,2019-06-21 13:10:26:220,0.0,0.0,0.0
-0.047356173396110535,0.049271974712610245,9.79126262664795,0.00022242825779164786,0.005780470728760498,-0.0027755584514995413,0.2241048812866211,2019-06-21 13:10:26:225,0.0,0.0,0.0
-0.05693517252802849,-0.09441300481557846,9.645182609558105,0.0076811001391281965,-0.0015450106700546653,0.0017529211076287644,0.2299938201904297,2019-06-21 13:10:26:230,0.0,0.0,0.0
-0.025803428143262863,-0.15907125174999237,9.755340576171875,0.00608281337359285,0.0021843255063059668,0.0008205870960478969,0.23411083221435547,2019-06-21 13:10:26:235,0.0,0.0,0.0
-0.12398816645145416,0.03729822486639023,9.817604064941406,-0.001775430280400763,-0.0030101070018325625,-0.004373845217034889,0.23998546600341797,2019-06-21 13:10:26:240,0.0,0.0,0.0
0.0484338141977787,0.015745479613542557,9.942131042480469,-0.0007099057700438648,0.0047149462184036,-0.0023759865000413795,0.24499797821044922,2019-06-21 13:10:26:245,0.0,0.0,0.0
0.026881065219640732,-0.06807076185941696,9.870288848876953,0.003285811533905992,0.007778329445754008,-0.004373845217034889,0.2491140365600586,2019-06-21 13:10:26:250,0.0,0.0,0.0
-0.11919866502285004,-0.1830187439918518,9.855920791625977,0.0076811001391281965,0.009776187642598867,2.1443682802763245e-05,0.2542848587036133,2019-06-21 13:10:26:255,0.0,0.0,0.0
-0.13596192002296448,0.0325087271630764,9.74576187133789,0.0046177169117777896,0.0005860385457148754,0.0012201588524503152,0.26059818267822266,2019-06-21 13:10:26:261,0.0,0.0,0.0
-0.1742779016494751,0.015745479613542557,9.590103149414062,-0.004705623073993721,-0.0030101070018325625,0.0017529211076287644,0.2656078338623047,2019-06-21 13:10:26:266,0.0,0.0,0.0
-0.05214567482471466,-0.2572559714317322,9.77449893951416,0.007414719011538973,-0.000213104918326025,0.0005542059684586724,0.2705698013305664,2019-06-21 13:10:26:271,0.0,0.0,0.0
-0.018619179725646973,-0.16865025460720062,9.805630683898926,0.014074247721418236,0.003915802835635926,0.0010869682236371214,0.27559995651245117,2019-06-21 13:10:26:276,0.0,0.0,0.0
-0.054540425539016724,0.02532447874546051,9.781682968139648,-0.008035387428933354,0.01110809380069364,-0.0038410829618564396,0.28056859970092773,2019-06-21 13:10:26:281,0.0,0.0,0.0
-0.1670936644077301,-0.1183605045080185,9.74576187133789,0.0034190020977006037,0.004448565090814376,0.0014865399800395396,0.2856006622314453,2019-06-21 13:10:26:286,0.0,0.0,0.0
-0.12638291716575623,-0.15907125174999237,9.62602424621582,0.009945339983710931,0.004448565090814376,0.0037507796945851113,0.2905616760253906,2019-06-21 13:10:26:291,0.0,0.0,0.0
-0.16230416297912598,-0.15428175032138824,9.688287734985352,0.00954576803225277,0.0021843255063059668,-0.002109605502489317,0.295654296875,2019-06-21 13:10:26:296,0.0,0.0,0.0
-0.11680391430854797,0.03969297558069229,9.79126262664795,0.001287952816912482,0.0020511348124741917,0.0001546342608201902,0.3003063201904297,2019-06-21 13:10:26:301,0.0,0.0,0.0
-0.1407514065504074,0.06124572455883026,9.822394371032715,-0.002308192665616375,0.010308949897777316,0.0038839702583797235,0.3050251007080078,2019-06-21 13:10:26:305,0.0,0.0,0.0
-0.15033040940761566,-0.12554475665092468,9.757735252380371,0.0028862395824478296,0.010442141241794904,-0.002242795936246767,0.3091087341308594,2019-06-21 13:10:26:310,0.0,0.0,0.0
-0.13117241859436035,-0.17343974113464355,9.77449893951416,0.007015147580229461,0.010308949897777316,0.007346924917039643,0.31410789489746094,2019-06-21 13:10:26:315,0.0,0.0,0.0
-0.1599094122648239,0.09237746894359589,9.652366638183594,-0.002308192665616375,0.003116659452868253,0.0032180174394066618,0.3199911117553711,2019-06-21 13:10:26:320,0.0,0.0,0.0
-0.21498864889144897,-0.0393337644636631,9.558971405029297,0.002619858454858605,0.0056472804250402115,-0.0005113186069168071,0.3249998092651367,2019-06-21 13:10:26:325,0.0,0.0,0.0
-0.12638291716575623,-0.07286025583744049,9.788866996765137,0.0035521926614952163,-0.002210963619064889,0.00308482687561205,0.32910919189453125,2019-06-21 13:10:26:330,0.0,0.0,0.0
-0.11201442033052444,0.03969297558069229,9.796051979064941,-0.00031033404615073726,0.010974903496973354,-0.0014436525534790934,0.33499622344970703,2019-06-21 13:10:26:335,0.0,0.0,0.0
-0.1407514065504074,-0.027360014617443085,9.772104263305664,-0.0013758585890169264,0.012972761173669562,-0.00011174689115100237,0.3391561508178711,2019-06-21 13:10:26:340,0.0,0.0,0.0
-0.1670936644077301,-0.09680775552988052,9.752945899963379,-0.0019086208441953755,0.0060468518563497236,0.0053490667201947836,0.34503936767578125,2019-06-21 13:10:26:345,0.0,0.0,0.0
-0.10004066675901413,-0.02496526576578617,9.76252555847168,0.0008883811255286454,0.011241284104413928,0.004150351385968948,0.3491239547729492,2019-06-21 13:10:26:350,0.0,0.0,0.0
-0.09046167135238647,-0.048912763595581055,9.717024803161621,-0.001642239716606151,0.0025838971976898037,0.00894521168257499,0.3549947738647461,2019-06-21 13:10:26:355,0.0,0.0,0.0
-0.2006201595067978,-0.09920250624418259,9.652366638183594,0.006748766452640236,0.003116659452868253,0.0028184457480228253,0.3591165542602539,2019-06-21 13:10:26:360,0.0,0.0,0.0
-0.14554090797901154,0.015745479613542557,9.784077644348145,0.0008883811255286454,0.010042569290336742,0.00454992333742711,0.36499977111816406,2019-06-21 13:10:26:365,0.0,0.0,0.0
-0.11440916359424591,-0.09441300481557846,9.764920234680176,0.0019539056358855436,0.007511948318164784,0.007613306044628867,0.3691129684448242,2019-06-21 13:10:26:370,0.0,0.0,0.0
-0.08806692063808441,0.003771730698645115,9.827183723449707,0.00435133604426289,0.012439998918491112,0.005082685592605559,0.3749980926513672,2019-06-21 13:10:26:375,0.0,0.0,0.0
-0.14554090797901154,-0.08243925869464874,9.685893058776855,-0.004572432250124783,0.01110809380069364,0.010277117840669764,0.3791184425354004,2019-06-21 13:10:26:380,0.0,0.0,0.0
-0.1551199108362198,-0.05849176272749901,9.62602424621582,0.006615575628771298,0.01217361831105054,0.007346924917039643,0.3851141929626465,2019-06-21 13:10:26:386,0.0,0.0,0.0
-0.09764591604471207,-0.005807267967611551,9.726603507995605,-0.0037732888673571103,0.005247708473582049,0.0037507796945851113,0.3891477584838867,2019-06-21 13:10:26:390,0.0,0.0,0.0
-0.03538242727518082,-0.06328126043081284,9.688287734985352,-0.0020418114079899874,0.00964299733887858,0.00947797393775344,0.3950061798095703,2019-06-21 13:10:26:395,0.0,0.0,0.0
-0.10722491890192032,-0.07525500655174255,9.68349838256836,0.0015543339445017069,0.012839570869949276,0.006148210102962458,0.3991098403930664,2019-06-21 13:10:26:400,0.0,0.0,0.0
-0.08806692063808441,-0.005807267967611551,9.652366638183594,0.004750907735646727,0.01310595251768715,0.0065477815342719695,0.4049978256225586,2019-06-21 13:10:26:405,0.0,0.0,0.0
-0.08567216992378235,-0.012991516850888729,9.649971961975098,-0.000843096333838477,0.014970619890663072,0.010010736192931888,0.4091377258300781,2019-06-21 13:10:26:410,0.0,0.0,0.0
-0.0760931745171547,-0.04412326216697693,9.714630126953125,0.00022242825779164786,0.006180042680218661,0.008279259123676254,0.41500091552734375,2019-06-21 13:10:26:415,0.0,0.0,0.0
-0.013829679228365421,0.022929728031158447,9.891841888427734,-0.005371575632892458,0.005114518169861762,0.010676689792127925,0.4191131591796875,2019-06-21 13:10:26:420,0.0,0.0,0.0
-0.03059292770922184,-0.10399200767278671,9.879867553710938,0.001287952816912482,0.009243425387420418,0.00894521168257499,0.42499732971191406,2019-06-21 13:10:26:425,0.0,0.0,0.0
-0.0497509241104126,-0.03214951604604721,9.839157104492188,0.004750907735646727,0.01017575959405703,0.006814162661861195,0.42912769317626953,2019-06-21 13:10:26:430,0.0,0.0,0.0
-0.028198176994919777,0.030113978311419487,9.817604064941406,-0.00031033404615073726,0.0076451386218850705,0.009078403026592578,0.4341402053833008,2019-06-21 13:10:26:435,0.0,0.0,0.0
-0.10961966961622238,-0.022570515051484108,9.702656745910645,0.0014211433807070943,0.0041821839632251515,0.007346924917039643,0.43999290466308594,2019-06-21 13:10:26:440,0.0,0.0,0.0
-0.004250680562108755,-0.06807076185941696,9.70505142211914,0.0068819567563605235,0.006313232983938947,0.007746496868497805,0.4441089630126953,2019-06-21 13:10:26:445,0.0,0.0,0.0
0.010117817670106888,-0.0656760111451149,9.812814712524414,0.0042181454804682775,0.005780470728760498,0.011076260703288788,0.45000314712524414,2019-06-21 13:10:26:450,0.0,0.0,0.0
0.010117817670106888,-0.0393337644636631,9.793657302856445,0.0034190020977006037,0.007911519749474296,0.007613306044628867,0.4541153907775879,2019-06-21 13:10:26:455,0.0,0.0,0.0
-0.05214567482471466,-0.10878150165081024,9.76252555847168,0.003951764352879053,0.007778329445754008,0.006281400406682744,0.4599933624267578,2019-06-21 13:10:26:460,0.0,0.0,0.0
-0.0234086774289608,-0.07046551257371902,9.805630683898926,0.005283669990825176,0.006313232983938947,0.007346924917039643,0.46500110626220703,2019-06-21 13:10:26:465,0.0,0.0,0.0
0.01730206608772278,-0.14709749817848206,9.65476131439209,0.0018207150720909312,0.007511948318164784,0.0038839702583797235,0.4691190719604492,2019-06-21 13:10:26:470,0.0,0.0,0.0
-0.013829679228365421,-0.05130751058459282,9.666735649108887,-0.001242668025222314,0.00298346888907364,0.005615447847784009,0.4741358757019043,2019-06-21 13:10:26:475,0.0,0.0,0.0
0.024486316367983818,-0.09680775552988052,9.719419479370117,0.001687524508296319,0.005913661552629436,0.004949494768736622,0.4800143241882324,2019-06-21 13:10:26:480,0.0,0.0,0.0
0.036460064351558685,-0.0920182541012764,9.776893615722656,0.001687524508296319,0.004315374527019763,0.004416732513558173,0.4841141700744629,2019-06-21 13:10:26:485,0.0,0.0,0.0
0.08196030557155609,-0.05849176272749901,9.743367195129395,0.0046177169117777896,0.0064464238078078846,0.008146068299807315,0.4899892807006836,2019-06-21 13:10:26:490,0.0,0.0,0.0
0.05322331190109253,-0.06088650971651077,9.702656745910645,0.0034190020977006037,0.007778329445754008,0.0014865399800395396,0.4941110610961914,2019-06-21 13:10:26:495,0.0,0.0,0.0
0.09632880985736847,-0.048912763595581055,9.726603507995605,0.004084954916673665,0.0041821839632251515,0.00548225702391507,0.5000009536743164,2019-06-21 13:10:26:500,0.0,0.0,0.0
0.05322331190109253,-0.0920182541012764,9.72420883178711,0.0042181454804682775,0.004448565090814376,0.0022856834928443757,0.5050005912780762,2019-06-21 13:10:26:505,0.0,0.0,0.0
0.0747760608792305,-0.06088650971651077,9.740972518920898,0.0035521926614952163,0.003383040580457477,0.0028184457480228253,0.5091114044189453,2019-06-21 13:10:26:510,0.0,0.0,0.0
0.08914455771446228,-0.10159725695848465,9.81520938873291,0.004084954916673665,0.0076451386218850705,-0.002642367627630604,0.5150032043457031,2019-06-21 13:10:26:515,0.0,0.0,0.0
0.10351305454969406,-0.05370226129889488,9.76252555847168,0.0035521926614952163,0.005780470728760498,0.0034843985669958865,0.5191359519958496,2019-06-21 13:10:26:520,0.0,0.0,0.0
0.05801280960440636,-0.0393337644636631,9.74576187133789,-0.001775430280400763,0.0068459952391173974,-0.0009108902983006441,0.5241379737854004,2019-06-21 13:10:26:525,0.0,0.0,0.0
0.026881065219640732,-0.07764975726604462,9.712235450744629,0.0028862395824478296,0.0008524196733041,-0.0017100338111054802,0.5299935340881348,2019-06-21 13:10:26:530,0.0,0.0,0.0
0.08674980700016022,-0.07046551257371902,9.74576187133789,-0.0019086208441953755,0.0041821839632251515,-0.0006445091707114195,0.5341100692749023,2019-06-21 13:10:26:535,0.0,0.0,0.0
0.08196030557155609,-0.04412326216697693,9.728999137878418,0.0031526207100370544,0.0004528479494109724,-0.003574701834267215,0.5399999618530273,2019-06-21 13:10:26:540,0.0,0.0,0.0
0.0939340591430664,-0.0848340094089508,9.73378849029541,-4.395289011588339e-05,0.004315374527019763,-0.004640226344624114,0.5450057983398438,2019-06-21 13:10:26:545,0.0,0.0,0.0
0.04124956205487251,-0.08243925869464874,9.760130882263184,0.004084954916673665,0.003383040580457477,-0.007037656492927135,0.5491113662719727,2019-06-21 13:10:26:550,0.0,0.0,0.0
0.08435505628585815,-0.0848340094089508,9.712235450744629,0.0036853832252898284,0.001251991429706518,-0.002109605502489317,0.5550003051757812,2019-06-21 13:10:26:555,0.0,0.0,0.0
0.036460064351558685,-0.08962351083755493,9.666735649108887,-0.00017714346610147965,0.0025838971976898037,-0.0038410829618564396,0.5591187477111816,2019-06-21 13:10:26:560,0.0,0.0,0.0
0.13464480638504028,-0.07525500655174255,9.788866996765137,-0.0015090491528115383,0.0008524196733041,-0.00730403762051636,0.5650076866149902,2019-06-21 13:10:26:565,0.0,0.0,0.0
0.10351305454969406,-0.08004450798034668,9.736183166503906,0.0003556188378409054,0.00298346888907364,-0.005838941678849949,0.5691242218017578,2019-06-21 13:10:26:570,0.0,0.0,0.0
0.050828561186790466,-0.0848340094089508,9.738577842712402,0.0004888094016355178,0.003782612271841314,-0.006504894237748685,0.575007438659668,2019-06-21 13:10:26:575,0.0,0.0,0.0
0.12267105281352997,-0.01778101734817028,9.688287734985352,0.0058164322460036244,0.0028502783252790285,-0.004240654653240277,0.5791120529174805,2019-06-21 13:10:26:580,0.0,0.0,0.0
0.05561806261539459,-0.022570515051484108,9.743367195129395,-0.002840954920794824,0.0041821839632251515,-0.003574701834267215,0.5849981307983398,2019-06-21 13:10:26:585,0.0,0.0,0.0
0.07956556230783463,-0.06328126043081284,9.839157104492188,0.0036853832252898284,0.002317516070100579,0.0028184457480228253,0.589116096496582,2019-06-21 13:10:26:590,0.0,0.0,0.0
0.043644312769174576,-0.0393337644636631,9.726603507995605,0.0020870961996801557,0.001651563121090355,-0.005838941678849949,0.5950002670288086,2019-06-21 13:10:26:595,0.0,0.0,0.0
0.04124956205487251,-0.06807076185941696,9.772104263305664,-4.395289011588339e-05,-0.0015450106700546653,-0.0038410829618564396,0.5991144180297852,2019-06-21 13:10:26:600,0.0,0.0,0.0
0.024486316367983818,-0.041728515177965164,9.728999137878418,-0.0024413832294109873,0.0028502783252790285,-0.004773416648344401,0.6050004959106445,2019-06-21 13:10:26:605,0.0,0.0,0.0
0.036460064351558685,-0.01778101734817028,9.74576187133789,-0.00031033404615073726,0.00298346888907364,-0.00011174689115100237,0.6091384887695312,2019-06-21 13:10:26:610,0.0,0.0,0.0
-0.028198176994919777,-0.07286025583744049,9.671525001525879,0.005150479166956239,0.003915802835635926,-0.004906607472213338,0.6150612831115723,2019-06-21 13:10:26:615,0.0,0.0,0.0
-0.021013928577303886,-0.048912763595581055,9.76252555847168,-0.0005767152062492525,0.0020511348124741917,-0.006504894237748685,0.6191177368164062,2019-06-21 13:10:26:620,0.0,0.0,0.0
-0.021013928577303886,-0.05849176272749901,9.764920234680176,-0.0005767152062492525,0.0008524196733041,-0.002242795936246767,0.6249971389770508,2019-06-21 13:10:26:625,0.0,0.0,0.0
-0.004250680562108755,-0.07046551257371902,9.757735252380371,0.003285811533905992,-0.002077772925233114,-0.0051729885998025625,0.6291165351867676,2019-06-21 13:10:26:630,0.0,0.0,0.0
0.012512567453086376,-0.01778101734817028,9.731393814086914,8.92376858697129e-05,0.002450706633895191,0.0036175891307904987,0.6350002288818359,2019-06-21 13:10:26:635,0.0,0.0,0.0
-0.0497509241104126,-0.08243925869464874,9.657155990600586,-0.0021750019717846,0.00298346888907364,-0.001976414938694705,0.6391100883483887,2019-06-21 13:10:26:640,0.0,0.0,0.0
-0.061724673956632614,-0.06088650971651077,9.661945343017578,0.001287952816912482,0.0009856102370987122,-0.0011772714258898686,0.6449975967407227,2019-06-21 13:10:26:645,0.0,0.0,0.0
-0.05932992324233055,-0.05370226129889488,9.664340019226074,-0.0037732888673571103,-0.0016782012338492774,-0.0027755584514995413,0.6491193771362305,2019-06-21 13:10:26:650,0.0,0.0,0.0
-0.061724673956632614,-0.01059676706790924,9.784077644348145,-0.002974145484589436,0.0007192291095094877,-0.0010440808620952565,0.6550512313842773,2019-06-21 13:10:26:655,0.0,0.0,0.0
-0.07130367308855057,-0.04412326216697693,9.788866996765137,-0.0033737171759732733,0.003649421708046702,0.0002878248408694478,0.6591382026672363,2019-06-21 13:10:26:660,0.0,0.0,0.0
-0.05214567482471466,-0.03214951604604721,9.760130882263184,0.0023534773272693805,0.003116659452868253,-0.0014436525534790934,0.6650047302246094,2019-06-21 13:10:26:665,0.0,0.0,0.0
-0.09764591604471207,-0.03693901374936104,9.697867393493652,-0.0027077643570002116,-0.002210963619064889,-0.003707892398061828,0.6691122055053711,2019-06-21 13:10:26:670,0.0,0.0,0.0
-0.08567216992378235,-0.01778101734817028,9.79126262664795,0.0027530490186532175,-0.0003462954983752826,0.0005542059684586724,0.6749992370605469,2019-06-21 13:10:26:675,0.0,0.0,0.0
-0.0689089223742485,-0.020175766199827194,9.740972518920898,0.003951764352879053,-0.002610535310448726,0.0004210154046640601,0.6791152954101562,2019-06-21 13:10:26:680,0.0,0.0,0.0
-0.08327741920948029,-0.056097012013196945,9.736183166503906,0.0006219999979394207,0.004581755914683313,0.0036175891307904987,0.6841144561767578,2019-06-21 13:10:26:685,0.0,0.0,0.0
-0.11440916359424591,-0.0010177686344832182,9.793657302856445,0.003951764352879053,5.327622958150625e-05,-0.000378128043122195,0.689997673034668,2019-06-21 13:10:26:690,0.0,0.0,0.0
-0.11440916359424591,-0.10159725695848465,9.757735252380371,-0.000843096333838477,0.003782612271841314,0.0032180174394066618,0.6941113471984863,2019-06-21 13:10:26:695,0.0,0.0,0.0
-0.17188316583633423,-0.07046551257371902,9.808025360107422,-0.00031033404615073726,0.007378757494295846,-0.0023759865000413795,0.700040340423584,2019-06-21 13:10:26:700,0.0,0.0,0.0
-0.14554090797901154,-0.041728515177965164,9.760130882263184,0.0014211433807070943,0.006579614111528172,0.002685255184228213,0.7041339874267578,2019-06-21 13:10:26:705,0.0,0.0,0.0
-0.1599094122648239,-0.056097012013196945,9.748156547546387,0.0018207150720909312,0.001651563121090355,-0.005705750854981011,0.7100181579589844,2019-06-21 13:10:26:710,0.0,0.0,0.0
-0.1599094122648239,-0.03693901374936104,9.808025360107422,0.0014211433807070943,0.0019179442486795795,0.004416732513558173,0.7141132354736328,2019-06-21 13:10:26:715,0.0,0.0,0.0
-0.13596192002296448,-0.034544263035058975,9.74576187133789,0.001287952816912482,0.0015183725572957428,-0.004107464089445664,0.7200002670288086,2019-06-21 13:10:26:720,0.0,0.0,0.0
-0.15033040940761566,-0.02496526576578617,9.709840774536133,0.003951764352879053,0.002450706633895191,0.0013533494162449274,0.7250003814697266,2019-06-21 13:10:26:725,0.0,0.0,0.0
-0.17188316583633423,-0.08722876012325287,9.755340576171875,0.0008883811255286454,0.005514089601171274,0.0014865399800395396,0.7291097640991211,2019-06-21 13:10:26:730,0.0,0.0,0.0
-0.1287776678800583,-0.1183605045080185,9.709840774536133,0.000755190561734033,0.0020511348124741917,-0.0017100338111054802,0.7349987030029297,2019-06-21 13:10:26:735,0.0,0.0,0.0
-0.1599094122648239,-0.015386266633868217,9.671525001525879,0.0031526207100370544,0.0041821839632251515,-0.0011772714258898686,0.7391166687011719,2019-06-21 13:10:26:740,0.0,0.0,0.0
-0.15751466155052185,-0.03693901374936104,9.721814155578613,0.0046177169117777896,0.003915802835635926,-0.0005113186069168071,0.7450103759765625,2019-06-21 13:10:26:745,0.0,0.0,0.0
-0.14314615726470947,-0.0010177686344832182,9.68349838256836,-0.0011094774614277016,0.003383040580457477,0.007480115740908581,0.7491188049316406,2019-06-21 13:10:26:750,0.0,0.0,0.0
-0.15033040940761566,-0.08004450798034668,9.717024803161621,-0.000843096333838477,0.0049813273459928245,0.0032180174394066618,0.7549958229064941,2019-06-21 13:10:26:755,0.0,0.0,0.0
-0.09046167135238647,-0.04651801288127899,9.784077644348145,0.0020870961996801557,0.005114518169861762,-0.0023759865000413795,0.7591152191162109,2019-06-21 13:10:26:760,0.0,0.0,0.0
-0.11680391430854797,-0.06328126043081284,9.738577842712402,0.0036853832252898284,0.003649421708046702,-0.0018432243749000928,0.7650003433227539,2019-06-21 13:10:26:765,0.0,0.0,0.0
-0.12638291716575623,-0.09920250624418259,9.752945899963379,0.0006219999979394207,0.0020511348124741917,0.0005542059684586724,0.7691106796264648,2019-06-21 13:10:26:770,0.0,0.0,0.0
-0.11919866502285004,-0.012991516850888729,9.719419479370117,-0.00017714346610147965,0.009909378986616455,-0.0014436525534790934,0.7750005722045898,2019-06-21 13:10:26:775,0.0,0.0,0.0
-0.15751466155052185,-0.09680775552988052,9.726603507995605,0.0011547622531178697,0.004848137042272538,-0.0009108902983006441,0.7791171073913574,2019-06-21 13:10:26:780,0.0,0.0,0.0
-0.12638291716575623,-0.06328126043081284,9.805630683898926,0.003019430146242442,0.002317516070100579,-0.0023759865000413795,0.7850017547607422,2019-06-21 13:10:26:785,0.0,0.0,0.0
-0.08327741920948029,-0.04651801288127899,9.728999137878418,0.0020870961996801557,0.00671280493539711,0.0006873965322532847,0.7891139984130859,2019-06-21 13:10:26:790,0.0,0.0,0.0
-0.11201442033052444,-0.06328126043081284,9.784077644348145,0.0034190020977006037,0.005913661552629436,0.00428354194976356,0.7949981689453125,2019-06-21 13:10:26:795,0.0,0.0,0.0
-0.0952511727809906,-0.10399200767278671,9.784077644348145,-0.0007099057700438648,0.003116659452868253,-0.0010440808620952565,0.7992305755615234,2019-06-21 13:10:26:800,0.0,0.0,0.0
-0.10004066675901413,-0.03693901374936104,9.748156547546387,0.0015543339445017069,0.007378757494295846,-0.001976414938694705,0.8050069808959961,2019-06-21 13:10:26:805,0.0,0.0,0.0
-0.08088266849517822,-0.10399200767278671,9.731393814086914,0.0018207150720909312,0.00671280493539711,0.0010869682236371214,0.8091106414794922,2019-06-21 13:10:26:810,0.0,0.0,0.0
-0.0952511727809906,-0.05849176272749901,9.738577842712402,-0.0024413832294109873,0.006313232983938947,0.00308482687561205,0.814995288848877,2019-06-21 13:10:26:815,0.0,0.0,0.0
-0.08567216992378235,-0.056097012013196945,9.690682411193848,-0.0019086208441953755,0.008444282004652744,0.0009537776598425092,0.819117546081543,2019-06-21 13:10:26:820,0.0,0.0,0.0
-0.11680391430854797,-0.01778101734817028,9.743367195129395,-0.0021750019717846,0.004048993399430539,-0.004373845217034889,0.8249988555908203,2019-06-21 13:10:26:825,0.0,0.0,0.0
-0.061724673956632614,-0.06088650971651077,9.740972518920898,0.008080672090586358,0.006579614111528172,0.0025520646204336005,0.8299932479858398,2019-06-21 13:10:26:830,0.0,0.0,0.0
-0.10004066675901413,-0.05849176272749901,9.79126262664795,0.001287952816912482,0.003782612271841314,0.0010869682236371214,0.8341083526611328,2019-06-21 13:10:26:835,0.0,0.0,0.0
-0.0497509241104126,-0.08004450798034668,9.728999137878418,0.003019430146242442,0.005780470728760498,0.0036175891307904987,0.8400015830993652,2019-06-21 13:10:26:840,0.0,0.0,0.0
-0.040171924978494644,-0.08004450798034668,9.805630683898926,0.0034190020977006037,0.006313232983938947,-0.00011174689115100237,0.8441219329833984,2019-06-21 13:10:26:845,0.0,0.0,0.0
-0.013829679228365421,-0.0656760111451149,9.678709030151367,0.0003556188378409054,0.008044710573343232,-0.001310461989684481,0.8500213623046875,2019-06-21 13:10:26:850,0.0,0.0,0.0
-0.06651417165994644,-0.07286025583744049,9.738577842712402,0.0020870961996801557,0.00964299733887858,0.00454992333742711,0.8541131019592285,2019-06-21 13:10:26:855,0.0,0.0,0.0
-0.032987676560878754,-0.04651801288127899,9.78647232055664,0.0011547622531178697,0.0028502783252790285,0.0010869682236371214,0.8599910736083984,2019-06-21 13:10:26:860,0.0,0.0,0.0
-0.03538242727518082,-0.029754765331745148,9.769709587097168,0.002619858454858605,0.00671280493539711,0.004949494768736622,0.8641128540039062,2019-06-21 13:10:26:865,0.0,0.0,0.0
-0.05932992324233055,-0.10159725695848465,9.810420036315918,0.0056832419422833385,0.0032498500166628654,0.006281400406682744,0.870020866394043,2019-06-21 13:10:26:870,0.0,0.0,0.0
-0.013829679228365421,-0.04412326216697693,9.731393814086914,0.0014211433807070943,0.006180042680218661,0.0022856834928443757,0.8741092681884766,2019-06-21 13:10:26:875,0.0,0.0,0.0
-0.040171924978494644,-0.04412326216697693,9.767314910888672,-0.0005767152062492525,0.003782612271841314,0.0034843985669958865,0.8799943923950195,2019-06-21 13:10:26:880,0.0,0.0,0.0
-0.03059292770922184,-0.07286025583744049,9.673919677734375,-0.00044352460994534954,0.014970619890663072,0.0033512080032012744,0.8841133117675781,2019-06-21 13:10:26:885,0.0,0.0,0.0
0.014907317236065865,-0.05370226129889488,9.757735252380371,0.0036853832252898284,0.005514089601171274,0.0001546342608201902,0.889164924621582,2019-06-21 13:10:26:890,0.0,0.0,0.0
0.010117817670106888,-0.0393337644636631,9.728999137878418,0.0006219999979394207,0.008177900877063521,0.0022856834928443757,0.8950252532958984,2019-06-21 13:10:26:895,0.0,0.0,0.0
-0.021013928577303886,-0.07046551257371902,9.678709030151367,-0.0011094774614277016,0.006979186062986335,0.0024188740566389883,0.8991274833679199,2019-06-21 13:10:26:900,0.0,0.0,0.0
0.01730206608772278,-0.034544263035058975,9.726603507995605,0.0008883811255286454,0.0049813273459928245,0.00454992333742711,0.9049978256225586,2019-06-21 13:10:26:905,0.0,0.0,0.0
0.0005388186546042562,-0.08243925869464874,9.776893615722656,0.003285811533905992,0.004448565090814376,0.006281400406682744,0.9091329574584961,2019-06-21 13:10:26:910,0.0,0.0,0.0
-0.009040179662406445,-0.08962351083755493,9.728999137878418,0.001287952816912482,0.0041821839632251515,0.008279259123676254,0.9149990081787109,2019-06-21 13:10:26:915,0.0,0.0,0.0
-0.018619179725646973,-0.020175766199827194,9.755340576171875,-0.0025745737932055994,0.006579614111528172,0.0001546342608201902,0.9191117286682129,2019-06-21 13:10:26:920,0.0,0.0,0.0
-0.03538242727518082,-0.05849176272749901,9.717024803161621,-0.0025745737932055994,0.004315374527019763,0.0038839702583797235,0.9249982833862305,2019-06-21 13:10:26:925,0.0,0.0,0.0
0.01730206608772278,-0.04412326216697693,9.772104263305664,0.004884098039367014,0.008444282004652744,0.006414591230551682,0.9291138648986816,2019-06-21 13:10:26:930,0.0,0.0,0.0
0.014907317236065865,-0.0393337644636631,9.738577842712402,-0.0009762868976330894,0.0028502783252790285,0.0038839702583797235,0.9341301918029785,2019-06-21 13:10:26:935,0.0,0.0,0.0
0.0077230678871273994,-0.07046551257371902,9.714630126953125,0.0034190020977006037,0.009110235083700131,-0.002109605502489317,0.9400119781494141,2019-06-21 13:10:26:940,0.0,0.0,0.0
-0.011434929445385933,-0.012991516850888729,9.810420036315918,0.0038185737890844406,0.008044710573343232,0.0005542059684586724,0.9441242218017578,2019-06-21 13:10:26:945,0.0,0.0,0.0
-0.018619179725646973,-0.09441300481557846,9.743367195129395,0.0020870961996801557,0.0064464238078078846,0.0002878248408694478,0.9499917030334473,2019-06-21 13:10:26:950,0.0,0.0,0.0
-0.004250680562108755,-0.0393337644636631,9.70505142211914,0.005949623069872562,0.008311091700932456,0.0029516363118174374,0.9541101455688477,2019-06-21 13:10:26:955,0.0,0.0,0.0
0.0005388186546042562,-0.0848340094089508,9.760130882263184,-0.0007099057700438648,0.004848137042272538,0.002685255184228213,0.9599981307983398,2019-06-21 13:10:26:960,0.0,0.0,0.0
0.012512567453086376,-0.0656760111451149,9.748156547546387,0.0015543339445017069,0.0056472804250402115,0.005082685592605559,0.9641132354736328,2019-06-21 13:10:26:965,0.0,0.0,0.0
0.01730206608772278,-0.06807076185941696,9.69547176361084,0.0020870961996801557,0.005380899297450987,0.0013533494162449274,0.9699926376342773,2019-06-21 13:10:26:970,0.0,0.0,0.0
-0.009040179662406445,-0.048912763595581055,9.74576187133789,-0.004572432250124783,0.006313232983938947,0.0017529211076287644,0.9741086959838867,2019-06-21 13:10:26:975,0.0,0.0,0.0
0.010117817670106888,-0.03693901374936104,9.678709030151367,0.0022202867634747683,0.009909378986616455,0.004683113641147397,0.9800209999084473,2019-06-21 13:10:26:980,0.0,0.0,0.0
-0.0234086774289608,-0.029754765331745148,9.721814155578613,0.0038185737890844406,0.0076451386218850705,0.0006873965322532847,0.9841127395629883,2019-06-21 13:10:26:985,0.0,0.0,0.0
0.026881065219640732,-0.08243925869464874,9.767314910888672,0.0036853832252898284,0.00298346888907364,0.004416732513558173,0.9900655746459961,2019-06-21 13:10:26:990,0.0,0.0,0.0
0.005328318104147911,-0.029754765331745148,9.824789047241211,0.0004888094016355178,0.0064464238078078846,-0.0011772714258898686,0.9941167831420898,2019-06-21 13:10:26:995,0.0,0.0,0.0
0.005328318104147911,-0.022570515051484108,9.731393814086914,0.0028862395824478296,0.005114518169861762,-0.005705750854981011,0.9999914169311523,2019-06-21 13:10:27:000,0.0,0.0,0.0
-0.0066454303450882435,-0.07525500655174255,9.731393814086914,-0.000843096333838477,0.002317516070100579,-0.0011772714258898686,1.004110336303711,2019-06-21 13:10:27:005,0.0,0.0,0.0
0.014907317236065865,-0.05130751058459282,9.740972518920898,-0.0013758585890169264,0.005114518169861762,-0.0034415112704726026,1.01002836227417,2019-06-21 13:10:27:010,0.0,0.0,0.0
-0.004250680562108755,-0.06807076185941696,9.731393814086914,0.0042181454804682775,0.0032498500166628654,-0.0023759865000413795,1.0141196250915527,2019-06-21 13:10:27:015,0.0,0.0,0.0
-0.013829679228365421,-0.04651801288127899,9.678709030151367,-0.0025745737932055994,0.005514089601171274,0.002019302235217989,1.0200285911560059,2019-06-21 13:10:27:020,0.0,0.0,0.0
-0.028198176994919777,-0.06328126043081284,9.836762428283691,0.0018207150720909312,0.0017847536848849673,-0.001976414938694705,1.0241212844848633,2019-06-21 13:10:27:025,0.0,0.0,0.0
-0.03059292770922184,-0.048912763595581055,9.750551223754883,8.92376858697129e-05,0.0060468518563497236,-0.0018432243749000928,1.0299882888793945,2019-06-21 13:10:27:030,0.0,0.0,0.0
-0.03538242727518082,-0.06088650971651077,9.800841331481934,0.00022242825779164786,0.0060468518563497236,-0.002642367627630604,1.0341367721557617,2019-06-21 13:10:27:035,0.0,0.0,0.0
-0.03538242727518082,-0.07046551257371902,9.776893615722656,0.0064823853250510115,0.004448565090814376,-0.001310461989684481,1.0400099754333496,2019-06-21 13:10:27:040,0.0,0.0,0.0
-0.05214567482471466,-0.07286025583744049,9.767314910888672,-0.002308192665616375,0.011507665752151803,0.0008205870960478969,1.0441083908081055,2019-06-21 13:10:27:045,0.0,0.0,0.0
-0.05932992324233055,-0.0393337644636631,9.731393814086914,-0.0009762868976330894,0.004581755914683313,-0.000378128043122195,1.049999713897705,2019-06-21 13:10:27:050,0.0,0.0,0.0
-0.03059292770922184,-0.07525500655174255,9.707446098327637,-0.0015090491528115383,0.0019179442486795795,-0.0006445091707114195,1.0550031661987305,2019-06-21 13:10:27:055,0.0,0.0,0.0
-0.032987676560878754,-0.04651801288127899,9.712235450744629,-0.0007099057700438648,0.006579614111528172,-0.0005113186069168071,1.0591115951538086,2019-06-21 13:10:27:060,0.0,0.0,0.0
-0.05693517252802849,-0.06328126043081284,9.731393814086914,0.003019430146242442,0.003649421708046702,-0.003041939579088766,1.0649995803833008,2019-06-21 13:10:27:065,0.0,0.0,0.0
-0.013829679228365421,-0.09441300481557846,9.781682968139648,0.002619858454858605,0.00671280493539711,0.0004210154046640601,1.0691165924072266,2019-06-21 13:10:27:070,0.0,0.0,0.0
-0.061724673956632614,-0.0920182541012764,9.661945343017578,0.002619858454858605,0.008177900877063521,-0.00024493746307293734,1.0749993324279785,2019-06-21 13:10:27:075,0.0,0.0,0.0
-0.0689089223742485,-0.06807076185941696,9.77449893951416,-0.0020418114079899874,0.005114518169861762,-0.002242795936246767,1.0791144371032715,2019-06-21 13:10:27:080,0.0,0.0,0.0
-0.028198176994919777,-0.08722876012325287,9.760130882263184,0.0054168602945454634,0.0047149462184036,-0.0005113186069168071,1.084998607635498,2019-06-21 13:10:27:085,0.0,0.0,0.0
-0.05932992324233055,-0.034544263035058975,9.769709587097168,0.0019539056358855436,0.0041821839632251515,-0.002242795936246767,1.0891146659851074,2019-06-21 13:10:27:090,0.0,0.0,0.0
-0.03538242727518082,-0.06807076185941696,9.784077644348145,0.0011547622531178697,0.006313232983938947,2.1443682802763245e-05,1.0941896438598633,2019-06-21 13:10:27:095,0.0,0.0,0.0
-0.054540425539016724,-0.04651801288127899,9.707446098327637,0.0003556188378409054,0.004848137042272538,0.0014865399800395396,1.099996566772461,2019-06-21 13:10:27:100,0.0,0.0,0.0
-0.05693517252802849,-0.0920182541012764,9.800841331481934,-0.0011094774614277016,0.006979186062986335,-0.0017100338111054802,1.1041126251220703,2019-06-21 13:10:27:105,0.0,0.0,0.0
-0.10004066675901413,-0.07046551257371902,9.726603507995605,-0.0005767152062492525,0.0049813273459928245,0.0022856834928443757,1.109999656677246,2019-06-21 13:10:27:110,0.0,0.0,0.0
-0.06411942094564438,-0.07046551257371902,9.755340576171875,-0.0027077643570002116,0.002450706633895191,-0.0006445091707114195,1.114112377166748,2019-06-21 13:10:27:115,0.0,0.0,0.0
-0.10961966961622238,-0.07525500655174255,9.717024803161621,0.002619858454858605,0.0049813273459928245,-0.0010440808620952565,1.119992733001709,2019-06-21 13:10:27:120,0.0,0.0,0.0
-0.0689089223742485,-0.04651801288127899,9.697867393493652,-0.001642239716606151,0.0041821839632251515,-0.001310461989684481,1.1241111755371094,2019-06-21 13:10:27:125,0.0,0.0,0.0
-0.11919866502285004,-0.08722876012325287,9.736183166503906,0.005550051118414401,0.007378757494295846,-0.0015768431172737056,1.130000114440918,2019-06-21 13:10:27:130,0.0,0.0,0.0
-0.10483016818761826,-0.07764975726604462,9.750551223754883,0.004084954916673665,0.0015183725572957428,0.002019302235217989,1.1341123580932617,2019-06-21 13:10:27:135,0.0,0.0,0.0
-0.09285642206668854,-0.05130751058459282,9.764920234680176,0.005550051118414401,0.004581755914683313,0.0036175891307904987,1.1391401290893555,2019-06-21 13:10:27:140,0.0,0.0,0.0
-0.1215934157371521,-0.05849176272749901,9.72420883178711,0.0008883811255286454,0.010841712152955764,0.0034843985669958865,1.1449999809265137,2019-06-21 13:10:27:145,0.0,0.0,0.0
-0.08567216992378235,-0.029754765331745148,9.743367195129395,0.0024866678910639927,0.0056472804250402115,0.0037507796945851113,1.1491117477416992,2019-06-21 13:10:27:150,0.0,0.0,0.0
-0.09764591604471207,-0.0656760111451149,9.709840774536133,0.003019430146242442,0.0015183725572957428,0.0014865399800395396,1.1549949645996094,2019-06-21 13:10:27:155,0.0,0.0,0.0
-0.0952511727809906,-0.08004450798034668,9.714630126953125,0.0024866678910639927,0.003383040580457477,0.006680972358140907,1.1591134071350098,2019-06-21 13:10:27:160,0.0,0.0,0.0
-0.08567216992378235,-0.041728515177965164,9.740972518920898,-0.0007099057700438648,0.005780470728760498,-0.0011772714258898686,1.1650028228759766,2019-06-21 13:10:27:165,0.0,0.0,0.0
-0.07130367308855057,-0.06088650971651077,9.74576187133789,-0.00017714346610147965,0.0064464238078078846,0.0022856834928443757,1.169112205505371,2019-06-21 13:10:27:170,0.0,0.0,0.0
-0.09285642206668854,-0.04651801288127899,9.73378849029541,0.0014211433807070943,0.00298346888907364,0.0013533494162449274,1.1749992370605469,2019-06-21 13:10:27:175,0.0,0.0,0.0
-0.0952511727809906,-0.05130751058459282,9.70505142211914,-0.001775430280400763,0.005913661552629436,0.0006873965322532847,1.1791448593139648,2019-06-21 13:10:27:180,0.0,0.0,0.0
-0.061724673956632614,-0.0393337644636631,9.685893058776855,-0.0020418114079899874,0.0064464238078078846,2.1443682802763245e-05,1.185028076171875,2019-06-21 13:10:27:185,0.0,0.0,0.0
-0.032987676560878754,-0.08243925869464874,9.719419479370117,0.0028862395824478296,0.009243425387420418,0.0032180174394066618,1.189997673034668,2019-06-21 13:10:27:190,0.0,0.0,0.0
-0.061724673956632614,-0.08004450798034668,9.748156547546387,0.0014211433807070943,0.003782612271841314,0.007480115740908581,1.19411039352417,2019-06-21 13:10:27:195,0.0,0.0,0.0
-0.009040179662406445,-0.03214951604604721,9.726603507995605,0.0015543339445017069,0.00298346888907364,0.0053490667201947836,1.2000007629394531,2019-06-21 13:10:27:200,0.0,0.0,0.0
-0.06411942094564438,-0.12075525522232056,9.738577842712402,-0.0036400983035624977,0.0001864668055671025,0.0013533494162449274,1.204115867614746,2019-06-21 13:10:27:205,0.0,0.0,0.0
-0.028198176994919777,-0.04412326216697693,9.764920234680176,0.0031526207100370544,-0.000213104918326025,0.0006873965322532847,1.2100157737731934,2019-06-21 13:10:27:210,0.0,0.0,0.0
-0.047356173396110535,-0.03693901374936104,9.822394371032715,0.0027530490186532175,0.006180042680218661,-0.005705750854981011,1.2141118049621582,2019-06-21 13:10:27:215,0.0,0.0,0.0
-0.06651417165994644,-0.06807076185941696,9.800841331481934,0.000755190561734033,0.004315374527019763,0.0022856834928443757,1.2200002670288086,2019-06-21 13:10:27:220,0.0,0.0,0.0
-0.06411942094564438,-0.05370226129889488,9.700262069702148,0.003019430146242442,0.004315374527019763,0.005082685592605559,1.2241220474243164,2019-06-21 13:10:27:225,0.0,0.0,0.0
-0.054540425539016724,-0.0393337644636631,9.736183166503906,-0.001642239716606151,0.0015183725572957428,0.0028184457480228253,1.2300214767456055,2019-06-21 13:10:27:230,0.0,0.0,0.0
-0.054540425539016724,-0.05849176272749901,9.750551223754883,0.0006219999979394207,0.003782612271841314,-0.00011174689115100237,1.2341160774230957,2019-06-21 13:10:27:235,0.0,0.0,0.0
-0.08088266849517822,-0.015386266633868217,9.767314910888672,0.005150479166956239,0.007378757494295846,0.0012201588524503152,1.2399959564208984,2019-06-21 13:10:27:240,0.0,0.0,0.0
-0.08327741920948029,-0.08004450798034668,9.736183166503906,0.0027530490186532175,0.0076451386218850705,-0.0005113186069168071,1.244110107421875,2019-06-21 13:10:27:245,0.0,0.0,0.0
-0.025803428143262863,-0.05849176272749901,9.72420883178711,0.00435133604426289,0.004848137042272538,0.002685255184228213,1.25,2019-06-21 13:10:27:250,0.0,0.0,0.0
-0.025803428143262863,-0.0656760111451149,9.769709587097168,0.0010215716893232575,0.0056472804250402115,-0.0006445091707114195,1.2541136741638184,2019-06-21 13:10:27:255,0.0,0.0,0.0
-0.0234086774289608,-0.034544263035058975,9.74576187133789,0.004750907735646727,0.005780470728760498,0.001619730543834152,1.2599964141845703,2019-06-21 13:10:27:260,0.0,0.0,0.0
-0.018619179725646973,-0.0656760111451149,9.738577842712402,0.0020870961996801557,0.002317516070100579,0.006015019279093521,1.2650728225708008,2019-06-21 13:10:27:265,0.0,0.0,0.0
-0.04256667569279671,-0.05370226129889488,9.769709587097168,0.001687524508296319,0.00298346888907364,-0.00024493746307293734,1.2691993713378906,2019-06-21 13:10:27:270,0.0,0.0,0.0
-0.03059292770922184,-0.041728515177965164,9.808025360107422,0.0042181454804682775,0.006313232983938947,0.005215875896325846,1.2750205993652344,2019-06-21 13:10:27:275,0.0,0.0,0.0
-0.0234086774289608,-0.05130751058459282,9.688287734985352,-0.000843096333838477,0.003116659452868253,0.0022856834928443757,1.2791147232055664,2019-06-21 13:10:27:280,0.0,0.0,0.0
-0.047356173396110535,-0.04412326216697693,9.728999137878418,0.0010215716893232575,0.002317516070100579,0.00308482687561205,1.2849969863891602,2019-06-21 13:10:27:285,0.0,0.0,0.0
-0.03777717798948288,-0.07525500655174255,9.772104263305664,0.0010215716893232575,0.002450706633895191,-0.0007776997345060318,1.2899951934814453,2019-06-21 13:10:27:290,0.0,0.0,0.0
-0.028198176994919777,-0.05849176272749901,9.726603507995605,8.92376858697129e-05,0.006180042680218661,-0.000378128043122195,1.2941102981567383,2019-06-21 13:10:27:295,0.0,0.0,0.0
-0.021013928577303886,-0.041728515177965164,9.726603507995605,0.0010215716893232575,0.003383040580457477,-0.0010440808620952565,1.2999944686889648,2019-06-21 13:10:27:300,0.0,0.0,0.0
-0.01622442901134491,-0.07525500655174255,9.726603507995605,0.0011547622531178697,0.0076451386218850705,0.0018861116714233767,1.3050055503845215,2019-06-21 13:10:27:305,0.0,0.0,0.0
-0.05693517252802849,0.008561230264604092,9.779288291931152,0.0008883811255286454,0.005380899297450987,0.002152492799012601,1.3091115951538086,2019-06-21 13:10:27:310,0.0,0.0,0.0
-0.03059292770922184,-0.0848340094089508,9.72420883178711,0.0003556188378409054,0.004048993399430539,-0.0018432243749000928,1.3150033950805664,2019-06-21 13:10:27:315,0.0,0.0,0.0
-0.0234086774289608,-0.02496526576578617,9.78647232055664,0.0018207150720909312,0.003649421708046702,0.0008205870960478969,1.3191161155700684,2019-06-21 13:10:27:320,0.0,0.0,0.0
-0.011434929445385933,-0.048912763595581055,9.757735252380371,0.0019539056358855436,0.004848137042272538,-0.0006445091707114195,1.3250017166137695,2019-06-21 13:10:27:325,0.0,0.0,0.0
-0.03059292770922184,-0.08243925869464874,9.731393814086914,0.0019539056358855436,0.003782612271841314,0.0024188740566389883,1.329146385192871,2019-06-21 13:10:27:330,0.0,0.0,0.0
-0.03777717798948288,-0.05849176272749901,9.817604064941406,-0.0015090491528115383,0.0035162311442520897,-0.00024493746307293734,1.3350086212158203,2019-06-21 13:10:27:335,0.0,0.0,0.0
-0.03777717798948288,-0.06088650971651077,9.728999137878418,-0.0009762868976330894,0.0009856102370987122,-0.0007776997345060318,1.3391118049621582,2019-06-21 13:10:27:340,0.0,0.0,0.0
-0.03059292770922184,-0.03693901374936104,9.76252555847168,-0.00017714346610147965,0.008044710573343232,2.1443682802763245e-05,1.3449945449829102,2019-06-21 13:10:27:345,0.0,0.0,0.0
-0.03538242727518082,-0.03693901374936104,9.755340576171875,0.0054168602945454634,0.005913661552629436,-0.0018432243749000928,1.3491148948669434,2019-06-21 13:10:27:350,0.0,0.0,0.0
-0.025803428143262863,-0.06088650971651077,9.808025360107422,0.0008883811255286454,0.004848137042272538,-0.002242795936246767,1.3541145324707031,2019-06-21 13:10:27:355,0.0,0.0,0.0
-0.032987676560878754,-0.0848340094089508,9.748156547546387,-0.0015090491528115383,0.0017847536848849673,0.002152492799012601,1.3599929809570312,2019-06-21 13:10:27:360,0.0,0.0,0.0
-0.04256667569279671,-0.07764975726604462,9.709840774536133,0.0020870961996801557,0.005514089601171274,-0.0011772714258898686,1.364109992980957,2019-06-21 13:10:27:365,0.0,0.0,0.0
-0.028198176994919777,-0.05370226129889488,9.707446098327637,-0.001242668025222314,0.0041821839632251515,-0.0018432243749000928,1.3699994087219238,2019-06-21 13:10:27:370,0.0,0.0,0.0
-0.01622442901134491,-0.06807076185941696,9.70505142211914,0.0036853832252898284,0.006313232983938947,-0.0014436525534790934,1.3741731643676758,2019-06-21 13:10:27:375,0.0,0.0,0.0
-0.028198176994919777,-0.0393337644636631,9.776893615722656,-0.0007099057700438648,0.003915802835635926,0.004816304465016335,1.3791284561157227,2019-06-21 13:10:27:380,0.0,0.0,0.0
-0.061724673956632614,-0.04651801288127899,9.740972518920898,0.0038185737890844406,0.0049813273459928245,0.002152492799012601,1.3849992752075195,2019-06-21 13:10:27:385,0.0,0.0,0.0
-0.047356173396110535,-0.05370226129889488,9.784077644348145,-0.0007099057700438648,0.003383040580457477,0.0005542059684586724,1.3891143798828125,2019-06-21 13:10:27:390,0.0,0.0,0.0
-0.07130367308855057,-0.06088650971651077,9.743367195129395,0.004750907735646727,0.001251991429706518,0.0004210154046640601,1.3949975967407227,2019-06-21 13:10:27:395,0.0,0.0,0.0
-0.06411942094564438,-0.10399200767278671,9.796051979064941,0.0034190020977006037,0.0068459952391173974,0.0010869682236371214,1.3991127014160156,2019-06-21 13:10:27:400,0.0,0.0,0.0
-0.040171924978494644,-0.03693901374936104,9.755340576171875,0.0014211433807070943,0.005247708473582049,0.0012201588524503152,1.4050025939941406,2019-06-21 13:10:27:405,0.0,0.0,0.0
-0.06411942094564438,-0.03693901374936104,9.72420883178711,0.0020870961996801557,0.006180042680218661,0.0005542059684586724,1.4091176986694336,2019-06-21 13:10:27:410,0.0,0.0,0.0
-0.047356173396110535,-0.048912763595581055,9.767314910888672,-0.0009762868976330894,0.0017847536848849673,0.0001546342608201902,1.4141149520874023,2019-06-21 13:10:27:415,0.0,0.0,0.0
-0.04256667569279671,-0.041728515177965164,9.755340576171875,0.001287952816912482,0.0056472804250402115,-0.00011174689115100237,1.420003890991211,2019-06-21 13:10:27:420,0.0,0.0,0.0
-0.06411942094564438,-0.06328126043081284,9.755340576171875,-0.0005767152062492525,0.0068459952391173974,0.002685255184228213,1.4241256713867188,2019-06-21 13:10:27:425,0.0,0.0,0.0
-0.07369842380285263,-0.020175766199827194,9.712235450744629,0.0022202867634747683,0.008444282004652744,0.0002878248408694478,1.4299921989440918,2019-06-21 13:10:27:430,0.0,0.0,0.0
-0.05214567482471466,-0.0920182541012764,9.688287734985352,0.0008883811255286454,0.004848137042272538,0.0033512080032012744,1.4341144561767578,2019-06-21 13:10:27:435,0.0,0.0,0.0
-0.06651417165994644,-0.06328126043081284,9.743367195129395,0.005017288863235951,0.008444282004652744,-0.00011174689115100237,1.4399967193603516,2019-06-21 13:10:27:440,0.0,0.0,0.0
-0.11440916359424591,-0.0848340094089508,9.800841331481934,-0.00044352460994534954,0.004448565090814376,0.0002878248408694478,1.445002555847168,2019-06-21 13:10:27:445,0.0,0.0,0.0
-0.09046167135238647,-0.008202017284929752,9.757735252380371,0.0010215716893232575,0.006979186062986335,-0.0014436525534790934,1.4491090774536133,2019-06-21 13:10:27:450,0.0,0.0,0.0
-0.07369842380285263,-0.048912763595581055,9.772104263305664,0.001287952816912482,0.005780470728760498,0.0014865399800395396,1.4550018310546875,2019-06-21 13:10:27:455,0.0,0.0,0.0
-0.05932992324233055,-0.0920182541012764,9.779288291931152,0.002619858454858605,-0.00074586722226841,0.0036175891307904987,1.4591126441955566,2019-06-21 13:10:27:460,0.0,0.0,0.0
-0.07848791778087616,-0.06807076185941696,9.764920234680176,0.0010215716893232575,0.005247708473582049,-0.0009108902983006441,1.4650077819824219,2019-06-21 13:10:27:465,0.0,0.0,0.0
-0.07369842380285263,-0.0656760111451149,9.769709587097168,0.0019539056358855436,0.005247708473582049,0.005215875896325846,1.4691195487976074,2019-06-21 13:10:27:470,0.0,0.0,0.0
-0.08806692063808441,-0.0393337644636631,9.769709587097168,0.004084954916673665,0.002450706633895191,0.0010869682236371214,1.4749956130981445,2019-06-21 13:10:27:475,0.0,0.0,0.0
-0.0689089223742485,-0.06088650971651077,9.788866996765137,8.92376858697129e-05,0.0047149462184036,0.004017160822174336,1.4791154861450195,2019-06-21 13:10:27:480,0.0,0.0,0.0
-0.07369842380285263,-0.07286025583744049,9.73378849029541,0.004884098039367014,0.004315374527019763,0.005748638151504296,1.4850025177001953,2019-06-21 13:10:27:485,0.0,0.0,0.0
-0.09285642206668854,-0.07046551257371902,9.717024803161621,0.0022202867634747683,0.005380899297450987,-0.0006445091707114195,1.4891119003295898,2019-06-21 13:10:27:490,0.0,0.0,0.0
-0.0952511727809906,-0.005807267967611551,9.808025360107422,0.0023534773272693805,0.005780470728760498,0.0012201588524503152,1.4949989318847656,2019-06-21 13:10:27:495,0.0,0.0,0.0
-0.05932992324233055,-0.04651801288127899,9.731393814086914,-0.000843096333838477,0.004448565090814376,-0.0011772714258898686,1.4991168975830078,2019-06-21 13:10:27:500,0.0,0.0,0.0
-0.05932992324233055,-0.05370226129889488,9.740972518920898,0.001687524508296319,-0.00074586722226841,0.0012201588524503152,1.5049996376037598,2019-06-21 13:10:27:505,0.0,0.0,0.0
-0.09046167135238647,-0.029754765331745148,9.73378849029541,-0.002974145484589436,0.005247708473582049,0.0006873965322532847,1.509139060974121,2019-06-21 13:10:27:510,0.0,0.0,0.0
-0.032987676560878754,-0.06328126043081284,9.793657302856445,0.0024866678910639927,0.00298346888907364,0.0010869682236371214,1.515007495880127,2019-06-21 13:10:27:515,0.0,0.0,0.0
-0.054540425539016724,-0.05130751058459282,9.731393814086914,0.0010215716893232575,0.0068459952391173974,0.004816304465016335,1.5199928283691406,2019-06-21 13:10:27:520,0.0,0.0,0.0
-0.07130367308855057,-0.05370226129889488,9.743367195129395,0.0027530490186532175,0.001651563121090355,0.0008205870960478969,1.5241069793701172,2019-06-21 13:10:27:525,0.0,0.0,0.0
-0.03059292770922184,-0.08243925869464874,9.764920234680176,0.0003556188378409054,0.0072455671905755584,-0.005572560551260725,1.5300006866455078,2019-06-21 13:10:27:530,0.0,0.0,0.0
-0.047356173396110535,-0.01778101734817028,9.769709587097168,0.0018207150720909312,0.0019179442486795795,0.0002878248408694478,1.5350008010864258,2019-06-21 13:10:27:535,0.0,0.0,0.0
-0.047356173396110535,-0.041728515177965164,9.743367195129395,0.0024866678910639927,0.0035162311442520897,0.0004210154046640601,1.5391111373901367,2019-06-21 13:10:27:540,0.0,0.0,0.0
-0.047356173396110535,-0.05130751058459282,9.743367195129395,-0.00031033404615073726,0.007378757494295846,0.0001546342608201902,1.5449981689453125,2019-06-21 13:10:27:545,0.0,0.0,0.0
-0.05214567482471466,-0.07525500655174255,9.743367195129395,8.92376858697129e-05,0.004448565090814376,0.0032180174394066618,1.549117088317871,2019-06-21 13:10:27:550,0.0,0.0,0.0
-0.07369842380285263,-0.06088650971651077,9.776893615722656,0.00435133604426289,0.005780470728760498,0.0032180174394066618,1.5550260543823242,2019-06-21 13:10:27:555,0.0,0.0,0.0
-0.05932992324233055,-0.07525500655174255,9.721814155578613,-0.0011094774614277016,0.002717087761484416,0.0005542059684586724,1.559114933013916,2019-06-21 13:10:27:560,0.0,0.0,0.0
-0.040171924978494644,-0.09920250624418259,9.788866996765137,0.0035521926614952163,0.0017847536848849673,-0.003707892398061828,1.5649967193603516,2019-06-21 13:10:27:565,0.0,0.0,0.0
-0.047356173396110535,-0.041728515177965164,9.69547176361084,0.0006219999979394207,0.0064464238078078846,0.0018861116714233767,1.5691161155700684,2019-06-21 13:10:27:570,0.0,0.0,0.0
-0.0497509241104126,-0.0393337644636631,9.721814155578613,-0.000843096333838477,0.008977044779979845,0.0017529211076287644,1.5750007629394531,2019-06-21 13:10:27:575,0.0,0.0,0.0
-0.06411942094564438,-0.08004450798034668,9.772104263305664,-0.0005767152062492525,0.004048993399430539,0.0018861116714233767,1.579115867614746,2019-06-21 13:10:27:580,0.0,0.0,0.0
-0.021013928577303886,-0.0010177686344832182,9.77449893951416,0.0006219999979394207,0.0047149462184036,-0.000378128043122195,1.5849995613098145,2019-06-21 13:10:27:585,0.0,0.0,0.0
-0.013829679228365421,-0.05849176272749901,9.772104263305664,0.00435133604426289,0.0028502783252790285,0.00454992333742711,1.5891156196594238,2019-06-21 13:10:27:590,0.0,0.0,0.0
0.029275815933942795,-0.08243925869464874,9.796051979064941,-0.001775430280400763,0.0009856102370987122,0.0036175891307904987,1.5950298309326172,2019-06-21 13:10:27:595,0.0,0.0,0.0
-0.054540425539016724,-0.034544263035058975,9.69547176361084,-0.00017714346610147965,0.005514089601171274,0.0009537776598425092,1.599130630493164,2019-06-21 13:10:27:600,0.0,0.0,0.0
-0.03059292770922184,-0.0848340094089508,9.772104263305664,-0.00044352460994534954,0.0056472804250402115,0.0008205870960478969,1.6049957275390625,2019-06-21 13:10:27:605,0.0,0.0,0.0
-0.0952511727809906,-0.07286025583744049,9.772104263305664,0.0004888094016355178,0.004848137042272538,0.0006873965322532847,1.6091208457946777,2019-06-21 13:10:27:610,0.0,0.0,0.0
-0.061724673956632614,-0.03693901374936104,9.79126262664795,0.003951764352879053,0.008444282004652744,0.0006873965322532847,1.614121437072754,2019-06-21 13:10:27:615,0.0,0.0,0.0
-0.047356173396110535,-0.09680775552988052,9.78647232055664,0.003951764352879053,0.0064464238078078846,-0.0007776997345060318,1.6199913024902344,2019-06-21 13:10:27:620,0.0,0.0,0.0
-0.06651417165994644,-0.027360014617443085,9.673919677734375,0.003019430146242442,0.0035162311442520897,-0.0006445091707114195,1.6241064071655273,2019-06-21 13:10:27:625,0.0,0.0,0.0
-0.08567216992378235,-0.06088650971651077,9.712235450744629,0.00022242825779164786,0.006313232983938947,-0.002109605502489317,1.6299982070922852,2019-06-21 13:10:27:630,0.0,0.0,0.0
-0.04496142640709877,-0.07764975726604462,9.796051979064941,8.92376858697129e-05,0.008177900877063521,0.002152492799012601,1.6341171264648438,2019-06-21 13:10:27:635,0.0,0.0,0.0
-0.04256667569279671,-0.03693901374936104,9.731393814086914,-0.0015090491528115383,0.008444282004652744,0.0017529211076287644,1.6400089263916016,2019-06-21 13:10:27:640,0.0,0.0,0.0
-0.047356173396110535,-0.03214951604604721,9.779288291931152,0.004484526608057502,0.004315374527019763,0.002152492799012601,1.6441216468811035,2019-06-21 13:10:27:645,0.0,0.0,0.0
-0.03059292770922184,-0.05130751058459282,9.721814155578613,0.0014211433807070943,0.001651563121090355,0.0009537776598425092,1.6499929428100586,2019-06-21 13:10:27:650,0.0,0.0,0.0
-0.028198176994919777,-0.05849176272749901,9.784077644348145,0.0023534773272693805,0.006979186062986335,0.004683113641147397,1.654109001159668,2019-06-21 13:10:27:655,0.0,0.0,0.0
-0.05214567482471466,-0.03693901374936104,9.69547176361084,-0.0005767152062492525,0.006180042680218661,0.0001546342608201902,1.6600008010864258,2019-06-21 13:10:27:660,0.0,0.0,0.0
0.0005388186546042562,-0.027360014617443085,9.728999137878418,0.00435133604426289,0.004048993399430539,0.0032180174394066618,1.6650018692016602,2019-06-21 13:10:27:665,0.0,0.0,0.0
-0.0234086774289608,-0.06088650971651077,9.712235450744629,0.000755190561734033,0.0003196573856163601,0.00308482687561205,1.669112205505371,2019-06-21 13:10:27:670,0.0,0.0,0.0
-0.032987676560878754,-0.0393337644636631,9.709840774536133,0.0024866678910639927,0.0013851819935011304,0.002685255184228213,1.674997329711914,2019-06-21 13:10:27:675,0.0,0.0,0.0
-0.0234086774289608,-0.04412326216697693,9.760130882263184,0.0019539056358855436,0.0028502783252790285,0.0010869682236371214,1.6791176795959473,2019-06-21 13:10:27:680,0.0,0.0,0.0
-0.011434929445385933,-0.048912763595581055,9.697867393493652,0.0022202867634747683,0.003116659452868253,-0.00024493746307293734,1.6841754913330078,2019-06-21 13:10:27:685,0.0,0.0,0.0
-0.05214567482471466,-0.05849176272749901,9.73378849029541,0.005949623069872562,0.005780470728760498,0.0029516363118174374,1.6900014877319336,2019-06-21 13:10:27:690,0.0,0.0,0.0
-0.07369842380285263,-0.07525500655174255,9.664340019226074,0.000755190561734033,0.005514089601171274,0.0029516363118174374,1.6941089630126953,2019-06-21 13:10:27:695,0.0,0.0,0.0
-0.047356173396110535,-0.0656760111451149,9.719419479370117,-0.002308192665616375,0.004315374527019763,-0.0006445091707114195,1.699997901916504,2019-06-21 13:10:27:700,0.0,0.0,0.0
-0.07130367308855057,-0.06328126043081284,9.76252555847168,0.0018207150720909312,0.007112376366706621,-0.0005113186069168071,1.7050037384033203,2019-06-21 13:10:27:705,0.0,0.0,0.0
-0.07130367308855057,-0.0656760111451149,9.805630683898926,0.0020870961996801557,0.003915802835635926,-0.00024493746307293734,1.709111213684082,2019-06-21 13:10:27:710,0.0,0.0,0.0
-0.028198176994919777,-0.056097012013196945,9.748156547546387,0.0018207150720909312,0.00298346888907364,0.0014865399800395396,1.7150177955627441,2019-06-21 13:10:27:715,0.0,0.0,0.0
-0.032987676560878754,-0.048912763595581055,9.798446655273438,0.001287952816912482,0.0007192291095094877,0.0013533494162449274,1.7191176414489746,2019-06-21 13:10:27:720,0.0,0.0,0.0
-0.07130367308855057,-0.0848340094089508,9.740972518920898,0.0003556188378409054,-0.000213104918326025,0.0018861116714233767,1.725001335144043,2019-06-21 13:10:27:725,0.0,0.0,0.0
-0.04496142640709877,-0.09441300481557846,9.767314910888672,0.005150479166956239,0.002317516070100579,-0.001976414938694705,1.7291417121887207,2019-06-21 13:10:27:730,0.0,0.0,0.0
-0.06651417165994644,-0.06807076185941696,9.755340576171875,0.006216004197461787,0.0041821839632251515,-0.002109605502489317,1.7350025177001953,2019-06-21 13:10:27:735,0.0,0.0,0.0
-0.0234086774289608,-0.041728515177965164,9.769709587097168,0.0003556188378409054,0.0008524196733041,-0.00024493746307293734,1.739112377166748,2019-06-21 13:10:27:740,0.0,0.0,0.0
-0.04256667569279671,-0.05370226129889488,9.731393814086914,0.0003556188378409054,0.007511948318164784,-0.0017100338111054802,1.7449979782104492,2019-06-21 13:10:27:745,0.0,0.0,0.0
-0.03538242727518082,-0.06807076185941696,9.690682411193848,0.005017288863235951,0.003649421708046702,0.0012201588524503152,1.7491159439086914,2019-06-21 13:10:27:750,0.0,0.0,0.0
-0.04496142640709877,-0.04651801288127899,9.736183166503906,0.0024866678910639927,0.006579614111528172,-0.00011174689115100237,1.7550020217895508,2019-06-21 13:10:27:755,0.0,0.0,0.0
-0.07130367308855057,-0.06088650971651077,9.752945899963379,-0.00031033404615073726,0.004581755914683313,0.0014865399800395396,1.7591123580932617,2019-06-21 13:10:27:760,0.0,0.0,0.0
-0.061724673956632614,-0.07286025583744049,9.709840774536133,0.0027530490186532175,0.004448565090814376,0.0037507796945851113,1.7649993896484375,2019-06-21 13:10:27:765,0.0,0.0,0.0
-0.06411942094564438,-0.06807076185941696,9.693077087402344,-0.001775430280400763,0.005114518169861762,0.0014865399800395396,1.7691144943237305,2019-06-21 13:10:27:770,0.0,0.0,0.0
-0.054540425539016724,-0.0034125184174627066,9.721814155578613,-0.0027077643570002116,0.009509807035158293,2.1443682802763245e-05,1.7750415802001953,2019-06-21 13:10:27:775,0.0,0.0,0.0
-0.028198176994919777,-0.027360014617443085,9.726603507995605,0.000755190561734033,0.009376616731438006,0.0038839702583797235,1.7791261672973633,2019-06-21 13:10:27:780,0.0,0.0,0.0
-0.03777717798948288,-0.027360014617443085,9.769709587097168,0.0042181454804682775,0.006313232983938947,0.006015019279093521,1.784996509552002,2019-06-21 13:10:27:785,0.0,0.0,0.0
-0.021013928577303886,-0.056097012013196945,9.796051979064941,0.0015543339445017069,0.006579614111528172,0.0017529211076287644,1.7891159057617188,2019-06-21 13:10:27:790,0.0,0.0,0.0
-0.05693517252802849,-0.08243925869464874,9.755340576171875,-0.00031033404615073726,0.005780470728760498,-0.00024493746307293734,1.7950010299682617,2019-06-21 13:10:27:795,0.0,0.0,0.0
-0.061724673956632614,-0.0656760111451149,9.779288291931152,0.0027530490186532175,0.005114518169861762,0.0018861116714233767,1.7991113662719727,2019-06-21 13:10:27:800,0.0,0.0,0.0
-0.05214567482471466,-0.04412326216697693,9.764920234680176,0.0019539056358855436,0.005913661552629436,0.0017529211076287644,1.8049960136413574,2019-06-21 13:10:27:805,0.0,0.0,0.0
-0.0066454303450882435,-0.02496526576578617,9.671525001525879,0.00435133604426289,0.005514089601171274,-0.003041939579088766,1.8091163635253906,2019-06-21 13:10:27:810,0.0,0.0,0.0
-0.03538242727518082,-0.08004450798034668,9.752945899963379,0.0010215716893232575,0.002317516070100579,-0.0018432243749000928,1.8150219917297363,2019-06-21 13:10:27:815,0.0,0.0,0.0
-0.061724673956632614,-0.0393337644636631,9.72420883178711,0.003285811533905992,0.003116659452868253,-0.0038410829618564396,1.819139003753662,2019-06-21 13:10:27:820,0.0,0.0,0.0
-0.0234086774289608,-0.0656760111451149,9.8319730758667,0.0058164322460036244,0.003782612271841314,0.002685255184228213,1.8250088691711426,2019-06-21 13:10:27:825,0.0,0.0,0.0
-0.054540425539016724,-0.05849176272749901,9.707446098327637,0.004484526608057502,0.007112376366706621,0.0001546342608201902,1.8300161361694336,2019-06-21 13:10:27:830,0.0,0.0,0.0
-0.0497509241104126,-0.07525500655174255,9.810420036315918,0.0023534773272693805,0.0047149462184036,-0.0005113186069168071,1.8341150283813477,2019-06-21 13:10:27:835,0.0,0.0,0.0
-0.03538242727518082,-0.022570515051484108,9.760130882263184,0.00435133604426289,0.005913661552629436,0.001619730543834152,1.8399910926818848,2019-06-21 13:10:27:840,0.0,0.0,0.0
-0.04256667569279671,-0.041728515177965164,9.72420883178711,-0.0007099057700438648,0.003116659452868253,0.0014865399800395396,1.8441104888916016,2019-06-21 13:10:27:845,0.0,0.0,0.0
-0.06651417165994644,-0.06088650971651077,9.74576187133789,0.005150479166956239,0.0060468518563497236,0.00308482687561205,1.8499984741210938,2019-06-21 13:10:27:850,0.0,0.0,0.0
-0.05214567482471466,-0.05130751058459282,9.73378849029541,0.0014211433807070943,0.011907236663312663,0.0017529211076287644,1.854156494140625,2019-06-21 13:10:27:855,0.0,0.0,0.0
-0.07130367308855057,-0.029754765331745148,9.760130882263184,0.0028862395824478296,0.007378757494295846,-0.003574701834267215,1.8600435256958008,2019-06-21 13:10:27:860,0.0,0.0,0.0
-0.0497509241104126,-0.041728515177965164,9.685893058776855,-0.00017714346610147965,0.0072455671905755584,-0.0025091770638359916,1.864156723022461,2019-06-21 13:10:27:865,0.0,0.0,0.0
-0.0760931745171547,-0.06088650971651077,9.769709587097168,0.0023534773272693805,0.005913661552629436,0.002152492799012601,1.8699917793273926,2019-06-21 13:10:27:870,0.0,0.0,0.0
-0.03059292770922184,-0.07046551257371902,9.743367195129395,0.0003556188378409054,0.005247708473582049,-0.0006445091707114195,1.8741068840026855,2019-06-21 13:10:27:875,0.0,0.0,0.0
-0.054540425539016724,-0.01778101734817028,9.712235450744629,-0.00031033404615073726,0.004315374527019763,0.0018861116714233767,1.8799958229064941,2019-06-21 13:10:27:880,0.0,0.0,0.0
-0.021013928577303886,-0.03214951604604721,9.752945899963379,0.0014211433807070943,0.0049813273459928245,0.002685255184228213,1.8841066360473633,2019-06-21 13:10:27:885,0.0,0.0,0.0
-0.04256667569279671,-0.05849176272749901,9.719419479370117,0.004750907735646727,0.004581755914683313,0.0022856834928443757,1.8899860382080078,2019-06-21 13:10:27:890,0.0,0.0,0.0
-0.032987676560878754,-0.05849176272749901,9.707446098327637,0.0023534773272693805,0.0035162311442520897,-0.003175130142883378,1.89410400390625,2019-06-21 13:10:27:895,0.0,0.0,0.0
-0.03538242727518082,-0.03693901374936104,9.750551223754883,-0.0027077643570002116,0.003782612271841314,-0.0034415112704726026,1.899998664855957,2019-06-21 13:10:27:900,0.0,0.0,0.0
-0.08327741920948029,-0.048912763595581055,9.784077644348145,0.003019430146242442,0.0049813273459928245,-0.001310461989684481,1.9041118621826172,2019-06-21 13:10:27:905,0.0,0.0,0.0
-0.0689089223742485,-0.05370226129889488,9.74576187133789,0.0028862395824478296,0.0076451386218850705,0.004416732513558173,1.9100217819213867,2019-06-21 13:10:27:910,0.0,0.0,0.0
-0.06651417165994644,-0.06328126043081284,9.752945899963379,0.0011547622531178697,0.0028502783252790285,-0.0011772714258898686,1.9141120910644531,2019-06-21 13:10:27:915,0.0,0.0,0.0
-0.032987676560878754,-0.041728515177965164,9.726603507995605,0.0010215716893232575,0.0013851819935011304,0.0024188740566389883,1.9199953079223633,2019-06-21 13:10:27:920,0.0,0.0,0.0
-0.07369842380285263,-0.07286025583744049,9.769709587097168,0.0006219999979394207,0.004848137042272538,-0.0011772714258898686,1.9241108894348145,2019-06-21 13:10:27:925,0.0,0.0,0.0
-0.07130367308855057,-0.0656760111451149,9.79126262664795,-0.0011094774614277016,0.0047149462184036,0.002685255184228213,1.929997444152832,2019-06-21 13:10:27:930,0.0,0.0,0.0
-0.06651417165994644,-0.005807267967611551,9.772104263305664,0.0004888094016355178,0.007112376366706621,-0.001310461989684481,1.9341087341308594,2019-06-21 13:10:27:935,0.0,0.0,0.0
-0.07848791778087616,-0.06807076185941696,9.769709587097168,0.00022242825779164786,0.0011188008659119059,-0.0027755584514995413,1.9399919509887695,2019-06-21 13:10:27:940,0.0,0.0,0.0
-0.0689089223742485,-0.041728515177965164,9.769709587097168,0.0008883811255286454,0.006313232983938947,-0.0006445091707114195,1.9450058937072754,2019-06-21 13:10:27:945,0.0,0.0,0.0
-0.08567216992378235,-0.05849176272749901,9.637998580932617,0.0014211433807070943,0.008311091700932456,0.0037507796945851113,1.9491491317749023,2019-06-21 13:10:27:950,0.0,0.0,0.0
-0.06651417165994644,-0.05130751058459282,9.796051979064941,-0.0037732888673571103,0.0047149462184036,0.00548225702391507,1.9541349411010742,2019-06-21 13:10:27:955,0.0,0.0,0.0
-0.0689089223742485,-0.041728515177965164,9.841551780700684,0.0038185737890844406,0.005114518169861762,0.002152492799012601,1.9599919319152832,2019-06-21 13:10:27:960,0.0,0.0,0.0
-0.018619179725646973,-0.06088650971651077,9.767314910888672,0.0046177169117777896,0.007511948318164784,0.002152492799012601,1.9641103744506836,2019-06-21 13:10:27:965,0.0,0.0,0.0
-0.03538242727518082,-0.056097012013196945,9.738577842712402,-0.000843096333838477,0.002450706633895191,0.002019302235217989,1.970001220703125,2019-06-21 13:10:27:970,0.0,0.0,0.0
-0.06651417165994644,-0.05849176272749901,9.700262069702148,0.0019539056358855436,0.0021843255063059668,0.004150351385968948,1.9741134643554688,2019-06-21 13:10:27:975,0.0,0.0,0.0
-0.028198176994919777,-0.027360014617443085,9.764920234680176,0.0015543339445017069,0.0032498500166628654,-0.00011174689115100237,1.9799919128417969,2019-06-21 13:10:27:980,0.0,0.0,0.0
-0.08088266849517822,-0.03693901374936104,9.764920234680176,0.00022242825779164786,0.003383040580457477,-0.0014436525534790934,1.9841113090515137,2019-06-21 13:10:27:985,0.0,0.0,0.0
-0.05214567482471466,-0.027360014617443085,9.688287734985352,0.004484526608057502,0.009776187642598867,0.0002878248408694478,1.989999771118164,2019-06-21 13:10:27:990,0.0,0.0,0.0
-0.047356173396110535,-0.027360014617443085,9.748156547546387,-0.0015090491528115383,0.0072455671905755584,-0.00024493746307293734,1.9941492080688477,2019-06-21 13:10:27:995,0.0,0.0,0.0
-0.028198176994919777,-0.056097012013196945,9.712235450744629,0.0019539056358855436,0.008843854476259556,0.0009537776598425092,2.000004768371582,2019-06-21 13:10:28:000,0.0,0.0,0.0
-0.07848791778087616,-0.06088650971651077,9.714630126953125,-0.00044352460994534954,0.0060468518563497236,0.0032180174394066618,2.0041112899780273,2019-06-21 13:10:28:005,0.0,0.0,0.0
-0.03538242727518082,-0.09680775552988052,9.73378849029541,-0.002840954920794824,0.004048993399430539,-0.001310461989684481,2.010000228881836,2019-06-21 13:10:28:010,0.0,0.0,0.0
-0.0689089223742485,-0.10159725695848465,9.769709587097168,0.0006219999979394207,0.003116659452868253,0.001619730543834152,2.0141348838806152,2019-06-21 13:10:28:015,0.0,0.0,0.0
-0.009040179662406445,-0.08962351083755493,9.74576187133789,0.0028862395824478296,0.0032498500166628654,-0.003175130142883378,2.0199942588806152,2019-06-21 13:10:28:020,0.0,0.0,0.0
-0.025803428143262863,-0.10638675838708878,9.764920234680176,0.003285811533905992,0.008177900877063521,0.004816304465016335,2.024110794067383,2019-06-21 13:10:28:025,0.0,0.0,0.0
-0.05693517252802849,-0.03693901374936104,9.767314910888672,0.0034190020977006037,0.0005860385457148754,-0.003041939579088766,2.0300040245056152,2019-06-21 13:10:28:030,0.0,0.0,0.0
-0.013829679228365421,-0.022570515051484108,9.719419479370117,0.0004888094016355178,0.005247708473582049,0.0034843985669958865,2.0341148376464844,2019-06-21 13:10:28:035,0.0,0.0,0.0
-0.05693517252802849,-0.048912763595581055,9.757735252380371,0.0031526207100370544,0.003383040580457477,0.0028184457480228253,2.04000186920166,2019-06-21 13:10:28:040,0.0,0.0,0.0
-0.05693517252802849,-0.08722876012325287,9.769709587097168,0.0006219999979394207,0.00671280493539711,-0.00024493746307293734,2.0441198348999023,2019-06-21 13:10:28:045,0.0,0.0,0.0
-0.04256667569279671,-0.05370226129889488,9.743367195129395,0.004484526608057502,0.004048993399430539,0.002685255184228213,2.0499935150146484,2019-06-21 13:10:28:050,0.0,0.0,0.0
-0.05693517252802849,-0.05849176272749901,9.748156547546387,-0.0031073360483840485,0.0021843255063059668,0.0025520646204336005,2.0541110038757324,2019-06-21 13:10:28:055,0.0,0.0,0.0
-0.047356173396110535,-0.05849176272749901,9.697867393493652,8.92376858697129e-05,0.006579614111528172,-0.0018432243749000928,2.059999465942383,2019-06-21 13:10:28:060,0.0,0.0,0.0
-0.07848791778087616,-0.06328126043081284,9.721814155578613,0.0010215716893232575,0.008444282004652744,0.007080543789450418,2.06500244140625,2019-06-21 13:10:28:065,0.0,0.0,0.0
-0.0497509241104126,-0.04651801288127899,9.700262069702148,0.0018207150720909312,0.0015183725572957428,-0.0011772714258898686,2.069112777709961,2019-06-21 13:10:28:070,0.0,0.0,0.0
-0.0066454303450882435,-0.05849176272749901,9.769709587097168,0.005550051118414401,0.003649421708046702,0.002152492799012601,2.075000762939453,2019-06-21 13:10:28:075,0.0,0.0,0.0
-0.028198176994919777,-0.056097012013196945,9.79126262664795,-0.000843096333838477,0.0056472804250402115,0.0024188740566389883,2.0791168212890625,2019-06-21 13:10:28:080,0.0,0.0,0.0
-0.047356173396110535,-0.048912763595581055,9.760130882263184,0.0031526207100370544,0.006180042680218661,0.0025520646204336005,2.0850305557250977,2019-06-21 13:10:28:085,0.0,0.0,0.0
-0.03538242727518082,-0.03693901374936104,9.781682968139648,0.004084954916673665,0.0047149462184036,0.00428354194976356,2.0891170501708984,2019-06-21 13:10:28:090,0.0,0.0,0.0
-0.04256667569279671,-0.05849176272749901,9.731393814086914,0.0020870961996801557,0.006180042680218661,0.0004210154046640601,2.0949954986572266,2019-06-21 13:10:28:095,0.0,0.0,0.0
-0.05214567482471466,-0.07286025583744049,9.707446098327637,0.0018207150720909312,0.004315374527019763,0.0006873965322532847,2.099118232727051,2019-06-21 13:10:28:100,0.0,0.0,0.0
-0.0234086774289608,-0.06328126043081284,9.767314910888672,0.003285811533905992,0.004581755914683313,0.00308482687561205,2.1049985885620117,2019-06-21 13:10:28:105,0.0,0.0,0.0
-0.047356173396110535,-0.0034125184174627066,9.738577842712402,-0.0005767152062492525,0.006313232983938947,0.0014865399800395396,2.109992027282715,2019-06-21 13:10:28:110,0.0,0.0,0.0
-0.03538242727518082,-0.015386266633868217,9.70505142211914,0.0024866678910639927,0.006180042680218661,0.0002878248408694478,2.1141319274902344,2019-06-21 13:10:28:115,0.0,0.0,0.0
-0.04496142640709877,-0.07525500655174255,9.74576187133789,0.000755190561734033,0.007112376366706621,-0.0025091770638359916,2.120001792907715,2019-06-21 13:10:28:120,0.0,0.0,0.0
-0.054540425539016724,-0.022570515051484108,9.738577842712402,0.0024866678910639927,0.0032498500166628654,0.0028184457480228253,2.124112129211426,2019-06-21 13:10:28:125,0.0,0.0,0.0
-0.03059292770922184,-0.07286025583744049,9.72420883178711,-0.0013758585890169264,0.003383040580457477,-0.0017100338111054802,2.1300220489501953,2019-06-21 13:10:28:130,0.0,0.0,0.0
-0.032987676560878754,-0.05849176272749901,9.65476131439209,0.0046177169117777896,0.0060468518563497236,0.0002878248408694478,2.1341166496276855,2019-06-21 13:10:28:135,0.0,0.0,0.0
-0.06651417165994644,-0.0920182541012764,9.757735252380371,0.0023534773272693805,0.008044710573343232,0.0018861116714233767,2.1399917602539062,2019-06-21 13:10:28:140,0.0,0.0,0.0
-0.0760931745171547,-0.08004450798034668,9.702656745910645,0.0023534773272693805,0.0005860385457148754,0.0009537776598425092,2.1441097259521484,2019-06-21 13:10:28:145,0.0,0.0,0.0
-0.0497509241104126,-0.09680775552988052,9.719419479370117,0.0019539056358855436,0.005913661552629436,0.0004210154046640601,2.149996280670166,2019-06-21 13:10:28:150,0.0,0.0,0.0
-0.06651417165994644,-0.0393337644636631,9.755340576171875,0.0035521926614952163,0.006313232983938947,0.0036175891307904987,2.154111862182617,2019-06-21 13:10:28:155,0.0,0.0,0.0
-0.07369842380285263,-0.05370226129889488,9.752945899963379,0.0019539056358855436,0.004581755914683313,-0.002109605502489317,2.1599912643432617,2019-06-21 13:10:28:160,0.0,0.0,0.0
-0.05693517252802849,-0.07525500655174255,9.714630126953125,0.0008883811255286454,0.004581755914683313,0.0013533494162449274,2.1641101837158203,2019-06-21 13:10:28:165,0.0,0.0,0.0
-0.05214567482471466,-0.05849176272749901,9.776893615722656,-0.0025745737932055994,0.001651563121090355,0.0002878248408694478,2.1700620651245117,2019-06-21 13:10:28:170,0.0,0.0,0.0
-0.0689089223742485,-0.048912763595581055,9.750551223754883,-0.0005767152062492525,0.004848137042272538,0.0036175891307904987,2.1741323471069336,2019-06-21 13:10:28:175,0.0,0.0,0.0
-0.08327741920948029,-0.07764975726604462,9.769709587097168,0.0024866678910639927,0.00298346888907364,-0.0034415112704726026,2.1799964904785156,2019-06-21 13:10:28:180,0.0,0.0,0.0
-0.061724673956632614,-0.09920250624418259,9.707446098327637,0.0028862395824478296,0.0047149462184036,0.0013533494162449274,2.1841111183166504,2019-06-21 13:10:28:185,0.0,0.0,0.0
-0.061724673956632614,-0.06807076185941696,9.764920234680176,0.0014211433807070943,0.00298346888907364,-0.0011772714258898686,2.190000534057617,2019-06-21 13:10:28:190,0.0,0.0,0.0
-0.08806692063808441,-0.06807076185941696,9.74576187133789,-0.000843096333838477,0.0047149462184036,0.002152492799012601,2.1941146850585938,2019-06-21 13:10:28:195,0.0,0.0,0.0
-0.04496142640709877,-0.08004450798034668,9.755340576171875,0.0014211433807070943,0.005247708473582049,-0.00011174689115100237,2.199991226196289,2019-06-21 13:10:28:200,0.0,0.0,0.0
-0.028198176994919777,-0.07286025583744049,9.709840774536133,-0.00017714346610147965,0.0060468518563497236,-0.0010440808620952565,2.2041101455688477,2019-06-21 13:10:28:205,0.0,0.0,0.0
-0.04256667569279671,-0.06088650971651077,9.78647232055664,-0.0005767152062492525,0.0028502783252790285,-0.00011174689115100237,2.210000991821289,2019-06-21 13:10:28:210,0.0,0.0,0.0
-0.047356173396110535,-0.08722876012325287,9.731393814086914,0.001287952816912482,0.003915802835635926,-0.002642367627630604,2.2150325775146484,2019-06-21 13:10:28:215,0.0,0.0,0.0
-0.061724673956632614,-0.06328126043081284,9.73378849029541,-0.001642239716606151,5.327622958150625e-05,2.1443682802763245e-05,2.219120979309082,2019-06-21 13:10:28:220,0.0,0.0,0.0
-0.04256667569279671,-0.022570515051484108,9.738577842712402,-0.0019086208441953755,0.004448565090814376,0.0012201588524503152,2.224996566772461,2019-06-21 13:10:28:225,0.0,0.0,0.0
-0.05214567482471466,-0.07764975726604462,9.796051979064941,-0.0035069077397678855,0.0056472804250402115,-0.004373845217034889,2.2291150093078613,2019-06-21 13:10:28:230,0.0,0.0,0.0
-0.05214567482471466,-0.07286025583744049,9.760130882263184,-0.00017714346610147965,0.0064464238078078846,0.002152492799012601,2.2341251373291016,2019-06-21 13:10:28:235,0.0,0.0,0.0
-0.03538242727518082,-0.06088650971651077,9.74576187133789,0.0036853832252898284,0.006979186062986335,0.004683113641147397,2.239992141723633,2019-06-21 13:10:28:240,0.0,0.0,0.0
-0.03538242727518082,-0.0656760111451149,9.726603507995605,0.0011547622531178697,0.0020511348124741917,0.0004210154046640601,2.244999408721924,2019-06-21 13:10:28:245,0.0,0.0,0.0
-0.07369842380285263,-0.10159725695848465,9.798446655273438,0.0008883811255286454,-0.0014118201062600529,-0.0005113186069168071,2.249119758605957,2019-06-21 13:10:28:250,0.0,0.0,0.0
-0.025803428143262863,-0.0656760111451149,9.750551223754883,-0.000843096333838477,0.004315374527019763,0.00308482687561205,2.255000591278076,2019-06-21 13:10:28:255,0.0,0.0,0.0
-0.08088266849517822,-0.10638675838708878,9.697867393493652,-0.002974145484589436,0.004048993399430539,0.0014865399800395396,2.259119987487793,2019-06-21 13:10:28:260,0.0,0.0,0.0
-0.0234086774289608,-0.05849176272749901,9.752945899963379,0.003951764352879053,0.007778329445754008,0.0025520646204336005,2.265010356903076,2019-06-21 13:10:28:265,0.0,0.0,0.0
-0.07130367308855057,-0.05370226129889488,9.738577842712402,0.0028862395824478296,0.0076451386218850705,-0.0006445091707114195,2.2691173553466797,2019-06-21 13:10:28:270,0.0,0.0,0.0
-0.0497509241104126,-0.09441300481557846,9.738577842712402,0.001687524508296319,0.0008524196733041,0.006148210102962458,2.274998188018799,2019-06-21 13:10:28:275,0.0,0.0,0.0
-0.05693517252802849,-0.05849176272749901,9.752945899963379,0.000755190561734033,0.002317516070100579,0.0036175891307904987,2.279116153717041,2019-06-21 13:10:28:280,0.0,0.0,0.0
-0.047356173396110535,-0.041728515177965164,9.681103706359863,0.0024866678910639927,0.0021843255063059668,0.00428354194976356,2.2850046157836914,2019-06-21 13:10:28:285,0.0,0.0,0.0
-0.018619179725646973,-0.06328126043081284,9.748156547546387,-0.0013758585890169264,0.0049813273459928245,0.0012201588524503152,2.2891135215759277,2019-06-21 13:10:28:290,0.0,0.0,0.0
-0.0018559310119599104,-0.05849176272749901,9.772104263305664,0.0046177169117777896,0.006979186062986335,-0.0015768431172737056,2.2950000762939453,2019-06-21 13:10:28:295,0.0,0.0,0.0
-0.05693517252802849,-0.027360014617443085,9.635603904724121,0.0027530490186532175,0.004315374527019763,-0.0009108902983006441,2.299118995666504,2019-06-21 13:10:28:300,0.0,0.0,0.0
-0.054540425539016724,-0.0848340094089508,9.673919677734375,0.0022202867634747683,0.008177900877063521,0.0010869682236371214,2.304142475128174,2019-06-21 13:10:28:305,0.0,0.0,0.0
-0.06411942094564438,-0.05849176272749901,9.738577842712402,-0.0013758585890169264,0.003649421708046702,0.0017529211076287644,2.309999465942383,2019-06-21 13:10:28:310,0.0,0.0,0.0
-0.025803428143262863,-0.0848340094089508,9.700262069702148,0.0006219999979394207,0.0049813273459928245,0.0037507796945851113,2.3150219917297363,2019-06-21 13:10:28:315,0.0,0.0,0.0
-0.03059292770922184,-0.05370226129889488,9.841551780700684,0.0003556188378409054,0.0007192291095094877,-0.002242795936246767,2.3191184997558594,2019-06-21 13:10:28:320,0.0,0.0,0.0
-0.03777717798948288,-0.05130751058459282,9.74576187133789,-0.0036400983035624977,0.004448565090814376,-0.001976414938694705,2.3249998092651367,2019-06-21 13:10:28:325,0.0,0.0,0.0
-0.01622442901134491,-0.0393337644636631,9.740972518920898,0.0018207150720909312,0.003915802835635926,-0.0011772714258898686,2.3299951553344727,2019-06-21 13:10:28:330,0.0,0.0,0.0
-0.05214567482471466,-0.06807076185941696,9.717024803161621,0.0004888094016355178,0.005913661552629436,0.0032180174394066618,2.334111213684082,2019-06-21 13:10:28:335,0.0,0.0,0.0
-0.05932992324233055,-0.08243925869464874,9.784077644348145,0.0008883811255286454,0.001251991429706518,-0.006238513110159461,2.3400020599365234,2019-06-21 13:10:28:340,0.0,0.0,0.0
-0.011434929445385933,-0.07286025583744049,9.800841331481934,0.0014211433807070943,0.003915802835635926,-0.0009108902983006441,2.344113349914551,2019-06-21 13:10:28:345,0.0,0.0,0.0
-0.01622442901134491,-0.056097012013196945,9.776893615722656,0.0038185737890844406,0.0056472804250402115,0.001619730543834152,2.3500232696533203,2019-06-21 13:10:28:350,0.0,0.0,0.0
-0.05693517252802849,-0.01778101734817028,9.764920234680176,-0.0011094774614277016,0.0049813273459928245,0.0008205870960478969,2.3550052642822266,2019-06-21 13:10:28:355,0.0,0.0,0.0
-0.03059292770922184,-0.06807076185941696,9.70505142211914,0.004084954916673665,0.0060468518563497236,0.0014865399800395396,2.3591127395629883,2019-06-21 13:10:28:360,0.0,0.0,0.0
-0.040171924978494644,-0.056097012013196945,9.690682411193848,0.000755190561734033,0.003649421708046702,0.0038839702583797235,2.3649959564208984,2019-06-21 13:10:28:365,0.0,0.0,0.0
-0.032987676560878754,-0.06088650971651077,9.700262069702148,0.004484526608057502,0.0017847536848849673,0.0025520646204336005,2.3691177368164062,2019-06-21 13:10:28:370,0.0,0.0,0.0
-0.013829679228365421,-0.05130751058459282,9.760130882263184,0.0027530490186532175,0.006313232983938947,0.0009537776598425092,2.375002384185791,2019-06-21 13:10:28:375,0.0,0.0,0.0
-0.011434929445385933,-0.056097012013196945,9.776893615722656,0.0024866678910639927,0.005913661552629436,0.0024188740566389883,2.3791112899780273,2019-06-21 13:10:28:380,0.0,0.0,0.0
-0.04496142640709877,-0.06088650971651077,9.726603507995605,0.003285811533905992,0.007511948318164784,0.0022856834928443757,2.3849973678588867,2019-06-21 13:10:28:385,0.0,0.0,0.0
-0.040171924978494644,-0.09680775552988052,9.810420036315918,0.0006219999979394207,0.008577472828521681,-0.0011772714258898686,2.3891377449035645,2019-06-21 13:10:28:390,0.0,0.0,0.0
-0.05932992324233055,-0.03214951604604721,9.714630126953125,0.0036853832252898284,0.008444282004652744,-0.0007776997345060318,2.394130229949951,2019-06-21 13:10:28:395,0.0,0.0,0.0
-0.06651417165994644,-0.07764975726604462,9.709840774536133,0.0006219999979394207,0.0032498500166628654,-0.000378128043122195,2.399986743927002,2019-06-21 13:10:28:400,0.0,0.0,0.0
-0.047356173396110535,-0.07764975726604462,9.781682968139648,0.001687524508296319,0.003649421708046702,0.006148210102962458,2.404998779296875,2019-06-21 13:10:28:405,0.0,0.0,0.0
-0.021013928577303886,-0.05130751058459282,9.74576187133789,0.0014211433807070943,0.0007192291095094877,0.0004210154046640601,2.409118175506592,2019-06-21 13:10:28:410,0.0,0.0,0.0
-0.054540425539016724,-0.09680775552988052,9.779288291931152,0.0022202867634747683,0.009243425387420418,0.0008205870960478969,2.4150238037109375,2019-06-21 13:10:28:415,0.0,0.0,0.0
0.012512567453086376,-0.06328126043081284,9.736183166503906,-0.0005767152062492525,0.002717087761484416,-0.0023759865000413795,2.4191160202026367,2019-06-21 13:10:28:420,0.0,0.0,0.0
-0.06411942094564438,-0.0656760111451149,9.74576187133789,0.0014211433807070943,0.002717087761484416,0.0012201588524503152,2.4249982833862305,2019-06-21 13:10:28:425,0.0,0.0,0.0
-0.08088266849517822,-0.03214951604604721,9.721814155578613,8.92376858697129e-05,0.0041821839632251515,-0.0007776997345060318,2.4291152954101562,2019-06-21 13:10:28:430,0.0,0.0,0.0
-0.032987676560878754,-0.06807076185941696,9.661945343017578,-0.001242668025222314,0.002717087761484416,-0.003974273525651052,2.435018539428711,2019-06-21 13:10:28:435,0.0,0.0,0.0
-0.04256667569279671,-0.09441300481557846,9.750551223754883,0.0038185737890844406,0.00298346888907364,0.0004210154046640601,2.4391212463378906,2019-06-21 13:10:28:440,0.0,0.0,0.0
-0.03777717798948288,-0.02496526576578617,9.721814155578613,0.004084954916673665,0.0068459952391173974,0.004017160822174336,2.4449987411499023,2019-06-21 13:10:28:445,0.0,0.0,0.0
-0.03538242727518082,-0.07046551257371902,9.743367195129395,-0.0005767152062492525,0.005247708473582049,-0.003707892398061828,2.4491167068481445,2019-06-21 13:10:28:450,0.0,0.0,0.0
-0.021013928577303886,-0.03214951604604721,9.69547176361084,-0.0025745737932055994,0.005247708473582049,0.0028184457480228253,2.4549989700317383,2019-06-21 13:10:28:455,0.0,0.0,0.0
-0.0760931745171547,-0.02496526576578617,9.750551223754883,-0.003906479431151722,0.003116659452868253,0.00428354194976356,2.459113121032715,2019-06-21 13:10:28:460,0.0,0.0,0.0
-0.018619179725646973,-0.056097012013196945,9.748156547546387,0.004884098039367014,0.004448565090814376,-0.0009108902983006441,2.465001106262207,2019-06-21 13:10:28:465,0.0,0.0,0.0
-0.054540425539016724,-0.07046551257371902,9.740972518920898,-0.0020418114079899874,0.003782612271841314,-0.0034415112704726026,2.4691152572631836,2019-06-21 13:10:28:470,0.0,0.0,0.0
0.005328318104147911,-0.029754765331745148,9.736183166503906,-0.001242668025222314,0.006313232983938947,-0.002109605502489317,2.474997043609619,2019-06-21 13:10:28:475,0.0,0.0,0.0
-0.0234086774289608,-0.0393337644636631,9.788866996765137,-0.0005767152062492525,0.007911519749474296,-0.0010440808620952565,2.4791622161865234,2019-06-21 13:10:28:480,0.0,0.0,0.0
-0.054540425539016724,-0.02496526576578617,9.70505142211914,0.0018207150720909312,0.006313232983938947,-0.0033083207066779904,2.4841322898864746,2019-06-21 13:10:28:485,0.0,0.0,0.0
-0.05932992324233055,-0.027360014617443085,9.717024803161621,0.003019430146242442,0.0028502783252790285,-0.003574701834267215,2.489993095397949,2019-06-21 13:10:28:490,0.0,0.0,0.0
-0.054540425539016724,-0.056097012013196945,9.740972518920898,0.0014211433807070943,0.0008524196733041,0.004816304465016335,2.494110107421875,2019-06-21 13:10:28:495,0.0,0.0,0.0
-0.011434929445385933,-0.056097012013196945,9.700262069702148,0.0006219999979394207,0.0008524196733041,-0.001310461989684481,2.4999990463256836,2019-06-21 13:10:28:500,0.0,0.0,0.0
-0.0234086774289608,-0.03693901374936104,9.793657302856445,0.0006219999979394207,0.003915802835635926,0.0025520646204336005,2.5041160583496094,2019-06-21 13:10:28:505,0.0,0.0,0.0
-0.03538242727518082,-0.04651801288127899,9.817604064941406,0.000755190561734033,0.0035162311442520897,-0.0015768431172737056,2.5099925994873047,2019-06-21 13:10:28:510,0.0,0.0,0.0
-0.07130367308855057,-0.034544263035058975,9.757735252380371,-0.002974145484589436,0.004581755914683313,-0.001310461989684481,2.5150041580200195,2019-06-21 13:10:28:515,0.0,0.0,0.0
-0.03777717798948288,-0.03693901374936104,9.700262069702148,-0.00031033404615073726,0.005913661552629436,0.002685255184228213,2.5191173553466797,2019-06-21 13:10:28:520,0.0,0.0,0.0
-0.09285642206668854,-0.05849176272749901,9.72420883178711,-0.00017714346610147965,0.0020511348124741917,0.005615447847784009,2.525045394897461,2019-06-21 13:10:28:525,0.0,0.0,0.0
-0.047356173396110535,-0.0656760111451149,9.738577842712402,0.00022242825779164786,0.004448565090814376,-0.003974273525651052,2.5291290283203125,2019-06-21 13:10:28:530,0.0,0.0,0.0
-0.05932992324233055,-0.07046551257371902,9.700262069702148,0.0019539056358855436,0.0076451386218850705,-0.005039798296082276,2.5349960327148438,2019-06-21 13:10:28:535,0.0,0.0,0.0
-0.09764591604471207,-0.04651801288127899,9.755340576171875,-0.0011094774614277016,0.00298346888907364,0.0028184457480228253,2.539116859436035,2019-06-21 13:10:28:540,0.0,0.0,0.0
-0.09285642206668854,-0.0656760111451149,9.779288291931152,-0.001242668025222314,0.010841712152955764,-0.001976414938694705,2.5450000762939453,2019-06-21 13:10:28:545,0.0,0.0,0.0
-0.0952511727809906,-0.0393337644636631,9.697867393493652,0.005550051118414401,0.0013851819935011304,0.00308482687561205,2.5491151809692383,2019-06-21 13:10:28:550,0.0,0.0,0.0
-0.1479356586933136,-0.08962351083755493,9.740972518920898,0.002619858454858605,0.0003196573856163601,-0.0006445091707114195,2.5550012588500977,2019-06-21 13:10:28:555,0.0,0.0,0.0
-0.0689089223742485,-0.027360014617443085,9.738577842712402,-0.000843096333838477,0.004581755914683313,-0.0014436525534790934,2.5600032806396484,2019-06-21 13:10:28:560,0.0,0.0,0.0
-0.06651417165994644,-0.10878150165081024,9.781682968139648,0.0015543339445017069,0.001651563121090355,0.004150351385968948,2.564114570617676,2019-06-21 13:10:28:565,0.0,0.0,0.0
-0.10004066675901413,-0.03693901374936104,9.693077087402344,0.0035521926614952163,0.0047149462184036,2.1443682802763245e-05,2.5700440406799316,2019-06-21 13:10:28:570,0.0,0.0,0.0
-0.11201442033052444,-0.09920250624418259,9.784077644348145,-0.00017714346610147965,0.0056472804250402115,-0.0006445091707114195,2.574130058288574,2019-06-21 13:10:28:575,0.0,0.0,0.0
-0.0760931745171547,-0.041728515177965164,9.717024803161621,0.0022202867634747683,0.003915802835635926,-0.0018432243749000928,2.579996109008789,2019-06-21 13:10:28:580,0.0,0.0,0.0
-0.05693517252802849,-0.06807076185941696,9.743367195129395,0.0022202867634747683,0.0019179442486795795,0.002685255184228213,2.5841121673583984,2019-06-21 13:10:28:585,0.0,0.0,0.0
-0.10004066675901413,-0.05130751058459282,9.779288291931152,0.004484526608057502,0.004315374527019763,0.0029516363118174374,2.589999198913574,2019-06-21 13:10:28:590,0.0,0.0,0.0
-0.08088266849517822,-0.07525500655174255,9.805630683898926,-0.0015090491528115383,0.0049813273459928245,0.0034843985669958865,2.5941152572631836,2019-06-21 13:10:28:595,0.0,0.0,0.0
-0.032987676560878754,-0.008202017284929752,9.788866996765137,0.0015543339445017069,0.0068459952391173974,0.007879687172218092,2.599989891052246,2019-06-21 13:10:28:600,0.0,0.0,0.0
-0.06411942094564438,-0.056097012013196945,9.757735252380371,-0.00017714346610147965,0.007911519749474296,0.0018861116714233767,2.604111671447754,2019-06-21 13:10:28:605,0.0,0.0,0.0
-0.08567216992378235,-0.041728515177965164,9.717024803161621,0.001287952816912482,0.005780470728760498,0.00454992333742711,2.610002040863037,2019-06-21 13:10:28:610,0.0,0.0,0.0
-0.10483016818761826,-0.034544263035058975,9.70505142211914,0.0038185737890844406,0.0007192291095094877,0.0036175891307904987,2.6141319274902344,2019-06-21 13:10:28:615,0.0,0.0,0.0
-0.040171924978494644,-0.056097012013196945,9.736183166503906,0.0015543339445017069,0.004448565090814376,0.004416732513558173,2.6200027465820312,2019-06-21 13:10:28:620,0.0,0.0,0.0
-0.10722491890192032,-0.05370226129889488,9.812814712524414,-0.0036400983035624977,0.004048993399430539,0.0013533494162449274,2.62410831451416,2019-06-21 13:10:28:625,0.0,0.0,0.0
-0.08327741920948029,-0.06328126043081284,9.726603507995605,-0.00031033404615073726,0.007511948318164784,0.005615447847784009,2.630000114440918,2019-06-21 13:10:28:630,0.0,0.0,0.0
-0.08327741920948029,-0.04651801288127899,9.719419479370117,0.004484526608057502,0.00964299733887858,0.0009537776598425092,2.6341166496276855,2019-06-21 13:10:28:635,0.0,0.0,0.0
-0.11440916359424591,-0.02496526576578617,9.721814155578613,-0.0032405266121786607,0.011907236663312663,-0.0011772714258898686,2.6399917602539062,2019-06-21 13:10:28:640,0.0,0.0,0.0
-0.09285642206668854,-0.041728515177965164,9.693077087402344,0.0015543339445017069,0.0019179442486795795,-0.001310461989684481,2.6441125869750977,2019-06-21 13:10:28:645,0.0,0.0,0.0
-0.10004066675901413,-0.04412326216697693,9.752945899963379,-0.00031033404615073726,0.005514089601171274,-0.0011772714258898686,2.650005340576172,2019-06-21 13:10:28:650,0.0,0.0,0.0
-0.061724673956632614,-0.056097012013196945,9.796051979064941,0.001287952816912482,0.0076451386218850705,0.005748638151504296,2.655000686645508,2019-06-21 13:10:28:655,0.0,0.0,0.0
-0.10961966961622238,-0.0656760111451149,9.824789047241211,-0.0013758585890169264,0.01057533154551519,0.0036175891307904987,2.6591711044311523,2019-06-21 13:10:28:660,0.0,0.0,0.0
-0.10004066675901413,-0.05370226129889488,9.736183166503906,0.0031526207100370544,0.006313232983938947,0.0006873965322532847,2.6650047302246094,2019-06-21 13:10:28:665,0.0,0.0,0.0
-0.10961966961622238,-0.05130751058459282,9.717024803161621,0.001687524508296319,0.004048993399430539,0.0005542059684586724,2.669111728668213,2019-06-21 13:10:28:670,0.0,0.0,0.0
-0.10722491890192032,-0.05849176272749901,9.728999137878418,0.00022242825779164786,0.0032498500166628654,-0.0025091770638359916,2.6749982833862305,2019-06-21 13:10:28:675,0.0,0.0,0.0
-0.14554090797901154,-0.1111762523651123,9.673919677734375,0.001687524508296319,0.0013851819935011304,0.0005542059684586724,2.6791181564331055,2019-06-21 13:10:28:680,0.0,0.0,0.0
-0.07130367308855057,-0.06807076185941696,9.74576187133789,-0.0032405266121786607,0.00298346888907364,0.0006873965322532847,2.685000419616699,2019-06-21 13:10:28:685,0.0,0.0,0.0
-0.06651417165994644,-0.06807076185941696,9.740972518920898,0.003951764352879053,0.005780470728760498,-0.001310461989684481,2.6891093254089355,2019-06-21 13:10:28:690,0.0,0.0,0.0
-0.05693517252802849,-0.0656760111451149,9.719419479370117,0.0035521926614952163,0.00964299733887858,0.002152492799012601,2.695002555847168,2019-06-21 13:10:28:695,0.0,0.0,0.0
-0.07130367308855057,-0.08962351083755493,9.697867393493652,0.0015543339445017069,0.003649421708046702,0.0024188740566389883,2.6991214752197266,2019-06-21 13:10:28:700,0.0,0.0,0.0
-0.025803428143262863,-0.07046551257371902,9.719419479370117,-0.00017714346610147965,0.004315374527019763,-0.003041939579088766,2.705030918121338,2019-06-21 13:10:28:705,0.0,0.0,0.0
-0.040171924978494644,-0.02496526576578617,9.736183166503906,-0.004705623073993721,0.003782612271841314,0.001619730543834152,2.70999813079834,2019-06-21 13:10:28:710,0.0,0.0,0.0
-0.054540425539016724,-0.06807076185941696,9.865499496459961,-0.0019086208441953755,0.0028502783252790285,-0.005572560551260725,2.7150015830993652,2019-06-21 13:10:28:715,0.0,0.0,0.0
-0.0952511727809906,-0.10878150165081024,9.817604064941406,-0.00044352460994534954,0.008311091700932456,-0.0006445091707114195,2.7191162109375,2019-06-21 13:10:28:720,0.0,0.0,0.0
-0.009040179662406445,-0.04412326216697693,9.764920234680176,0.0004888094016355178,0.011241284104413928,-0.003041939579088766,2.7249984741210938,2019-06-21 13:10:28:725,0.0,0.0,0.0
-0.047356173396110535,-0.02496526576578617,9.709840774536133,0.0003556188378409054,0.009909378986616455,2.1443682802763245e-05,2.7291102409362793,2019-06-21 13:10:28:730,0.0,0.0,0.0
-0.040171924978494644,-0.05130751058459282,9.669130325317383,0.0028862395824478296,0.00871066313224197,-0.0018432243749000928,2.734999179840088,2019-06-21 13:10:28:735,0.0,0.0,0.0
-0.0018559310119599104,-0.08243925869464874,9.70505142211914,0.0011547622531178697,0.001651563121090355,0.0002878248408694478,2.739116668701172,2019-06-21 13:10:28:740,0.0,0.0,0.0
-0.025803428143262863,0.0013769810320809484,9.779288291931152,-0.00031033404615073726,0.0020511348124741917,-0.0010440808620952565,2.745128631591797,2019-06-21 13:10:28:746,0.0,0.0,0.0
0.014907317236065865,-0.0034125184174627066,9.740972518920898,8.92376858697129e-05,0.0068459952391173974,-0.00024493746307293734,2.7491354942321777,2019-06-21 13:10:28:750,0.0,0.0,0.0
0.04124956205487251,-0.03214951604604721,9.776893615722656,0.002619858454858605,0.009110235083700131,-0.0023759865000413795,2.754998207092285,2019-06-21 13:10:28:755,0.0,0.0,0.0
0.0029335683211684227,-0.027360014617443085,9.709840774536133,-0.0024413832294109873,0.009376616731438006,-0.003574701834267215,2.7591166496276855,2019-06-21 13:10:28:760,0.0,0.0,0.0
-0.021013928577303886,-0.008202017284929752,9.740972518920898,-0.0027077643570002116,0.004448565090814376,2.1443682802763245e-05,2.7650022506713867,2019-06-21 13:10:28:765,0.0,0.0,0.0
-0.013829679228365421,-0.03693901374936104,9.697867393493652,-0.0009762868976330894,0.0005860385457148754,-0.004906607472213338,2.7694292068481445,2019-06-21 13:10:28:770,0.0,0.0,0.0
-0.0066454303450882435,-0.06807076185941696,9.772104263305664,0.0003556188378409054,0.0019179442486795795,2.1443682802763245e-05,2.7755203247070312,2019-06-21 13:10:28:776,0.0,0.0,0.0
-0.032987676560878754,-0.0656760111451149,9.796051979064941,-0.002308192665616375,0.003782612271841314,0.0001546342608201902,2.7791199684143066,2019-06-21 13:10:28:780,0.0,0.0,0.0
0.010117817670106888,-0.05370226129889488,9.836762428283691,0.001287952816912482,0.009509807035158293,-0.003707892398061828,2.7849960327148438,2019-06-21 13:10:28:785,0.0,0.0,0.0
-0.025803428143262863,-0.0920182541012764,9.781682968139648,0.003019430146242442,0.005780470728760498,-0.0066380850616176235,2.7891626358032227,2019-06-21 13:10:28:790,0.0,0.0,0.0
-0.0689089223742485,-0.048912763595581055,9.80323600769043,0.0076811001391281965,0.007911519749474296,-0.003974273525651052,2.7950048446655273,2019-06-21 13:10:28:795,0.0,0.0,0.0
-0.04256667569279671,-0.08722876012325287,9.72420883178711,0.0018207150720909312,0.003915802835635926,-0.0009108902983006441,2.799105644226074,2019-06-21 13:10:28:800,0.0,0.0,0.0
-0.04496142640709877,-0.06328126043081284,9.755340576171875,0.006615575628771298,0.0049813273459928245,-0.004373845217034889,2.804999351501465,2019-06-21 13:10:28:805,0.0,0.0,0.0
-0.05214567482471466,-0.029754765331745148,9.793657302856445,0.0028862395824478296,0.0001864668055671025,-0.003041939579088766,2.8091068267822266,2019-06-21 13:10:28:810,0.0,0.0,0.0
-0.018619179725646973,-0.08722876012325287,9.824789047241211,0.001287952816912482,0.0060468518563497236,-0.001976414938694705,2.8149948120117188,2019-06-21 13:10:28:815,0.0,0.0,0.0
0.024486316367983818,-0.005807267967611551,9.760130882263184,0.0004888094016355178,0.005380899297450987,0.0008205870960478969,2.8200039863586426,2019-06-21 13:10:28:820,0.0,0.0,0.0
-0.04256667569279671,-0.03693901374936104,9.748156547546387,0.005283669990825176,0.009376616731438006,-0.0006445091707114195,2.8241047859191895,2019-06-21 13:10:28:825,0.0,0.0,0.0
-0.03059292770922184,0.013350729830563068,9.666735649108887,0.0031526207100370544,0.003383040580457477,0.007213734613319356,2.829998016357422,2019-06-21 13:10:28:830,0.0,0.0,0.0
-0.021013928577303886,-0.034544263035058975,9.728999137878418,0.0020870961996801557,0.0008524196733041,0.0038839702583797235,2.8350319862365723,2019-06-21 13:10:28:835,0.0,0.0,0.0
-0.018619179725646973,0.03729822486639023,9.743367195129395,0.0006219999979394207,0.0020511348124741917,0.0032180174394066618,2.8391122817993164,2019-06-21 13:10:28:840,0.0,0.0,0.0
0.01969681680202484,0.01814022846519947,9.793657302856445,0.003019430146242442,0.0021843255063059668,-0.00011174689115100237,2.844999313354492,2019-06-21 13:10:28:845,0.0,0.0,0.0
0.07956556230783463,0.034903477877378464,9.812814712524414,0.00435133604426289,0.006579614111528172,0.00548225702391507,2.8491153717041016,2019-06-21 13:10:28:850,0.0,0.0,0.0
0.03167056292295456,-0.022570515051484108,9.743367195129395,0.005949623069872562,0.007778329445754008,0.0006873965322532847,2.8550028800964355,2019-06-21 13:10:28:855,0.0,0.0,0.0
-0.018619179725646973,-0.041728515177965164,9.65476131439209,0.0038185737890844406,0.003915802835635926,0.0053490667201947836,2.859104633331299,2019-06-21 13:10:28:860,0.0,0.0,0.0
-0.0066454303450882435,0.01095598004758358,9.690682411193848,0.003951764352879053,-0.002477344746654114,0.004416732513558173,2.8649988174438477,2019-06-21 13:10:28:865,0.0,0.0,0.0
0.012512567453086376,0.0013769810320809484,9.719419479370117,0.005017288863235951,0.0019179442486795795,0.0029516363118174374,2.869114875793457,2019-06-21 13:10:28:870,0.0,0.0,0.0
0.0484338141977787,0.02532447874546051,9.721814155578613,0.0003556188378409054,0.0032498500166628654,0.007879687172218092,2.8750009536743164,2019-06-21 13:10:28:875,0.0,0.0,0.0
0.04603906348347664,0.013350729830563068,9.776893615722656,0.0035521926614952163,0.01057533154551519,0.004949494768736622,2.879110813140869,2019-06-21 13:10:28:880,0.0,0.0,0.0
-0.061724673956632614,-0.041728515177965164,9.73378849029541,0.0031526207100370544,0.01070852184923548,0.0022856834928443757,2.884998321533203,2019-06-21 13:10:28:885,0.0,0.0,0.0
-0.10004066675901413,-0.03693901374936104,9.693077087402344,0.006349194501182075,0.004315374527019763,0.0065477815342719695,2.8891115188598633,2019-06-21 13:10:28:890,0.0,0.0,0.0
-0.07848791778087616,0.006166480481624603,9.678709030151367,0.0038185737890844406,-0.0038092503846002368,0.002019302235217989,2.895071029663086,2019-06-21 13:10:28:895,0.0,0.0,0.0
-0.11680391430854797,-0.034544263035058975,9.834367752075195,0.0024866678910639927,-0.002477344746654114,0.004416732513558173,2.8991332054138184,2019-06-21 13:10:28:900,0.0,0.0,0.0
0.026881065219640732,-0.03214951604604721,9.772104263305664,0.0031526207100370544,0.0064464238078078846,0.0029516363118174374,2.9050068855285645,2019-06-21 13:10:28:905,0.0,0.0,0.0
0.036460064351558685,-0.012991516850888729,9.800841331481934,0.0036853832252898284,0.014304667331764335,0.005881828975373233,2.9091014862060547,2019-06-21 13:10:28:910,0.0,0.0,0.0
-0.11201442033052444,-0.027360014617443085,9.578129768371582,0.0028862395824478296,0.0047149462184036,0.0053490667201947836,2.9149980545043945,2019-06-21 13:10:28:915,0.0,0.0,0.0
-0.08806692063808441,-0.02496526576578617,9.525444984436035,0.0019539056358855436,-0.0034096786932164,0.004949494768736622,2.919133186340332,2019-06-21 13:10:28:920,0.0,0.0,0.0
-0.08806692063808441,-0.01778101734817028,9.750551223754883,0.0024866678910639927,-0.006073490229182971,0.0024188740566389883,2.924999237060547,2019-06-21 13:10:28:925,0.0,0.0,0.0
0.0029335683211684227,-0.05130751058459282,9.76252555847168,0.001687524508296319,0.0001864668055671025,0.010010736192931888,2.9291024208068848,2019-06-21 13:10:28:930,0.0,0.0,0.0
-0.03538242727518082,-0.048912763595581055,9.848735809326172,-0.002840954920794824,0.012972761173669562,0.005615447847784009,2.935004234313965,2019-06-21 13:10:28:935,0.0,0.0,0.0
0.04124956205487251,-0.08722876012325287,9.757735252380371,0.004084954916673665,0.01204042800733025,0.001619730543834152,2.939114570617676,2019-06-21 13:10:28:940,0.0,0.0,0.0
-0.19822540879249573,-0.10638675838708878,9.592497825622559,0.0023534773272693805,0.005514089601171274,0.0033512080032012744,2.945028305053711,2019-06-21 13:10:28:945,0.0,0.0,0.0
-0.07848791778087616,-0.04651801288127899,9.621234893798828,-0.002308192665616375,-0.0012786295424654405,0.004416732513558173,2.949108123779297,2019-06-21 13:10:28:950,0.0,0.0,0.0
-0.10722491890192032,-0.17583449184894562,9.743367195129395,0.001687524508296319,-0.003676059820805624,0.00308482687561205,2.9541053771972656,2019-06-21 13:10:28:955,0.0,0.0,0.0
-0.07848791778087616,-0.10638675838708878,9.865499496459961,0.000755190561734033,0.0060468518563497236,0.001619730543834152,2.9599967002868652,2019-06-21 13:10:28:960,0.0,0.0,0.0
-0.0689089223742485,-0.11357100307941437,9.887052536010742,-0.0031073360483840485,0.01603614440101997,0.0024188740566389883,2.9650068283081055,2019-06-21 13:10:28:965,0.0,0.0,0.0
-0.0689089223742485,-0.16865025460720062,9.867894172668457,0.006615575628771298,0.01310595251768715,0.006281400406682744,2.9691057205200195,2019-06-21 13:10:28:970,0.0,0.0,0.0
-0.10961966961622238,-0.15428175032138824,9.68349838256836,-4.395289011588339e-05,0.006313232983938947,0.006281400406682744,2.975003242492676,2019-06-21 13:10:28:975,0.0,0.0,0.0
-0.17906740307807922,-0.0920182541012764,9.582919120788574,-0.004039669994946335,0.0009856102370987122,0.005748638151504296,2.979114532470703,2019-06-21 13:10:28:980,0.0,0.0,0.0
-0.13356716930866241,-0.1375184953212738,9.719419479370117,0.0004888094016355178,0.0008524196733041,0.005082685592605559,2.9850282669067383,2019-06-21 13:10:28:985,0.0,0.0,0.0
-0.07130367308855057,-0.09920250624418259,9.85352611541748,-0.00031033404615073726,0.0013851819935011304,0.007746496868497805,2.9900102615356445,2019-06-21 13:10:28:990,0.0,0.0,0.0
-0.10483016818761826,-0.1183605045080185,9.851130485534668,-0.0035069077397678855,0.010442141241794904,-0.002642367627630604,2.9941043853759766,2019-06-21 13:10:28:995,0.0,0.0,0.0
-0.03059292770922184,-0.12315000593662262,9.812814712524414,-0.000843096333838477,0.013905095380306173,0.00894521168257499,3.0,2019-06-21 13:10:29:000,0.0,0.0,0.0
-0.07130367308855057,-0.056097012013196945,9.72420883178711,0.000755190561734033,0.011774046359592378,0.0037507796945851113,3.004110336303711,2019-06-21 13:10:29:005,0.0,0.0,0.0
-0.11919866502285004,-0.12793950736522675,9.690682411193848,-0.001642239716606151,-0.0003462954983752826,0.008812021378854704,3.0099897384643555,2019-06-21 13:10:29:010,0.0,0.0,0.0
-0.06411942094564438,-0.06807076185941696,9.690682411193848,-0.002308192665616375,-0.004208822075984073,0.004683113641147397,3.014098644256592,2019-06-21 13:10:29:014,0.0,0.0,0.0
-0.03059292770922184,-0.0920182541012764,9.764920234680176,-0.006037528711939843,0.0035162311442520897,0.0032180174394066618,3.020026206970215,2019-06-21 13:10:29:020,0.0,0.0,0.0
-0.009040179662406445,-0.1111762523651123,9.85352611541748,0.0010215716893232575,0.007378757494295846,0.0025520646204336005,3.024110794067383,2019-06-21 13:10:29:025,0.0,0.0,0.0
-0.032987676560878754,-0.09441300481557846,9.764920234680176,-0.0007099057700438648,0.012839570869949276,0.005748638151504296,3.0300092697143555,2019-06-21 13:10:29:030,0.0,0.0,0.0
-0.06651417165994644,-0.03214951604604721,9.755340576171875,-0.004172860558740947,0.0072455671905755584,0.0053490667201947836,3.03411865234375,2019-06-21 13:10:29:035,0.0,0.0,0.0
-0.10961966961622238,-0.07525500655174255,9.669130325317383,0.0003556188378409054,-0.0010122483498576347,0.005215875896325846,3.0399904251098633,2019-06-21 13:10:29:040,0.0,0.0,0.0
-0.09285642206668854,-0.07525500655174255,9.712235450744629,0.0004888094016355178,-0.0028769164380379507,0.005215875896325846,3.0441055297851562,2019-06-21 13:10:29:045,0.0,0.0,0.0
-0.047356173396110535,-0.056097012013196945,9.764920234680176,0.0042181454804682775,0.002717087761484416,0.002019302235217989,3.0500049591064453,2019-06-21 13:10:29:050,0.0,0.0,0.0
-0.013829679228365421,-0.034544263035058975,9.896631240844727,0.001687524508296319,0.010042569290336742,0.00894521168257499,3.0541086196899414,2019-06-21 13:10:29:055,0.0,0.0,0.0
-0.08567216992378235,-0.041728515177965164,9.819998741149902,0.003019430146242442,0.011907236663312663,0.005215875896325846,3.0599889755249023,2019-06-21 13:10:29:060,0.0,0.0,0.0
-0.08088266849517822,-0.027360014617443085,9.750551223754883,-0.002308192665616375,0.008044710573343232,0.0024188740566389883,3.064103603363037,2019-06-21 13:10:29:065,0.0,0.0,0.0
-0.14314615726470947,-0.04412326216697693,9.685893058776855,0.0020870961996801557,0.0003196573856163601,0.0002878248408694478,3.0699992179870605,2019-06-21 13:10:29:070,0.0,0.0,0.0
-0.10483016818761826,-0.029754765331745148,9.697867393493652,0.0064823853250510115,-0.0011454389786708283,0.006148210102962458,3.075007438659668,2019-06-21 13:10:29:075,0.0,0.0,0.0
-0.09285642206668854,-0.012991516850888729,9.78647232055664,-0.0033737171759732733,0.003116659452868253,0.005082685592605559,3.0791101455688477,2019-06-21 13:10:29:080,0.0,0.0,0.0
-0.0497509241104126,-0.06088650971651077,9.800841331481934,0.0020870961996801557,0.012706380566228987,0.0013533494162449274,3.0850048065185547,2019-06-21 13:10:29:085,0.0,0.0,0.0
-0.07130367308855057,-0.008202017284929752,9.817604064941406,-0.0009762868976330894,0.009376616731438006,0.002685255184228213,3.089116096496582,2019-06-21 13:10:29:090,0.0,0.0,0.0
-0.0952511727809906,-0.02496526576578617,9.685893058776855,0.0068819567563605235,0.007911519749474296,0.002152492799012601,3.094999313354492,2019-06-21 13:10:29:095,0.0,0.0,0.0
-0.0497509241104126,-0.04651801288127899,9.676314353942871,0.000755190561734033,0.0008524196733041,0.0004210154046640601,3.099104881286621,2019-06-21 13:10:29:100,0.0,0.0,0.0
-0.061724673956632614,0.020534979179501534,9.688287734985352,-0.0019086208441953755,-0.00460839376736791,0.0001546342608201902,3.1050004959106445,2019-06-21 13:10:29:105,0.0,0.0,0.0
-0.021013928577303886,-0.015386266633868217,9.772104263305664,0.0031526207100370544,-0.000213104918326025,-0.004773416648344401,3.1091156005859375,2019-06-21 13:10:29:110,0.0,0.0,0.0
0.0029335683211684227,-0.04651801288127899,9.748156547546387,-0.0033737171759732733,0.009909378986616455,0.0018861116714233767,3.114999771118164,2019-06-21 13:10:29:115,0.0,0.0,0.0
-0.0066454303450882435,-0.01778101734817028,9.769709587097168,0.00022242825779164786,0.008977044779979845,0.0008205870960478969,3.1200456619262695,2019-06-21 13:10:29:120,0.0,0.0,0.0
-0.03777717798948288,-0.012991516850888729,9.693077087402344,-0.0032405266121786607,0.008044710573343232,-0.0018432243749000928,3.124113082885742,2019-06-21 13:10:29:125,0.0,0.0,0.0
-0.08088266849517822,-0.041728515177965164,9.697867393493652,-0.0007099057700438648,0.0011188008659119059,-0.007969990699563747,3.129992961883545,2019-06-21 13:10:29:130,0.0,0.0,0.0
-0.061724673956632614,0.003771730698645115,9.676314353942871,0.0015543339445017069,0.001251991429706518,-0.004240654653240277,3.134103775024414,2019-06-21 13:10:29:135,0.0,0.0,0.0
-0.040171924978494644,-0.012991516850888729,9.76252555847168,0.007148337883949748,0.0025838971976898037,0.0022856834928443757,3.1399965286254883,2019-06-21 13:10:29:140,0.0,0.0,0.0
-0.06651417165994644,-0.07046551257371902,9.76252555847168,0.0024866678910639927,0.008311091700932456,-0.0053061794236715,3.144998550415039,2019-06-21 13:10:29:145,0.0,0.0,0.0
-0.009040179662406445,0.0013769810320809484,9.78647232055664,-0.0015090491528115383,0.0125731902625087,-0.006238513110159461,3.149104118347168,2019-06-21 13:10:29:150,0.0,0.0,0.0
-0.047356173396110535,-0.012991516850888729,9.693077087402344,-0.0015090491528115383,0.0041821839632251515,-0.004373845217034889,3.155001163482666,2019-06-21 13:10:29:155,0.0,0.0,0.0
-0.05214567482471466,-0.0010177686344832182,9.661945343017578,0.0019539056358855436,0.001251991429706518,-0.005705750854981011,3.159113883972168,2019-06-21 13:10:29:160,0.0,0.0,0.0
-0.0066454303450882435,-0.0010177686344832182,9.717024803161621,-0.001242668025222314,-0.0018113917976438896,-0.0051729885998025625,3.164999485015869,2019-06-21 13:10:29:165,0.0,0.0,0.0
-0.047356173396110535,-0.0656760111451149,9.743367195129395,0.0010215716893232575,0.004581755914683313,-0.011033373406765504,3.169112205505371,2019-06-21 13:10:29:170,0.0,0.0,0.0
0.03167056292295456,-0.020175766199827194,9.776893615722656,-0.0007099057700438648,0.004581755914683313,-0.008103181003284032,3.174999237060547,2019-06-21 13:10:29:175,0.0,0.0,0.0
0.05801280960440636,-0.08243925869464874,9.779288291931152,0.005283669990825176,0.003915802835635926,-0.013830376026675337,3.179110527038574,2019-06-21 13:10:29:180,0.0,0.0,0.0
-0.08567216992378235,-0.20696623623371124,9.982842445373535,0.023663969354927625,-0.007272205043260157,-0.008369562130873257,3.185037612915039,2019-06-21 13:10:29:185,0.0,0.0,0.0
0.1394343078136444,0.2169044464826584,10.064263343811035,0.012609151259603176,0.026025437985987516,-0.006371703934028398,3.1891117095947266,2019-06-21 13:10:29:190,0.0,0.0,0.0
0.06998655945062637,0.2025359570980072,9.740972518920898,0.0023534773272693805,0.02629181859342809,-0.0131644224274793,3.1949968338012695,2019-06-21 13:10:29:195,0.0,0.0,0.0
-0.260488897562027,-0.02496526576578617,9.539813041687012,0.007814290962997135,0.010841712152955764,-0.011299755054503377,3.1991147994995117,2019-06-21 13:10:29:200,0.0,0.0,0.0
0.024486316367983818,0.07321947067975998,9.432049751281738,0.009945339983710931,-0.024720170720874644,-0.009834658592688318,3.2049999237060547,2019-06-21 13:10:29:205,0.0,0.0,0.0
-0.08327741920948029,0.09477221965789795,9.891841888427734,-0.002308192665616375,-0.013265780674092034,-0.0051729885998025625,3.209103584289551,2019-06-21 13:10:29:210,0.0,0.0,0.0
0.3286195397377014,-0.19499249756336212,9.841551780700684,0.007547909835407911,0.0032498500166628654,-0.0005113186069168071,3.2150020599365234,2019-06-21 13:10:29:215,0.0,0.0,0.0
0.07717081159353256,-0.24049273133277893,9.891841888427734,0.009013005777074319,0.011907236663312663,0.004816304465016335,3.2191343307495117,2019-06-21 13:10:29:220,0.0,0.0,0.0
0.13703955709934235,-0.13512374460697174,9.590103149414062,-0.00577114758435062,0.010974903496973354,0.0028184457480228253,3.2249984741210938,2019-06-21 13:10:29:225,0.0,0.0,0.0
0.01730206608772278,-0.46080970764160156,9.487129211425781,0.00435133604426289,-0.006872633611950644,0.005748638151504296,3.2291269302368164,2019-06-21 13:10:29:230,0.0,0.0,0.0
0.05561806261539459,-0.16625550389289856,9.575735092163086,-0.002974145484589436,-0.011134731653378239,0.0034843985669958865,3.2350096702575684,2019-06-21 13:10:29:235,0.0,0.0,0.0
0.13225005567073822,-0.21415048837661743,9.740972518920898,-0.006836672094707517,-0.008470920377485992,0.0024188740566389883,3.239107608795166,2019-06-21 13:10:29:240,0.0,0.0,0.0
0.05322331190109253,-0.3338879644870758,9.793657302856445,0.0014211433807070943,0.004448565090814376,-0.00011174689115100237,3.2450008392333984,2019-06-21 13:10:29:245,0.0,0.0,0.0
0.14422379434108734,-0.048912763595581055,9.776893615722656,-0.006170719015660131,0.0076451386218850705,-0.0015768431172737056,3.249112129211426,2019-06-21 13:10:29:250,0.0,0.0,0.0
-0.10722491890192032,-0.2165452390909195,9.712235450744629,-0.0005767152062492525,0.008843854476259556,0.0009537776598425092,3.2541141510009766,2019-06-21 13:10:29:255,0.0,0.0,0.0
-0.07130367308855057,-0.04412326216697693,9.637998580932617,-0.002840954920794824,0.001651563121090355,0.0010869682236371214,3.2599892616271973,2019-06-21 13:10:29:260,0.0,0.0,0.0
-0.14554090797901154,0.16900946199893951,9.717024803161621,-0.009766864498188988,-0.0028769164380379507,-0.0027755584514995413,3.2650012969970703,2019-06-21 13:10:29:265,0.0,0.0,0.0
-0.09764591604471207,0.030113978311419487,9.702656745910645,-0.003906479431151722,-7.991434640409003e-05,-0.0017100338111054802,3.2691121101379395,2019-06-21 13:10:29:270,0.0,0.0,0.0
-0.0689089223742485,0.1115354672074318,9.79126262664795,-0.0035069077397678855,0.005247708473582049,0.0033512080032012744,3.275026321411133,2019-06-21 13:10:29:275,0.0,0.0,0.0
-0.22456765174865723,0.14506196975708008,9.836762428283691,-0.006170719015660131,0.011507665752151803,-0.0005113186069168071,3.279111385345459,2019-06-21 13:10:29:280,0.0,0.0,0.0
-0.14554090797901154,-0.05370226129889488,9.798446655273438,-0.00044352460994534954,0.007778329445754008,0.0008205870960478969,3.2849998474121094,2019-06-21 13:10:29:285,0.0,0.0,0.0
-0.16469891369342804,0.020534979179501534,9.731393814086914,0.0020870961996801557,0.006579614111528172,0.005082685592605559,3.2891111373901367,2019-06-21 13:10:29:290,0.0,0.0,0.0
-0.20301491022109985,-0.03214951604604721,9.738577842712402,-0.0011094774614277016,5.327622958150625e-05,0.0032180174394066618,3.294999122619629,2019-06-21 13:10:29:295,0.0,0.0,0.0
-0.17667265236377716,-0.11357100307941437,9.740972518920898,0.006615575628771298,-0.0003462954983752826,0.007746496868497805,3.299104690551758,2019-06-21 13:10:29:300,0.0,0.0,0.0
-0.16469891369342804,0.2025359570980072,9.822394371032715,-0.002974145484589436,0.008311091700932456,0.0012201588524503152,3.3050012588500977,2019-06-21 13:10:29:305,0.0,0.0,0.0
