ACCELEROMETER X (m/s²),ACCELEROMETER Y (m/s²),ACCELEROMETER Z (m/s²),GYROSCOPE X (rad/s),GYROSCOPE Y (rad/s),GYROSCOPE Z (rad/s),Time since start in ms ,YYYY-MO-DD HH-MI-SS_SSS,MagX,MagY,MagZ
-0.19004493951797485,0.1311796009540558,9.814606666564941,-9.283383109216743e-05,-0.005408469776665762,0.0025607219745709597,0.0,2019-06-20 15:03:29:546,0.0,0.0,0.0
-0.21638718247413635,0.10723210126161575,9.778684616088867,0.0016386436689115682,0.0015174401908398898,-0.0015681857631363464,0.005859851837158203,2019-06-20 15:03:29:552,0.0,0.0,0.0
-0.23554518818855286,0.11202160269021988,9.896027565002441,0.004968407893814039,0.003781679905385461,-0.0038324256077190803,0.009976387023925781,2019-06-20 15:03:29:556,0.0,0.0,0.0
-0.22357143461704254,0.1239953488111496,9.86250114440918,-0.001957501813617289,0.000851487306848247,0.00016329164746684,0.015877723693847656,2019-06-20 15:03:29:562,0.0,0.0,0.0
-0.1996239423751831,0.09286360442638397,9.836158752441406,4.035674489342885e-05,-0.003410611059672253,0.0008292445152038374,0.01997661590576172,2019-06-20 15:03:29:566,0.0,0.0,0.0
-0.1876501888036728,0.09286360442638397,9.826580047607422,-0.001557930122233452,-0.0014127523426787432,-0.002234138582109408,0.025867462158203125,2019-06-20 15:03:29:572,0.0,0.0,0.0
-0.19004493951797485,0.12160059809684753,9.857711791992188,0.0024377869216420794,-0.003144229932083028,-0.003566044480129856,0.02998638153076172,2019-06-20 15:03:29:576,0.0,0.0,0.0
-0.16609744727611542,0.1311796009540558,9.848133087158203,0.0035033116920733026,0.001650630754634502,-0.0075617613939682245,0.035859107971191406,2019-06-20 15:03:29:582,0.0,0.0,0.0
-0.2259661853313446,0.0976531058549881,9.814606666564941,-0.003822169836779023,-0.004742516697618376,-0.0038324256077190803,0.03997516632080078,2019-06-20 15:03:29:586,0.0,0.0,0.0
-0.2523084282875061,0.10004784911870956,9.771500587463379,0.0011058812836959564,-0.0032774204958776402,-0.0034328539163352434,0.045981407165527344,2019-06-20 15:03:29:592,0.0,0.0,0.0
-0.23554518818855286,0.11441635340452194,9.857711791992188,0.0009726907199013442,-0.003410611059672253,-0.0025005197096986324,0.05088233947753906,2019-06-20 15:03:29:597,0.0,0.0,0.0
-0.21159768104553223,0.08807410299777985,9.826580047607422,-0.0010251678020364214,-0.0016791336003051302,-0.004631568990486754,0.054968833923339844,2019-06-20 15:03:29:601,0.0,0.0,0.0
-0.17088694870471954,0.10244259983301163,9.802632331848145,0.0025709774854366916,-0.003410611059672253,-0.003566044480129856,0.05997753143310547,2019-06-20 15:03:29:606,0.0,0.0,0.0
-0.21638718247413635,0.116811104118824,9.82179069519043,0.003636502255867915,-0.0016791336003051302,-0.0048979501180759786,0.06585884094238281,2019-06-20 15:03:29:612,0.0,0.0,0.0
-0.17567645013332367,0.12639009952545166,9.843342781066895,-0.0036889792729844113,0.0015174401908398898,-0.008627285904325124,0.06996917724609375,2019-06-20 15:03:29:616,0.0,0.0,0.0
-0.2139924317598343,0.10483735054731369,9.745158195495605,0.0015054529750797934,0.00031872505166979784,-0.0075617613939682245,0.07497406005859375,2019-06-20 15:03:29:621,0.0,0.0,0.0
-0.24991367757320404,0.08807410299777985,9.819396018981934,0.0009726907199013442,0.0009846778706428594,-0.009826001238550958,0.07996702194213867,2019-06-20 15:03:29:626,0.0,0.0,0.0
-0.23075568675994873,0.1311796009540558,9.75234317779541,0.0021714059240900176,0.0017838213184291141,-0.009426429287092798,0.08497333526611328,2019-06-20 15:03:29:631,0.0,0.0,0.0
-0.21159768104553223,0.1239953488111496,9.905606269836426,0.0027041680492313038,-0.0028778488044938037,-0.010358763493729408,0.09085464477539062,2019-06-20 15:03:29:637,0.0,0.0,0.0
-0.19243969023227692,0.10004784911870956,9.814606666564941,-0.0018243112498226766,0.0015174401908398898,-0.010625145141467283,0.09498214721679688,2019-06-20 15:03:29:641,0.0,0.0,0.0
-0.18525543808937073,0.12878485023975372,9.807421684265137,0.0024377869216420794,-0.0010131806512949063,-0.012090240562985041,0.10085391998291016,2019-06-20 15:03:29:647,0.0,0.0,0.0
-0.1996239423751831,0.1239953488111496,9.754737854003906,0.0032369305644840782,5.234389563494396e-05,-0.014620861535157001,0.10588932037353516,2019-06-20 15:03:29:652,0.0,0.0,0.0
-0.23554518818855286,0.10962685197591782,9.790658950805664,-0.0006255961106525846,-0.004742516697618376,-0.01169066965182418,0.10998153686523438,2019-06-20 15:03:29:656,0.0,0.0,0.0
-0.2068081945180893,0.14075860381126404,9.807421684265137,0.0005731190285175073,-0.0015459429064733554,-0.010225573190009121,0.11585760116577148,2019-06-20 15:03:29:662,0.0,0.0,0.0
-0.20920294523239136,0.12639009952545166,9.809816360473633,-0.0004924055468579722,0.000851487306848247,-0.009426429287092798,0.11996936798095703,2019-06-20 15:03:29:666,0.0,0.0,0.0
-0.17807118594646454,0.1239953488111496,9.790658950805664,0.0008395001561067318,-0.0020787052916889674,-0.010358763493729408,0.1249837875366211,2019-06-20 15:03:29:671,0.0,0.0,0.0
-0.2068081945180893,0.12160059809684753,9.848133087158203,0.00043992846472289506,-0.005941232031844212,-0.013022574769621653,0.13086223602294922,2019-06-20 15:03:29:677,0.0,0.0,0.0
-0.19483444094657898,0.11920584738254547,9.82179069519043,-0.003422598145395187,-0.0012795617788841308,-0.014487671231436714,0.13497543334960938,2019-06-20 15:03:29:681,0.0,0.0,0.0
-0.1804659366607666,0.116811104118824,9.831369400024414,-0.0010251678020364214,-0.007273137669790334,-0.009293238983372509,0.1399984359741211,2019-06-20 15:03:29:686,0.0,0.0,0.0
-0.1804659366607666,0.1311796009540558,9.824185371398926,-0.0007587866744471969,-0.002211895725446417,-0.0075617613939682245,0.1458568572998047,2019-06-20 15:03:29:692,0.0,0.0,0.0
-0.1804659366607666,0.09286360442638397,9.831369400024414,-0.0008919772382418092,0.0068450631327358685,-0.004231997299102917,0.15102720260620117,2019-06-20 15:03:29:697,0.0,0.0,0.0
-0.17567645013332367,0.12639009952545166,9.778684616088867,-0.0014247395584388394,-0.003410611059672253,-0.012090240562985041,0.15498638153076172,2019-06-20 15:03:29:701,0.0,0.0,0.0
-0.19243969023227692,0.1503375917673111,9.781079292297363,-0.0030230264540113496,-0.0044761355700291515,-0.012889384465901366,0.1599721908569336,2019-06-20 15:03:29:706,0.0,0.0,0.0
-0.16849219799041748,0.1431533545255661,9.773895263671875,-0.002889835890216737,-0.003676992187261477,-0.012756194162181081,0.16497802734375,2019-06-20 15:03:29:711,0.0,0.0,0.0
-0.1732816994190216,0.071310855448246,9.817001342773438,-0.006219599985082045,-0.0035438016234668654,-0.013422146721079815,0.17085790634155273,2019-06-20 15:03:29:717,0.0,0.0,0.0
-0.14933419227600098,0.11920584738254547,9.788264274597168,0.00043992846472289506,0.00018553447162054023,-0.005963474628432877,0.17497539520263672,2019-06-20 15:03:29:721,0.0,0.0,0.0
-0.18525543808937073,0.10483735054731369,9.80502700805664,-0.004621313219546697,-0.003943373314850702,-0.012889384465901366,0.17996978759765625,2019-06-20 15:03:29:726,0.0,0.0,0.0
-0.16370269656181335,0.10723210126161575,9.790658950805664,4.035674489342885e-05,-0.003676992187261477,-0.004498378166617817,0.1849985122680664,2019-06-20 15:03:29:731,0.0,0.0,0.0
-0.17088694870471954,0.14075860381126404,9.797842979431152,0.0011058812836959564,-0.000879990087500294,-0.005563903197123366,0.19086170196533203,2019-06-20 15:03:29:737,0.0,0.0,0.0
-0.17567645013332367,0.116811104118824,9.812211036682129,0.0015054529750797934,0.0017838213184291141,-0.01075833544518757,0.19497346878051758,2019-06-20 15:03:29:741,0.0,0.0,0.0
-0.1613079458475113,0.16470609605312347,9.785869598388672,0.0015054529750797934,0.000851487306848247,-0.006229855756022102,0.19997596740722656,2019-06-20 15:03:29:746,0.0,0.0,0.0
-0.17567645013332367,0.14075860381126404,9.802632331848145,-0.0008919772382418092,5.234389563494396e-05,-0.0030332819648770815,0.20497608184814453,2019-06-20 15:03:29:751,0.0,0.0,0.0
-0.1613079458475113,0.1431533545255661,9.812211036682129,-0.00022602440301410239,-0.0014127523426787432,-0.0013018046355471218,0.20996999740600586,2019-06-20 15:03:29:756,0.0,0.0,0.0
-0.2068081945180893,0.11441635340452194,9.790658950805664,-0.001957501813617289,-0.001945514727894355,-0.0032996633525406317,0.21586084365844727,2019-06-20 15:03:29:762,0.0,0.0,0.0
-0.18286068737506866,0.10483735054731369,9.80502700805664,0.0035033116920733026,-0.0003472278323218449,-0.0031664725286716937,0.21997737884521484,2019-06-20 15:03:29:766,0.0,0.0,0.0
-0.19004493951797485,0.1503375917673111,9.807421684265137,0.0039028833834571395,-0.0024782768530356414,3.010106944941304e-05,0.22497844696044922,2019-06-20 15:03:29:771,0.0,0.0,0.0
-0.12299194931983948,0.1311796009540558,9.814606666564941,0.002970549436894854,-0.0020787052916889674,-0.0021009480183147955,0.22998809814453125,2019-06-20 15:03:29:776,0.0,0.0,0.0
-0.17088694870471954,0.0976531058549881,9.776289939880371,0.0025709774854366916,-0.003410611059672253,-0.0005026612202701574,0.23586273193359375,2019-06-20 15:03:29:782,0.0,0.0,0.0
-0.20920294523239136,0.0976531058549881,9.771500587463379,-0.0004924055468579722,-0.005674850904254987,-0.0015681857631363464,0.23996973037719727,2019-06-20 15:03:29:786,0.0,0.0,0.0
-0.1804659366607666,0.10962685197591782,9.749947547912598,0.003370121128278691,-0.0040765638786453146,-0.0021009480183147955,0.2458782196044922,2019-06-20 15:03:29:792,0.0,0.0,0.0
-0.18286068737506866,0.13836385309696198,9.819396018981934,0.0008395001561067318,-0.005674850904254987,0.0002964822275160976,0.24999046325683594,2019-06-20 15:03:29:796,0.0,0.0,0.0
-0.1349657028913498,0.1311796009540558,9.771500587463379,-0.001158358430849615,-0.0035438016234668654,0.006290057760820104,0.2549724578857422,2019-06-20 15:03:29:801,0.0,0.0,0.0
-0.19243969023227692,0.18386408686637878,9.809816360473633,0.0011058812836959564,-0.003943373314850702,0.005091342946742919,0.2608509063720703,2019-06-20 15:03:29:807,0.0,0.0,0.0
-0.19243969023227692,0.12160059809684753,9.754737854003906,-0.003422598145395187,-0.002744658240699191,0.0056241052019213676,0.26497554779052734,2019-06-20 15:03:29:811,0.0,0.0,0.0
-0.1876501888036728,0.1311796009540558,9.843342781066895,0.0021714059240900176,-0.000879990087500294,0.009353440988170512,0.2699766159057617,2019-06-20 15:03:29:816,0.0,0.0,0.0
-0.19483444094657898,0.13836385309696198,9.809816360473633,0.003636502255867915,-0.0020787052916889674,0.00016329164746684,0.27497434616088867,2019-06-20 15:03:29:821,0.0,0.0,0.0
-0.20920294523239136,0.08328460156917572,9.809816360473633,0.0008395001561067318,-0.00021403725227258724,0.0022943408469817354,0.28087520599365234,2019-06-20 15:03:29:827,0.0,0.0,0.0
-0.19004493951797485,0.12639009952545166,9.884054183959961,0.0009726907199013442,-0.0050088978252076,0.009087060380729938,0.2849740982055664,2019-06-20 15:03:29:831,0.0,0.0,0.0
-0.2068081945180893,0.13836385309696198,9.831369400024414,0.0020382153602954054,-0.0010131806512949063,0.005091342946742919,0.2899665832519531,2019-06-20 15:03:29:836,0.0,0.0,0.0
-0.20201869308948517,0.10004784911870956,9.771500587463379,0.0009726907199013442,0.0019170118822237267,0.005757295505641655,0.29499053955078125,2019-06-20 15:03:29:841,0.0,0.0,0.0
-0.19722919166088104,0.0976531058549881,9.826580047607422,0.0011058812836959564,-0.0007467995237056817,0.00748877309504594,0.30085039138793945,2019-06-20 15:03:29:847,0.0,0.0,0.0
-0.21638718247413635,0.11920584738254547,9.769105911254883,0.003103740000689466,-0.0035438016234668654,0.006689629712278266,0.30497169494628906,2019-06-20 15:03:29:851,0.0,0.0,0.0
-0.2523084282875061,0.1431533545255661,9.807421684265137,0.0024377869216420794,-0.0020787052916889674,0.003226674793544021,0.3108515739440918,2019-06-20 15:03:29:857,0.0,0.0,0.0
-0.19483444094657898,0.14794284105300903,9.819396018981934,-9.283383109216743e-05,0.002316583703644726,0.0028271031021601845,0.3158564567565918,2019-06-20 15:03:29:862,0.0,0.0,0.0
-0.23075568675994873,0.12639009952545166,9.814606666564941,-0.003156217017805962,-0.004609325873749438,0.0022943408469817354,0.3200106620788574,2019-06-20 15:03:29:866,0.0,0.0,0.0
-0.21159768104553223,0.1311796009540558,9.828974723815918,0.0011058812836959564,-0.004342945006234539,0.009353440988170512,0.3249931335449219,2019-06-20 15:03:29:871,0.0,0.0,0.0
-0.20201869308948517,0.1359691023826599,9.826580047607422,0.0005731190285175073,-0.0004804183961164572,0.007755154222635165,0.3308544158935547,2019-06-20 15:03:29:877,0.0,0.0,0.0
-0.2139924317598343,0.13357435166835785,9.790658950805664,0.0032369305644840782,-0.003011039368288416,0.005357724074332143,0.3349761962890625,2019-06-20 15:03:29:881,0.0,0.0,0.0
-0.22117668390274048,0.11441635340452194,9.783474922180176,0.0017718342327061804,0.0013842496270452774,0.005091342946742919,0.34087562561035156,2019-06-20 15:03:29:887,0.0,0.0,0.0
-0.21638718247413635,0.116811104118824,9.857711791992188,0.0020382153602954054,-0.005541660080386049,0.004958152122873981,0.3449745178222656,2019-06-20 15:03:29:891,0.0,0.0,0.0
-0.19722919166088104,0.116811104118824,9.797842979431152,0.0021714059240900176,-0.0006136089599110694,0.0030934842297494092,0.34997081756591797,2019-06-20 15:03:29:896,0.0,0.0,0.0
-0.17807118594646454,0.116811104118824,9.754737854003906,0.0048352170699451,-0.00021403725227258724,0.004958152122873981,0.3558626174926758,2019-06-20 15:03:29:902,0.0,0.0,0.0
-0.18525543808937073,0.10004784911870956,9.845738410949707,0.0011058812836959564,0.0004519156154644102,-0.0017013763269309588,0.35997581481933594,2019-06-20 15:03:29:906,0.0,0.0,0.0
-0.17807118594646454,0.10483735054731369,9.83376407623291,0.0016386436689115682,0.0015174401908398898,0.008287916477813613,0.36585426330566406,2019-06-20 15:03:29:912,0.0,0.0,0.0
-0.1876501888036728,0.13836385309696198,9.797842979431152,0.005101598717682976,-0.00021403725227258724,0.0013620067703822866,0.3708782196044922,2019-06-20 15:03:29:917,0.0,0.0,0.0
-0.1541236937046051,0.12639009952545166,9.817001342773438,0.010029649838157954,0.002849345958823175,0.00549091437805243,0.37585926055908203,2019-06-20 15:03:29:922,0.0,0.0,0.0
-0.2139924317598343,0.14075860381126404,9.814606666564941,0.0015054529750797934,5.234389563494396e-05,0.00042967279131070986,0.3799705505371094,2019-06-20 15:03:29:926,0.0,0.0,0.0
-0.18525543808937073,0.1359691023826599,9.82179069519043,-0.003156217017805962,-0.001945514727894355,0.004425389867695532,0.3849802017211914,2019-06-20 15:03:29:931,0.0,0.0,0.0
-0.2331504374742508,0.09525835514068604,9.781079292297363,0.0016386436689115682,-0.000879990087500294,0.003226674793544021,0.3899803161621094,2019-06-20 15:03:29:936,0.0,0.0,0.0
-0.20920294523239136,0.11920584738254547,9.900816917419434,-0.0004924055468579722,-0.0010131806512949063,-0.0027669008372878568,0.39585399627685547,2019-06-20 15:03:29:942,0.0,0.0,0.0
-0.16609744727611542,0.12160059809684753,9.783474922180176,0.0009726907199013442,-0.0010131806512949063,-0.0010354235079578973,0.39997005462646484,2019-06-20 15:03:29:946,0.0,0.0,0.0
-0.24272944033145905,0.1311796009540558,9.86250114440918,-0.0006255961106525846,0.0019170118822237267,0.0006960539514092252,0.40585994720458984,2019-06-20 15:03:29:952,0.0,0.0,0.0
-0.1876501888036728,0.08088985830545425,9.802632331848145,0.0028373588731002413,-0.0007467995237056817,0.0024275314107763475,0.4099764823913574,2019-06-20 15:03:29:956,0.0,0.0,0.0
-0.2523084282875061,0.08328460156917572,9.778684616088867,0.004568835942355876,0.0029825365226177876,-0.0006358518165740604,0.4158668518066406,2019-06-20 15:03:29:962,0.0,0.0,0.0
-0.20920294523239136,0.12160059809684753,9.876870155334473,-0.0026234547626275127,-0.001945514727894355,-0.0063630465798910395,0.4199795722961426,2019-06-20 15:03:29:966,0.0,0.0,0.0
-0.24033468961715698,0.10004784911870956,9.802632331848145,0.003103740000689466,-0.0003472278323218449,-0.0005026612202701574,0.4258766174316406,2019-06-20 15:03:29:972,0.0,0.0,0.0
-0.19243969023227692,0.07849510759115219,9.826580047607422,0.0021714059240900176,-0.0015459429064733554,-0.0032996633525406317,0.43087148666381836,2019-06-20 15:03:29:977,0.0,0.0,0.0
-0.2139924317598343,0.13836385309696198,9.872079849243164,-0.003955360400573636,-0.003676992187261477,0.0022943408469817354,0.4358711242675781,2019-06-20 15:03:29:982,0.0,0.0,0.0
-0.24272944033145905,0.07849510759115219,9.817001342773438,0.005501170148992487,-0.0004804183961164572,0.0028271031021601845,0.439969539642334,2019-06-20 15:03:29:986,0.0,0.0,0.0
-0.26188743114471436,0.12639009952545166,9.766711235046387,0.0005731190285175073,0.0019170118822237267,0.0008292445152038374,0.44586181640625,2019-06-20 15:03:29:992,0.0,0.0,0.0
-0.21878193318843842,0.10962685197591782,9.845738410949707,-0.0006255961106525846,0.0004519156154644102,3.010106944941304e-05,0.44997692108154297,2019-06-20 15:03:29:996,0.0,0.0,0.0
-0.23554518818855286,0.07610035687685013,9.802632331848145,0.0017718342327061804,0.0015174401908398898,-0.004231997299102917,0.4558534622192383,2019-06-20 15:03:30:002,0.0,0.0,0.0
-0.20441344380378723,0.1431533545255661,9.807421684265137,-0.0008919772382418092,-0.0010131806512949063,0.0012288162065876742,0.45997047424316406,2019-06-20 15:03:30:006,0.0,0.0,0.0
-0.2068081945180893,0.06173185631632805,9.845738410949707,-0.002223883071243676,-0.0010131806512949063,-0.005563903197123366,0.46587181091308594,2019-06-20 15:03:30:012,0.0,0.0,0.0
-0.21878193318843842,0.11441635340452194,9.82179069519043,-0.0008919772382418092,-0.002744658240699191,-0.001834566890725571,0.4699687957763672,2019-06-20 15:03:30:016,0.0,0.0,0.0
-0.21159768104553223,0.14554809033870697,9.826580047607422,0.002970549436894854,-0.0015459429064733554,0.0009624350789984497,0.4749770164489746,2019-06-20 15:03:30:021,0.0,0.0,0.0
-0.22836093604564667,0.08088985830545425,9.819396018981934,0.00043992846472289506,-0.000879990087500294,0.0014951973341768988,0.4808783531188965,2019-06-20 15:03:30:027,0.0,0.0,0.0
-0.2068081945180893,0.116811104118824,9.898422241210938,-0.001158358430849615,0.0005851061792590224,-0.0014349951993417342,0.4849729537963867,2019-06-20 15:03:30:031,0.0,0.0,0.0
-0.24272944033145905,0.116811104118824,9.785869598388672,-9.283383109216743e-05,0.0004519156154644102,-0.00023628007642628753,0.48996782302856445,2019-06-20 15:03:30:036,0.0,0.0,0.0
-0.20201869308948517,0.10244259983301163,9.812211036682129,-0.0018243112498226766,-0.0016791336003051302,-0.007028999138789776,0.49586057662963867,2019-06-20 15:03:30:042,0.0,0.0,0.0
-0.19722919166088104,0.09286360442638397,9.79305362701416,0.0012390718474905686,-0.0006136089599110694,-0.00010308950450435256,0.49997711181640625,2019-06-20 15:03:30:046,0.0,0.0,0.0
-0.19483444094657898,0.10244259983301163,9.80502700805664,0.0016386436689115682,-0.004342945006234539,0.0025607219745709597,0.5049724578857422,2019-06-20 15:03:30:051,0.0,0.0,0.0
-0.20920294523239136,0.1359691023826599,9.797842979431152,-0.00035921498306336,-0.0010131806512949063,0.0022943408469817354,0.5099830627441406,2019-06-20 15:03:30:056,0.0,0.0,0.0
-0.16609744727611542,0.10244259983301163,9.83376407623291,-0.0024902641988329005,-0.003410611059672253,0.0028271031021601845,0.5158596038818359,2019-06-20 15:03:30:062,0.0,0.0,0.0
-0.22836093604564667,0.1311796009540558,9.817001342773438,0.004702026766224813,-0.002211895725446417,-0.004764759294207041,0.5199680328369141,2019-06-20 15:03:30:066,0.0,0.0,0.0
-0.1876501888036728,0.15512709319591522,9.797842979431152,0.0012390718474905686,-0.0028778488044938037,-0.002234138582109408,0.5250086784362793,2019-06-20 15:03:30:071,0.0,0.0,0.0
-0.1876501888036728,0.11202160269021988,9.831369400024414,-0.001158358430849615,-0.0038101827510560898,-0.0015681857631363464,0.5308647155761719,2019-06-20 15:03:30:077,0.0,0.0,0.0
-0.2139924317598343,0.14554809033870697,9.771500587463379,-0.0016911206860280642,-0.0014127523426787432,-0.0030332819648770815,0.53497314453125,2019-06-20 15:03:30:081,0.0,0.0,0.0
-0.17088694870471954,0.11202160269021988,9.80502700805664,-0.0036889792729844113,0.0013842496270452774,3.010106944941304e-05,0.5399694442749023,2019-06-20 15:03:30:086,0.0,0.0,0.0
-0.15891319513320923,0.10244259983301163,9.848133087158203,-0.0016911206860280642,0.0011178684994560528,-0.001834566890725571,0.5458621978759766,2019-06-20 15:03:30:092,0.0,0.0,0.0
-0.22117668390274048,0.09286360442638397,9.828974723815918,-0.0051540754747251465,-0.0023450862892410293,-0.0025005197096986324,0.5499763488769531,2019-06-20 15:03:30:096,0.0,0.0,0.0
-0.1804659366607666,0.14075860381126404,9.855317115783691,-0.0007587866744471969,0.0009846778706428594,-0.00036947065647554515,0.5558700561523438,2019-06-20 15:03:30:102,0.0,0.0,0.0
-0.18286068737506866,0.1431533545255661,9.749947547912598,0.0048352170699451,-0.0032774204958776402,0.001628387897971511,0.5599861145019531,2019-06-20 15:03:30:106,0.0,0.0,0.0
-0.15891319513320923,0.14554809033870697,9.826580047607422,0.0020382153602954054,-0.0007467995237056817,0.0014951973341768988,0.5658531188964844,2019-06-20 15:03:30:112,0.0,0.0,0.0
-0.18286068737506866,0.13357435166835785,9.812211036682129,0.0009726907199013442,0.0025829648312339507,-0.0029000914010824694,0.5700168609619141,2019-06-20 15:03:30:116,0.0,0.0,0.0
-0.1876501888036728,0.1239953488111496,9.82179069519043,-0.002223883071243676,-0.00021403725227258724,-0.0036992350439244686,0.5758700370788574,2019-06-20 15:03:30:122,0.0,0.0,0.0
-0.18525543808937073,0.11920584738254547,9.79305362701416,-0.0023570736350382883,-0.0016791336003051302,0.0002964822275160976,0.5799694061279297,2019-06-20 15:03:30:126,0.0,0.0,0.0
-0.19722919166088104,0.1239953488111496,9.773895263671875,0.0007063095923121196,-0.0007467995237056817,-0.0032996633525406317,0.5849790573120117,2019-06-20 15:03:30:131,0.0,0.0,0.0
-0.19722919166088104,0.17189034819602966,9.800237655639648,-0.0012915489946442272,-0.0007467995237056817,-0.0036992350439244686,0.5908603668212891,2019-06-20 15:03:30:137,0.0,0.0,0.0
-0.19004493951797485,0.13836385309696198,9.843342781066895,-0.0006255961106525846,-0.0016791336003051302,-0.005830284324712591,0.5949769020080566,2019-06-20 15:03:30:141,0.0,0.0,0.0
-0.17088694870471954,0.14075860381126404,9.852922439575195,-0.0018243112498226766,-0.0028778488044938037,-0.000902232944163285,0.5999679565429688,2019-06-20 15:03:30:146,0.0,0.0,0.0
-0.17567645013332367,0.10962685197591782,9.771500587463379,-0.00035921498306336,-0.0003472278323218449,-0.0013018046355471218,0.6058616638183594,2019-06-20 15:03:30:152,0.0,0.0,0.0
-0.20920294523239136,0.1311796009540558,9.776289939880371,-0.0030230264540113496,-0.003676992187261477,0.00016329164746684,0.6099748611450195,2019-06-20 15:03:30:156,0.0,0.0,0.0
-0.20201869308948517,0.1359691023826599,9.848133087158203,-0.001557930122233452,-0.0003472278323218449,-0.00010308950450435256,0.6158628463745117,2019-06-20 15:03:30:162,0.0,0.0,0.0
-0.17088694870471954,0.08088985830545425,9.778684616088867,0.0016386436689115682,0.005379966670920808,0.0021611501531499603,0.6208906173706055,2019-06-20 15:03:30:167,0.0,0.0,0.0
-0.19004493951797485,0.1239953488111496,9.855317115783691,0.0027041680492313038,-0.0014127523426787432,0.0056241052019213676,0.625,2019-06-20 15:03:30:171,0.0,0.0,0.0
-0.20920294523239136,0.12639009952545166,9.884054183959961,-0.0014247395584388394,-0.004875707001338663,0.0008292445152038374,0.6308565139770508,2019-06-20 15:03:30:177,0.0,0.0,0.0
-0.16370269656181335,0.1359691023826599,9.831369400024414,0.0039028833834571395,0.002716155395028563,-0.0025005197096986324,0.634974479675293,2019-06-20 15:03:30:181,0.0,0.0,0.0
-0.2068081945180893,0.1239953488111496,9.848133087158203,-0.003156217017805962,-0.0014127523426787432,-0.0015681857631363464,0.6408605575561523,2019-06-20 15:03:30:187,0.0,0.0,0.0
-0.21878193318843842,0.11441635340452194,9.809816360473633,0.002970549436894854,-0.0007467995237056817,0.0013620067703822866,0.6449737548828125,2019-06-20 15:03:30:191,0.0,0.0,0.0
-0.1732816994190216,0.1311796009540558,9.843342781066895,0.0016386436689115682,-0.002211895725446417,3.010106944941304e-05,0.6508493423461914,2019-06-20 15:03:30:197,0.0,0.0,0.0
-0.17567645013332367,0.15273234248161316,9.824185371398926,0.0021714059240900176,0.0031157270864124,0.0005628633876146128,0.6558642387390137,2019-06-20 15:03:30:202,0.0,0.0,0.0
-0.24272944033145905,0.09286360442638397,9.809816360473633,0.0011058812836959564,-8.084668035065233e-05,-0.0014349951993417342,0.6608595848083496,2019-06-20 15:03:30:207,0.0,0.0,0.0
-0.17567645013332367,0.12639009952545166,9.795448303222656,0.0003067379009282828,-0.0003472278323218449,-0.0021009480183147955,0.6658711433410645,2019-06-20 15:03:30:212,0.0,0.0,0.0
-0.22117668390274048,0.1239953488111496,9.800237655639648,-0.001557930122233452,0.0005851061792590224,-0.0006358518165740604,0.6699819564819336,2019-06-20 15:03:30:216,0.0,0.0,0.0
-0.1876501888036728,0.1623113453388214,9.812211036682129,0.00043992846472289506,0.0019170118822237267,-0.004764759294207041,0.6749725341796875,2019-06-20 15:03:30:221,0.0,0.0,0.0
-0.17807118594646454,0.1766798496246338,9.776289939880371,-0.004088550964368248,-0.0010131806512949063,-0.0034328539163352434,0.6799716949462891,2019-06-20 15:03:30:226,0.0,0.0,0.0
-0.1996239423751831,0.1431533545255661,9.773895263671875,-0.0006255961106525846,-0.0003472278323218449,-0.005297521549385491,0.6858587265014648,2019-06-20 15:03:30:232,0.0,0.0,0.0
-0.20201869308948517,0.15752184391021729,9.828974723815918,-0.0024902641988329005,-0.005142088649076538,0.003226674793544021,0.6908578872680664,2019-06-20 15:03:30:237,0.0,0.0,0.0
-0.1469394415616989,0.11441635340452194,9.860106468200684,0.0015054529750797934,0.00018553447162054023,0.00042967279131070986,0.6949734687805176,2019-06-20 15:03:30:241,0.0,0.0,0.0
-0.1876501888036728,0.1239953488111496,9.828974723815918,-0.0023570736350382883,-0.0040765638786453146,0.0002964822275160976,0.7008528709411621,2019-06-20 15:03:30:247,0.0,0.0,0.0
-0.1996239423751831,0.1239953488111496,9.807421684265137,-0.006752362240260493,0.0017838213184291141,0.0028271031021601845,0.7049784660339355,2019-06-20 15:03:30:251,0.0,0.0,0.0
-0.2139924317598343,0.1503375917673111,9.814606666564941,0.003636502255867915,0.002849345958823175,0.0014951973341768988,0.7099742889404297,2019-06-20 15:03:30:256,0.0,0.0,0.0
-0.16609744727611542,0.11920584738254547,9.819396018981934,0.0035033116920733026,0.00031872505166979784,-0.002234138582109408,0.7158746719360352,2019-06-20 15:03:30:262,0.0,0.0,0.0
-0.2068081945180893,0.10723210126161575,9.867290496826172,-9.283383109216743e-05,0.0005851061792590224,0.0012288162065876742,0.719970703125,2019-06-20 15:03:30:266,0.0,0.0,0.0
-0.20201869308948517,0.12639009952545166,9.788264274597168,0.0057675512765817125,-0.00021403725227258724,-0.0010354235079578973,0.7258834838867188,2019-06-20 15:03:30:272,0.0,0.0,0.0
-0.19483444094657898,0.11202160269021988,9.864895820617676,-0.0006255961106525846,-0.0020787052916889674,-0.0021009480183147955,0.7299785614013672,2019-06-20 15:03:30:276,0.0,0.0,0.0
-0.18286068737506866,0.1359691023826599,9.795448303222656,-0.0023570736350382883,-0.0035438016234668654,0.00016329164746684,0.7349705696105957,2019-06-20 15:03:30:281,0.0,0.0,0.0
-0.2139924317598343,0.12878485023975372,9.845738410949707,0.002970549436894854,-0.0007467995237056817,-0.0015681857631363464,0.7399692535400391,2019-06-20 15:03:30:286,0.0,0.0,0.0
-0.1996239423751831,0.1239953488111496,9.860106468200684,0.0028373588731002413,-0.003011039368288416,0.005224533250463206,0.7449846267700195,2019-06-20 15:03:30:291,0.0,0.0,0.0
-0.1804659366607666,0.10962685197591782,9.869685173034668,0.0027041680492313038,0.0004519156154644102,0.0022943408469817354,0.750859260559082,2019-06-20 15:03:30:297,0.0,0.0,0.0
-0.23075568675994873,0.14794284105300903,9.838553428649902,4.035674489342885e-05,0.0007182967430536347,0.0009624350789984497,0.7549786567687988,2019-06-20 15:03:30:301,0.0,0.0,0.0
-0.22357143461704254,0.0976531058549881,9.771500587463379,0.0023045963578474673,-0.0018123241640997428,-0.0010354235079578973,0.7608919143676758,2019-06-20 15:03:30:307,0.0,0.0,0.0
-0.19243969023227692,0.116811104118824,9.89123821258545,0.00017354732087902514,-0.003144229932083028,0.00042967279131070986,0.7649774551391602,2019-06-20 15:03:30:311,0.0,0.0,0.0
-0.15891319513320923,0.10004784911870956,9.855317115783691,0.00043992846472289506,-0.00847185248386752,0.004824961819153694,0.7708520889282227,2019-06-20 15:03:30:317,0.0,0.0,0.0
-0.19243969023227692,0.15273234248161316,9.797842979431152,0.0027041680492313038,0.001650630754634502,0.0008292445152038374,0.7749776840209961,2019-06-20 15:03:30:321,0.0,0.0,0.0
-0.19243969023227692,0.10723210126161575,9.857711791992188,0.0011058812836959564,-0.00021403725227258724,0.0002964822275160976,0.7809209823608398,2019-06-20 15:03:30:327,0.0,0.0,0.0
-0.23554518818855286,0.12639009952545166,9.836158752441406,0.0028373588731002413,-0.003144229932083028,0.005357724074332143,0.7849950790405273,2019-06-20 15:03:30:331,0.0,0.0,0.0
-0.19243969023227692,0.10244259983301163,9.809816360473633,0.0032369305644840782,0.0015174401908398898,-0.0027669008372878568,0.7899703979492188,2019-06-20 15:03:30:336,0.0,0.0,0.0
-0.17088694870471954,0.11920584738254547,9.783474922180176,0.0023045963578474673,-0.005541660080386049,0.0002964822275160976,0.7949800491333008,2019-06-20 15:03:30:341,0.0,0.0,0.0
-0.18286068737506866,0.13836385309696198,9.831369400024414,0.0015054529750797934,-0.0024782768530356414,0.006023676633230879,0.8008594512939453,2019-06-20 15:03:30:347,0.0,0.0,0.0
-0.21159768104553223,0.116811104118824,9.881659507751465,-0.0010251678020364214,-0.001945514727894355,0.00016329164746684,0.8058891296386719,2019-06-20 15:03:30:352,0.0,0.0,0.0
-0.19722919166088104,0.10244259983301163,9.797842979431152,-0.001158358430849615,0.0011178684994560528,0.00016329164746684,0.8099803924560547,2019-06-20 15:03:30:356,0.0,0.0,0.0
-0.2068081945180893,0.13357435166835785,9.79305362701416,0.003370121128278691,5.234389563494396e-05,0.001628387897971511,0.81585693359375,2019-06-20 15:03:30:362,0.0,0.0,0.0
-0.1996239423751831,0.11441635340452194,9.766711235046387,-0.0010251678020364214,-0.0026114674168302536,-0.00036947065647554515,0.819969654083252,2019-06-20 15:03:30:366,0.0,0.0,0.0
-0.21638718247413635,0.11920584738254547,9.86250114440918,0.0015054529750797934,-0.0032774204958776402,-0.00010308950450435256,0.8250002861022949,2019-06-20 15:03:30:371,0.0,0.0,0.0
-0.21159768104553223,0.07849510759115219,9.790658950805664,-0.0007587866744471969,0.0012510590632506652,-0.0021009480183147955,0.8308601379394531,2019-06-20 15:03:30:377,0.0,0.0,0.0
-0.18525543808937073,0.12639009952545166,9.824185371398926,0.004968407893814039,-0.0014127523426787432,0.0021611501531499603,0.8349728584289551,2019-06-20 15:03:30:381,0.0,0.0,0.0
-0.20920294523239136,0.1239953488111496,9.872079849243164,0.006300313531760161,0.0013842496270452774,-0.0013018046355471218,0.840850830078125,2019-06-20 15:03:30:387,0.0,0.0,0.0
-0.1804659366607666,0.15991659462451935,9.824185371398926,-0.0014247395584388394,-8.084668035065233e-05,0.00016329164746684,0.8449783325195312,2019-06-20 15:03:30:391,0.0,0.0,0.0
-0.22117668390274048,0.10004784911870956,9.802632331848145,0.0027041680492313038,-0.0011463712150895187,0.004292199303900919,0.8499765396118164,2019-06-20 15:03:30:396,0.0,0.0,0.0
-0.2139924317598343,0.0976531058549881,9.769105911254883,-0.00022602440301410239,-0.0010131806512949063,-0.0007690423803686727,0.8558835983276367,2019-06-20 15:03:30:402,0.0,0.0,0.0
-0.1804659366607666,0.12878485023975372,9.840948104858398,0.0003067379009282828,-0.0010131806512949063,-0.004498378166617817,0.8599691390991211,2019-06-20 15:03:30:406,0.0,0.0,0.0
-0.2259661853313446,0.12160059809684753,9.76431655883789,0.0008395001561067318,0.00018553447162054023,0.0028271031021601845,0.8649749755859375,2019-06-20 15:03:30:411,0.0,0.0,0.0
-0.22117668390274048,0.10483735054731369,9.745158195495605,0.0015054529750797934,0.0013842496270452774,-0.00036947065647554515,0.8708572387695312,2019-06-20 15:03:30:417,0.0,0.0,0.0
-0.20201869308948517,0.11202160269021988,9.757132530212402,-0.0058200285537725336,-0.0028778488044938037,-0.0036992350439244686,0.8749732971191406,2019-06-20 15:03:30:421,0.0,0.0,0.0
-0.19722919166088104,0.07370560616254807,9.795448303222656,0.0043024550748409765,-0.0007467995237056817,-0.0023673291459040203,0.8808512687683105,2019-06-20 15:03:30:427,0.0,0.0,0.0
-0.16849219799041748,0.14075860381126404,9.828974723815918,-0.00022602440301410239,0.0032489176502070124,0.0006960539514092252,0.8849759101867676,2019-06-20 15:03:30:431,0.0,0.0,0.0
-0.18286068737506866,0.10723210126161575,9.838553428649902,-0.00035921498306336,0.0029825365226177876,-0.00023628007642628753,0.8908596038818359,2019-06-20 15:03:30:437,0.0,0.0,0.0
-0.18525543808937073,0.11920584738254547,9.83376407623291,0.0023045963578474673,0.0013842496270452774,0.0029602936659547966,0.8949766159057617,2019-06-20 15:03:30:441,0.0,0.0,0.0
-0.20920294523239136,0.11202160269021988,9.797842979431152,0.0008395001561067318,-0.003410611059672253,0.0013620067703822866,0.9008688926696777,2019-06-20 15:03:30:447,0.0,0.0,0.0
-0.20920294523239136,0.14075860381126404,9.836158752441406,0.0005731190285175073,-0.0014127523426787432,0.0037594370487224705,0.9049792289733887,2019-06-20 15:03:30:451,0.0,0.0,0.0
-0.16370269656181335,0.12160059809684753,9.8505277633667,0.0009726907199013442,-0.0007467995237056817,0.0012288162065876742,0.9108505249023438,2019-06-20 15:03:30:457,0.0,0.0,0.0
-0.1804659366607666,0.07610035687685013,9.80502700805664,0.0011058812836959564,0.0017838213184291141,-0.0011686140717525096,0.9149761199951172,2019-06-20 15:03:30:461,0.0,0.0,0.0
-0.18286068737506866,0.12878485023975372,9.788264274597168,0.0028373588731002413,-0.003144229932083028,-0.0019677574545201833,0.9208574295043945,2019-06-20 15:03:30:467,0.0,0.0,0.0
-0.2139924317598343,0.12639009952545166,9.83376407623291,0.0025709774854366916,-0.0026114674168302536,-0.0017013763269309588,0.9249734878540039,2019-06-20 15:03:30:471,0.0,0.0,0.0
-0.17567645013332367,0.12639009952545166,9.809816360473633,-0.001957501813617289,0.001650630754634502,-0.003566044480129856,0.929966926574707,2019-06-20 15:03:30:476,0.0,0.0,0.0
-0.21159768104553223,0.12878485023975372,9.788264274597168,0.0008395001561067318,-0.003144229932083028,-0.0064962368836113255,0.9349775314331055,2019-06-20 15:03:30:481,0.0,0.0,0.0
-0.21159768104553223,0.12639009952545166,9.860106468200684,0.001372262411285181,-0.0003472278323218449,3.010106944941304e-05,0.9399757385253906,2019-06-20 15:03:30:486,0.0,0.0,0.0
-0.16370269656181335,0.14794284105300903,9.812211036682129,0.00043992846472289506,-0.0014127523426787432,0.0002964822275160976,0.945897102355957,2019-06-20 15:03:30:492,0.0,0.0,0.0
-0.18525543808937073,0.12639009952545166,9.802632331848145,-0.0014247395584388394,-0.00021403725227258724,-0.00023628007642628753,0.9499950408935547,2019-06-20 15:03:30:496,0.0,0.0,0.0
-0.1804659366607666,0.12160059809684753,9.838553428649902,-0.0007587866744471969,-0.0003472278323218449,-0.0015681857631363464,0.9549713134765625,2019-06-20 15:03:30:501,0.0,0.0,0.0
-0.2068081945180893,0.13836385309696198,9.845738410949707,-0.00022602440301410239,-0.0007467995237056817,-0.0013018046355471218,0.9608478546142578,2019-06-20 15:03:30:507,0.0,0.0,0.0
-0.15651844441890717,0.12160059809684753,9.838553428649902,0.003370121128278691,-0.0018123241640997428,0.0025607219745709597,0.9649782180786133,2019-06-20 15:03:30:511,0.0,0.0,0.0
-0.21878193318843842,0.12639009952545166,9.79305362701416,0.0057675512765817125,0.0007182967430536347,-0.004631568990486754,0.9708571434020996,2019-06-20 15:03:30:517,0.0,0.0,0.0
-0.20201869308948517,0.11202160269021988,9.819396018981934,0.0035033116920733026,-0.003943373314850702,-0.002234138582109408,0.9749722480773926,2019-06-20 15:03:30:521,0.0,0.0,0.0
-0.19243969023227692,0.14794284105300903,9.761921882629395,-0.002756645326422125,-0.0020787052916889674,-0.0025005197096986324,0.9799699783325195,2019-06-20 15:03:30:526,0.0,0.0,0.0
-0.2068081945180893,0.14794284105300903,9.848133087158203,0.0024377869216420794,-0.003144229932083028,-0.0027669008372878568,0.9849758148193359,2019-06-20 15:03:30:531,0.0,0.0,0.0
-0.1876501888036728,0.13357435166835785,9.809816360473633,0.0012390718474905686,-0.003144229932083028,-0.0023673291459040203,0.9908571243286133,2019-06-20 15:03:30:537,0.0,0.0,0.0
-0.22836093604564667,0.13357435166835785,9.817001342773438,-0.001158358430849615,-0.0026114674168302536,-0.0005026612202701574,0.9950075149536133,2019-06-20 15:03:30:541,0.0,0.0,0.0
-0.17807118594646454,0.10004784911870956,9.817001342773438,0.0023045963578474673,-0.0003472278323218449,-0.0011686140717525096,0.9999809265136719,2019-06-20 15:03:30:546,0.0,0.0,0.0
-0.19483444094657898,0.11202160269021988,9.812211036682129,-0.0035557887091897987,-0.0040765638786453146,-0.0010354235079578973,1.005854606628418,2019-06-20 15:03:30:552,0.0,0.0,0.0
-0.19004493951797485,0.10723210126161575,9.852922439575195,0.0019050247965007928,-0.0010131806512949063,-0.001834566890725571,1.0099692344665527,2019-06-20 15:03:30:556,0.0,0.0,0.0
-0.17807118594646454,0.15273234248161316,9.819396018981934,-0.0026234547626275127,-0.0004804183961164572,-0.0036992350439244686,1.0158615112304688,2019-06-20 15:03:30:562,0.0,0.0,0.0
-0.1349657028913498,0.1239953488111496,9.864895820617676,0.001372262411285181,0.0019170118822237267,-0.0027669008372878568,1.0208616256713867,2019-06-20 15:03:30:567,0.0,0.0,0.0
-0.20201869308948517,0.1503375917673111,9.802632331848145,0.001372262411285181,0.0009846778706428594,-0.0019677574545201833,1.02587890625,2019-06-20 15:03:30:572,0.0,0.0,0.0
-0.21878193318843842,0.13357435166835785,9.761921882629395,0.0024377869216420794,-0.003144229932083028,-0.0026337102734932446,1.029973030090332,2019-06-20 15:03:30:576,0.0,0.0,0.0
-0.18525543808937073,0.1503375917673111,9.819396018981934,-0.0008919772382418092,-8.084668035065233e-05,3.010106944941304e-05,1.0358619689941406,2019-06-20 15:03:30:582,0.0,0.0,0.0
-0.15651844441890717,0.11920584738254547,9.860106468200684,-0.0030230264540113496,0.000851487306848247,-0.0026337102734932446,1.0399932861328125,2019-06-20 15:03:30:586,0.0,0.0,0.0
-0.1876501888036728,0.12160059809684753,9.79305362701416,-0.002756645326422125,-0.0007467995237056817,-0.000902232944163285,1.045865535736084,2019-06-20 15:03:30:592,0.0,0.0,0.0
-0.16609744727611542,0.09286360442638397,9.778684616088867,-0.001957501813617289,-0.004342945006234539,0.0006960539514092252,1.0499696731567383,2019-06-20 15:03:30:596,0.0,0.0,0.0
-0.21159768104553223,0.1359691023826599,9.83376407623291,0.0011058812836959564,-0.006207613159433436,-0.0021009480183147955,1.0558595657348633,2019-06-20 15:03:30:602,0.0,0.0,0.0
-0.2068081945180893,0.11920584738254547,9.82179069519043,0.0011058812836959564,-0.0038101827510560898,0.0006960539514092252,1.0599699020385742,2019-06-20 15:03:30:606,0.0,0.0,0.0
-0.1876501888036728,0.10244259983301163,9.771500587463379,0.0016386436689115682,-0.0052752789527968245,0.005357724074332143,1.0658531188964844,2019-06-20 15:03:30:612,0.0,0.0,0.0
-0.19004493951797485,0.11920584738254547,9.797842979431152,0.0027041680492313038,-0.0011463712150895187,0.00042967279131070986,1.0708527565002441,2019-06-20 15:03:30:617,0.0,0.0,0.0
-0.18525543808937073,0.11920584738254547,9.83376407623291,0.0003067379009282828,-0.0015459429064733554,0.0025607219745709597,1.074976921081543,2019-06-20 15:03:30:621,0.0,0.0,0.0
-0.19722919166088104,0.12160059809684753,9.807421684265137,-0.001957501813617289,0.00031872505166979784,0.0012288162065876742,1.0809707641601562,2019-06-20 15:03:30:627,0.0,0.0,0.0
-0.19722919166088104,0.12878485023975372,9.817001342773438,0.0025709774854366916,-0.0040765638786453146,0.0013620067703822866,1.0850248336791992,2019-06-20 15:03:30:631,0.0,0.0,0.0
-0.15891319513320923,0.15273234248161316,9.788264274597168,0.0027041680492313038,-0.0007467995237056817,-0.00010308950450435256,1.0908823013305664,2019-06-20 15:03:30:637,0.0,0.0,0.0
-0.20441344380378723,0.12160059809684753,9.814606666564941,0.0037696928196625274,-0.0010131806512949063,-0.0027669008372878568,1.0949745178222656,2019-06-20 15:03:30:641,0.0,0.0,0.0
-0.17088694870471954,0.1431533545255661,9.807421684265137,0.0027041680492313038,0.0017838213184291141,0.0012288162065876742,1.0999703407287598,2019-06-20 15:03:30:646,0.0,0.0,0.0
-0.19004493951797485,0.08328460156917572,9.840948104858398,0.0012390718474905686,0.0024497742674393385,0.0033598653573386336,1.1049766540527344,2019-06-20 15:03:30:651,0.0,0.0,0.0
-0.20201869308948517,0.13357435166835785,9.814606666564941,0.0012390718474905686,-0.0038101827510560898,0.0024275314107763475,1.109975814819336,2019-06-20 15:03:30:656,0.0,0.0,0.0
-0.18286068737506866,0.13357435166835785,9.840948104858398,-9.283383109216743e-05,-0.0016791336003051302,-0.0014349951993417342,1.1158533096313477,2019-06-20 15:03:30:662,0.0,0.0,0.0
-0.16849219799041748,0.15273234248161316,9.817001342773438,-0.002223883071243676,-0.0007467995237056817,0.0002964822275160976,1.1199684143066406,2019-06-20 15:03:30:666,0.0,0.0,0.0
-0.1876501888036728,0.12639009952545166,9.848133087158203,0.0012390718474905686,0.0019170118822237267,0.0008292445152038374,1.1250019073486328,2019-06-20 15:03:30:671,0.0,0.0,0.0
-0.19483444094657898,0.14554809033870697,9.776289939880371,0.0037696928196625274,-0.0028778488044938037,0.0002964822275160976,1.1308603286743164,2019-06-20 15:03:30:677,0.0,0.0,0.0
-0.18286068737506866,0.08807410299777985,9.807421684265137,0.0015054529750797934,-0.0020787052916889674,-0.001834566890725571,1.1359062194824219,2019-06-20 15:03:30:682,0.0,0.0,0.0
-0.17807118594646454,0.12639009952545166,9.848133087158203,0.0012390718474905686,-0.0040765638786453146,0.001628387897971511,1.1399807929992676,2019-06-20 15:03:30:686,0.0,0.0,0.0
-0.17088694870471954,0.11920584738254547,9.831369400024414,0.0008395001561067318,-0.0020787052916889674,0.003493055921133246,1.1458535194396973,2019-06-20 15:03:30:692,0.0,0.0,0.0
-0.2068081945180893,0.12160059809684753,9.838553428649902,0.003103740000689466,0.0024497742674393385,-0.0029000914010824694,1.1499671936035156,2019-06-20 15:03:30:696,0.0,0.0,0.0
-0.16370269656181335,0.16710084676742554,9.771500587463379,0.0020382153602954054,-0.005541660080386049,-0.0007690423803686727,1.155860424041748,2019-06-20 15:03:30:702,0.0,0.0,0.0
-0.2068081945180893,0.12878485023975372,9.807421684265137,0.0043024550748409765,-0.0015459429064733554,-0.004498378166617817,1.1599760055541992,2019-06-20 15:03:30:706,0.0,0.0,0.0
-0.20201869308948517,0.10244259983301163,9.83376407623291,0.0008395001561067318,-0.002744658240699191,0.0013620067703822866,1.164970874786377,2019-06-20 15:03:30:711,0.0,0.0,0.0
-0.20201869308948517,0.11441635340452194,9.83376407623291,0.0023045963578474673,-0.00021403725227258724,-0.0005026612202701574,1.1708531379699707,2019-06-20 15:03:30:717,0.0,0.0,0.0
-0.19004493951797485,0.15752184391021729,9.836158752441406,-0.0008919772382418092,-0.0026114674168302536,0.0017615784617661236,1.1749773025512695,2019-06-20 15:03:30:721,0.0,0.0,0.0
-0.1541236937046051,0.14554809033870697,9.826580047607422,0.0017718342327061804,-0.0023450862892410293,0.0006960539514092252,1.18088960647583,2019-06-20 15:03:30:727,0.0,0.0,0.0
-0.21638718247413635,0.1311796009540558,9.824185371398926,4.035674489342885e-05,-0.003144229932083028,0.0029602936659547966,1.1849937438964844,2019-06-20 15:03:30:731,0.0,0.0,0.0
-0.1541236937046051,0.1239953488111496,9.795448303222656,-0.0008919772382418092,0.0029825365226177876,-0.0006358518165740604,1.1908526420593262,2019-06-20 15:03:30:737,0.0,0.0,0.0
-0.11341295391321182,0.10004784911870956,9.79305362701416,-0.002223883071243676,5.234389563494396e-05,-0.0015681857631363464,1.1958637237548828,2019-06-20 15:03:30:742,0.0,0.0,0.0
-0.1469394415616989,0.10962685197591782,9.773895263671875,-0.0032894075816005744,0.000851487306848247,0.00016329164746684,1.1999773979187012,2019-06-20 15:03:30:746,0.0,0.0,0.0
-0.1541236937046051,0.1239953488111496,9.80502700805664,-0.0006255961106525846,0.002716155395028563,0.0013620067703822866,1.2058534622192383,2019-06-20 15:03:30:752,0.0,0.0,0.0
-0.15172894299030304,0.13357435166835785,9.812211036682129,0.0053679798452722005,0.00018553447162054023,0.0002964822275160976,1.2099685668945312,2019-06-20 15:03:30:756,0.0,0.0,0.0
-0.1876501888036728,0.11202160269021988,9.817001342773438,0.004568835942355876,-0.000879990087500294,0.005091342946742919,1.2158565521240234,2019-06-20 15:03:30:762,0.0,0.0,0.0
-0.19243969023227692,0.11920584738254547,9.797842979431152,-0.0016911206860280642,-8.084668035065233e-05,0.002693912538365572,1.2199687957763672,2019-06-20 15:03:30:766,0.0,0.0,0.0
-0.17088694870471954,0.13836385309696198,9.807421684265137,-0.0018243112498226766,-0.0024782768530356414,0.003626246484927858,1.226140022277832,2019-06-20 15:03:30:772,0.0,0.0,0.0
-0.17567645013332367,0.1359691023826599,9.749947547912598,-0.004621313219546697,-0.00021403725227258724,0.0005628633876146128,1.229996681213379,2019-06-20 15:03:30:776,0.0,0.0,0.0
-0.19483444094657898,0.13836385309696198,9.790658950805664,0.0009726907199013442,-0.003676992187261477,-0.0026337102734932446,1.2358570098876953,2019-06-20 15:03:30:782,0.0,0.0,0.0
-0.1732816994190216,0.14794284105300903,9.828974723815918,0.0021714059240900176,-0.0014127523426787432,-0.0027669008372878568,1.2399702072143555,2019-06-20 15:03:30:786,0.0,0.0,0.0
-0.20920294523239136,0.1311796009540558,9.800237655639648,0.0012390718474905686,-0.0010131806512949063,-0.005430712373254428,1.2449760437011719,2019-06-20 15:03:30:791,0.0,0.0,0.0
-0.19483444094657898,0.12160059809684753,9.819396018981934,-0.0010251678020364214,0.0009846778706428594,0.0024275314107763475,1.2508563995361328,2019-06-20 15:03:30:797,0.0,0.0,0.0
-0.1804659366607666,0.07849510759115219,9.80502700805664,0.0024377869216420794,-0.0011463712150895187,0.0037594370487224705,1.2549734115600586,2019-06-20 15:03:30:801,0.0,0.0,0.0
-0.22117668390274048,0.11202160269021988,9.826580047607422,0.0032369305644840782,-0.0032774204958776402,0.0024275314107763475,1.2608509063720703,2019-06-20 15:03:30:807,0.0,0.0,0.0
-0.22836093604564667,0.08328460156917572,9.867290496826172,0.0005731190285175073,-0.0006136089599110694,-0.004231997299102917,1.2649784088134766,2019-06-20 15:03:30:811,0.0,0.0,0.0
-0.20441344380378723,0.15273234248161316,9.840948104858398,-0.0010251678020364214,-8.084668035065233e-05,-0.0023673291459040203,1.2708606719970703,2019-06-20 15:03:30:817,0.0,0.0,0.0
-0.17807118594646454,0.07610035687685013,9.881659507751465,0.003370121128278691,-0.006074422335564498,0.0013620067703822866,1.275001049041748,2019-06-20 15:03:30:821,0.0,0.0,0.0
-0.18525543808937073,0.1359691023826599,9.80502700805664,-0.0018243112498226766,-0.002211895725446417,0.0017615784617661236,1.279982566833496,2019-06-20 15:03:30:826,0.0,0.0,0.0
-0.17567645013332367,0.06173185631632805,9.838553428649902,0.0009726907199013442,0.0004519156154644102,-0.002234138582109408,1.2849736213684082,2019-06-20 15:03:30:831,0.0,0.0,0.0
-0.1876501888036728,0.10723210126161575,9.826580047607422,0.003370121128278691,0.0021833931398501137,-0.004098806735308305,1.2899703979492188,2019-06-20 15:03:30:836,0.0,0.0,0.0
-0.15172894299030304,0.11202160269021988,9.785869598388672,0.005634360972861425,0.00031872505166979784,0.0009624350789984497,1.2958602905273438,2019-06-20 15:03:30:842,0.0,0.0,0.0
-0.2259661853313446,0.11441635340452194,9.879264831542969,-0.007018743367849719,-0.0014127523426787432,0.0006960539514092252,1.2999777793884277,2019-06-20 15:03:30:846,0.0,0.0,0.0
-0.1996239423751831,0.1239953488111496,9.867290496826172,-0.001957501813617289,-0.0011463712150895187,-0.002234138582109408,1.3058481216430664,2019-06-20 15:03:30:852,0.0,0.0,0.0
-0.17088694870471954,0.12160059809684753,9.824185371398926,-9.283383109216743e-05,0.002716155395028563,-0.004764759294207041,1.3099641799926758,2019-06-20 15:03:30:856,0.0,0.0,0.0
-0.21638718247413635,0.116811104118824,9.867290496826172,-9.283383109216743e-05,-0.0011463712150895187,-0.0021009480183147955,1.3158659934997559,2019-06-20 15:03:30:862,0.0,0.0,0.0
-0.2594926953315735,0.12639009952545166,9.802632331848145,-0.0004924055468579722,-0.0016791336003051302,-0.0014349951993417342,1.3201189041137695,2019-06-20 15:03:30:866,0.0,0.0,0.0
-0.20201869308948517,0.11202160269021988,9.797842979431152,-0.0004924055468579722,-0.00021403725227258724,-0.0023673291459040203,1.3259010314941406,2019-06-20 15:03:30:872,0.0,0.0,0.0
-0.17807118594646454,0.1359691023826599,9.795448303222656,0.0015054529750797934,5.234389563494396e-05,-0.00010308950450435256,1.3299732208251953,2019-06-20 15:03:30:876,0.0,0.0,0.0
-0.21159768104553223,0.15752184391021729,9.778684616088867,0.003636502255867915,-0.0006136089599110694,0.0030934842297494092,1.3358592987060547,2019-06-20 15:03:30:882,0.0,0.0,0.0
-0.19243969023227692,0.08328460156917572,9.788264274597168,-0.004887694347135921,-0.002744658240699191,-0.004631568990486754,1.3399767875671387,2019-06-20 15:03:30:886,0.0,0.0,0.0
-0.21878193318843842,0.1359691023826599,9.857711791992188,0.0012390718474905686,-0.0004804183961164572,-0.0010354235079578973,1.3449716567993164,2019-06-20 15:03:30:891,0.0,0.0,0.0
-0.2139924317598343,0.14794284105300903,9.843342781066895,0.0012390718474905686,0.0004519156154644102,-0.0064962368836113255,1.3508491516113281,2019-06-20 15:03:30:897,0.0,0.0,0.0
-0.18286068737506866,0.116811104118824,9.824185371398926,-0.0006255961106525846,-0.0015459429064733554,-0.0029000914010824694,1.3549799919128418,2019-06-20 15:03:30:901,0.0,0.0,0.0
-0.24033468961715698,0.1239953488111496,9.778684616088867,-9.283383109216743e-05,0.002050202446018339,-0.0038324256077190803,1.3608570098876953,2019-06-20 15:03:30:907,0.0,0.0,0.0
-0.1996239423751831,0.14075860381126404,9.776289939880371,0.0007063095923121196,-0.003011039368288416,0.0014951973341768988,1.3649802207946777,2019-06-20 15:03:30:911,0.0,0.0,0.0
-0.2068081945180893,0.1431533545255661,9.848133087158203,0.0032369305644840782,-8.084668035065233e-05,-0.001834566890725571,1.3708834648132324,2019-06-20 15:03:30:917,0.0,0.0,0.0
-0.1996239423751831,0.13357435166835785,9.773895263671875,0.0020382153602954054,-0.0011463712150895187,0.0025607219745709597,1.3749771118164062,2019-06-20 15:03:30:921,0.0,0.0,0.0
-0.19004493951797485,0.116811104118824,9.771500587463379,-0.0010251678020364214,-0.0016791336003051302,-0.0034328539163352434,1.3808488845825195,2019-06-20 15:03:30:927,0.0,0.0,0.0
-0.16370269656181335,0.1239953488111496,9.845738410949707,-0.0016911206860280642,-0.0023450862892410293,-0.0006358518165740604,1.3858604431152344,2019-06-20 15:03:30:932,0.0,0.0,0.0
-0.15891319513320923,0.1311796009540558,9.855317115783691,0.0048352170699451,0.00018553447162054023,-0.0017013763269309588,1.3899765014648438,2019-06-20 15:03:30:936,0.0,0.0,0.0
-0.1732816994190216,0.10244259983301163,9.80502700805664,-0.0014247395584388394,-0.005142088649076538,-0.00023628007642628753,1.394974708557129,2019-06-20 15:03:30:941,0.0,0.0,0.0
-0.17567645013332367,0.11202160269021988,9.855317115783691,-0.0018243112498226766,0.0009846778706428594,0.0033598653573386336,1.3999676704406738,2019-06-20 15:03:30:946,0.0,0.0,0.0
-0.19722919166088104,0.11441635340452194,9.788264274597168,0.004169264511046364,-0.004342945006234539,0.0024275314107763475,1.4058637619018555,2019-06-20 15:03:30:952,0.0,0.0,0.0
-0.19243969023227692,0.12639009952545166,9.797842979431152,0.006300313531760161,-0.0026114674168302536,0.0013620067703822866,1.4099769592285156,2019-06-20 15:03:30:956,0.0,0.0,0.0
-0.20201869308948517,0.11441635340452194,9.828974723815918,-0.0008919772382418092,-0.0012795617788841308,0.0029602936659547966,1.4158782958984375,2019-06-20 15:03:30:962,0.0,0.0,0.0
-0.1804659366607666,0.116811104118824,9.814606666564941,0.0032369305644840782,-0.003676992187261477,0.001628387897971511,1.4208755493164062,2019-06-20 15:03:30:967,0.0,0.0,0.0
-0.17088694870471954,0.10962685197591782,9.828974723815918,-0.002889835890216737,-0.002744658240699191,0.0028271031021601845,1.424973487854004,2019-06-20 15:03:30:971,0.0,0.0,0.0
-0.19722919166088104,0.10483735054731369,9.795448303222656,-0.0030230264540113496,-0.0004804183961164572,0.004958152122873981,1.4308547973632812,2019-06-20 15:03:30:977,0.0,0.0,0.0
-0.19243969023227692,0.13836385309696198,9.766711235046387,0.004435645638635589,-0.0023450862892410293,0.004292199303900919,1.4349784851074219,2019-06-20 15:03:30:981,0.0,0.0,0.0
-0.19722919166088104,0.1359691023826599,9.781079292297363,-0.0007587866744471969,-0.0004804183961164572,0.0013620067703822866,1.4408602714538574,2019-06-20 15:03:30:987,0.0,0.0,0.0
-0.2259661853313446,0.08567935228347778,9.852922439575195,0.0012390718474905686,-0.0018123241640997428,-0.0031664725286716937,1.4449701309204102,2019-06-20 15:03:30:991,0.0,0.0,0.0
-0.20441344380378723,0.10004784911870956,9.819396018981934,-0.0023570736350382883,-0.0024782768530356414,-0.00036947065647554515,1.4508533477783203,2019-06-20 15:03:30:997,0.0,0.0,0.0
-0.13975520431995392,0.13357435166835785,9.776289939880371,0.003636502255867915,-0.003410611059672253,0.003626246484927858,1.4549779891967773,2019-06-20 15:03:31:001,0.0,0.0,0.0
-0.16609744727611542,0.08328460156917572,9.843342781066895,0.0005731190285175073,-0.0023450862892410293,0.003626246484927858,1.4599757194519043,2019-06-20 15:03:31:006,0.0,0.0,0.0
-0.15891319513320923,0.10483735054731369,9.749947547912598,-0.0007587866744471969,-0.0012795617788841308,0.0017615784617661236,1.46588134765625,2019-06-20 15:03:31:012,0.0,0.0,0.0
-0.2139924317598343,0.1239953488111496,9.845738410949707,0.001372262411285181,-0.006207613159433436,0.0025607219745709597,1.4699697494506836,2019-06-20 15:03:31:016,0.0,0.0,0.0
-0.1732816994190216,0.10483735054731369,9.757132530212402,-0.00022602440301410239,0.0011178684994560528,0.0006960539514092252,1.4758615493774414,2019-06-20 15:03:31:022,0.0,0.0,0.0
-0.15891319513320923,0.11920584738254547,9.802632331848145,-0.0035557887091897987,0.001650630754634502,-0.0063630465798910395,1.4799752235412598,2019-06-20 15:03:31:026,0.0,0.0,0.0
-0.1732816994190216,0.10004784911870956,9.89123821258545,-0.002756645326422125,0.0021833931398501137,-0.00023628007642628753,1.4858546257019043,2019-06-20 15:03:31:032,0.0,0.0,0.0
-0.19004493951797485,0.1359691023826599,9.761921882629395,0.003636502255867915,0.007244634564045381,-0.0010354235079578973,1.4899673461914062,2019-06-20 15:03:31:036,0.0,0.0,0.0
-0.21878193318843842,0.14075860381126404,9.864895820617676,0.0015054529750797934,0.00018553447162054023,0.002027959589355348,1.495863914489746,2019-06-20 15:03:31:042,0.0,0.0,0.0
-0.2139924317598343,0.14794284105300903,9.79305362701416,0.0028373588731002413,-0.0020787052916889674,3.010106944941304e-05,1.4999780654907227,2019-06-20 15:03:31:046,0.0,0.0,0.0
-0.16849219799041748,0.14794284105300903,9.802632331848145,0.007099456914527835,-8.084668035065233e-05,0.0017615784617661236,1.5058631896972656,2019-06-20 15:03:31:052,0.0,0.0,0.0
-0.18525543808937073,0.12160059809684753,9.817001342773438,-0.0010251678020364214,0.0004519156154644102,-0.0014349951993417342,1.510897159576416,2019-06-20 15:03:31:057,0.0,0.0,0.0
-0.22117668390274048,0.10244259983301163,9.860106468200684,0.0019050247965007928,-0.001945514727894355,-0.0025005197096986324,1.5149784088134766,2019-06-20 15:03:31:061,0.0,0.0,0.0
-0.19483444094657898,0.13357435166835785,9.857711791992188,-0.00022602440301410239,-8.084668035065233e-05,0.00042967279131070986,1.520853042602539,2019-06-20 15:03:31:067,0.0,0.0,0.0
-0.19243969023227692,0.12878485023975372,9.845738410949707,0.0015054529750797934,-0.003011039368288416,0.0013620067703822866,1.5258612632751465,2019-06-20 15:03:31:072,0.0,0.0,0.0
-0.2068081945180893,0.11441635340452194,9.814606666564941,-0.0032894075816005744,-0.003410611059672253,0.0029602936659547966,1.5308642387390137,2019-06-20 15:03:31:077,0.0,0.0,0.0
-0.23554518818855286,0.1239953488111496,9.800237655639648,0.0025709774854366916,-0.005808041207975274,0.0025607219745709597,1.53497314453125,2019-06-20 15:03:31:081,0.0,0.0,0.0
-0.22357143461704254,0.1239953488111496,9.83376407623291,-0.004354932091957473,-0.004609325873749438,-0.001834566890725571,1.5399713516235352,2019-06-20 15:03:31:086,0.0,0.0,0.0
-0.21878193318843842,0.10483735054731369,9.855317115783691,0.0015054529750797934,0.0021833931398501137,0.0009624350789984497,1.5458645820617676,2019-06-20 15:03:31:092,0.0,0.0,0.0
-0.20441344380378723,0.1431533545255661,9.730790138244629,0.0007063095923121196,-0.004742516697618376,-0.004498378166617817,1.5499773025512695,2019-06-20 15:03:31:096,0.0,0.0,0.0
-0.21638718247413635,0.12160059809684753,9.771500587463379,-0.00035921498306336,0.00018553447162054023,-0.003965616171513693,1.5560951232910156,2019-06-20 15:03:31:102,0.0,0.0,0.0
-0.19483444094657898,0.12160059809684753,9.776289939880371,-0.00448812291582641,-0.005674850904254987,-0.0011686140717525096,1.5601263046264648,2019-06-20 15:03:31:106,0.0,0.0,0.0
-0.1349657028913498,0.10962685197591782,9.838553428649902,-9.283383109216743e-05,-0.0032774204958776402,-0.0007690423803686727,1.5651426315307617,2019-06-20 15:03:31:111,0.0,0.0,0.0
-0.20441344380378723,0.12639009952545166,9.800237655639648,-0.0030230264540113496,-0.0003472278323218449,-0.0005026612202701574,1.5701398849487305,2019-06-20 15:03:31:116,0.0,0.0,0.0
-0.19004493951797485,0.17428509891033173,9.824185371398926,0.003103740000689466,-0.0010131806512949063,0.0025607219745709597,1.575143814086914,2019-06-20 15:03:31:121,0.0,0.0,0.0
-0.19483444094657898,0.11202160269021988,9.843342781066895,0.004435645638635589,-0.003410611059672253,-0.0015681857631363464,1.5801358222961426,2019-06-20 15:03:31:126,0.0,0.0,0.0
-0.2068081945180893,0.10483735054731369,9.819396018981934,-9.283383109216743e-05,-0.0035438016234668654,3.010106944941304e-05,1.585139274597168,2019-06-20 15:03:31:131,0.0,0.0,0.0
-0.1876501888036728,0.13836385309696198,9.838553428649902,4.035674489342885e-05,-0.0032774204958776402,0.004292199303900919,1.5901355743408203,2019-06-20 15:03:31:136,0.0,0.0,0.0
-0.1349657028913498,0.14554809033870697,9.802632331848145,-0.0023570736350382883,-0.0067403754146118855,-0.0034328539163352434,1.5951499938964844,2019-06-20 15:03:31:141,0.0,0.0,0.0
-0.17807118594646454,0.12878485023975372,9.836158752441406,0.0008395001561067318,0.0013842496270452774,-0.0023673291459040203,1.6001358032226562,2019-06-20 15:03:31:146,0.0,0.0,0.0
-0.17088694870471954,0.08567935228347778,9.783474922180176,0.0037696928196625274,0.0005851061792590224,0.004425389867695532,1.6052045822143555,2019-06-20 15:03:31:151,0.0,0.0,0.0
-0.2068081945180893,0.07610035687685013,9.797842979431152,-0.0008919772382418092,-0.0028778488044938037,0.0014951973341768988,1.6101341247558594,2019-06-20 15:03:31:156,0.0,0.0,0.0
-0.20201869308948517,0.1431533545255661,9.845738410949707,0.0009726907199013442,-0.0016791336003051302,-0.0011686140717525096,1.6151456832885742,2019-06-20 15:03:31:161,0.0,0.0,0.0
-0.17567645013332367,0.1359691023826599,9.814606666564941,4.035674489342885e-05,-0.0006136089599110694,0.00042967279131070986,1.6201391220092773,2019-06-20 15:03:31:166,0.0,0.0,0.0
-0.20920294523239136,0.11202160269021988,9.8505277633667,0.003636502255867915,-0.003011039368288416,-0.00010308950450435256,1.6251459121704102,2019-06-20 15:03:31:171,0.0,0.0,0.0
-0.1349657028913498,0.1431533545255661,9.867290496826172,-0.001158358430849615,-0.0024782768530356414,-0.0011686140717525096,1.6301660537719727,2019-06-20 15:03:31:176,0.0,0.0,0.0
-0.21638718247413635,0.13357435166835785,9.845738410949707,0.00017354732087902514,-0.0011463712150895187,-0.009293238983372509,1.6351470947265625,2019-06-20 15:03:31:181,0.0,0.0,0.0
-0.1876501888036728,0.12878485023975372,9.934343338012695,-0.0007587866744471969,0.0025829648312339507,-0.007295380266379,1.6401338577270508,2019-06-20 15:03:31:186,0.0,0.0,0.0
-0.17088694870471954,0.17189034819602966,9.910396575927734,-0.00035921498306336,0.0004519156154644102,-0.0013018046355471218,1.645151138305664,2019-06-20 15:03:31:191,0.0,0.0,0.0
-0.21159768104553223,0.1311796009540558,9.814606666564941,0.0028373588731002413,-0.002744658240699191,0.0012288162065876742,1.6501975059509277,2019-06-20 15:03:31:196,0.0,0.0,0.0
-0.18525543808937073,0.116811104118824,9.807421684265137,-0.00035921498306336,-0.000879990087500294,-0.0005026612202701574,1.6551456451416016,2019-06-20 15:03:31:201,0.0,0.0,0.0
-0.19004493951797485,0.13836385309696198,9.80502700805664,0.0008395001561067318,-0.0023450862892410293,-0.0011686140717525096,1.66013765335083,2019-06-20 15:03:31:206,0.0,0.0,0.0
-0.19483444094657898,0.11202160269021988,9.855317115783691,-0.001158358430849615,-0.0016791336003051302,-0.0017013763269309588,1.6651458740234375,2019-06-20 15:03:31:211,0.0,0.0,0.0
-0.21878193318843842,0.13836385309696198,9.783474922180176,0.0024377869216420794,-0.003410611059672253,-0.0031664725286716937,1.6701364517211914,2019-06-20 15:03:31:216,0.0,0.0,0.0
-0.1876501888036728,0.12878485023975372,9.828974723815918,0.0032369305644840782,-0.006340803463153723,0.002027959589355348,1.6751432418823242,2019-06-20 15:03:31:221,0.0,0.0,0.0
-0.13975520431995392,0.12639009952545166,9.814606666564941,0.005101598717682976,-0.0012795617788841308,0.002693912538365572,1.6801376342773438,2019-06-20 15:03:31:226,0.0,0.0,0.0
-0.1613079458475113,0.10962685197591782,9.788264274597168,-0.0014247395584388394,-0.0020787052916889674,-0.0036992350439244686,1.6851496696472168,2019-06-20 15:03:31:231,0.0,0.0,0.0
-0.1804659366607666,0.13357435166835785,9.876870155334473,-0.002756645326422125,0.002316583703644726,-0.0013018046355471218,1.690136432647705,2019-06-20 15:03:31:236,0.0,0.0,0.0
-0.17567645013332367,0.13357435166835785,9.881659507751465,0.0009726907199013442,-0.002211895725446417,-0.0013018046355471218,1.6951751708984375,2019-06-20 15:03:31:241,0.0,0.0,0.0
-0.16849219799041748,0.11441635340452194,9.838553428649902,-0.0026234547626275127,5.234389563494396e-05,0.0012288162065876742,1.7001585960388184,2019-06-20 15:03:31:246,0.0,0.0,0.0
-0.16370269656181335,0.10004784911870956,9.828974723815918,0.0009726907199013442,-0.002211895725446417,0.0005628633876146128,1.7051301002502441,2019-06-20 15:03:31:251,0.0,0.0,0.0
-0.1732816994190216,0.15512709319591522,9.89123821258545,0.003103740000689466,0.003781679905385461,0.0025607219745709597,1.7101287841796875,2019-06-20 15:03:31:256,0.0,0.0,0.0
-0.16849219799041748,0.15273234248161316,9.795448303222656,4.035674489342885e-05,-0.003410611059672253,0.001095625642793062,1.7151446342468262,2019-06-20 15:03:31:261,0.0,0.0,0.0
-0.1613079458475113,0.15273234248161316,9.828974723815918,0.0016386436689115682,-0.0007467995237056817,-0.0006358518165740604,1.7201414108276367,2019-06-20 15:03:31:266,0.0,0.0,0.0
-0.21638718247413635,0.11441635340452194,9.79305362701416,-0.002756645326422125,-0.002744658240699191,-0.0031664725286716937,1.72514009475708,2019-06-20 15:03:31:271,0.0,0.0,0.0
-0.19483444094657898,0.1239953488111496,9.79305362701416,0.0037696928196625274,-0.0012795617788841308,-0.0006358518165740604,1.730147361755371,2019-06-20 15:03:31:276,0.0,0.0,0.0
-0.19243969023227692,0.12639009952545166,9.836158752441406,0.0015054529750797934,0.000851487306848247,0.0012288162065876742,1.7351484298706055,2019-06-20 15:03:31:281,0.0,0.0,0.0
-0.16370269656181335,0.12878485023975372,9.8505277633667,-0.002090692377411901,-0.0004804183961164572,-0.005697093500843653,1.7401351928710938,2019-06-20 15:03:31:286,0.0,0.0,0.0
-0.15891319513320923,0.11920584738254547,9.797842979431152,0.0020382153602954054,-0.004209754442439926,0.0009624350789984497,1.7443227767944336,2019-06-20 15:03:31:290,0.0,0.0,0.0
-0.1804659366607666,0.13836385309696198,9.82179069519043,0.0032369305644840782,-0.003011039368288416,0.003493055921133246,1.7500991821289062,2019-06-20 15:03:31:296,0.0,0.0,0.0
-0.1996239423751831,0.15512709319591522,9.761921882629395,0.003103740000689466,0.0007182967430536347,0.00016329164746684,1.7551445960998535,2019-06-20 15:03:31:301,0.0,0.0,0.0
-0.17807118594646454,0.1431533545255661,9.76431655883789,-0.001557930122233452,0.003781679905385461,-0.0010354235079578973,1.7601380348205566,2019-06-20 15:03:31:306,0.0,0.0,0.0
-0.16370269656181335,0.12878485023975372,9.860106468200684,-0.0024902641988329005,-0.006207613159433436,-0.0007690423803686727,1.765139102935791,2019-06-20 15:03:31:311,0.0,0.0,0.0
-0.19722919166088104,0.12160059809684753,9.826580047607422,0.004435645638635589,0.002050202446018339,0.002693912538365572,1.770127773284912,2019-06-20 15:03:31:316,0.0,0.0,0.0
-0.19722919166088104,0.12639009952545166,9.82179069519043,0.0017718342327061804,-0.001945514727894355,0.0028271031021601845,1.775151252746582,2019-06-20 15:03:31:321,0.0,0.0,0.0
-0.18525543808937073,0.13357435166835785,9.836158752441406,0.003103740000689466,0.0021833931398501137,0.0009624350789984497,1.780135154724121,2019-06-20 15:03:31:326,0.0,0.0,0.0
-0.19483444094657898,0.13357435166835785,9.781079292297363,0.0012390718474905686,-0.0011463712150895187,-0.0026337102734932446,1.785142421722412,2019-06-20 15:03:31:331,0.0,0.0,0.0
-0.19483444094657898,0.13357435166835785,9.807421684265137,0.0015054529750797934,-0.001945514727894355,-0.00036947065647554515,1.7902350425720215,2019-06-20 15:03:31:336,0.0,0.0,0.0
-0.19722919166088104,0.15273234248161316,9.831369400024414,0.004568835942355876,-0.001945514727894355,-0.0005026612202701574,1.7958650588989258,2019-06-20 15:03:31:342,0.0,0.0,0.0
-0.18286068737506866,0.1359691023826599,9.83376407623291,0.0027041680492313038,-0.0040765638786453146,-0.0014349951993417342,1.7999887466430664,2019-06-20 15:03:31:346,0.0,0.0,0.0
-0.1996239423751831,0.11920584738254547,9.817001342773438,0.0027041680492313038,0.0013842496270452774,-0.0031664725286716937,1.8058595657348633,2019-06-20 15:03:31:352,0.0,0.0,0.0
-0.19483444094657898,0.14794284105300903,9.82179069519043,0.0007063095923121196,-0.004342945006234539,-0.004231997299102917,1.8108491897583008,2019-06-20 15:03:31:357,0.0,0.0,0.0
-0.1876501888036728,0.10723210126161575,9.8505277633667,-0.0012915489946442272,-0.004609325873749438,-0.0019677574545201833,1.8149776458740234,2019-06-20 15:03:31:361,0.0,0.0,0.0
-0.22357143461704254,0.12639009952545166,9.80502700805664,0.001372262411285181,-0.0052752789527968245,-0.0030332819648770815,1.8208589553833008,2019-06-20 15:03:31:367,0.0,0.0,0.0
-0.19243969023227692,0.10483735054731369,9.86250114440918,-0.003822169836779023,-0.007406327973510622,-0.0013018046355471218,1.8258552551269531,2019-06-20 15:03:31:372,0.0,0.0,0.0
-0.16370269656181335,0.12639009952545166,9.838553428649902,0.0009726907199013442,-0.0035438016234668654,-0.0019677574545201833,1.830850601196289,2019-06-20 15:03:31:377,0.0,0.0,0.0
-0.22357143461704254,0.09286360442638397,9.797842979431152,-0.0007587866744471969,0.0017838213184291141,0.0033598653573386336,1.8358983993530273,2019-06-20 15:03:31:382,0.0,0.0,0.0
-0.2139924317598343,0.11441635340452194,9.800237655639648,0.0024377869216420794,0.0015174401908398898,0.005091342946742919,1.839996337890625,2019-06-20 15:03:31:386,0.0,0.0,0.0
-0.19722919166088104,0.12639009952545166,9.771500587463379,0.001372262411285181,-0.0004804183961164572,0.00016329164746684,1.8458561897277832,2019-06-20 15:03:31:392,0.0,0.0,0.0
-0.17567645013332367,0.11202160269021988,9.778684616088867,0.004702026766224813,-0.0014127523426787432,-0.000902232944163285,1.8499689102172852,2019-06-20 15:03:31:396,0.0,0.0,0.0
-0.22836093604564667,0.1359691023826599,9.86250114440918,-0.0016911206860280642,-0.0020787052916889674,0.003226674793544021,1.855875015258789,2019-06-20 15:03:31:402,0.0,0.0,0.0
-0.1732816994190216,0.1239953488111496,9.795448303222656,0.0035033116920733026,0.0021833931398501137,-0.0026337102734932446,1.859971046447754,2019-06-20 15:03:31:406,0.0,0.0,0.0
-0.17807118594646454,0.10244259983301163,9.785869598388672,0.0008395001561067318,-0.0020787052916889674,-0.00023628007642628753,1.865859031677246,2019-06-20 15:03:31:412,0.0,0.0,0.0
-0.14454469084739685,0.14794284105300903,9.828974723815918,0.0016386436689115682,-0.00021403725227258724,0.0022943408469817354,1.86997652053833,2019-06-20 15:03:31:416,0.0,0.0,0.0
-0.16609744727611542,0.1359691023826599,9.790658950805664,-0.0035557887091897987,-0.0006136089599110694,-0.0005026612202701574,1.8758559226989746,2019-06-20 15:03:31:422,0.0,0.0,0.0
-0.1996239423751831,0.15991659462451935,9.783474922180176,0.00017354732087902514,-0.00021403725227258724,0.0014951973341768988,1.8808536529541016,2019-06-20 15:03:31:427,0.0,0.0,0.0
-0.16849219799041748,0.11202160269021988,9.795448303222656,0.0005731190285175073,-0.0016791336003051302,0.0006960539514092252,1.8858861923217773,2019-06-20 15:03:31:432,0.0,0.0,0.0
-0.21159768104553223,0.10244259983301163,9.802632331848145,0.00590074210045065,-8.084668035065233e-05,0.0006960539514092252,1.8899779319763184,2019-06-20 15:03:31:436,0.0,0.0,0.0
-0.19004493951797485,0.10723210126161575,9.857711791992188,-0.003422598145395187,0.003914870469180074,-0.0006358518165740604,1.894974708557129,2019-06-20 15:03:31:441,0.0,0.0,0.0
-0.1804659366607666,0.1311796009540558,9.831369400024414,0.0048352170699451,-0.002211895725446417,-0.0014349951993417342,1.900857925415039,2019-06-20 15:03:31:447,0.0,0.0,0.0
-0.19004493951797485,0.116811104118824,9.831369400024414,0.0032369305644840782,-8.084668035065233e-05,-0.004764759294207041,1.9058570861816406,2019-06-20 15:03:31:452,0.0,0.0,0.0
-0.17807118594646454,0.13836385309696198,9.855317115783691,-0.0018243112498226766,0.00018553447162054023,0.0021611501531499603,1.9099702835083008,2019-06-20 15:03:31:456,0.0,0.0,0.0
-0.19722919166088104,0.12639009952545166,9.824185371398926,-0.0008919772382418092,0.005246776367200522,0.001628387897971511,1.9158587455749512,2019-06-20 15:03:31:462,0.0,0.0,0.0
-0.2259661853313446,0.11920584738254547,9.814606666564941,0.0005731190285175073,0.0021833931398501137,-0.0019677574545201833,1.9208621978759766,2019-06-20 15:03:31:467,0.0,0.0,0.0
-0.17088694870471954,0.116811104118824,9.845738410949707,0.0023045963578474673,-0.000879990087500294,0.0014951973341768988,1.9249725341796875,2019-06-20 15:03:31:471,0.0,0.0,0.0
-0.16609744727611542,0.116811104118824,9.843342781066895,0.0028373588731002413,-0.0040765638786453146,0.003493055921133246,1.9308853149414062,2019-06-20 15:03:31:477,0.0,0.0,0.0
-0.19004493951797485,0.08088985830545425,9.807421684265137,-0.0008919772382418092,-0.002211895725446417,-0.004498378166617817,1.9349794387817383,2019-06-20 15:03:31:481,0.0,0.0,0.0
-0.19243969023227692,0.1359691023826599,9.855317115783691,-0.0008919772382418092,-0.0016791336003051302,0.004292199303900919,1.9399676322937012,2019-06-20 15:03:31:486,0.0,0.0,0.0
-0.17088694870471954,0.11441635340452194,9.809816360473633,0.005234789021403263,-0.002211895725446417,-0.0010354235079578973,1.945876121520996,2019-06-20 15:03:31:492,0.0,0.0,0.0
-0.19004493951797485,0.10723210126161575,9.83376407623291,-0.0032894075816005744,-0.0040765638786453146,-0.0034328539163352434,1.949991226196289,2019-06-20 15:03:31:496,0.0,0.0,0.0
-0.16370269656181335,0.10962685197591782,9.776289939880371,0.00043992846472289506,0.0009846778706428594,-0.005031140421796266,1.9558525085449219,2019-06-20 15:03:31:502,0.0,0.0,0.0
-0.19722919166088104,0.10004784911870956,9.783474922180176,0.001372262411285181,0.00018553447162054023,-0.002234138582109408,1.9599685668945312,2019-06-20 15:03:31:506,0.0,0.0,0.0
-0.1996239423751831,0.1359691023826599,9.826580047607422,0.003636502255867915,-0.0006136089599110694,0.0022943408469817354,1.9658613204956055,2019-06-20 15:03:31:512,0.0,0.0,0.0
-0.23075568675994873,0.11441635340452194,9.83376407623291,0.00043992846472289506,-0.0023450862892410293,0.004691770995284756,1.9699764251708984,2019-06-20 15:03:31:516,0.0,0.0,0.0
-0.19483444094657898,0.11202160269021988,9.795448303222656,-0.00022602440301410239,0.002316583703644726,0.0012288162065876742,1.9758825302124023,2019-06-20 15:03:31:522,0.0,0.0,0.0
-0.1996239423751831,0.10244259983301163,9.831369400024414,0.00043992846472289506,0.0025829648312339507,0.002693912538365572,1.9799919128417969,2019-06-20 15:03:31:526,0.0,0.0,0.0
-0.2259661853313446,0.10244259983301163,9.778684616088867,0.0003067379009282828,-0.0004804183961164572,-0.0006358518165740604,1.985854148864746,2019-06-20 15:03:31:532,0.0,0.0,0.0
-0.20201869308948517,0.09286360442638397,9.826580047607422,0.0008395001561067318,-0.0028778488044938037,3.010106944941304e-05,1.9899682998657227,2019-06-20 15:03:31:536,0.0,0.0,0.0
-0.20441344380378723,0.13357435166835785,9.781079292297363,0.0012390718474905686,-0.0012795617788841308,-0.0007690423803686727,1.9958734512329102,2019-06-20 15:03:31:542,0.0,0.0,0.0
-0.1996239423751831,0.11441635340452194,9.771500587463379,-0.001957501813617289,-0.00021403725227258724,-0.0011686140717525096,1.9999713897705078,2019-06-20 15:03:31:546,0.0,0.0,0.0
-0.21878193318843842,0.11441635340452194,9.824185371398926,0.0003067379009282828,0.0007182967430536347,-0.0032996633525406317,2.005859375,2019-06-20 15:03:31:552,0.0,0.0,0.0
-0.21638718247413635,0.0976531058549881,9.807421684265137,-0.0008919772382418092,-0.003144229932083028,0.0005628633876146128,2.009974479675293,2019-06-20 15:03:31:556,0.0,0.0,0.0
-0.19004493951797485,0.14075860381126404,9.845738410949707,0.0020382153602954054,-0.0006136089599110694,-0.005164331245665204,2.0158538818359375,2019-06-20 15:03:31:562,0.0,0.0,0.0
-0.17807118594646454,0.15512709319591522,9.83376407623291,-0.00022602440301410239,-0.0024782768530356414,0.005224533250463206,2.0199708938598633,2019-06-20 15:03:31:566,0.0,0.0,0.0
-0.1732816994190216,0.1311796009540558,9.809816360473633,-0.003422598145395187,0.0036484893415908493,0.0033598653573386336,2.0258665084838867,2019-06-20 15:03:31:572,0.0,0.0,0.0
-0.19722919166088104,0.13357435166835785,9.855317115783691,0.002970549436894854,-0.00021403725227258724,0.004824961819153694,2.030886650085449,2019-06-20 15:03:31:577,0.0,0.0,0.0
-0.22117668390274048,0.10244259983301163,9.814606666564941,-0.0014247395584388394,0.0015174401908398898,-0.0036992350439244686,2.035861015319824,2019-06-20 15:03:31:582,0.0,0.0,0.0
-0.20201869308948517,0.1503375917673111,9.80502700805664,-0.0032894075816005744,-0.0028778488044938037,-0.0014349951993417342,2.0408849716186523,2019-06-20 15:03:31:587,0.0,0.0,0.0
-0.17088694870471954,0.10962685197591782,9.776289939880371,0.0027041680492313038,-0.0010131806512949063,-0.00010308950450435256,2.04586124420166,2019-06-20 15:03:31:592,0.0,0.0,0.0
-0.22117668390274048,0.1311796009540558,9.826580047607422,4.035674489342885e-05,-0.002744658240699191,-0.0029000914010824694,2.050851821899414,2019-06-20 15:03:31:597,0.0,0.0,0.0
-0.20201869308948517,0.13357435166835785,9.845738410949707,0.0009726907199013442,-0.007805899924968783,-0.0034328539163352434,2.055854320526123,2019-06-20 15:03:31:602,0.0,0.0,0.0
-0.21159768104553223,0.116811104118824,9.80502700805664,0.0003067379009282828,-0.0007467995237056817,-0.00010308950450435256,2.0599684715270996,2019-06-20 15:03:31:606,0.0,0.0,0.0
-0.20201869308948517,0.13836385309696198,9.749947547912598,0.0005731190285175073,-0.002211895725446417,-0.0006358518165740604,2.065850257873535,2019-06-20 15:03:31:612,0.0,0.0,0.0
-0.1996239423751831,0.13357435166835785,9.83376407623291,-0.0007587866744471969,0.004447632984432848,0.004558580691564469,2.069988250732422,2019-06-20 15:03:31:616,0.0,0.0,0.0
-0.1421499401330948,0.1431533545255661,9.802632331848145,0.0003067379009282828,-0.0003472278323218449,-0.0038324256077190803,2.0758676528930664,2019-06-20 15:03:31:622,0.0,0.0,0.0
-0.19243969023227692,0.15273234248161316,9.795448303222656,0.0012390718474905686,-0.0023450862892410293,-0.0015681857631363464,2.0808520317077637,2019-06-20 15:03:31:627,0.0,0.0,0.0
-0.20201869308948517,0.13357435166835785,9.781079292297363,0.0032369305644840782,0.002716155395028563,-0.0014349951993417342,2.0849761962890625,2019-06-20 15:03:31:631,0.0,0.0,0.0
-0.1996239423751831,0.08567935228347778,9.836158752441406,-0.0014247395584388394,0.0012510590632506652,-0.0048979501180759786,2.0899930000305176,2019-06-20 15:03:31:636,0.0,0.0,0.0
-0.1804659366607666,0.12878485023975372,9.831369400024414,0.0025709774854366916,0.0005851061792590224,-0.0023673291459040203,2.0958542823791504,2019-06-20 15:03:31:642,0.0,0.0,0.0
-0.1732816994190216,0.12878485023975372,9.824185371398926,0.0025709774854366916,-0.0004804183961164572,0.0013620067703822866,2.0999698638916016,2019-06-20 15:03:31:646,0.0,0.0,0.0
-0.19243969023227692,0.15512709319591522,9.812211036682129,0.001372262411285181,-0.003144229932083028,0.004558580691564469,2.105856418609619,2019-06-20 15:03:31:652,0.0,0.0,0.0
-0.1876501888036728,0.11920584738254547,9.845738410949707,-0.0012915489946442272,-0.0026114674168302536,-0.0017013763269309588,2.1099748611450195,2019-06-20 15:03:31:656,0.0,0.0,0.0
-0.18286068737506866,0.12878485023975372,9.797842979431152,0.001372262411285181,-0.002744658240699191,0.0028271031021601845,2.1158533096313477,2019-06-20 15:03:31:662,0.0,0.0,0.0
-0.21638718247413635,0.14075860381126404,9.79305362701416,4.035674489342885e-05,-0.002211895725446417,0.0022943408469817354,2.120884895324707,2019-06-20 15:03:31:667,0.0,0.0,0.0
-0.21878193318843842,0.10244259983301163,9.840948104858398,0.003636502255867915,-0.0016791336003051302,0.006156867457099816,2.124976634979248,2019-06-20 15:03:31:671,0.0,0.0,0.0
-0.17807118594646454,0.10723210126161575,9.773895263671875,-0.0012915489946442272,-0.0015459429064733554,0.0013620067703822866,2.1308507919311523,2019-06-20 15:03:31:677,0.0,0.0,0.0
-0.22357143461704254,0.12639009952545166,9.845738410949707,0.0007063095923121196,-0.0028778488044938037,-0.0013018046355471218,2.1358790397644043,2019-06-20 15:03:31:682,0.0,0.0,0.0
-0.20201869308948517,0.12160059809684753,9.872079849243164,0.003636502255867915,0.0011178684994560528,0.0017615784617661236,2.1408510208129883,2019-06-20 15:03:31:687,0.0,0.0,0.0
-0.23793993890285492,0.12878485023975372,9.922369956970215,0.0017718342327061804,-0.003011039368288416,0.0028271031021601845,2.1449756622314453,2019-06-20 15:03:31:691,0.0,0.0,0.0
-0.19483444094657898,0.10244259983301163,9.817001342773438,0.004036073947251752,-0.0010131806512949063,-0.0031664725286716937,2.1508560180664062,2019-06-20 15:03:31:697,0.0,0.0,0.0
-0.23075568675994873,0.11202160269021988,9.749947547912598,0.003370121128278691,0.00031872505166979784,0.0017615784617661236,2.155856132507324,2019-06-20 15:03:31:702,0.0,0.0,0.0
-0.21159768104553223,0.14554809033870697,9.797842979431152,0.0017718342327061804,-0.002211895725446417,-0.0006358518165740604,2.159968852996826,2019-06-20 15:03:31:706,0.0,0.0,0.0
-0.19483444094657898,0.1623113453388214,9.8505277633667,0.004036073947251752,-0.0004804183961164572,0.0009624350789984497,2.1658668518066406,2019-06-20 15:03:31:712,0.0,0.0,0.0
-0.19483444094657898,0.12639009952545166,9.817001342773438,-0.0008919772382418092,-0.0040765638786453146,-0.0006358518165740604,2.170865058898926,2019-06-20 15:03:31:717,0.0,0.0,0.0
-0.17088694870471954,0.1359691023826599,9.812211036682129,0.0008395001561067318,-0.003943373314850702,-0.0021009480183147955,2.1758594512939453,2019-06-20 15:03:31:722,0.0,0.0,0.0
-0.1732816994190216,0.13836385309696198,9.90321159362793,0.0021714059240900176,-0.003144229932083028,-0.0013018046355471218,2.180006504058838,2019-06-20 15:03:31:726,0.0,0.0,0.0
-0.23075568675994873,0.14554809033870697,9.828974723815918,-0.003156217017805962,-0.001945514727894355,-0.00036947065647554515,2.1858596801757812,2019-06-20 15:03:31:732,0.0,0.0,0.0
-0.16849219799041748,0.0976531058549881,9.785869598388672,0.0020382153602954054,5.234389563494396e-05,-0.00010308950450435256,2.1899709701538086,2019-06-20 15:03:31:736,0.0,0.0,0.0
-0.19243969023227692,0.12878485023975372,9.848133087158203,0.0011058812836959564,-0.002211895725446417,-0.0010354235079578973,2.19586181640625,2019-06-20 15:03:31:742,0.0,0.0,0.0
-0.2139924317598343,0.10004784911870956,9.790658950805664,-0.00035921498306336,0.0013842496270452774,-0.0029000914010824694,2.199976921081543,2019-06-20 15:03:31:746,0.0,0.0,0.0
-0.21159768104553223,0.1623113453388214,9.819396018981934,0.0021714059240900176,-0.0018123241640997428,0.00042967279131070986,2.205852508544922,2019-06-20 15:03:31:752,0.0,0.0,0.0
-0.18525543808937073,0.15273234248161316,9.735579490661621,0.0003067379009282828,-0.005808041207975274,0.0014951973341768988,2.210146427154541,2019-06-20 15:03:31:756,0.0,0.0,0.0
-0.22836093604564667,0.09525835514068604,9.728395462036133,0.0025709774854366916,-0.0020787052916889674,0.002027959589355348,2.215871810913086,2019-06-20 15:03:31:762,0.0,0.0,0.0
-0.2068081945180893,0.1359691023826599,9.759527206420898,-0.0004924055468579722,-0.002211895725446417,-0.002234138582109408,2.219970703125,2019-06-20 15:03:31:766,0.0,0.0,0.0
-0.20920294523239136,0.11202160269021988,9.845738410949707,-0.0026234547626275127,-0.004342945006234539,0.0012288162065876742,2.2249755859375,2019-06-20 15:03:31:771,0.0,0.0,0.0
-0.22357143461704254,0.10723210126161575,9.790658950805664,-0.0012915489946442272,-0.0028778488044938037,-0.0017013763269309588,2.2308788299560547,2019-06-20 15:03:31:777,0.0,0.0,0.0
-0.19722919166088104,0.0976531058549881,9.809816360473633,0.0037696928196625274,-0.0020787052916889674,0.001095625642793062,2.23586368560791,2019-06-20 15:03:31:782,0.0,0.0,0.0
-0.20201869308948517,0.116811104118824,9.778684616088867,0.0025709774854366916,0.0012510590632506652,-0.005164331245665204,2.240851879119873,2019-06-20 15:03:31:787,0.0,0.0,0.0
-0.18286068737506866,0.0976531058549881,9.819396018981934,0.0008395001561067318,0.0015174401908398898,-0.004098806735308305,2.2458581924438477,2019-06-20 15:03:31:792,0.0,0.0,0.0
-0.22117668390274048,0.08328460156917572,9.783474922180176,-0.00035921498306336,-0.007273137669790334,-0.0021009480183147955,2.2508597373962402,2019-06-20 15:03:31:797,0.0,0.0,0.0
-0.20201869308948517,0.08807410299777985,9.802632331848145,0.004968407893814039,0.0013842496270452774,-0.0032996633525406317,2.254972457885742,2019-06-20 15:03:31:801,0.0,0.0,0.0
-0.18525543808937073,0.11202160269021988,9.788264274597168,0.00017354732087902514,-0.0023450862892410293,3.010106944941304e-05,2.2608909606933594,2019-06-20 15:03:31:807,0.0,0.0,0.0
-0.1996239423751831,0.08328460156917572,9.831369400024414,-0.00022602440301410239,0.00031872505166979784,-0.0027669008372878568,2.2658581733703613,2019-06-20 15:03:31:812,0.0,0.0,0.0
-0.20201869308948517,0.11202160269021988,9.82179069519043,-0.0030230264540113496,-0.0006136089599110694,0.005224533250463206,2.2708516120910645,2019-06-20 15:03:31:817,0.0,0.0,0.0
-0.15651844441890717,0.10483735054731369,9.79305362701416,-0.0007587866744471969,-0.003144229932083028,0.0014951973341768988,2.274977207183838,2019-06-20 15:03:31:821,0.0,0.0,0.0
-0.18286068737506866,0.10962685197591782,9.826580047607422,0.00043992846472289506,-0.004209754442439926,0.0029602936659547966,2.2808609008789062,2019-06-20 15:03:31:827,0.0,0.0,0.0
-0.22836093604564667,0.08567935228347778,9.817001342773438,-0.00448812291582641,0.0024497742674393385,-0.004098806735308305,2.2849740982055664,2019-06-20 15:03:31:831,0.0,0.0,0.0
-0.19004493951797485,0.10962685197591782,9.817001342773438,0.0008395001561067318,-0.0011463712150895187,-0.000902232944163285,2.2899675369262695,2019-06-20 15:03:31:836,0.0,0.0,0.0
-0.1996239423751831,0.10244259983301163,9.795448303222656,-0.0030230264540113496,0.0005851061792590224,0.0008292445152038374,2.2958617210388184,2019-06-20 15:03:31:842,0.0,0.0,0.0
-0.18525543808937073,0.116811104118824,9.79305362701416,0.0016386436689115682,-0.0014127523426787432,0.005091342946742919,2.299976348876953,2019-06-20 15:03:31:846,0.0,0.0,0.0
-0.19483444094657898,0.12160059809684753,9.788264274597168,-0.0004924055468579722,-0.001945514727894355,0.0018947690255607357,2.306124687194824,2019-06-20 15:03:31:852,0.0,0.0,0.0
-0.18525543808937073,0.14554809033870697,9.797842979431152,-9.283383109216743e-05,-0.0012795617788841308,0.0009624350789984497,2.310122013092041,2019-06-20 15:03:31:856,0.0,0.0,0.0
-0.16609744727611542,0.12878485023975372,9.864895820617676,0.00017354732087902514,0.0007182967430536347,-0.00036947065647554515,2.3151373863220215,2019-06-20 15:03:31:861,0.0,0.0,0.0
-0.2068081945180893,0.10723210126161575,9.824185371398926,0.0023045963578474673,-0.000879990087500294,-0.0007690423803686727,2.320129871368408,2019-06-20 15:03:31:866,0.0,0.0,0.0
-0.2259661853313446,0.14794284105300903,9.807421684265137,0.0005731190285175073,-0.002744658240699191,-0.0038324256077190803,2.325139045715332,2019-06-20 15:03:31:871,0.0,0.0,0.0
-0.18525543808937073,0.11441635340452194,9.814606666564941,-0.0036889792729844113,0.00031872505166979784,-0.00010308950450435256,2.3301424980163574,2019-06-20 15:03:31:876,0.0,0.0,0.0
-0.1876501888036728,0.1503375917673111,9.824185371398926,-0.0018243112498226766,-0.0023450862892410293,-0.004498378166617817,2.335145950317383,2019-06-20 15:03:31:881,0.0,0.0,0.0
-0.1996239423751831,0.11441635340452194,9.781079292297363,-0.0016911206860280642,-0.001945514727894355,-0.0030332819648770815,2.3401317596435547,2019-06-20 15:03:31:886,0.0,0.0,0.0
-0.1469394415616989,0.1311796009540558,9.838553428649902,-0.0036889792729844113,-0.0011463712150895187,-0.0048979501180759786,2.345137119293213,2019-06-20 15:03:31:891,0.0,0.0,0.0
-0.20201869308948517,0.12639009952545166,9.800237655639648,0.00017354732087902514,0.0031157270864124,3.010106944941304e-05,2.3501338958740234,2019-06-20 15:03:31:896,0.0,0.0,0.0
-0.18525543808937073,0.12160059809684753,9.828974723815918,-0.0016911206860280642,-0.003676992187261477,0.00016329164746684,2.3551673889160156,2019-06-20 15:03:31:901,0.0,0.0,0.0
-0.19483444094657898,0.116811104118824,9.807421684265137,-0.0007587866744471969,-0.003943373314850702,-0.000902232944163285,2.3601322174072266,2019-06-20 15:03:31:906,0.0,0.0,0.0
-0.19483444094657898,0.10004784911870956,9.778684616088867,-0.00022602440301410239,0.0007182967430536347,0.0013620067703822866,2.365140438079834,2019-06-20 15:03:31:911,0.0,0.0,0.0
-0.16370269656181335,0.14554809033870697,9.80502700805664,-0.003955360400573636,-0.009404186690504131,-0.00023628007642628753,2.370131492614746,2019-06-20 15:03:31:916,0.0,0.0,0.0
-0.1876501888036728,0.13836385309696198,9.809816360473633,0.0017718342327061804,-0.0024782768530356414,0.00042967279131070986,2.375138282775879,2019-06-20 15:03:31:921,0.0,0.0,0.0
-0.18525543808937073,0.15991659462451935,9.733184814453125,-0.001158358430849615,-0.0026114674168302536,-0.0030332819648770815,2.3801331520080566,2019-06-20 15:03:31:926,0.0,0.0,0.0
-0.1613079458475113,0.12878485023975372,9.800237655639648,0.0021714059240900176,0.0035152987777962367,-0.0005026612202701574,2.3851823806762695,2019-06-20 15:03:31:931,0.0,0.0,0.0
-0.1996239423751831,0.11441635340452194,9.831369400024414,-0.0016911206860280642,-0.0004804183961164572,-0.003566044480129856,2.390133857727051,2019-06-20 15:03:31:936,0.0,0.0,0.0
-0.18525543808937073,0.14794284105300903,9.781079292297363,0.0027041680492313038,-0.005408469776665762,-0.0027669008372878568,2.395137310028076,2019-06-20 15:03:31:941,0.0,0.0,0.0
-0.2068081945180893,0.12878485023975372,9.872079849243164,-0.001957501813617289,-0.00021403725227258724,0.0021611501531499603,2.4001660346984863,2019-06-20 15:03:31:946,0.0,0.0,0.0
-0.2259661853313446,0.09286360442638397,9.778684616088867,-9.283383109216743e-05,-0.003943373314850702,0.0017615784617661236,2.405139923095703,2019-06-20 15:03:31:951,0.0,0.0,0.0
-0.19483444094657898,0.116811104118824,9.828974723815918,0.0012390718474905686,-0.0007467995237056817,0.002027959589355348,2.410130500793457,2019-06-20 15:03:31:956,0.0,0.0,0.0
-0.15651844441890717,0.10962685197591782,9.781079292297363,0.0005731190285175073,0.0011178684994560528,-0.00010308950450435256,2.4151411056518555,2019-06-20 15:03:31:961,0.0,0.0,0.0
-0.20920294523239136,0.12160059809684753,9.807421684265137,0.0020382153602954054,-0.0040765638786453146,-0.0015681857631363464,2.4201292991638184,2019-06-20 15:03:31:966,0.0,0.0,0.0
-0.15891319513320923,0.13357435166835785,9.828974723815918,0.005101598717682976,-0.001945514727894355,0.00042967279131070986,2.425137519836426,2019-06-20 15:03:31:971,0.0,0.0,0.0
-0.15172894299030304,0.1311796009540558,9.814606666564941,0.0037696928196625274,0.0024497742674393385,-0.004365187862897529,2.430130958557129,2019-06-20 15:03:31:976,0.0,0.0,0.0
-0.21159768104553223,0.13836385309696198,9.864895820617676,0.0011058812836959564,0.0011178684994560528,-0.0036992350439244686,2.435168743133545,2019-06-20 15:03:31:981,0.0,0.0,0.0
-0.17567645013332367,0.12160059809684753,9.82179069519043,-0.003822169836779023,5.234389563494396e-05,-0.0007690423803686727,2.4401473999023438,2019-06-20 15:03:31:986,0.0,0.0,0.0
-0.19243969023227692,0.16470609605312347,9.769105911254883,-0.002756645326422125,0.0024497742674393385,-0.005164331245665204,2.4451589584350586,2019-06-20 15:03:31:991,0.0,0.0,0.0
-0.17807118594646454,0.12878485023975372,9.802632331848145,-0.0007587866744471969,-0.0006136089599110694,0.003626246484927858,2.4501419067382812,2019-06-20 15:03:31:996,0.0,0.0,0.0
-0.17088694870471954,0.11441635340452194,9.860106468200684,0.0009726907199013442,-0.0023450862892410293,0.0012288162065876742,2.455134391784668,2019-06-20 15:03:32:001,0.0,0.0,0.0
-0.15172894299030304,0.12160059809684753,9.845738410949707,-0.005420456602314371,-0.002744658240699191,0.0008292445152038374,2.4601335525512695,2019-06-20 15:03:32:006,0.0,0.0,0.0
-0.20920294523239136,0.10244259983301163,9.888843536376953,0.0015054529750797934,-0.003676992187261477,-0.005430712373254428,2.4651365280151367,2019-06-20 15:03:32:011,0.0,0.0,0.0
-0.16849219799041748,0.09525835514068604,9.749947547912598,-0.0018243112498226766,0.0029825365226177876,0.0017615784617661236,2.4701313972473145,2019-06-20 15:03:32:016,0.0,0.0,0.0
-0.1996239423751831,0.09525835514068604,9.795448303222656,4.035674489342885e-05,-0.0012795617788841308,-0.0032996633525406317,2.4751367568969727,2019-06-20 15:03:32:021,0.0,0.0,0.0
-0.14454469084739685,0.116811104118824,9.730790138244629,0.0008395001561067318,-0.0035438016234668654,0.0033598653573386336,2.4801292419433594,2019-06-20 15:03:32:026,0.0,0.0,0.0
-0.19483444094657898,0.1311796009540558,9.809816360473633,0.0023045963578474673,-0.001945514727894355,0.0012288162065876742,2.4851417541503906,2019-06-20 15:03:32:031,0.0,0.0,0.0
-0.1804659366607666,0.14554809033870697,9.817001342773438,0.003636502255867915,-0.0010131806512949063,-0.00010308950450435256,2.490133285522461,2019-06-20 15:03:32:036,0.0,0.0,0.0
-0.17807118594646454,0.1239953488111496,9.838553428649902,0.003370121128278691,-0.0040765638786453146,0.0022943408469817354,2.4951906204223633,2019-06-20 15:03:32:041,0.0,0.0,0.0
-0.19243969023227692,0.09046885371208191,9.855317115783691,0.00043992846472289506,-0.0023450862892410293,-0.0031664725286716937,2.5001325607299805,2019-06-20 15:03:32:046,0.0,0.0,0.0
-0.1996239423751831,0.10483735054731369,9.80502700805664,0.003370121128278691,-0.0003472278323218449,3.010106944941304e-05,2.5051565170288086,2019-06-20 15:03:32:051,0.0,0.0,0.0
-0.1804659366607666,0.12639009952545166,9.828974723815918,0.0005731190285175073,0.0021833931398501137,-0.0027669008372878568,2.5101308822631836,2019-06-20 15:03:32:056,0.0,0.0,0.0
-0.19722919166088104,0.13836385309696198,9.802632331848145,-0.00022602440301410239,0.000851487306848247,-0.0032996633525406317,2.5151309967041016,2019-06-20 15:03:32:061,0.0,0.0,0.0
-0.20201869308948517,0.116811104118824,9.843342781066895,0.00017354732087902514,-0.0012795617788841308,0.00016329164746684,2.520132541656494,2019-06-20 15:03:32:066,0.0,0.0,0.0
-0.1613079458475113,0.12878485023975372,9.840948104858398,0.0005731190285175073,-0.0038101827510560898,-0.0006358518165740604,2.525143623352051,2019-06-20 15:03:32:071,0.0,0.0,0.0
-0.17088694870471954,0.10723210126161575,9.87447452545166,0.004169264511046364,-0.003410611059672253,0.005757295505641655,2.5301289558410645,2019-06-20 15:03:32:076,0.0,0.0,0.0
-0.17567645013332367,0.14075860381126404,9.845738410949707,-0.0018243112498226766,-0.004209754442439926,-0.000902232944163285,2.535159111022949,2019-06-20 15:03:32:081,0.0,0.0,0.0
-0.20441344380378723,0.1239953488111496,9.802632331848145,0.0003067379009282828,-0.0012795617788841308,-0.0006358518165740604,2.540189743041992,2019-06-20 15:03:32:086,0.0,0.0,0.0
-0.22117668390274048,0.0976531058549881,9.82179069519043,0.0028373588731002413,-0.0014127523426787432,-0.00023628007642628753,2.5451459884643555,2019-06-20 15:03:32:091,0.0,0.0,0.0
-0.1996239423751831,0.1623113453388214,9.814606666564941,-0.005287266298594084,-0.001945514727894355,-0.0015681857631363464,2.5501298904418945,2019-06-20 15:03:32:096,0.0,0.0,0.0
-0.23554518818855286,0.1239953488111496,9.809816360473633,0.0016386436689115682,-0.0026114674168302536,-0.000902232944163285,2.555142402648926,2019-06-20 15:03:32:101,0.0,0.0,0.0
-0.20441344380378723,0.12878485023975372,9.910396575927734,-9.283383109216743e-05,-0.000879990087500294,0.0030934842297494092,2.5601301193237305,2019-06-20 15:03:32:106,0.0,0.0,0.0
-0.2139924317598343,0.09286360442638397,9.819396018981934,0.001372262411285181,0.0032489176502070124,-0.0032996633525406317,2.5651369094848633,2019-06-20 15:03:32:111,0.0,0.0,0.0
-0.19243969023227692,0.10723210126161575,9.828974723815918,0.0007063095923121196,0.0009846778706428594,0.007888345046504102,2.570132255554199,2019-06-20 15:03:32:116,0.0,0.0,0.0
-0.19483444094657898,0.12878485023975372,9.840948104858398,0.0005731190285175073,-0.0006136089599110694,0.004292199303900919,2.575145721435547,2019-06-20 15:03:32:121,0.0,0.0,0.0
-0.22117668390274048,0.12160059809684753,9.807421684265137,0.0005731190285175073,-0.0024782768530356414,0.00042967279131070986,2.5801515579223633,2019-06-20 15:03:32:126,0.0,0.0,0.0
-0.21159768104553223,0.11920584738254547,9.766711235046387,-0.0007587866744471969,-0.0035438016234668654,0.0018947690255607357,2.5852551460266113,2019-06-20 15:03:32:131,0.0,0.0,0.0
-0.16849219799041748,0.10962685197591782,9.807421684265137,0.0012390718474905686,-0.006074422335564498,-0.0005026612202701574,2.5901598930358887,2019-06-20 15:03:32:136,0.0,0.0,0.0
-0.20201869308948517,0.10004784911870956,9.826580047607422,-0.001158358430849615,-0.0018123241640997428,-0.0029000914010824694,2.5951480865478516,2019-06-20 15:03:32:141,0.0,0.0,0.0
-0.17567645013332367,0.1623113453388214,9.824185371398926,-0.0008919772382418092,0.003914870469180074,0.004159008740106307,2.6001334190368652,2019-06-20 15:03:32:146,0.0,0.0,0.0
-0.1732816994190216,0.16710084676742554,9.807421684265137,-0.002756645326422125,-0.0016791336003051302,-0.0034328539163352434,2.60514497756958,2019-06-20 15:03:32:151,0.0,0.0,0.0
-0.18286068737506866,0.15752184391021729,9.82179069519043,0.0023045963578474673,-0.001945514727894355,-0.0048979501180759786,2.6101322174072266,2019-06-20 15:03:32:156,0.0,0.0,0.0
-0.1732816994190216,0.11202160269021988,9.790658950805664,0.0023045963578474673,-0.000879990087500294,-0.0027669008372878568,2.6151351928710938,2019-06-20 15:03:32:161,0.0,0.0,0.0
-0.17567645013332367,0.09525835514068604,9.8505277633667,0.001372262411285181,-0.002744658240699191,0.001095625642793062,2.6201324462890625,2019-06-20 15:03:32:166,0.0,0.0,0.0
-0.1996239423751831,0.11920584738254547,9.828974723815918,0.0048352170699451,0.001650630754634502,3.010106944941304e-05,2.6251473426818848,2019-06-20 15:03:32:171,0.0,0.0,0.0
-0.18286068737506866,0.07610035687685013,9.836158752441406,0.0007063095923121196,-0.0010131806512949063,-0.0030332819648770815,2.630131244659424,2019-06-20 15:03:32:176,0.0,0.0,0.0
-0.19483444094657898,0.1359691023826599,9.812211036682129,-0.0059532188574928195,-0.0012795617788841308,-0.0006358518165740604,2.635195732116699,2019-06-20 15:03:32:181,0.0,0.0,0.0
-0.19004493951797485,0.12160059809684753,9.82179069519043,-0.0008919772382418092,0.0021833931398501137,0.0005628633876146128,2.640138626098633,2019-06-20 15:03:32:186,0.0,0.0,0.0
-0.1876501888036728,0.09046885371208191,9.91279125213623,0.0011058812836959564,0.00031872505166979784,-0.0011686140717525096,2.645134925842285,2019-06-20 15:03:32:191,0.0,0.0,0.0
-0.2139924317598343,0.10244259983301163,9.898422241210938,-0.0035557887091897987,0.002316583703644726,0.0008292445152038374,2.6501307487487793,2019-06-20 15:03:32:196,0.0,0.0,0.0
-0.1804659366607666,0.10723210126161575,9.783474922180176,-9.283383109216743e-05,0.0005851061792590224,0.0009624350789984497,2.6551408767700195,2019-06-20 15:03:32:201,0.0,0.0,0.0
-0.19243969023227692,0.1239953488111496,9.814606666564941,0.0003067379009282828,-0.0011463712150895187,-0.0014349951993417342,2.6601309776306152,2019-06-20 15:03:32:206,0.0,0.0,0.0
-0.1996239423751831,0.10483735054731369,9.781079292297363,0.0017718342327061804,-0.003011039368288416,0.0009624350789984497,2.665135383605957,2019-06-20 15:03:32:211,0.0,0.0,0.0
-0.1876501888036728,0.10962685197591782,9.824185371398926,-9.283383109216743e-05,-0.001945514727894355,-0.006762618011200551,2.670132637023926,2019-06-20 15:03:32:216,0.0,0.0,0.0
-0.15651844441890717,0.116811104118824,9.838553428649902,0.00017354732087902514,0.0036484893415908493,-0.0029000914010824694,2.6751441955566406,2019-06-20 15:03:32:221,0.0,0.0,0.0
-0.20441344380378723,0.10723210126161575,9.831369400024414,-0.0051540754747251465,-0.0007467995237056817,-0.004631568990486754,2.680143356323242,2019-06-20 15:03:32:226,0.0,0.0,0.0
-0.19483444094657898,0.08567935228347778,9.80502700805664,0.001372262411285181,0.001650630754634502,-0.0010354235079578973,2.685152053833008,2019-06-20 15:03:32:231,0.0,0.0,0.0
-0.19243969023227692,0.11202160269021988,9.802632331848145,-0.004088550964368248,-0.0023450862892410293,-0.00010308950450435256,2.6901330947875977,2019-06-20 15:03:32:236,0.0,0.0,0.0
-0.1541236937046051,0.0976531058549881,9.785869598388672,0.00017354732087902514,-0.0016791336003051302,0.0005628633876146128,2.6951398849487305,2019-06-20 15:03:32:241,0.0,0.0,0.0
-0.1613079458475113,0.1311796009540558,9.781079292297363,0.0003067379009282828,-0.0014127523426787432,0.001095625642793062,2.700131416320801,2019-06-20 15:03:32:246,0.0,0.0,0.0
-0.1876501888036728,0.12160059809684753,9.790658950805664,-9.283383109216743e-05,0.001650630754634502,0.0021611501531499603,2.7051377296447754,2019-06-20 15:03:32:251,0.0,0.0,0.0
-0.22357143461704254,0.12160059809684753,9.788264274597168,-0.0014247395584388394,0.0012510590632506652,-0.0038324256077190803,2.7101316452026367,2019-06-20 15:03:32:256,0.0,0.0,0.0
-0.1996239423751831,0.1311796009540558,9.845738410949707,-0.0008919772382418092,0.0011178684994560528,-0.006096665452301814,2.715149402618408,2019-06-20 15:03:32:261,0.0,0.0,0.0
-0.1804659366607666,0.10004784911870956,9.807421684265137,0.0019050247965007928,0.0005851061792590224,-0.0017013763269309588,2.720132827758789,2019-06-20 15:03:32:266,0.0,0.0,0.0
-0.21638718247413635,0.10483735054731369,9.771500587463379,0.0008395001561067318,-0.0018123241640997428,0.002027959589355348,2.7251358032226562,2019-06-20 15:03:32:271,0.0,0.0,0.0
-0.21159768104553223,0.08328460156917572,9.812211036682129,-0.001158358430849615,-0.0014127523426787432,-0.0019677574545201833,2.730182647705078,2019-06-20 15:03:32:276,0.0,0.0,0.0
-0.1996239423751831,0.10962685197591782,9.848133087158203,0.00043992846472289506,-0.0024782768530356414,0.0014951973341768988,2.7351598739624023,2019-06-20 15:03:32:281,0.0,0.0,0.0
-0.20201869308948517,0.09525835514068604,9.802632331848145,-0.00022602440301410239,-0.003011039368288416,0.001095625642793062,2.740135669708252,2019-06-20 15:03:32:286,0.0,0.0,0.0
-0.21878193318843842,0.116811104118824,9.79305362701416,0.003103740000689466,0.0019170118822237267,-0.002234138582109408,2.745138645172119,2019-06-20 15:03:32:291,0.0,0.0,0.0
-0.1996239423751831,0.12639009952545166,9.80502700805664,0.0012390718474905686,-0.006074422335564498,-0.003965616171513693,2.750135898590088,2019-06-20 15:03:32:296,0.0,0.0,0.0
-0.16849219799041748,0.1311796009540558,9.75234317779541,0.0005731190285175073,-0.0010131806512949063,-0.001834566890725571,2.7551355361938477,2019-06-20 15:03:32:301,0.0,0.0,0.0
-0.21159768104553223,0.07370560616254807,9.807421684265137,4.035674489342885e-05,-0.0016791336003051302,-0.00036947065647554515,2.760134220123291,2019-06-20 15:03:32:306,0.0,0.0,0.0
-0.16849219799041748,0.10483735054731369,9.8505277633667,0.0023045963578474673,0.002716155395028563,0.0024275314107763475,2.7651424407958984,2019-06-20 15:03:32:311,0.0,0.0,0.0
-0.21638718247413635,0.09525835514068604,9.800237655639648,0.0015054529750797934,-0.0038101827510560898,0.005091342946742919,2.7701311111450195,2019-06-20 15:03:32:316,0.0,0.0,0.0
-0.19243969023227692,0.11920584738254547,9.824185371398926,-0.005287266298594084,-0.0038101827510560898,-0.005563903197123366,2.775178909301758,2019-06-20 15:03:32:321,0.0,0.0,0.0
-0.2139924317598343,0.0976531058549881,9.800237655639648,-0.001557930122233452,0.0029825365226177876,-0.0036992350439244686,2.7801389694213867,2019-06-20 15:03:32:326,0.0,0.0,0.0
-0.23075568675994873,0.15752184391021729,9.795448303222656,0.0017718342327061804,0.0012510590632506652,-0.003965616171513693,2.785132884979248,2019-06-20 15:03:32:331,0.0,0.0,0.0
-0.20201869308948517,0.11920584738254547,9.83376407623291,4.035674489342885e-05,-0.002744658240699191,-0.00010308950450435256,2.790133476257324,2019-06-20 15:03:32:336,0.0,0.0,0.0
-0.16849219799041748,0.11202160269021988,9.80502700805664,0.0017718342327061804,0.00018553447162054023,0.0009624350789984497,2.79514217376709,2019-06-20 15:03:32:341,0.0,0.0,0.0
-0.19004493951797485,0.11920584738254547,9.838553428649902,-0.0008919772382418092,0.00031872505166979784,-0.0023673291459040203,2.8001298904418945,2019-06-20 15:03:32:346,0.0,0.0,0.0
-0.19243969023227692,0.1431533545255661,9.831369400024414,-0.001557930122233452,-8.084668035065233e-05,-0.001834566890725571,2.805138111114502,2019-06-20 15:03:32:351,0.0,0.0,0.0
-0.2068081945180893,0.13836385309696198,9.840948104858398,0.002970549436894854,-0.001945514727894355,-0.0006358518165740604,2.8101329803466797,2019-06-20 15:03:32:356,0.0,0.0,0.0
-0.19483444094657898,0.13357435166835785,9.814606666564941,0.0019050247965007928,-0.0023450862892410293,-0.0006358518165740604,2.8151440620422363,2019-06-20 15:03:32:361,0.0,0.0,0.0
-0.19243969023227692,0.11920584738254547,9.860106468200684,0.0008395001561067318,-0.003943373314850702,0.007089201143587778,2.820158004760742,2019-06-20 15:03:32:366,0.0,0.0,0.0
-0.19004493951797485,0.13357435166835785,9.814606666564941,-0.001557930122233452,-0.0016791336003051302,-0.0011686140717525096,2.82515811920166,2019-06-20 15:03:32:371,0.0,0.0,0.0
-0.17807118594646454,0.11202160269021988,9.781079292297363,0.0023045963578474673,-0.00021403725227258724,-0.0038324256077190803,2.830132007598877,2019-06-20 15:03:32:376,0.0,0.0,0.0
-0.19004493951797485,0.1311796009540558,9.785869598388672,-0.0030230264540113496,-0.004209754442439926,-0.0036992350439244686,2.835177421569824,2019-06-20 15:03:32:381,0.0,0.0,0.0
-0.20201869308948517,0.14554809033870697,9.848133087158203,-0.0036889792729844113,0.00031872505166979784,0.0025607219745709597,2.840135097503662,2019-06-20 15:03:32:386,0.0,0.0,0.0
-0.17807118594646454,0.13836385309696198,9.860106468200684,-9.283383109216743e-05,-0.0023450862892410293,0.003226674793544021,2.8451366424560547,2019-06-20 15:03:32:391,0.0,0.0,0.0
-0.16370269656181335,0.09525835514068604,9.809816360473633,-0.0012915489946442272,-0.0040765638786453146,0.004425389867695532,2.850132942199707,2019-06-20 15:03:32:396,0.0,0.0,0.0
-0.16609744727611542,0.14075860381126404,9.75234317779541,0.0020382153602954054,0.002716155395028563,-0.005963474628432877,2.8551464080810547,2019-06-20 15:03:32:401,0.0,0.0,0.0
-0.1876501888036728,0.13357435166835785,9.836158752441406,-0.003822169836779023,-0.0007467995237056817,0.0012288162065876742,2.860128402709961,2019-06-20 15:03:32:406,0.0,0.0,0.0
-0.18525543808937073,0.11920584738254547,9.826580047607422,-0.0030230264540113496,-0.0004804183961164572,-0.0021009480183147955,2.86513614654541,2019-06-20 15:03:32:411,0.0,0.0,0.0
-0.1996239423751831,0.10004784911870956,9.840948104858398,0.005501170148992487,-0.001945514727894355,0.004292199303900919,2.8701834678649902,2019-06-20 15:03:32:416,0.0,0.0,0.0
-0.1421499401330948,0.1431533545255661,9.785869598388672,0.0016386436689115682,-0.0006136089599110694,0.004425389867695532,2.875136375427246,2019-06-20 15:03:32:421,0.0,0.0,0.0
-0.1804659366607666,0.08328460156917572,9.8505277633667,-0.003156217017805962,0.0004519156154644102,-0.003566044480129856,2.8801350593566895,2019-06-20 15:03:32:426,0.0,0.0,0.0
-0.18525543808937073,0.12639009952545166,9.769105911254883,-0.00022602440301410239,-0.00021403725227258724,0.003626246484927858,2.885143280029297,2019-06-20 15:03:32:431,0.0,0.0,0.0
-0.19004493951797485,0.13357435166835785,9.814606666564941,0.0012390718474905686,0.0005851061792590224,-0.00036947065647554515,2.890134811401367,2019-06-20 15:03:32:436,0.0,0.0,0.0
-0.16849219799041748,0.10004784911870956,9.82179069519043,-0.005287266298594084,0.0004519156154644102,0.00016329164746684,2.8951339721679688,2019-06-20 15:03:32:441,0.0,0.0,0.0
-0.1996239423751831,0.1503375917673111,9.893632888793945,-0.0058200285537725336,-0.0023450862892410293,-0.0029000914010824694,2.9001331329345703,2019-06-20 15:03:32:446,0.0,0.0,0.0
-0.17567645013332367,0.12639009952545166,9.797842979431152,-9.283383109216743e-05,-0.0006136089599110694,0.004292199303900919,2.905158519744873,2019-06-20 15:03:32:451,0.0,0.0,0.0
-0.17807118594646454,0.1311796009540558,9.82179069519043,-0.001557930122233452,-0.0032774204958776402,-0.0023673291459040203,2.9101343154907227,2019-06-20 15:03:32:456,0.0,0.0,0.0
-0.20201869308948517,0.10962685197591782,9.800237655639648,0.005501170148992487,0.00018553447162054023,-0.0023673291459040203,2.9151816368103027,2019-06-20 15:03:32:461,0.0,0.0,0.0
-0.14454469084739685,0.1239953488111496,9.79305362701416,0.0019050247965007928,-0.000879990087500294,-0.0029000914010824694,2.9201459884643555,2019-06-20 15:03:32:466,0.0,0.0,0.0
-0.19004493951797485,0.09046885371208191,9.807421684265137,-0.001158358430849615,-0.0006136089599110694,0.006556438888409328,2.9251370429992676,2019-06-20 15:03:32:471,0.0,0.0,0.0
-0.1996239423751831,0.09525835514068604,9.89123821258545,0.0028373588731002413,-0.0038101827510560898,-0.0017013763269309588,2.9301319122314453,2019-06-20 15:03:32:476,0.0,0.0,0.0
-0.16609744727611542,0.13357435166835785,9.814606666564941,0.0003067379009282828,0.0011178684994560528,-0.00036947065647554515,2.9351420402526855,2019-06-20 15:03:32:481,0.0,0.0,0.0
-0.17088694870471954,0.14075860381126404,9.826580047607422,-0.003422598145395187,-0.004209754442439926,-0.003566044480129856,2.940131187438965,2019-06-20 15:03:32:486,0.0,0.0,0.0
-0.15891319513320923,0.10962685197591782,9.855317115783691,0.0008395001561067318,-0.005808041207975274,-0.0011686140717525096,2.945136070251465,2019-06-20 15:03:32:491,0.0,0.0,0.0
-0.22117668390274048,0.11441635340452194,9.843342781066895,-0.0010251678020364214,0.0004519156154644102,-0.005430712373254428,2.950131893157959,2019-06-20 15:03:32:496,0.0,0.0,0.0
-0.23075568675994873,0.08807410299777985,9.795448303222656,-0.0024902641988329005,-0.0038101827510560898,0.00042967279131070986,2.9551429748535156,2019-06-20 15:03:32:501,0.0,0.0,0.0
-0.1996239423751831,0.10483735054731369,9.838553428649902,0.0007063095923121196,0.0011178684994560528,-0.003965616171513693,2.960158348083496,2019-06-20 15:03:32:506,0.0,0.0,0.0
-0.2139924317598343,0.16710084676742554,9.881659507751465,-0.0008919772382418092,-0.0010131806512949063,-0.0017013763269309588,2.9651570320129395,2019-06-20 15:03:32:511,0.0,0.0,0.0
-0.16609744727611542,0.07849510759115219,9.817001342773438,0.0016386436689115682,-0.0052752789527968245,-0.0029000914010824694,2.9702510833740234,2019-06-20 15:03:32:516,0.0,0.0,0.0
-0.22117668390274048,0.10244259983301163,9.785869598388672,0.0043024550748409765,-0.0014127523426787432,-0.001834566890725571,2.9752588272094727,2019-06-20 15:03:32:521,0.0,0.0,0.0
-0.1996239423751831,0.10723210126161575,9.809816360473633,0.0015054529750797934,-0.0026114674168302536,-0.004498378166617817,2.9802494049072266,2019-06-20 15:03:32:526,0.0,0.0,0.0
-0.19243969023227692,0.116811104118824,9.737974166870117,0.004036073947251752,0.0017838213184291141,0.0009624350789984497,2.9852547645568848,2019-06-20 15:03:32:531,0.0,0.0,0.0
-0.23075568675994873,0.17189034819602966,9.836158752441406,-0.004887694347135921,-0.0010131806512949063,-0.000902232944163285,2.9902515411376953,2019-06-20 15:03:32:536,0.0,0.0,0.0
-0.1996239423751831,0.13357435166835785,9.828974723815918,4.035674489342885e-05,-0.000879990087500294,-0.00023628007642628753,2.995269775390625,2019-06-20 15:03:32:541,0.0,0.0,0.0
-0.1876501888036728,0.11920584738254547,9.82179069519043,-0.001557930122233452,-0.0018123241640997428,0.0009624350789984497,3.0002498626708984,2019-06-20 15:03:32:546,0.0,0.0,0.0
-0.18286068737506866,0.1623113453388214,9.824185371398926,-0.0007587866744471969,-0.0006136089599110694,0.0017615784617661236,3.005255699157715,2019-06-20 15:03:32:551,0.0,0.0,0.0
-0.1996239423751831,0.1503375917673111,9.800237655639648,0.0003067379009282828,-0.004609325873749438,-0.0038324256077190803,3.0103273391723633,2019-06-20 15:03:32:556,0.0,0.0,0.0
-0.1541236937046051,0.11441635340452194,9.869685173034668,0.0019050247965007928,-0.0028778488044938037,0.0009624350789984497,3.015258312225342,2019-06-20 15:03:32:561,0.0,0.0,0.0
-0.20441344380378723,0.11202160269021988,9.82179069519043,0.0020382153602954054,-0.005142088649076538,-0.0013018046355471218,3.0202531814575195,2019-06-20 15:03:32:566,0.0,0.0,0.0
-0.19722919166088104,0.10244259983301163,9.80502700805664,0.002970549436894854,0.0011178684994560528,-0.005697093500843653,3.025263786315918,2019-06-20 15:03:32:571,0.0,0.0,0.0
-0.17567645013332367,0.10244259983301163,9.766711235046387,-0.001557930122233452,-0.003011039368288416,0.0014951973341768988,3.0302505493164062,2019-06-20 15:03:32:576,0.0,0.0,0.0
-0.19243969023227692,0.14554809033870697,9.795448303222656,-0.0047545040434156345,-0.0006136089599110694,0.006156867457099816,3.0352582931518555,2019-06-20 15:03:32:581,0.0,0.0,0.0
-0.21159768104553223,0.0976531058549881,9.769105911254883,-0.0016911206860280642,-0.002744658240699191,3.010106944941304e-05,3.0402584075927734,2019-06-20 15:03:32:586,0.0,0.0,0.0
-0.19243969023227692,0.13836385309696198,9.845738410949707,0.0003067379009282828,-0.0023450862892410293,-0.0015681857631363464,3.045266628265381,2019-06-20 15:03:32:591,0.0,0.0,0.0
-0.1804659366607666,0.10004784911870956,9.79305362701416,0.001372262411285181,-0.003410611059672253,0.0005628633876146128,3.050248146057129,2019-06-20 15:03:32:596,0.0,0.0,0.0
-0.22836093604564667,0.10483735054731369,9.800237655639648,-0.0006255961106525846,-0.0007467995237056817,-0.0006358518165740604,3.0552978515625,2019-06-20 15:03:32:601,0.0,0.0,0.0
-0.20441344380378723,0.10244259983301163,9.737974166870117,0.00017354732087902514,-0.00647399428702266,0.0029602936659547966,3.060272693634033,2019-06-20 15:03:32:606,0.0,0.0,0.0
-0.16849219799041748,0.08567935228347778,9.824185371398926,0.003103740000689466,-0.002744658240699191,0.004425389867695532,3.065258026123047,2019-06-20 15:03:32:611,0.0,0.0,0.0
-0.15891319513320923,0.10244259983301163,9.852922439575195,-0.0023570736350382883,-0.0032774204958776402,0.0017615784617661236,3.070250988006592,2019-06-20 15:03:32:616,0.0,0.0,0.0
-0.1732816994190216,0.14554809033870697,9.807421684265137,0.0015054529750797934,0.00431444216056391,-0.0015681857631363464,3.075258255004883,2019-06-20 15:03:32:621,0.0,0.0,0.0
-0.19483444094657898,0.14075860381126404,9.79305362701416,-0.002090692377411901,0.0009846778706428594,0.001095625642793062,3.079987049102783,2019-06-20 15:03:32:626,0.0,0.0,0.0
-0.17807118594646454,0.12160059809684753,9.80502700805664,-0.0018243112498226766,-0.007006756542201109,-0.0029000914010824694,3.0858688354492188,2019-06-20 15:03:32:632,0.0,0.0,0.0
-0.2068081945180893,0.12639009952545166,9.757132530212402,-0.002223883071243676,-0.00021403725227258724,0.0028271031021601845,3.0908656120300293,2019-06-20 15:03:32:637,0.0,0.0,0.0
-0.20920294523239136,0.10723210126161575,9.848133087158203,-0.0004924055468579722,0.0019170118822237267,-0.0011686140717525096,3.09586763381958,2019-06-20 15:03:32:642,0.0,0.0,0.0
-0.17567645013332367,0.1239953488111496,9.776289939880371,0.0007063095923121196,0.00018553447162054023,-0.004098806735308305,3.099980354309082,2019-06-20 15:03:32:646,0.0,0.0,0.0
-0.17807118594646454,0.1311796009540558,9.814606666564941,-0.0018243112498226766,-0.0004804183961164572,-0.0013018046355471218,3.1058874130249023,2019-06-20 15:03:32:652,0.0,0.0,0.0
-0.20201869308948517,0.14794284105300903,9.82179069519043,-0.0014247395584388394,-0.003676992187261477,-0.0015681857631363464,3.110868453979492,2019-06-20 15:03:32:657,0.0,0.0,0.0
-0.20920294523239136,0.1311796009540558,9.783474922180176,0.0037696928196625274,-0.0016791336003051302,0.0025607219745709597,3.115870475769043,2019-06-20 15:03:32:662,0.0,0.0,0.0
-0.1804659366607666,0.11202160269021988,9.785869598388672,0.0016386436689115682,5.234389563494396e-05,0.0038926276125170823,3.1199798583984375,2019-06-20 15:03:32:666,0.0,0.0,0.0
-0.1613079458475113,0.10723210126161575,9.781079292297363,0.00017354732087902514,-0.0032774204958776402,0.003226674793544021,3.1249828338623047,2019-06-20 15:03:32:671,0.0,0.0,0.0
-0.1732816994190216,0.11202160269021988,9.840948104858398,4.035674489342885e-05,-0.0014127523426787432,-0.0013018046355471218,3.130862236022949,2019-06-20 15:03:32:677,0.0,0.0,0.0
-0.21878193318843842,0.1431533545255661,9.845738410949707,0.0015054529750797934,0.002050202446018339,0.002027959589355348,3.1349844932556152,2019-06-20 15:03:32:681,0.0,0.0,0.0
-0.20920294523239136,0.11202160269021988,9.828974723815918,-0.001158358430849615,0.00018553447162054023,-0.0006358518165740604,3.139986991882324,2019-06-20 15:03:32:686,0.0,0.0,0.0
-0.1996239423751831,0.10244259983301163,9.797842979431152,0.0012390718474905686,-0.0024782768530356414,-0.0021009480183147955,3.145871162414551,2019-06-20 15:03:32:692,0.0,0.0,0.0
-0.22117668390274048,0.13357435166835785,9.845738410949707,0.006433504355629099,-0.0028778488044938037,0.006023676633230879,3.1499900817871094,2019-06-20 15:03:32:696,0.0,0.0,0.0
-0.20441344380378723,0.08328460156917572,9.872079849243164,0.001372262411285181,0.0005851061792590224,-0.0027669008372878568,3.155879020690918,2019-06-20 15:03:32:702,0.0,0.0,0.0
-0.19004493951797485,0.10962685197591782,9.80502700805664,4.035674489342885e-05,0.00031872505166979784,-0.0023673291459040203,3.159979820251465,2019-06-20 15:03:32:706,0.0,0.0,0.0
-0.2139924317598343,0.1311796009540558,9.824185371398926,0.00017354732087902514,-0.003676992187261477,0.0024275314107763475,3.16586971282959,2019-06-20 15:03:32:712,0.0,0.0,0.0
-0.21638718247413635,0.1239953488111496,9.771500587463379,0.0020382153602954054,0.0009846778706428594,-0.0013018046355471218,3.1708645820617676,2019-06-20 15:03:32:717,0.0,0.0,0.0
-0.19243969023227692,0.12160059809684753,9.826580047607422,-0.0024902641988329005,-0.003011039368288416,-0.0031664725286716937,3.174981117248535,2019-06-20 15:03:32:721,0.0,0.0,0.0
-0.2068081945180893,0.1503375917673111,9.783474922180176,0.0009726907199013442,-0.0020787052916889674,0.0021611501531499603,3.1799802780151367,2019-06-20 15:03:32:726,0.0,0.0,0.0
-0.2259661853313446,0.12639009952545166,9.802632331848145,-0.0006255961106525846,0.0024497742674393385,-0.0023673291459040203,3.1858673095703125,2019-06-20 15:03:32:732,0.0,0.0,0.0
-0.1804659366607666,0.1311796009540558,9.80502700805664,0.0019050247965007928,-0.003144229932083028,-0.0013018046355471218,3.1899800300598145,2019-06-20 15:03:32:736,0.0,0.0,0.0
-0.22117668390274048,0.13357435166835785,9.802632331848145,0.002970549436894854,-0.0035438016234668654,-0.0013018046355471218,3.1958823204040527,2019-06-20 15:03:32:742,0.0,0.0,0.0
-0.19722919166088104,0.116811104118824,9.819396018981934,-0.0006255961106525846,-0.002211895725446417,0.004958152122873981,3.2008814811706543,2019-06-20 15:03:32:747,0.0,0.0,0.0
-0.17807118594646454,0.14554809033870697,9.79305362701416,0.0024377869216420794,0.000851487306848247,0.0014951973341768988,3.2049808502197266,2019-06-20 15:03:32:751,0.0,0.0,0.0
-0.20441344380378723,0.1503375917673111,9.790658950805664,0.001372262411285181,0.002316583703644726,-0.0032996633525406317,3.2108659744262695,2019-06-20 15:03:32:757,0.0,0.0,0.0
-0.23554518818855286,0.11202160269021988,9.852922439575195,0.0024377869216420794,-0.0020787052916889674,0.004691770995284756,3.2149763107299805,2019-06-20 15:03:32:761,0.0,0.0,0.0
-0.17807118594646454,0.1431533545255661,9.812211036682129,-0.001957501813617289,-0.00021403725227258724,-0.0007690423803686727,3.2208642959594727,2019-06-20 15:03:32:767,0.0,0.0,0.0
-0.24033468961715698,0.1431533545255661,9.826580047607422,0.0019050247965007928,-0.0015459429064733554,-0.0007690423803686727,3.2249813079833984,2019-06-20 15:03:32:771,0.0,0.0,0.0
-0.2068081945180893,0.10962685197591782,9.790658950805664,0.0023045963578474673,0.001650630754634502,-0.0010354235079578973,3.2299795150756836,2019-06-20 15:03:32:776,0.0,0.0,0.0
-0.17567645013332367,0.14794284105300903,9.769105911254883,0.0005731190285175073,-0.004209754442439926,-0.003965616171513693,3.2358651161193848,2019-06-20 15:03:32:782,0.0,0.0,0.0
-0.17807118594646454,0.116811104118824,9.802632331848145,0.00017354732087902514,-0.0011463712150895187,3.010106944941304e-05,3.2408742904663086,2019-06-20 15:03:32:787,0.0,0.0,0.0
-0.19004493951797485,0.11920584738254547,9.843342781066895,0.00017354732087902514,-0.0018123241640997428,-0.0023673291459040203,3.2450037002563477,2019-06-20 15:03:32:791,0.0,0.0,0.0
-0.16849219799041748,0.10723210126161575,9.776289939880371,0.005501170148992487,-0.002211895725446417,-0.0011686140717525096,3.2499828338623047,2019-06-20 15:03:32:796,0.0,0.0,0.0
-0.18286068737506866,0.12639009952545166,9.771500587463379,0.0039028833834571395,0.00031872505166979784,0.0006960539514092252,3.2558674812316895,2019-06-20 15:03:32:802,0.0,0.0,0.0
-0.19722919166088104,0.14075860381126404,9.802632331848145,0.0008395001561067318,0.0021833931398501137,0.0006960539514092252,3.260864734649658,2019-06-20 15:03:32:807,0.0,0.0,0.0
-0.1732816994190216,0.12878485023975372,9.893632888793945,0.001372262411285181,-8.084668035065233e-05,-0.0071621899626587125,3.264981269836426,2019-06-20 15:03:32:811,0.0,0.0,0.0
-0.22357143461704254,0.10723210126161575,9.790658950805664,-0.002756645326422125,-0.0018123241640997428,-0.005164331245665204,3.2699837684631348,2019-06-20 15:03:32:816,0.0,0.0,0.0
-0.18525543808937073,0.11202160269021988,9.82179069519043,0.0005731190285175073,-0.0032774204958776402,-0.0034328539163352434,3.2758665084838867,2019-06-20 15:03:32:822,0.0,0.0,0.0
-0.16849219799041748,0.12878485023975372,9.802632331848145,0.003103740000689466,0.003382108214001624,-0.0023673291459040203,3.2799792289733887,2019-06-20 15:03:32:826,0.0,0.0,0.0
-0.15651844441890717,0.10962685197591782,9.814606666564941,0.0024377869216420794,0.0017838213184291141,0.002027959589355348,3.2858662605285645,2019-06-20 15:03:32:832,0.0,0.0,0.0
-0.17807118594646454,0.10962685197591782,9.836158752441406,-0.00022602440301410239,-0.0038101827510560898,0.0005628633876146128,3.2899932861328125,2019-06-20 15:03:32:836,0.0,0.0,0.0
-0.1613079458475113,0.10723210126161575,9.795448303222656,-0.0006255961106525846,-0.004609325873749438,0.004558580691564469,3.2958736419677734,2019-06-20 15:03:32:842,0.0,0.0,0.0
-0.1876501888036728,0.11920584738254547,9.790658950805664,-0.0014247395584388394,-0.003011039368288416,-0.001834566890725571,3.2999744415283203,2019-06-20 15:03:32:846,0.0,0.0,0.0
-0.1804659366607666,0.14554809033870697,9.864895820617676,-9.283383109216743e-05,-0.001945514727894355,-0.0017013763269309588,3.3049821853637695,2019-06-20 15:03:32:851,0.0,0.0,0.0
