ACCELEROMETER X (m/s²),ACCELEROMETER Y (m/s²),ACCELEROMETER Z (m/s²),GYROSCOPE X (rad/s),GYROSCOPE Y (rad/s),GYROSCOPE Z (rad/s),Time since start in ms ,YYYY-MO-DD HH-MI-SS_SSS
0.5036996603012085,0.12883034348487854,9.907709121704102,-0.007380355911098544,0.03682799334854071,0.010585853112415606,0.0,2019-06-18 15:57:35:813
0.49412068724632263,0.07614585757255554,9.661049842834473,0.0038076519677975387,0.013386452040094348,0.01138499701533193,0.005890369415283203,2019-06-18 15:57:35:819
0.3911464512348175,0.06417210400104523,9.526944160461426,0.008336131656963007,0.0012661095644501657,0.008854376043159971,0.009998321533203125,2019-06-18 15:57:35:823
0.3911464512348175,0.06656685471534729,9.646681785583496,-0.00045444623617650777,-0.0035287511222673643,0.008188422964112586,0.0149993896484375,2019-06-18 15:57:35:828
0.5276471972465515,0.13601459562778473,9.617944717407227,0.006871035195147947,-0.005393418755317611,0.0021948473332807066,0.020882606506347656,2019-06-18 15:57:35:834
0.44622567296028137,0.13601459562778473,9.835866928100586,0.008469321960683293,0.006593732506346145,-0.0010017262628085697,0.025905132293701172,2019-06-18 15:57:35:839
0.4126991927623749,0.09290910512208939,9.912498474121094,-0.00658121252833087,0.006460541682477208,0.003393562667506543,0.029998302459716797,2019-06-18 15:57:35:843
0.46777844429016113,0.08333010226488113,9.797551155090332,0.001143840691905293,0.01711578782634349,0.002860800412328093,0.03591442108154297,2019-06-18 15:57:35:849
0.4653836786746979,0.09290910512208939,9.780787467956543,-0.0007208273962750229,0.02550679360547839,0.004725468305452665,0.040017127990722656,2019-06-18 15:57:35:853
0.3839621841907501,0.1048828512430191,9.759234428405762,-0.0040505915561589115,0.022709792025865858,0.003926324922684992,0.04500007629394531,2019-06-18 15:57:35:858
0.2594352066516876,0.06656685471534729,9.663444519042969,0.0018097935108783545,0.01764855008152194,0.0004633700039507468,0.05088615417480469,2019-06-18 15:57:35:864
0.2522509694099426,0.021066613495349884,9.586812973022461,0.0008774594992974871,0.0012661095644501657,-0.0035323471699619468,0.054997920989990234,2019-06-18 15:57:35:868
0.29775121808052063,-0.014854632318019867,9.613155364990234,0.00820294083309407,-0.008190420855078795,-0.004065109425140397,0.06000089645385742,2019-06-18 15:57:35:873
0.364804208278656,0.04740886017680168,9.797551155090332,0.003940842531592151,-0.0009981301500954058,-0.005663396190675744,0.06588554382324219,2019-06-18 15:57:35:879
0.3983306884765625,0.04740886017680168,9.890946388244629,0.0024757463298514157,0.0024648247686388392,-0.004065109425140397,0.06999731063842773,2019-06-18 15:57:35:883
0.38156744837760925,0.009092864580452442,9.888551712036133,-0.004450163507617074,0.012587308137178023,-0.006196158445854193,0.07589292526245117,2019-06-18 15:57:35:889
0.33606719970703125,-0.0843023732304573,9.857419967651367,0.004340414222975988,0.024174888487680915,-0.0041982999889350085,0.08003950119018555,2019-06-18 15:57:35:893
0.23069821298122406,0.04501410946249962,9.898130416870117,0.003541270840208314,0.02164426751550896,-0.006329349269723131,0.08589982986450195,2019-06-18 15:57:35:899
0.3073301911354065,0.10727760195732117,9.790366172790527,0.0023425557660568036,0.011921355578279287,-0.004597871680318845,0.08999872207641602,2019-06-18 15:57:35:903
0.27140894532203674,0.1503830999135971,9.706550598144531,-0.0023191142268289516,0.0076592570167030435,-0.016585022941982604,0.09499835968017578,2019-06-18 15:57:35:908
0.2594352066516876,0.049803610891103745,9.728102684020996,-0.0016531614078558903,0.011388593323100838,-0.013388449410911907,0.10000181198120117,2019-06-18 15:57:35:913
0.2929617166519165,-0.007670383434742689,9.704155921936035,0.008069750529373781,0.0023316342048442266,-0.008194017162847702,0.10588741302490234,2019-06-18 15:57:35:919
0.24267196655273438,0.04501410946249962,9.795156478881836,0.007936559705504845,0.004595873789352636,-0.010458256487281785,0.10999631881713867,2019-06-18 15:57:35:923
0.23309296369552612,0.2102518379688263,9.87418270111084,0.0014102218194945173,0.0039299209703795735,-0.01565268873534599,0.11589527130126953,2019-06-18 15:57:35:929
0.2881722152233124,0.23898883163928986,9.890946388244629,-0.008712261549044666,0.008991162654649167,-0.01924883525817215,0.12000131607055664,2019-06-18 15:57:35:933
0.333672434091568,0.10727760195732117,9.807129859924316,-0.00604845027315242,0.019380027150777576,-0.011656972341656273,0.1259016990661621,2019-06-18 15:57:35:939
0.26422470808029175,-0.09627611935138702,9.807129859924316,7.831605963855469e-05,0.025906365556936553,-0.013521639714632192,0.13089609146118164,2019-06-18 15:57:35:944
0.19238221645355225,-0.04598637670278549,9.756839752197266,0.0032748897126190896,0.02737146201875161,-0.014054401969810643,0.13501977920532227,2019-06-18 15:57:35:948
0.051091983914375305,0.12404084950685501,9.699365615844727,0.005139557605743661,0.01125540197908325,-0.015519498431625702,0.14088773727416992,2019-06-18 15:57:35:954
0.08222372829914093,0.13601459562778473,9.6347074508667,0.0019429840746729666,-0.0016640829690684673,-0.01565268873534599,0.14500045776367188,2019-06-18 15:57:35:958
0.16603997349739075,0.09530385583639145,9.677813529968262,0.0030085085850298653,-0.001530892405273855,-0.016718213245702888,0.15088129043579102,2019-06-18 15:57:35:964
0.2019612193107605,0.06177735701203346,9.701761245727539,0.004340414222975988,-0.002862798043219978,-0.008993161065764026,0.15499639511108398,2019-06-18 15:57:35:968
0.228303462266922,0.04501410946249962,9.785576820373535,0.00620508211610056,0.007925638144292268,-0.01125740039019811,0.16089439392089844,2019-06-18 15:57:35:974
0.182803213596344,0.10248810052871704,9.790366172790527,-5.487451634704159e-05,0.009124352958369454,-0.0064625395734434175,0.16500186920166016,2019-06-18 15:57:35:978
0.2091454714536667,0.15277785062789917,9.821497917175293,-0.0033846387371858503,0.010056687165006064,-0.01179016264537656,0.17088937759399414,2019-06-18 15:57:35:984
0.20435597002506256,0.11925134807825089,9.823892593383789,-5.487451634704159e-05,0.012054545881999576,-0.015785880079363577,0.17499685287475586,2019-06-18 15:57:35:988
0.21393495798110962,-0.01006513275206089,9.77599811553955,0.0006110783717082625,0.017382168433784064,-0.008194017162847702,0.1808795928955078,2019-06-18 15:57:35:994
0.17322422564029694,0.028250861912965775,9.787971496582031,0.00473998617443415,0.012853689784915898,-0.0053970150630865184,0.18589067459106445,2019-06-18 15:57:35:999
0.14688196778297424,0.06896160542964935,9.718523979187012,0.0026089368936460283,0.005794589123578471,-0.007128492652490805,0.19000577926635742,2019-06-18 15:57:36:003
0.11575022339820862,0.1048828512430191,9.780787467956543,-0.0003212556723818955,0.003530349278995737,-0.013122068803471332,0.19499921798706055,2019-06-18 15:57:36:008
0.19238221645355225,0.05219835788011551,9.802340507507324,0.0012770312556999051,-0.0023300357880415286,-0.006595730397312356,0.20088529586791992,2019-06-18 15:57:36:014
0.24267196655273438,-0.012459882535040379,9.773603439331055,0.001143840691905293,0.0015324906920393903,-0.010591447831299375,0.20499753952026367,2019-06-18 15:57:36:018
0.26422470808029175,-0.01006513275206089,9.917288780212402,0.0024757463298514157,0.012720498440898311,-0.0016676791468002124,0.21090459823608398,2019-06-18 15:57:36:024
0.25704047083854675,0.03782986104488373,9.86220932006836,0.0026089368936460283,0.01658302557116504,-0.0018008697105948246,0.21500873565673828,2019-06-18 15:57:36:028
0.24506671726703644,0.08811960369348526,9.809524536132812,-0.00045444623617650777,0.01125540197908325,0.0003301794401561345,0.2200174331665039,2019-06-18 15:57:36:033
0.19956646859645844,0.07614585757255554,9.780787467956543,-0.0016531614078558903,0.01365283264753492,0.002328037897075319,0.22500228881835938,2019-06-18 15:57:36:038
0.23309296369552612,-0.0028808838687837124,9.692181587219238,-0.0003212556723818955,0.007792447840571981,-0.0041982999889350085,0.23000097274780273,2019-06-18 15:57:36:043
0.23309296369552612,-0.04359162971377373,9.694576263427734,0.0028753180212352527,0.002864396460022676,0.002328037897075319,0.23590993881225586,2019-06-18 15:57:36:049
0.21154020726680756,0.021066613495349884,9.732892990112305,0.0028753180212352527,0.0027312058962280636,0.002461228460869931,0.24088430404663086,2019-06-18 15:57:36:054
0.24985620379447937,0.0857248529791832,9.778392791748047,0.0032748897126190896,0.0023316342048442266,0.0011293228229238084,0.24499797821044922,2019-06-18 15:57:36:058
0.27140894532203674,0.10248810052871704,9.83347225189209,-0.0005876368324804107,-0.00046536786240766596,-0.0006021545714247328,0.2500147819519043,2019-06-18 15:57:36:063
0.34325143694877625,-0.03161787986755371,9.797551155090332,0.003940842531592151,0.005927779427298759,-0.0006021545714247328,0.2558913230895996,2019-06-18 15:57:36:069
0.326488196849823,0.016277113929390907,9.819103240966797,0.004606795350565213,0.010189877468726351,0.005924183639678501,0.2599964141845703,2019-06-18 15:57:36:073
0.35522520542144775,0.06896160542964935,9.787971496582031,0.003940842531592151,0.01525111941307027,0.002860800412328093,0.265012264251709,2019-06-18 15:57:36:078
0.3121196925640106,0.06896160542964935,9.785576820373535,-0.0017863519716505025,0.013519642343814635,0.0025944190246645436,0.2708868980407715,2019-06-18 15:57:36:084
0.2929617166519165,0.06177735701203346,9.76402473449707,-0.0005876368324804107,0.01218773618571986,0.0017952757719340324,0.2749972343444824,2019-06-18 15:57:36:088
0.29056695103645325,0.004303365014493465,9.7257080078125,-0.00045444623617650777,0.010189877468726351,0.003659943795095767,0.280001163482666,2019-06-18 15:57:36:093
0.31690919399261475,-0.007670383434742689,9.704155921936035,0.003141699148824477,-0.001530892405273855,0.008721185219291034,0.2858853340148926,2019-06-18 15:57:36:099
0.32888296246528625,0.07135635614395142,9.783182144165039,0.001143840691905293,0.004595873789352636,0.0075224704052138484,0.28999853134155273,2019-06-18 15:57:36:103
0.35043570399284363,0.09290910512208939,9.768814086914062,-0.0009872085238642476,0.0053950171721203095,0.006590136198577237,0.29500293731689453,2019-06-18 15:57:36:108
0.371988445520401,0.06896160542964935,9.828682899475098,-0.0005876368324804107,0.013120070392356473,0.007389279581344911,0.3008875846862793,2019-06-18 15:57:36:114
0.3863569498062134,0.06417210400104523,9.790366172790527,0.001676602947083742,0.010456259116464226,0.005125040256910827,0.3050355911254883,2019-06-18 15:57:36:118
0.32888296246528625,-0.00048613420221954584,9.821497917175293,-0.0033846387371858503,0.013919214295272795,0.010186282201254745,0.3100123405456543,2019-06-18 15:57:36:123
0.3600147068500519,0.030645612627267838,9.76402473449707,0.0014102218194945173,0.012720498440898311,0.01191775927051038,0.315000057220459,2019-06-18 15:57:36:128
0.34325143694877625,0.07614585757255554,9.716129302978516,0.0012770312556999051,0.009523924909827616,0.00645694589485695,0.32088661193847656,2019-06-18 15:57:36:134
0.36240944266319275,0.07135635614395142,9.756839752197266,-0.0009872085238642476,0.010056687165006064,0.004592277481583728,0.3249959945678711,2019-06-18 15:57:36:138
0.2929617166519165,0.0593826100230217,9.759234428405762,-0.00018806509233263786,0.00832521009575043,0.005657802512089276,0.3308873176574707,2019-06-18 15:57:36:144
0.35043570399284363,0.03782986104488373,9.814313888549805,0.0007442689355028748,0.007259685065244881,0.007256089277624623,0.3350205421447754,2019-06-18 15:57:36:148
0.4198834300041199,0.04022461175918579,9.802340507507324,0.0012770312556999051,0.0053950171721203095,0.0029939909761227054,0.3400235176086426,2019-06-18 15:57:36:153
0.3911464512348175,0.08093535900115967,9.847840309143066,-0.0013867802802666658,0.005794589123578471,0.008188422964112586,0.3458895683288574,2019-06-18 15:57:36:159
0.42227819561958313,0.10248810052871704,9.840656280517578,0.0024757463298514157,0.01325326069607676,0.0004633700039507468,0.3500065803527832,2019-06-18 15:57:36:163
0.3911464512348175,0.09290910512208939,9.780787467956543,0.0032748897126190896,0.012454117833457736,0.0040595154864796045,0.3558940887451172,2019-06-18 15:57:36:169
0.34804093837738037,0.10248810052871704,9.792760848999023,0.004473605046844925,0.014052404598993085,0.0012625133867184206,0.3599987030029297,2019-06-18 15:57:36:173
0.326488196849823,0.10967235267162323,9.708945274353027,-0.002452304790623564,0.010589449420184513,0.00499184943304189,0.36588430404663086,2019-06-18 15:57:36:179
0.34804093837738037,0.11685659736394882,9.747261047363281,0.0028753180212352527,0.004462683485632349,0.008055232660392297,0.36999988555908203,2019-06-18 15:57:36:183
0.3384619355201721,0.07614585757255554,9.778392791748047,-0.00045444623617650777,0.008591591223339655,-0.000735345135219345,0.3749995231628418,2019-06-18 15:57:36:188
0.35043570399284363,0.12404084950685501,9.811919212341309,0.006071891812380273,0.005661398299709534,0.002461228460869931,0.38088464736938477,2019-06-18 15:57:36:194
0.3983306884765625,0.12404084950685501,9.787971496582031,0.004207223659181376,0.004063111534174186,-0.0022004415320158242,0.38501691818237305,2019-06-18 15:57:36:198
0.35522520542144775,0.08093535900115967,9.847840309143066,0.0036744614040029266,0.007259685065244881,0.004592277481583728,0.3908877372741699,2019-06-18 15:57:36:204
0.35522520542144775,0.13601459562778473,9.809524536132812,-0.0029850670458020133,0.01471835715789182,-0.0008685356990139574,0.3950052261352539,2019-06-18 15:57:36:208
0.34325143694877625,0.11206710338592529,9.797551155090332,0.005139557605743661,0.012720498440898311,0.002860800412328093,0.40000200271606445,2019-06-18 15:57:36:213
0.35043570399284363,0.12164609879255295,9.778392791748047,-0.0017863519716505025,0.0117881642342617,0.006057373943398788,0.4058876037597656,2019-06-18 15:57:36:219
0.3384619355201721,0.08333010226488113,9.783182144165039,0.00154341238328913,0.009523924909827616,0.0011293228229238084,0.40999698638916016,2019-06-18 15:57:36:223
0.35522520542144775,0.10967235267162323,9.75444507598877,7.831605963855469e-05,0.008591591223339655,-0.0015344885830056003,0.41588449478149414,2019-06-18 15:57:36:229
0.3528304398059845,0.06896160542964935,9.723313331604004,0.005272748429612599,0.0032639681514065122,0.004459087177863441,0.41999292373657227,2019-06-18 15:57:36:233
0.333672434091568,0.12883034348487854,9.843050956726074,0.004074033095386763,0.005528207995989247,0.004592277481583728,0.42499876022338867,2019-06-18 15:57:36:238
0.3767779469490051,0.10967235267162323,9.826288223266602,0.001143840691905293,0.0053950171721203095,0.0035267532313011545,0.43090200424194336,2019-06-18 15:57:36:244
0.3767779469490051,0.09769860655069351,9.787971496582031,-0.002452304790623564,0.005661398299709534,0.004459087177863441,0.43502092361450195,2019-06-18 15:57:36:248
0.40072545409202576,0.10009334981441498,9.802340507507324,-0.0015199708440612782,0.00632735137875692,0.0052582305606311145,0.4409151077270508,2019-06-18 15:57:36:254
0.379172682762146,0.07375110685825348,9.876577377319336,-0.0013867802802666658,0.010056687165006064,0.007788851532803074,0.4450106620788574,2019-06-18 15:57:36:258
0.40072545409202576,0.1312250941991806,9.75444507598877,-0.0003212556723818955,0.01671621587488533,0.0040595154864796045,0.4508848190307617,2019-06-18 15:57:36:264
0.40790969133377075,0.1312250941991806,9.797551155090332,0.0038076519677975387,0.009390734606107327,0.004592277481583728,0.45499658584594727,2019-06-18 15:57:36:268
0.34325143694877625,0.06656685471534729,9.783182144165039,0.0014102218194945173,0.005794589123578471,0.006190564767267726,0.4608907699584961,2019-06-18 15:57:36:274
0.3983306884765625,0.09290910512208939,9.744866371154785,-0.0005876368324804107,0.0025980153324334514,0.00645694589485695,0.4649958610534668,2019-06-18 15:57:36:278
0.4103044271469116,0.07614585757255554,9.797551155090332,0.001143840691905293,0.005794589123578471,0.0007297511315399715,0.4700002670288086,2019-06-18 15:57:36:283
0.38156744837760925,0.0785406082868576,9.802340507507324,0.006071891812380273,0.010989021371642677,0.0031271815399173176,0.4750075340270996,2019-06-18 15:57:36:288
0.4031201899051666,0.0785406082868576,9.840656280517578,0.005672319860922111,0.006460541682477208,0.0007297511315399715,0.48088979721069336,2019-06-18 15:57:36:294
0.364804208278656,0.07614585757255554,9.773603439331055,0.004207223659181376,0.008724781527059942,-0.0011349168916217633,0.48503875732421875,2019-06-18 15:57:36:298
0.42706769704818726,0.06656685471534729,9.838261604309082,0.006871035195147947,0.012454117833457736,0.004192706050274216,0.49001121520996094,2019-06-18 15:57:36:303
0.3983306884765625,0.056987859308719635,9.802340507507324,0.0004778877754043595,0.008192019271881493,0.0004633700039507468,0.49499988555908203,2019-06-18 15:57:36:308
0.424672931432724,0.06896160542964935,9.752050399780273,0.0024757463298514157,0.011388593323100838,0.0052582305606311145,0.5008878707885742,2019-06-18 15:57:36:314
0.40072545409202576,0.09769860655069351,9.737682342529297,-0.003917400992364299,0.00832521009575043,-0.0022004415320158242,0.5049967765808105,2019-06-18 15:57:36:318
0.4198834300041199,0.0785406082868576,9.780787467956543,-0.0019195425354451149,0.008857972350928878,0.002461228460869931,0.510887622833252,2019-06-18 15:57:36:324
0.371988445520401,0.10248810052871704,9.728102684020996,0.001676602947083742,0.004595873789352636,-0.0020672508381840496,0.5149970054626465,2019-06-18 15:57:36:328
0.364804208278656,0.07135635614395142,9.75444507598877,0.00473998617443415,0.00686011363393537,-0.0016676791468002124,0.5200037956237793,2019-06-18 15:57:36:333
0.38156744837760925,0.03782986104488373,9.819103240966797,0.0036744614040029266,0.007792447840571981,-0.0018008697105948246,0.5259051322937012,2019-06-18 15:57:36:339
0.4055149257183075,0.08333010226488113,9.795156478881836,0.0012770312556999051,0.012054545881999576,-0.0022004415320158242,0.5299992561340332,2019-06-18 15:57:36:343
0.35522520542144775,0.06656685471534729,9.768814086914062,-0.0019195425354451149,0.015917071971969007,-0.0022004415320158242,0.5359015464782715,2019-06-18 15:57:36:349
0.37438318133354187,-0.005275633651763201,9.761629104614258,0.0007442689355028748,0.013386452040094348,-0.006196158445854193,0.5400004386901855,2019-06-18 15:57:36:353
0.3528304398059845,0.028250861912965775,9.785576820373535,-0.0013867802802666658,0.012587308137178023,0.0012625133867184206,0.5449981689453125,2019-06-18 15:57:36:358
0.3671989440917969,0.013882364146411419,9.759234428405762,0.0028753180212352527,0.008857972350928878,-0.0027332037871942733,0.5508885383605957,2019-06-18 15:57:36:364
0.3073301911354065,-0.005275633651763201,9.742471694946289,0.0008774594992974871,0.006726922810066432,-0.001934060274389437,0.5550007820129395,2019-06-18 15:57:36:368
0.326488196849823,0.009092864580452442,9.771208763122559,-0.00018806509233263786,0.0015324906920393903,-0.0027332037871942733,0.5608859062194824,2019-06-18 15:57:36:374
0.35522520542144775,0.023461362347006798,9.699365615844727,0.004074033095386763,0.004329492661763411,-0.0020672508381840496,0.564997673034668,2019-06-18 15:57:36:378
0.35043570399284363,0.04501410946249962,9.80473518371582,0.006071891812380273,0.010056687165006064,-0.0026000132233996607,0.5709075927734375,2019-06-18 15:57:36:384
0.371988445520401,0.04501410946249962,9.790366172790527,0.007803369401784558,0.005528207995989247,-0.005530205886955456,0.5749974250793457,2019-06-18 15:57:36:388
0.3839621841907501,0.049803610891103745,9.8167085647583,-0.0017863519716505025,0.011921355578279287,0.002328037897075319,0.5809054374694824,2019-06-18 15:57:36:394
0.3408567011356354,0.04501410946249962,9.77599811553955,0.001143840691905293,0.010456259116464226,0.0008629416953345836,0.584996223449707,2019-06-18 15:57:36:398
0.32888296246528625,-0.00048613420221954584,9.771208763122559,-5.487451634704159e-05,0.009923496861285777,-0.0024668226596050486,0.5899996757507324,2019-06-18 15:57:36:403
0.3121196925640106,0.035435110330581665,9.756839752197266,0.0027421274574406405,0.009124352958369454,-0.0053970150630865184,0.5950002670288086,2019-06-18 15:57:36:408
0.326488196849823,0.0857248529791832,9.797551155090332,0.002209365202262191,0.008458400399470718,-0.00486425280790807,0.6008853912353516,2019-06-18 15:57:36:414
0.32409346103668213,0.06656685471534729,9.756839752197266,0.0019429840746729666,0.006593732506346145,6.379828412128062e-05,0.6049952507019043,2019-06-18 15:57:36:418
0.326488196849823,0.08093535900115967,9.7352876663208,0.0038076519677975387,0.0039299209703795735,0.0025944190246645436,0.6108851432800293,2019-06-18 15:57:36:424
0.3121196925640106,0.0330403633415699,9.819103240966797,0.002076174638467579,0.00632735137875692,0.00326037210371193,0.6159090995788574,2019-06-18 15:57:36:429
0.34804093837738037,0.028250861912965775,9.838261604309082,-0.0003212556723818955,0.010456259116464226,-0.0016676791468002124,0.6199994087219238,2019-06-18 15:57:36:433
0.30254068970680237,0.0785406082868576,9.761629104614258,0.004473605046844925,0.008458400399470718,0.003659943795095767,0.6258978843688965,2019-06-18 15:57:36:439
0.32888296246528625,0.06417210400104523,9.787971496582031,-0.0012535897164720534,0.009657115213547902,-0.0023336320958104364,0.6299967765808105,2019-06-18 15:57:36:443
0.3121196925640106,0.042619358748197556,9.69697093963623,0.0026089368936460283,0.012986880088636184,-0.0016676791468002124,0.6358933448791504,2019-06-18 15:57:36:449
0.3073301911354065,0.03782986104488373,9.742471694946289,0.0007442689355028748,0.008591591223339655,0.0011293228229238084,0.6400008201599121,2019-06-18 15:57:36:453
0.30972495675086975,0.028250861912965775,9.752050399780273,0.0012770312556999051,0.006460541682477208,-0.00020258286378625062,0.6449999809265137,2019-06-18 15:57:36:458
0.2857774496078491,0.06656685471534729,9.744866371154785,-0.0005876368324804107,0.0061941605548879826,-0.004597871680318845,0.6508846282958984,2019-06-18 15:57:36:464
0.3145144581794739,0.07375110685825348,9.77599811553955,-0.0008540179600696353,-6.579614257819981e-05,-0.0006021545714247328,0.654996395111084,2019-06-18 15:57:36:468
0.32169869542121887,0.0857248529791832,9.826288223266602,-0.00018806509233263786,0.0053950171721203095,-0.0008685356990139574,0.6608996391296387,2019-06-18 15:57:36:474
0.3408567011356354,0.0330403633415699,9.785576820373535,0.003541270840208314,0.009523924909827616,-0.0016676791468002124,0.6649951934814453,2019-06-18 15:57:36:478
0.2929617166519165,0.030645612627267838,9.773603439331055,-0.0012535897164720534,0.01125540197908325,0.002860800412328093,0.6708884239196777,2019-06-18 15:57:36:484
0.319303959608078,0.10248810052871704,9.792760848999023,0.0008774594992974871,0.009657115213547902,-0.0008685356990139574,0.6749982833862305,2019-06-18 15:57:36:488
0.2738037109375,0.10967235267162323,9.728102684020996,0.0007442689355028748,0.011521783626821125,0.0007297511315399715,0.6808867454528809,2019-06-18 15:57:36:494
0.27619844675064087,0.0593826100230217,9.783182144165039,0.004473605046844925,0.008591591223339655,-0.0015344885830056003,0.6849970817565918,2019-06-18 15:57:36:498
0.24506671726703644,0.06896160542964935,9.740077018737793,-5.487451634704159e-05,0.006993303937655657,-0.0008685356990139574,0.6900029182434082,2019-06-18 15:57:36:503
0.27619844675064087,0.06417210400104523,9.802340507507324,0.0019429840746729666,0.005794589123578471,0.003926324922684992,0.6949963569641113,2019-06-18 15:57:36:508
0.30254068970680237,0.06417210400104523,9.807129859924316,0.0012770312556999051,0.003796730406584962,0.004858658609172953,0.7008886337280273,2019-06-18 15:57:36:514
0.32888296246528625,0.09530385583639145,9.826288223266602,0.00021150663156048962,0.00686011363393537,-0.0011349168916217633,0.705012321472168,2019-06-18 15:57:36:518
0.3408567011356354,0.0857248529791832,9.838261604309082,-0.0021859236630343394,0.007792447840571981,0.002461228460869931,0.7109084129333496,2019-06-18 15:57:36:524
0.2953564524650574,0.0785406082868576,9.843050956726074,0.0012770312556999051,0.00686011363393537,0.0012625133867184206,0.7150826454162598,2019-06-18 15:57:36:528
0.2881722152233124,0.11925134807825089,9.795156478881836,-0.0028518764820074007,0.013386452040094348,0.0031271815399173176,0.7209024429321289,2019-06-18 15:57:36:534
0.27619844675064087,0.06896160542964935,9.744866371154785,-0.00045444623617650777,0.008458400399470718,0.005391421384500052,0.7249951362609863,2019-06-18 15:57:36:538
0.2402772158384323,0.0593826100230217,9.740077018737793,0.0023425557660568036,0.010722639723904802,0.005790992815809564,0.7308783531188965,2019-06-18 15:57:36:544
0.24985620379447937,0.02585611306130886,9.7352876663208,0.003541270840208314,0.008458400399470718,0.005391421384500052,0.7349891662597656,2019-06-18 15:57:36:548
0.2785932123661041,0.06417210400104523,9.768814086914062,-0.0027186859182127886,0.0053950171721203095,0.004459087177863441,0.7400112152099609,2019-06-18 15:57:36:553
0.27619844675064087,0.04740886017680168,9.80473518371582,0.001143840691905293,0.007392875889113818,-0.0015344885830056003,0.7458834648132324,2019-06-18 15:57:36:559
0.2594352066516876,0.06417210400104523,9.823892593383789,7.831605963855469e-05,0.00832521009575043,0.0021948473332807066,0.7499957084655762,2019-06-18 15:57:36:563
0.30254068970680237,0.06896160542964935,9.823892593383789,0.001676602947083742,0.009124352958369454,0.0011293228229238084,0.7559008598327637,2019-06-18 15:57:36:569
0.2546457052230835,0.0593826100230217,9.850234985351562,-0.0023191142268289516,0.012587308137178023,-0.0023336320958104364,0.7599959373474121,2019-06-18 15:57:36:573
0.24506671726703644,0.08093535900115967,9.831077575683594,-0.0013867802802666658,0.010989021371642677,0.002461228460869931,0.7650046348571777,2019-06-18 15:57:36:578
0.2857774496078491,0.10009334981441498,9.749655723571777,-0.0007208273962750229,0.008591591223339655,0.0013957039505130327,0.7708826065063477,2019-06-18 15:57:36:584
0.24985620379447937,0.0857248529791832,9.759234428405762,-0.003118257609596625,0.01232092752973745,-0.0022004415320158242,0.7749924659729004,2019-06-18 15:57:36:588
0.23069821298122406,0.09769860655069351,9.737682342529297,0.00620508211610056,0.009257544302387042,-0.0023336320958104364,0.7800002098083496,2019-06-18 15:57:36:593
0.2594352066516876,0.08811960369348526,9.768814086914062,0.004606795350565213,0.004063111534174186,-0.0012681074554163755,0.7849993705749512,2019-06-18 15:57:36:598
0.24506671726703644,0.0593826100230217,9.797551155090332,0.0007442689355028748,0.0027312058962280636,-0.0035323471699619468,0.7908816337585449,2019-06-18 15:57:36:604
0.2738037109375,0.1048828512430191,9.811919212341309,0.005139557605743661,0.004196302097968799,-0.007661254907669253,0.7949934005737305,2019-06-18 15:57:36:608
0.3384619355201721,0.0857248529791832,9.742471694946289,0.006338272939969498,0.008458400399470718,-0.001934060274389437,0.8008871078491211,2019-06-18 15:57:36:614
0.24985620379447937,0.12164609879255295,9.802340507507324,0.0012770312556999051,0.01125540197908325,0.0035267532313011545,0.8050241470336914,2019-06-18 15:57:36:618
0.2618299722671509,0.08811960369348526,9.787971496582031,-0.0019195425354451149,0.009923496861285777,0.0003301794401561345,0.8108944892883301,2019-06-18 15:57:36:624
0.28338271379470825,0.03782986104488373,9.711339950561523,0.0050063673020233745,0.009257544302387042,0.0011293228229238084,0.8150143623352051,2019-06-18 15:57:36:628
0.280987948179245,0.1048828512430191,9.792760848999023,0.001676602947083742,0.012853689784915898,-0.0008685356990139574,0.8201193809509277,2019-06-18 15:57:36:633
0.25704047083854675,0.0785406082868576,9.80473518371582,0.0006110783717082625,0.007126494761524595,6.379828412128062e-05,0.8262495994567871,2019-06-18 15:57:36:639
0.2690142095088959,0.08333010226488113,9.783182144165039,0.004873176478154437,0.005128636044531084,-0.0020672508381840496,0.8301949501037598,2019-06-18 15:57:36:643
0.3073301911354065,0.042619358748197556,9.744866371154785,0.0027421274574406405,0.0039299209703795735,-6.939229186431566e-05,0.8359408378601074,2019-06-18 15:57:36:649
0.2881722152233124,0.04022461175918579,9.843050956726074,-0.00018806509233263786,0.008058828968161205,0.00166208520813942,0.839625358581543,2019-06-18 15:57:36:653
0.3073301911354065,0.09051435440778732,9.819103240966797,0.0019429840746729666,0.00979030655756549,0.0035267532313011545,0.8467679023742676,2019-06-18 15:57:36:660
0.3121196925640106,0.07135635614395142,9.68499755859375,-0.0017863519716505025,0.01232092752973745,-0.000735345135219345,0.856773853302002,2019-06-18 15:57:36:670
0.3121196925640106,0.05459310859441757,9.75444507598877,0.005139557605743661,0.007792447840571981,0.00326037210371193,0.861508846282959,2019-06-18 15:57:36:675
0.29775121808052063,0.04501410946249962,9.704155921936035,7.831605963855469e-05,0.009257544302387042,0.004325896614068829,0.8665108680725098,2019-06-18 15:57:36:680
0.29775121808052063,0.04740886017680168,9.692181587219238,-0.0011203991526774412,0.0036635398427903496,0.0025944190246645436,0.871452808380127,2019-06-18 15:57:36:684
0.30972495675086975,0.05219835788011551,9.75444507598877,0.0024757463298514157,0.005528207995989247,0.002860800412328093,0.8764262199401855,2019-06-18 15:57:36:689
0.3049354553222656,0.04022461175918579,9.831077575683594,0.0018097935108783545,0.004462683485632349,0.004325896614068829,0.8799962997436523,2019-06-18 15:57:36:693
0.3145144581794739,0.07375110685825348,9.809524536132812,0.0010106500630920993,0.0117881642342617,-6.939229186431566e-05,0.8858757019042969,2019-06-18 15:57:36:699
0.3839621841907501,0.06177735701203346,9.783182144165039,0.005539129557201824,0.008991162654649167,0.00166208520813942,0.8899846076965332,2019-06-18 15:57:36:703
0.30972495675086975,0.01867186278104782,9.83347225189209,0.0012770312556999051,0.01418559490271337,0.0008629416953345836,0.8958954811096191,2019-06-18 15:57:36:709
0.32409346103668213,0.0785406082868576,9.787971496582031,0.001143840691905293,0.012720498440898311,0.006323755070988013,0.8999838829040527,2019-06-18 15:57:36:713
0.3121196925640106,0.07375110685825348,9.752050399780273,0.006471463243689784,0.010855831067922388,0.005391421384500052,0.9050030708312988,2019-06-18 15:57:36:718
0.30972495675086975,0.09051435440778732,9.752050399780273,-0.0011203991526774412,0.007792447840571981,0.000996132259129196,0.9108705520629883,2019-06-18 15:57:36:724
0.35522520542144775,0.05459310859441757,9.752050399780273,0.001676602947083742,0.003796730406584962,-0.0015344885830056003,0.9149813652038574,2019-06-18 15:57:36:728
0.30972495675086975,0.042619358748197556,9.799945831298828,0.001143840691905293,0.004063111534174186,-0.0012681074554163755,0.9208693504333496,2019-06-18 15:57:36:734
0.35043570399284363,0.04022461175918579,9.730497360229492,0.004606795350565213,0.008192019271881493,0.007389279581344911,0.9249777793884277,2019-06-18 15:57:36:738
0.4031201899051666,0.04740886017680168,9.761629104614258,0.005139557605743661,0.0076592570167030435,0.003659943795095767,0.9308657646179199,2019-06-18 15:57:36:744
0.40790969133377075,0.0785406082868576,9.859814643859863,0.0004778877754043595,0.006993303937655657,0.004459087177863441,0.9349808692932129,2019-06-18 15:57:36:748
0.4031201899051666,0.04022461175918579,9.864603996276855,0.0008774594992974871,0.009923496861285777,0.0004633700039507468,0.9408926963806152,2019-06-18 15:57:36:754
0.379172682762146,0.04022461175918579,9.843050956726074,0.0010106500630920993,0.007925638144292268,0.00645694589485695,0.944979190826416,2019-06-18 15:57:36:758
0.3528304398059845,0.056987859308719635,9.787971496582031,-0.0009872085238642476,0.01418559490271337,0.003793134358890379,0.9508728981018066,2019-06-18 15:57:36:764
0.326488196849823,0.0593826100230217,9.799945831298828,0.0014102218194945173,0.008991162654649167,0.0025944190246645436,0.9558753967285156,2019-06-18 15:57:36:769
0.34325143694877625,0.0785406082868576,9.768814086914062,-0.0021859236630343394,0.006993303937655657,0.0031271815399173176,0.9599809646606445,2019-06-18 15:57:36:773
0.35043570399284363,0.08333010226488113,9.761629104614258,0.0032748897126190896,0.006726922810066432,0.006856517326166462,0.9649806022644043,2019-06-18 15:57:36:778
0.38156744837760925,0.05219835788011551,9.8167085647583,0.0019429840746729666,0.00486225491694186,0.006323755070988013,0.9708676338195801,2019-06-18 15:57:36:784
0.3863569498062134,0.04022461175918579,9.742471694946289,0.0012770312556999051,0.004462683485632349,0.00499184943304189,0.9749765396118164,2019-06-18 15:57:36:788
0.379172682762146,0.0857248529791832,9.864603996276855,0.0019429840746729666,0.007526066192834106,0.0031271815399173176,0.9799919128417969,2019-06-18 15:57:36:793
0.3384619355201721,0.056987859308719635,9.756839752197266,0.0004778877754043595,0.00832521009575043,0.0035267532313011545,0.9858860969543457,2019-06-18 15:57:36:799
0.3863569498062134,0.06417210400104523,9.826288223266602,0.0006110783717082625,0.00979030655756549,0.0029939909761227054,0.9899945259094238,2019-06-18 15:57:36:803
0.333672434091568,0.056987859308719635,9.761629104614258,-0.0005876368324804107,0.005794589123578471,0.0007297511315399715,0.994992733001709,2019-06-18 15:57:36:808
0.371988445520401,0.09290910512208939,9.749655723571777,-0.0008540179600696353,0.005128636044531084,0.002328037897075319,1.000892162322998,2019-06-18 15:57:36:814
0.3671989440917969,0.06417210400104523,9.77599811553955,0.0032748897126190896,0.01165497393054141,-0.0020672508381840496,1.0049853324890137,2019-06-18 15:57:36:818
0.319303959608078,0.08811960369348526,9.826288223266602,0.003141699148824477,0.006060970251167696,0.007122898453755686,1.0099873542785645,2019-06-18 15:57:36:823
0.36959367990493774,0.0857248529791832,9.728102684020996,-0.0029850670458020133,0.007792447840571981,0.004725468305452665,1.0158772468566895,2019-06-18 15:57:36:829
0.38156744837760925,0.0857248529791832,9.759234428405762,0.0010106500630920993,0.006993303937655657,0.0007297511315399715,1.0199904441833496,2019-06-18 15:57:36:833
0.35043570399284363,0.08333010226488113,9.819103240966797,0.004207223659181376,0.005261826868400022,0.00645694589485695,1.0258831977844238,2019-06-18 15:57:36:839
0.3312776982784271,0.04022461175918579,9.8167085647583,0.0012770312556999051,0.01218773618571986,0.0035267532313011545,1.0299839973449707,2019-06-18 15:57:36:843
0.3408567011356354,0.056987859308719635,9.730497360229492,0.00154341238328913,0.00686011363393537,0.004858658609172953,1.0358824729919434,2019-06-18 15:57:36:849
0.3456462025642395,0.10967235267162323,9.771208763122559,0.003541270840208314,0.0076592570167030435,0.0001969888601068769,1.039994239807129,2019-06-18 15:57:36:853
0.3049354553222656,0.0785406082868576,9.744866371154785,0.0014102218194945173,0.007392875889113818,6.379828412128062e-05,1.0449986457824707,2019-06-18 15:57:36:858
0.33606719970703125,0.02585611306130886,9.7352876663208,0.004340414222975988,0.008058828968161205,-0.0027332037871942733,1.0508852005004883,2019-06-18 15:57:36:864
0.32888296246528625,0.0785406082868576,9.814313888549805,0.003940842531592151,0.007392875889113818,-0.0008685356990139574,1.0549921989440918,2019-06-18 15:57:36:868
0.326488196849823,0.05459310859441757,9.828682899475098,0.002209365202262191,0.006593732506346145,-0.0003357734438355082,1.06087064743042,2019-06-18 15:57:36:874
0.3671989440917969,0.0857248529791832,9.802340507507324,0.0026089368936460283,0.008458400399470718,-0.0018008697105948246,1.0649828910827637,2019-06-18 15:57:36:878
0.36240944266319275,0.08811960369348526,9.900525093078613,-0.0037842104285696868,0.013919214295272795,0.0012625133867184206,1.069995403289795,2019-06-18 15:57:36:883
0.32409346103668213,0.05219835788011551,9.80473518371582,-0.0016531614078558903,0.009657115213547902,-0.0053970150630865184,1.0758819580078125,2019-06-18 15:57:36:889
0.34804093837738037,0.0593826100230217,9.792760848999023,0.0007442689355028748,0.008991162654649167,-0.0004689640076301205,1.0799827575683594,2019-06-18 15:57:36:893
0.3312776982784271,0.06656685471534729,9.771208763122559,-0.0005876368324804107,0.009124352958369454,-0.0014012980192109879,1.0858807563781738,2019-06-18 15:57:36:899
0.2881722152233124,0.056987859308719635,9.802340507507324,0.001676602947083742,0.009923496861285777,-0.0006021545714247328,1.0899968147277832,2019-06-18 15:57:36:903
0.3001459538936615,0.08333010226488113,9.747261047363281,0.0010106500630920993,0.008724781527059942,0.0003301794401561345,1.0959019660949707,2019-06-18 15:57:36:909
0.3049354553222656,0.09769860655069351,9.802340507507324,-0.0015199708440612782,0.006993303937655657,-0.0014012980192109879,1.0999846458435059,2019-06-18 15:57:36:913
0.3145144581794739,0.06656685471534729,9.807129859924316,0.001676602947083742,0.006060970251167696,-0.0014012980192109879,1.10587739944458,2019-06-18 15:57:36:919
0.31690919399261475,0.0785406082868576,9.84544563293457,0.002209365202262191,0.005927779427298759,-0.0003357734438355082,1.1099915504455566,2019-06-18 15:57:36:923
0.32888296246528625,0.07135635614395142,9.792760848999023,0.0028753180212352527,0.006993303937655657,-0.005929777318264968,1.114992618560791,2019-06-18 15:57:36:928
0.3408567011356354,0.08333010226488113,9.838261604309082,0.0007442689355028748,0.011521783626821125,-0.0022004415320158242,1.119987964630127,2019-06-18 15:57:36:933
0.326488196849823,0.04740886017680168,9.711339950561523,-0.004716544635206299,0.011921355578279287,-0.0006021545714247328,1.1249847412109375,2019-06-18 15:57:36:938
0.3001459538936615,0.0330403633415699,9.797551155090332,0.003141699148824477,0.012986880088636184,-0.0012681074554163755,1.1308794021606445,2019-06-18 15:57:36:944
0.3049354553222656,0.07614585757255554,9.704155921936035,0.008336131656963007,0.008591591223339655,-0.00020258286378625062,1.1350140571594238,2019-06-18 15:57:36:948
0.2929617166519165,0.09530385583639145,9.768814086914062,0.001676602947083742,0.004595873789352636,-0.006595730397312356,1.1409077644348145,2019-06-18 15:57:36:954
0.326488196849823,0.0785406082868576,9.886157035827637,-0.0012535897164720534,0.00686011363393537,-0.0016676791468002124,1.1449952125549316,2019-06-18 15:57:36:958
0.27619844675064087,0.056987859308719635,9.787971496582031,0.0038076519677975387,0.0053950171721203095,6.379828412128062e-05,1.1499896049499512,2019-06-18 15:57:36:963
0.29775121808052063,0.06417210400104523,9.792760848999023,-0.0009872085238642476,0.00832521009575043,6.379828412128062e-05,1.154984951019287,2019-06-18 15:57:36:968
0.34804093837738037,0.05459310859441757,9.814313888549805,0.0028753180212352527,0.010589449420184513,-0.0003357734438355082,1.1608800888061523,2019-06-18 15:57:36:974
0.30972495675086975,0.0785406082868576,9.831077575683594,0.004606795350565213,0.010989021371642677,-0.004731062504187783,1.1649928092956543,2019-06-18 15:57:36:978
0.2881722152233124,0.04022461175918579,9.795156478881836,-0.0015199708440612782,0.008724781527059942,-0.0031327754785781103,1.1708683967590332,2019-06-18 15:57:36:984
0.28338271379470825,0.08811960369348526,9.69697093963623,0.0019429840746729666,0.012054545881999576,0.0011293228229238084,1.1749835014343262,2019-06-18 15:57:36:988
0.29775121808052063,0.0593826100230217,9.749655723571777,0.0012770312556999051,0.009124352958369454,0.00166208520813942,1.180922031402588,2019-06-18 15:57:36:994
0.2929617166519165,0.06656685471534729,9.780787467956543,0.005539129557201824,0.006993303937655657,0.002461228460869931,1.1859040260314941,2019-06-18 15:57:36:999
0.2522509694099426,0.06417210400104523,9.783182144165039,0.002076174638467579,-6.579614257819981e-05,-0.0018008697105948246,1.1899867057800293,2019-06-18 15:57:37:003
0.31690919399261475,0.09051435440778732,9.83347225189209,0.0030085085850298653,0.006060970251167696,0.00166208520813942,1.1958808898925781,2019-06-18 15:57:37:009
0.319303959608078,0.10727760195732117,9.797551155090332,-0.0012535897164720534,0.010456259116464226,-0.0016676791468002124,1.1999917030334473,2019-06-18 15:57:37:013
0.32888296246528625,0.07135635614395142,9.826288223266602,-5.487451634704159e-05,0.00832521009575043,0.0001969888601068769,1.2058768272399902,2019-06-18 15:57:37:019
0.34804093837738037,0.023461362347006798,9.783182144165039,0.0027421274574406405,0.010989021371642677,0.004325896614068829,1.2099814414978027,2019-06-18 15:57:37:023
0.3384619355201721,0.04501410946249962,9.747261047363281,0.001676602947083742,0.008991162654649167,0.008854376043159971,1.2158851623535156,2019-06-18 15:57:37:029
0.3073301911354065,0.0785406082868576,9.740077018737793,0.0030085085850298653,0.00686011363393537,0.0027276098485334807,1.2199950218200684,2019-06-18 15:57:37:033
0.30254068970680237,0.10009334981441498,9.75444507598877,0.00154341238328913,0.004196302097968799,0.003393562667506543,1.2259001731872559,2019-06-18 15:57:37:039
0.31690919399261475,0.06656685471534729,9.694576263427734,0.0038076519677975387,0.006460541682477208,0.005924183639678501,1.2300019264221191,2019-06-18 15:57:37:043
0.3073301911354065,0.06656685471534729,9.76402473449707,0.007004226019016884,0.0032639681514065122,0.004459087177863441,1.2358851432800293,2019-06-18 15:57:37:049
0.3145144581794739,0.07135635614395142,9.821497917175293,0.004074033095386763,0.003530349278995737,0.006323755070988013,1.240006923675537,2019-06-18 15:57:37:053
0.32169869542121887,0.04740886017680168,9.852629661560059,-0.0005876368324804107,0.008458400399470718,0.010186282201254745,1.2449889183044434,2019-06-18 15:57:37:058
0.34804093837738037,0.056987859308719635,9.821497917175293,-0.0027186859182127886,0.009523924909827616,-0.003399156606167335,1.2499947547912598,2019-06-18 15:57:37:063
0.3671989440917969,0.042619358748197556,9.780787467956543,0.001676602947083742,0.014052404598993085,0.004858658609172953,1.2558798789978027,2019-06-18 15:57:37:069
0.3049354553222656,0.03782986104488373,9.778392791748047,-0.006847593655920095,0.01232092752973745,0.0008629416953345836,1.2599825859069824,2019-06-18 15:57:37:073
0.28338271379470825,0.030645612627267838,9.730497360229492,0.0038076519677975387,0.010589449420184513,-6.939229186431566e-05,1.265882968902588,2019-06-18 15:57:37:079
0.280987948179245,0.03782986104488373,9.704155921936035,7.831605963855469e-05,0.010989021371642677,-0.004464681376598559,1.270005702972412,2019-06-18 15:57:37:083
0.2857774496078491,0.035435110330581665,9.740077018737793,-0.0037842104285696868,-0.0013977018414792427,6.379828412128062e-05,1.275012493133545,2019-06-18 15:57:37:088
0.34804093837738037,0.028250861912965775,9.76402473449707,0.00021150663156048962,0.0023316342048442266,-0.0003357734438355082,1.2808737754821777,2019-06-18 15:57:37:094
0.33606719970703125,0.04501410946249962,9.823892593383789,0.005539129557201824,0.006726922810066432,-0.005263824759366232,1.2849822044372559,2019-06-18 15:57:37:098
0.326488196849823,0.08093535900115967,9.831077575683594,0.0010106500630920993,0.009257544302387042,-0.0003357734438355082,1.2899980545043945,2019-06-18 15:57:37:103
0.2953564524650574,0.08333010226488113,9.807129859924316,-5.487451634704159e-05,0.011921355578279287,-0.003931918861345784,1.294994831085205,2019-06-18 15:57:37:108
0.30254068970680237,0.04022461175918579,9.749655723571777,-0.00045444623617650777,0.010589449420184513,0.003393562667506543,1.3008723258972168,2019-06-18 15:57:37:114
0.3121196925640106,0.0857248529791832,9.756839752197266,0.002209365202262191,0.00979030655756549,-0.0028663943509888855,1.3049845695495605,2019-06-18 15:57:37:118
0.280987948179245,0.05219835788011551,9.773603439331055,-0.0016531614078558903,0.008192019271881493,0.001528894514307645,1.3108811378479004,2019-06-18 15:57:37:124
0.2474614530801773,0.013882364146411419,9.749655723571777,0.0010106500630920993,0.00632735137875692,-6.939229186431566e-05,1.3159079551696777,2019-06-18 15:57:37:129
0.3312776982784271,0.06417210400104523,9.740077018737793,0.00473998617443415,0.00486225491694186,-0.0027332037871942733,1.319983959197998,2019-06-18 15:57:37:133
0.29056695103645325,0.07614585757255554,9.8167085647583,7.831605963855469e-05,0.0049954457408107975,-0.004731062504187783,1.32503080368042,2019-06-18 15:57:37:138
0.3073301911354065,0.06656685471534729,9.835866928100586,0.0026089368936460283,0.004329492661763411,-0.004331490552729621,1.3308820724487305,2019-06-18 15:57:37:144
0.3408567011356354,0.0330403633415699,9.783182144165039,0.0003446972116097473,0.008192019271881493,-0.0031327754785781103,1.334981918334961,2019-06-18 15:57:37:148
0.34325143694877625,0.07375110685825348,9.807129859924316,0.00021150663156048962,0.00979030655756549,-0.004065109425140397,1.3409008979797363,2019-06-18 15:57:37:154
0.32888296246528625,0.06417210400104523,9.783182144165039,-0.0023191142268289516,0.00979030655756549,0.0001969888601068769,1.3449902534484863,2019-06-18 15:57:37:158
0.34804093837738037,0.04501410946249962,9.708945274353027,0.001143840691905293,0.013120070392356473,-0.0022004415320158242,1.35087251663208,2019-06-18 15:57:37:164
0.32409346103668213,0.06656685471534729,9.742471694946289,-0.002452304790623564,0.009390734606107327,0.0013957039505130327,1.3549838066101074,2019-06-18 15:57:37:168
0.3049354553222656,0.06656685471534729,9.797551155090332,-0.0013867802802666658,0.012054545881999576,0.0027276098485334807,1.3600192070007324,2019-06-18 15:57:37:173
0.34804093837738037,0.056987859308719635,9.740077018737793,0.00021150663156048962,0.006593732506346145,0.0005965605677453591,1.3658843040466309,2019-06-18 15:57:37:179
0.3528304398059845,0.08093535900115967,9.792760848999023,-0.00045444623617650777,0.005927779427298759,-0.001934060274389437,1.3700056076049805,2019-06-18 15:57:37:183
0.3456462025642395,0.08093535900115967,9.790366172790527,0.0023425557660568036,0.003796730406584962,-0.0053970150630865184,1.3750081062316895,2019-06-18 15:57:37:188
0.34804093837738037,0.06177735701203346,9.811919212341309,-0.0008540179600696353,0.010855831067922388,0.0007297511315399715,1.3808703422546387,2019-06-18 15:57:37:194
0.3671989440917969,0.12404084950685501,9.766419410705566,0.0004778877754043595,0.012720498440898311,-0.0028663943509888855,1.3849825859069824,2019-06-18 15:57:37:198
0.35043570399284363,0.0857248529791832,9.799945831298828,-0.00045444623617650777,0.010589449420184513,0.0027276098485334807,1.3899950981140137,2019-06-18 15:57:37:203
0.3121196925640106,0.08811960369348526,9.720918655395508,0.00473998617443415,0.012454117833457736,6.379828412128062e-05,1.395878791809082,2019-06-18 15:57:37:209
0.319303959608078,0.08811960369348526,9.720918655395508,-0.0021859236630343394,0.009257544302387042,0.005391421384500052,1.4001069068908691,2019-06-18 15:57:37:213
0.3073301911354065,0.06417210400104523,9.71373462677002,-0.0008540179600696353,0.0049954457408107975,0.004459087177863441,1.4058966636657715,2019-06-18 15:57:37:219
0.30972495675086975,0.09769860655069351,9.756839752197266,-0.0003212556723818955,0.0053950171721203095,0.0003301794401561345,1.4099831581115723,2019-06-18 15:57:37:223
0.3456462025642395,0.028250861912965775,9.809524536132812,0.0008774594992974871,0.004729064613221573,0.002328037897075319,1.4149880409240723,2019-06-18 15:57:37:228
0.31690919399261475,0.1048828512430191,9.790366172790527,-0.0005876368324804107,0.006593732506346145,0.001528894514307645,1.4200177192687988,2019-06-18 15:57:37:233
0.319303959608078,0.06417210400104523,9.840656280517578,0.0024757463298514157,0.00632735137875692,-0.0016676791468002124,1.4258861541748047,2019-06-18 15:57:37:239
0.3863569498062134,0.042619358748197556,9.787971496582031,-5.487451634704159e-05,0.008591591223339655,0.0027276098485334807,1.4299864768981934,2019-06-18 15:57:37:243
0.37438318133354187,0.05459310859441757,9.790366172790527,0.00021150663156048962,0.012986880088636184,0.006323755070988013,1.4358773231506348,2019-06-18 15:57:37:249
0.333672434091568,0.0785406082868576,9.783182144165039,-0.0012535897164720534,0.007126494761524595,-0.0004689640076301205,1.4400124549865723,2019-06-18 15:57:37:253
0.34804093837738037,0.05219835788011551,9.814313888549805,-0.00018806509233263786,0.008724781527059942,0.0008629416953345836,1.445014476776123,2019-06-18 15:57:37:258
0.32169869542121887,0.0785406082868576,9.742471694946289,0.0008774594992974871,0.006060970251167696,0.011651377622772505,1.4500012397766113,2019-06-18 15:57:37:263
0.3121196925640106,0.08811960369348526,9.8167085647583,-0.0005876368324804107,0.004196302097968799,0.002461228460869931,1.4549860954284668,2019-06-18 15:57:37:268
0.30254068970680237,0.1048828512430191,9.797551155090332,-5.487451634704159e-05,0.003397158715201125,0.0031271815399173176,1.460878849029541,2019-06-18 15:57:37:274
0.32409346103668213,0.10248810052871704,9.75444507598877,0.00021150663156048962,0.005794589123578471,0.004725468305452665,1.4650216102600098,2019-06-18 15:57:37:278
0.37438318133354187,0.10009334981441498,9.811919212341309,-0.0040505915561589115,0.0020652529472178394,0.007122898453755686,1.4708762168884277,2019-06-18 15:57:37:284
0.3073301911354065,0.07135635614395142,9.819103240966797,0.0030085085850298653,0.010989021371642677,0.0004633700039507468,1.4749836921691895,2019-06-18 15:57:37:288
0.3671989440917969,0.07135635614395142,9.797551155090332,0.004340414222975988,0.009657115213547902,0.0031271815399173176,1.479994773864746,2019-06-18 15:57:37:293
0.36240944266319275,0.06896160542964935,9.802340507507324,0.00021150663156048962,0.015384309716790555,0.0025944190246645436,1.484992504119873,2019-06-18 15:57:37:298
0.33606719970703125,0.10248810052871704,9.708945274353027,0.0012770312556999051,0.008724781527059942,0.004325896614068829,1.4908976554870605,2019-06-18 15:57:37:304
0.3121196925640106,0.07375110685825348,9.740077018737793,0.0023425557660568036,0.006593732506346145,0.0001969888601068769,1.4950041770935059,2019-06-18 15:57:37:308
0.2953564524650574,0.06656685471534729,9.785576820373535,0.0008774594992974871,0.005661398299709534,0.00166208520813942,1.5008735656738281,2019-06-18 15:57:37:314
0.3049354553222656,0.06417210400104523,9.778392791748047,0.00021150663156048962,0.003796730406584962,0.0017952757719340324,1.5049834251403809,2019-06-18 15:57:37:318
0.3576199412345886,0.042619358748197556,9.7352876663208,0.0012770312556999051,0.005927779427298759,0.002461228460869931,1.5099968910217285,2019-06-18 15:57:37:323
0.319303959608078,0.09290910512208939,9.799945831298828,0.0014102218194945173,0.0076592570167030435,-0.000735345135219345,1.5158848762512207,2019-06-18 15:57:37:329
0.32409346103668213,0.04501410946249962,9.814313888549805,0.0028753180212352527,0.01032306881274394,0.0007297511315399715,1.5199847221374512,2019-06-18 15:57:37:333
0.35043570399284363,0.06417210400104523,9.807129859924316,0.0028753180212352527,0.008857972350928878,0.00166208520813942,1.5258784294128418,2019-06-18 15:57:37:339
0.3073301911354065,0.004303365014493465,9.783182144165039,-0.0032514481733912377,0.010989021371642677,-0.0015344885830056003,1.529991626739502,2019-06-18 15:57:37:343
0.3528304398059845,0.07375110685825348,9.759234428405762,0.0006110783717082625,0.009257544302387042,-6.939229186431566e-05,1.5358800888061523,2019-06-18 15:57:37:349
0.32888296246528625,0.0857248529791832,9.740077018737793,0.0026089368936460283,0.005927779427298759,0.005657802512089276,1.5409045219421387,2019-06-18 15:57:37:354
0.32888296246528625,0.0785406082868576,9.756839752197266,-0.00045444623617650777,0.00486225491694186,0.0025944190246645436,1.5449957847595215,2019-06-18 15:57:37:358
0.3121196925640106,0.07375110685825348,9.780787467956543,0.0023425557660568036,0.006993303937655657,0.002328037897075319,1.549990177154541,2019-06-18 15:57:37:363
0.32169869542121887,0.05219835788011551,9.780787467956543,0.0004778877754043595,0.00486225491694186,0.0007297511315399715,1.5559067726135254,2019-06-18 15:57:37:369
0.29775121808052063,0.035435110330581665,9.790366172790527,-0.0011203991526774412,0.0036635398427903496,-0.0035323471699619468,1.5600056648254395,2019-06-18 15:57:37:373
0.3528304398059845,0.06177735701203346,9.785576820373535,0.0007442689355028748,0.006726922810066432,-0.0014012980192109879,1.564992904663086,2019-06-18 15:57:37:378
0.3576199412345886,0.04501410946249962,9.864603996276855,0.0028753180212352527,0.012587308137178023,6.379828412128062e-05,1.5708718299865723,2019-06-18 15:57:37:384
0.333672434091568,0.0330403633415699,9.852629661560059,-0.0003212556723818955,0.012054545881999576,-0.0006021545714247328,1.5749826431274414,2019-06-18 15:57:37:388
0.32888296246528625,0.07614585757255554,9.831077575683594,-0.0016531614078558903,0.01232092752973745,-0.005530205886955456,1.5808768272399902,2019-06-18 15:57:37:394
0.35522520542144775,0.09290910512208939,9.75444507598877,0.001143840691905293,0.008724781527059942,-0.004997443631777007,1.5849924087524414,2019-06-18 15:57:37:398
0.29775121808052063,0.1048828512430191,9.716129302978516,-0.0011203991526774412,0.008458400399470718,-0.0011349168916217633,1.5908770561218262,2019-06-18 15:57:37:404
0.32169869542121887,0.05459310859441757,9.720918655395508,0.0018097935108783545,0.007126494761524595,-0.0032659660423727224,1.5949835777282715,2019-06-18 15:57:37:408
0.32409346103668213,0.10967235267162323,9.718523979187012,-0.0033846387371858503,0.0023316342048442266,-0.0012681074554163755,1.599992275238037,2019-06-18 15:57:37:413
0.35522520542144775,0.07135635614395142,9.778392791748047,0.00473998617443415,0.005528207995989247,-0.0022004415320158242,1.6058969497680664,2019-06-18 15:57:37:419
0.280987948179245,0.11446185410022736,9.742471694946289,0.0027421274574406405,0.00686011363393537,-0.0018008697105948246,1.6099886894226074,2019-06-18 15:57:37:423
0.36959367990493774,0.0593826100230217,9.823892593383789,-0.0016531614078558903,0.010855831067922388,-0.0036655377337565594,1.6158785820007324,2019-06-18 15:57:37:429
0.3671989440917969,0.09530385583639145,9.759234428405762,0.0023425557660568036,0.00979030655756549,0.002860800412328093,1.6199913024902344,2019-06-18 15:57:37:433
0.37438318133354187,0.10248810052871704,9.76402473449707,-0.0017863519716505025,0.012853689784915898,-0.0022004415320158242,1.6258788108825684,2019-06-18 15:57:37:439
0.35043570399284363,0.049803610891103745,9.778392791748047,-0.004982925762795523,0.01671621587488533,-0.003931918861345784,1.6309199333190918,2019-06-18 15:57:37:444
0.3576199412345886,0.035435110330581665,9.732892990112305,0.006871035195147947,0.007259685065244881,-0.0016676791468002124,1.634993076324463,2019-06-18 15:57:37:448
0.32409346103668213,0.035435110330581665,9.787971496582031,0.001143840691905293,0.006060970251167696,-0.00020258286378625062,1.640876293182373,2019-06-18 15:57:37:454
0.3408567011356354,0.08811960369348526,9.778392791748047,0.0032748897126190896,0.004462683485632349,-0.0016676791468002124,1.6449832916259766,2019-06-18 15:57:37:458
0.3312776982784271,0.07614585757255554,9.759234428405762,0.007137416322737172,0.006993303937655657,-0.004464681376598559,1.6508831977844238,2019-06-18 15:57:37:464
0.3312776982784271,0.09051435440778732,9.80473518371582,0.0012770312556999051,0.0020652529472178394,0.0012625133867184206,1.6558985710144043,2019-06-18 15:57:37:469
0.364804208278656,0.07135635614395142,9.850234985351562,0.004340414222975988,0.008192019271881493,-0.005929777318264968,1.659987449645996,2019-06-18 15:57:37:473
0.34804093837738037,0.03782986104488373,9.819103240966797,0.003141699148824477,0.006593732506346145,0.003393562667506543,1.665876865386963,2019-06-18 15:57:37:479
0.3408567011356354,0.10248810052871704,9.80473518371582,0.003541270840208314,0.012720498440898311,0.00166208520813942,1.6699929237365723,2019-06-18 15:57:37:483
0.32409346103668213,0.10727760195732117,9.747261047363281,0.0019429840746729666,0.008724781527059942,0.0017952757719340324,1.6750407218933105,2019-06-18 15:57:37:488
0.32409346103668213,0.09051435440778732,9.749655723571777,-0.0008540179600696353,0.008724781527059942,0.0021948473332807066,1.6808843612670898,2019-06-18 15:57:37:494
0.32888296246528625,0.06656685471534729,9.809524536132812,0.004074033095386763,0.007259685065244881,0.0013957039505130327,1.684983730316162,2019-06-18 15:57:37:498
0.32169869542121887,0.049803610891103745,9.7257080078125,0.001676602947083742,0.006993303937655657,0.004192706050274216,1.6899943351745605,2019-06-18 15:57:37:503
0.32888296246528625,0.09051435440778732,9.759234428405762,0.00021150663156048962,0.0027312058962280636,0.0025944190246645436,1.694993495941162,2019-06-18 15:57:37:508
0.36240944266319275,0.09051435440778732,9.821497917175293,0.004340414222975988,0.007925638144292268,-0.0012681074554163755,1.7008795738220215,2019-06-18 15:57:37:514
0.34325143694877625,0.09769860655069351,9.802340507507324,-0.0007208273962750229,0.00832521009575043,0.002860800412328093,1.7049942016601562,2019-06-18 15:57:37:518
0.32888296246528625,0.0785406082868576,9.809524536132812,0.0027421274574406405,0.01125540197908325,0.00499184943304189,1.7108731269836426,2019-06-18 15:57:37:524
0.35043570399284363,0.09051435440778732,9.785576820373535,-5.487451634704159e-05,0.0076592570167030435,0.003793134358890379,1.7149834632873535,2019-06-18 15:57:37:528
0.3384619355201721,0.08811960369348526,9.785576820373535,-0.0015199708440612782,0.009257544302387042,0.0027276098485334807,1.7209062576293945,2019-06-18 15:57:37:534
0.333672434091568,0.07614585757255554,9.766419410705566,-0.0009872085238642476,0.008724781527059942,0.004725468305452665,1.7249932289123535,2019-06-18 15:57:37:538
0.3121196925640106,0.0593826100230217,9.708945274353027,0.004473605046844925,0.00686011363393537,6.379828412128062e-05,1.7299890518188477,2019-06-18 15:57:37:543
0.3384619355201721,0.07135635614395142,9.768814086914062,0.0012770312556999051,0.007126494761524595,0.005657802512089276,1.73500394821167,2019-06-18 15:57:37:548
0.4103044271469116,0.04022461175918579,9.77599811553955,0.0024757463298514157,0.00979030655756549,0.010186282201254745,1.7408862113952637,2019-06-18 15:57:37:554
0.3073301911354065,0.0857248529791832,9.831077575683594,0.0024757463298514157,0.010456259116464226,0.004858658609172953,1.7459015846252441,2019-06-18 15:57:37:559
0.38156744837760925,0.0785406082868576,9.742471694946289,0.005272748429612599,0.0015324906920393903,0.007788851532803074,1.7499866485595703,2019-06-18 15:57:37:563
0.21632970869541168,0.10967235267162323,9.811919212341309,-0.0011203991526774412,0.006060970251167696,0.0008629416953345836,1.755882740020752,2019-06-18 15:57:37:569
0.2402772158384323,0.15517260134220123,9.919683456420898,-0.0016531614078558903,0.01032306881274394,0.004592277481583728,1.7599940299987793,2019-06-18 15:57:37:573
0.46777844429016113,0.0785406082868576,9.742471694946289,-0.0007208273962750229,0.006593732506346145,0.0027276098485334807,1.7658991813659668,2019-06-18 15:57:37:579
0.32409346103668213,-0.022038880735635757,9.756839752197266,0.005938700988511335,0.01618345361970688,0.005391421384500052,1.7699837684631348,2019-06-18 15:57:37:583
0.3049354553222656,0.0330403633415699,9.807129859924316,0.0003446972116097473,0.016849406178605617,0.014714760850122912,1.7758803367614746,2019-06-18 15:57:37:589
0.3911464512348175,0.11685659736394882,9.641892433166504,0.005672319860922111,0.01578388166824872,0.003393562667506543,1.7799887657165527,2019-06-18 15:57:37:593
0.23309296369552612,0.12404084950685501,9.651471138000488,0.001143840691905293,0.007126494761524595,0.0001969888601068769,1.784994125366211,2019-06-18 15:57:37:598
0.21632970869541168,0.049803610891103745,9.737682342529297,-0.005249306890384747,0.0032639681514065122,0.005790992815809564,1.7908940315246582,2019-06-18 15:57:37:604
0.2929617166519165,-0.0388021282851696,9.720918655395508,0.002076174638467579,0.001798871819628615,0.005790992815809564,1.7949895858764648,2019-06-18 15:57:37:608
0.2857774496078491,0.021066613495349884,9.783182144165039,0.004873176478154437,-0.00019898671856379607,0.0027276098485334807,1.8008747100830078,2019-06-18 15:57:37:614
0.3049354553222656,0.07375110685825348,9.869393348693848,0.002209365202262191,0.0012661095644501657,0.005391421384500052,1.8049817085266113,2019-06-18 15:57:37:618
0.3456462025642395,0.1384093463420868,9.866998672485352,0.004207223659181376,0.010855831067922388,-0.0006021545714247328,1.8109040260314941,2019-06-18 15:57:37:624
0.3983306884765625,0.08811960369348526,9.773603439331055,-0.0021859236630343394,0.01165497393054141,0.0019284663357286445,1.8149924278259277,2019-06-18 15:57:37:628
0.3408567011356354,-0.0028808838687837124,9.795156478881836,-0.00045444623617650777,0.020445551661134473,-0.00020258286378625062,1.8199877738952637,2019-06-18 15:57:37:633
0.3145144581794739,-0.01724938116967678,9.687392234802246,0.001143840691905293,0.011921355578279287,0.00326037210371193,1.8249869346618652,2019-06-18 15:57:37:638
0.27619844675064087,0.09769860655069351,9.65626049041748,0.0034080802764137014,0.0049954457408107975,-0.004331490552729621,1.8299946784973145,2019-06-18 15:57:37:643
0.2738037109375,0.09769860655069351,9.689786911010742,0.005938700988511335,0.001798871819628615,-0.0016676791468002124,1.8350105285644531,2019-06-18 15:57:37:648
0.2881722152233124,0.04740886017680168,9.795156478881836,0.0034080802764137014,-0.0025964169156307533,-0.0053970150630865184,1.8408703804016113,2019-06-18 15:57:37:654
0.371988445520401,0.03782986104488373,9.766419410705566,7.831605963855469e-05,0.00486225491694186,-0.005130633935497294,1.844985008239746,2019-06-18 15:57:37:658
0.37438318133354187,0.049803610891103745,9.819103240966797,0.001143840691905293,0.005128636044531084,-0.0018008697105948246,1.8499937057495117,2019-06-18 15:57:37:663
0.34325143694877625,0.10727760195732117,9.900525093078613,-0.00018806509233263786,0.014851547461612108,-6.939229186431566e-05,1.8550143241882324,2019-06-18 15:57:37:668
0.33606719970703125,0.13601459562778473,9.819103240966797,0.00154341238328913,0.015117929109349983,-0.006595730397312356,1.8600025177001953,2019-06-18 15:57:37:673
0.3312776982784271,0.09530385583639145,9.77599811553955,0.0024757463298514157,0.01365283264753492,-0.0016676791468002124,1.8658766746520996,2019-06-18 15:57:37:679
0.2474614530801773,0.006698114797472954,9.720918655395508,0.0028753180212352527,0.017515358737504354,-0.0031327754785781103,1.869992733001709,2019-06-18 15:57:37:683
0.2594352066516876,-0.0028808838687837124,9.653865814208984,0.0038076519677975387,0.006726922810066432,-0.0023336320958104364,1.8758845329284668,2019-06-18 15:57:37:689
0.3073301911354065,0.08811960369348526,9.701761245727539,0.004074033095386763,-6.579614257819981e-05,-0.0022004415320158242,1.8799920082092285,2019-06-18 15:57:37:693
0.2666194438934326,0.14319884777069092,9.807129859924316,0.0008774594992974871,0.0020652529472178394,-0.00486425280790807,1.8849997520446777,2019-06-18 15:57:37:698
0.3384619355201721,0.08811960369348526,9.807129859924316,0.0008774594992974871,0.0006001567454771042,-0.0014012980192109879,1.8899903297424316,2019-06-18 15:57:37:703
0.40072545409202576,0.013882364146411419,9.847840309143066,0.0036744614040029266,0.007792447840571981,-0.0026000132233996607,1.8958754539489746,2019-06-18 15:57:37:709
0.34325143694877625,0.023461362347006798,9.838261604309082,0.0024757463298514157,0.016449835267444757,0.0012625133867184206,1.9001078605651855,2019-06-18 15:57:37:713
0.34804093837738037,0.09051435440778732,9.898130416870117,0.0007442689355028748,0.017914930688962515,0.00166208520813942,1.9058966636657715,2019-06-18 15:57:37:719
0.34804093837738037,0.12164609879255295,9.792760848999023,-0.00018806509233263786,0.01565069136452843,-0.0022004415320158242,1.909985065460205,2019-06-18 15:57:37:723
0.2666194438934326,0.06417210400104523,9.7352876663208,-0.0016531614078558903,0.014318785206433657,-0.0006021545714247328,1.9149870872497559,2019-06-18 15:57:37:728
0.2857774496078491,0.06177735701203346,9.675418853759766,-0.00018806509233263786,0.00979030655756549,-0.000735345135219345,1.919994831085205,2019-06-18 15:57:37:733
0.3073301911354065,0.0019086154643446207,9.740077018737793,0.0050063673020233745,0.0009997284368609412,-0.0028663943509888855,1.9258828163146973,2019-06-18 15:57:37:739
0.32409346103668213,0.0857248529791832,9.783182144165039,0.003141699148824477,-0.000598558458711569,-0.002999584914783498,1.929987907409668,2019-06-18 15:57:37:743
0.30972495675086975,0.08333010226488113,9.780787467956543,0.0038076519677975387,0.003397158715201125,-0.00020258286378625062,1.9358782768249512,2019-06-18 15:57:37:749
0.36959367990493774,0.0857248529791832,9.876577377319336,-0.004849734938926585,0.005661398299709534,-0.005263824759366232,1.9399895668029785,2019-06-18 15:57:37:753
0.3911464512348175,0.035435110330581665,9.864603996276855,-0.0037842104285696868,0.013519642343814635,0.002328037897075319,1.9449992179870605,2019-06-18 15:57:37:758
0.3145144581794739,0.049803610891103745,9.768814086914062,0.002076174638467579,0.01418559490271337,0.002860800412328093,1.9509005546569824,2019-06-18 15:57:37:764
0.3073301911354065,0.06656685471534729,9.785576820373535,-0.0007208273962750229,0.020978314956610223,0.003659943795095767,1.9549922943115234,2019-06-18 15:57:37:768
0.2474614530801773,0.12404084950685501,9.680208206176758,-0.0009872085238642476,0.007126494761524595,-0.0024668226596050486,1.9608721733093262,2019-06-18 15:57:37:774
0.21632970869541168,0.0785406082868576,9.7257080078125,-0.00018806509233263786,0.005128636044531084,-0.00486425280790807,1.964982509613037,2019-06-18 15:57:37:778
0.2666194438934326,0.028250861912965775,9.71373462677002,-5.487451634704159e-05,-0.0019304640966576916,-0.0008685356990139574,1.9700121879577637,2019-06-18 15:57:37:783
0.26422470808029175,0.030645612627267838,9.780787467956543,0.004606795350565213,0.0020652529472178394,0.0025944190246645436,1.9758939743041992,2019-06-18 15:57:37:789
0.32409346103668213,0.0857248529791832,9.840656280517578,-0.0007208273962750229,0.003397158715201125,0.0025944190246645436,1.9799833297729492,2019-06-18 15:57:37:793
0.3671989440917969,0.11446185410022736,9.809524536132812,0.003541270840208314,0.005261826868400022,0.0021948473332807066,1.9849848747253418,2019-06-18 15:57:37:798
0.364804208278656,0.1384093463420868,9.91489315032959,7.831605963855469e-05,0.01565069136452843,0.000996132259129196,1.9908795356750488,2019-06-18 15:57:37:804
0.38156744837760925,0.06177735701203346,9.859814643859863,-0.0036510198647750746,0.01365283264753492,-0.0015344885830056003,1.9950079917907715,2019-06-18 15:57:37:808
0.3073301911354065,0.07375110685825348,9.783182144165039,-0.0011203991526774412,0.018048122032980105,-0.0018008697105948246,1.9999990463256836,2019-06-18 15:57:37:813
0.3312776982784271,0.07135635614395142,9.708945274353027,0.003940842531592151,0.015384309716790555,0.0025944190246645436,2.0058770179748535,2019-06-18 15:57:37:819
0.2857774496078491,0.12404084950685501,9.71373462677002,0.0036744614040029266,0.010189877468726351,0.0040595154864796045,2.00999116897583,2019-06-18 15:57:37:823
0.2738037109375,0.14319884777069092,9.7352876663208,0.0026089368936460283,0.0023316342048442266,-0.0016676791468002124,2.0149922370910645,2019-06-18 15:57:37:828
0.2953564524650574,0.04022461175918579,9.718523979187012,0.002209365202262191,0.004462683485632349,0.000996132259129196,2.0208992958068848,2019-06-18 15:57:37:834
0.3408567011356354,0.0330403633415699,9.8167085647583,0.004606795350565213,0.001798871819628615,0.002860800412328093,2.0249953269958496,2019-06-18 15:57:37:838
0.3001459538936615,0.06656685471534729,9.80473518371582,-0.00018806509233263786,0.007392875889113818,0.000996132259129196,2.0308709144592285,2019-06-18 15:57:37:844
0.2953564524650574,0.0785406082868576,9.871788024902344,0.001143840691905293,0.014052404598993085,0.00326037210371193,2.0349841117858887,2019-06-18 15:57:37:848
0.3001459538936615,0.10967235267162323,9.790366172790527,-0.0009872085238642476,0.01378602295125521,-0.0003357734438355082,2.0411314964294434,2019-06-18 15:57:37:854
0.32409346103668213,0.07375110685825348,9.742471694946289,0.0003446972116097473,0.01618345361970688,0.0019284663357286445,2.045164108276367,2019-06-18 15:57:37:858
0.2953564524650574,0.035435110330581665,9.708945274353027,0.004207223659181376,0.01165497393054141,0.004192706050274216,2.050154209136963,2019-06-18 15:57:37:863
0.2785932123661041,0.035435110330581665,9.646681785583496,-0.0003212556723818955,0.005661398299709534,0.002061656899523257,2.0551486015319824,2019-06-18 15:57:37:868
0.32169869542121887,0.04501410946249962,9.665839195251465,0.002076174638467579,0.0023316342048442266,0.0052582305606311145,2.0600056648254395,2019-06-18 15:57:37:873
0.3384619355201721,0.06417210400104523,9.730497360229492,0.0003446972116097473,0.0039299209703795735,0.002860800412328093,2.065885066986084,2019-06-18 15:57:37:879
0.3839621841907501,0.05459310859441757,9.864603996276855,0.003541270840208314,0.0012661095644501657,0.010319472504975032,2.069990634918213,2019-06-18 15:57:37:883
0.379172682762146,0.07614585757255554,9.778392791748047,0.0019429840746729666,0.0002005850053293314,0.007389279581344911,2.0758776664733887,2019-06-18 15:57:37:889
0.4103044271469116,0.05219835788011551,9.843050956726074,7.831605963855469e-05,0.009523924909827616,0.0019284663357286445,2.079990863800049,2019-06-18 15:57:37:893
0.4055149257183075,0.09051435440778732,9.778392791748047,0.0036744614040029266,0.016316643923427167,0.0019284663357286445,2.08500337600708,2019-06-18 15:57:37:898
0.3911464512348175,0.0857248529791832,9.7352876663208,0.004074033095386763,0.009523924909827616,0.006323755070988013,2.0908780097961426,2019-06-18 15:57:37:904
0.34325143694877625,0.09290910512208939,9.701761245727539,0.0012770312556999051,0.010855831067922388,0.00645694589485695,2.0949835777282715,2019-06-18 15:57:37:908
0.3528304398059845,0.056987859308719635,9.761629104614258,0.0028753180212352527,0.005528207995989247,0.005524611688220339,2.1008810997009277,2019-06-18 15:57:37:914
0.379172682762146,0.0593826100230217,9.708945274353027,0.005938700988511335,0.0002005850053293314,0.006323755070988013,2.104991912841797,2019-06-18 15:57:37:918
0.39593595266342163,0.0593826100230217,9.740077018737793,-0.0008540179600696353,0.0020652529472178394,0.005524611688220339,2.1108803749084473,2019-06-18 15:57:37:924
0.43425193428993225,0.09290910512208939,9.809524536132812,0.003141699148824477,0.0004669661491732013,0.0012625133867184206,2.114994525909424,2019-06-18 15:57:37:928
0.40072545409202576,0.08811960369348526,9.8167085647583,0.008868893391992805,0.0076592570167030435,0.0007297511315399715,2.120872974395752,2019-06-18 15:57:37:934
0.42227819561958313,0.02585611306130886,9.871788024902344,0.003541270840208314,0.01218773618571986,0.003926324922684992,2.1249866485595703,2019-06-18 15:57:37:938
0.3576199412345886,0.0593826100230217,9.835866928100586,7.831605963855469e-05,0.013919214295272795,0.005125040256910827,2.1308836936950684,2019-06-18 15:57:37:944
0.35043570399284363,0.08333010226488113,9.785576820373535,-0.0003212556723818955,0.014318785206433657,0.007122898453755686,2.1349925994873047,2019-06-18 15:57:37:948
0.3384619355201721,0.10967235267162323,9.69697093963623,0.0018097935108783545,0.01325326069607676,0.004592277481583728,2.140873908996582,2019-06-18 15:57:37:954
0.32169869542121887,0.08333010226488113,9.71373462677002,0.005672319860922111,0.008058828968161205,0.008721185219291034,2.1450071334838867,2019-06-18 15:57:37:958
0.3001459538936615,0.035435110330581665,9.711339950561523,0.00021150663156048962,0.0031307775876119005,0.006856517326166462,2.150883197784424,2019-06-18 15:57:37:964
0.2785932123661041,0.06177735701203346,9.706550598144531,0.004606795350565213,0.005261826868400022,0.0012625133867184206,2.1549925804138184,2019-06-18 15:57:37:968
0.3145144581794739,0.07614585757255554,9.752050399780273,0.0032748897126190896,0.003530349278995737,0.0019284663357286445,2.1600089073181152,2019-06-18 15:57:37:973
0.3145144581794739,0.056987859308719635,9.790366172790527,0.003541270840208314,0.007526066192834106,0.006057373943398788,2.1658825874328613,2019-06-18 15:57:37:979
0.333672434091568,0.06896160542964935,9.831077575683594,0.002209365202262191,0.009923496861285777,0.005790992815809564,2.1699862480163574,2019-06-18 15:57:37:983
0.333672434091568,0.06177735701203346,9.828682899475098,0.0032748897126190896,0.013519642343814635,0.005924183639678501,2.175889492034912,2019-06-18 15:57:37:989
0.3408567011356354,0.04740886017680168,9.823892593383789,-0.0013867802802666658,0.015117929109349983,0.0025944190246645436,2.1799988746643066,2019-06-18 15:57:37:993
0.280987948179245,0.049803610891103745,9.668233871459961,-0.0040505915561589115,0.01125540197908325,0.00326037210371193,2.1849865913391113,2019-06-18 15:57:37:998
0.2666194438934326,0.056987859308719635,9.701761245727539,0.0012770312556999051,0.009390734606107327,0.0001969888601068769,2.190885543823242,2019-06-18 15:57:38:004
0.29775121808052063,0.04501410946249962,9.780787467956543,0.0024757463298514157,0.004462683485632349,0.0005965605677453591,2.1949915885925293,2019-06-18 15:57:38:008
0.2785932123661041,0.0593826100230217,9.75444507598877,0.001676602947083742,0.0027312058962280636,-0.0003357734438355082,2.200888156890869,2019-06-18 15:57:38:014
0.33606719970703125,0.0330403633415699,9.831077575683594,0.003940842531592151,0.0049954457408107975,-0.005130633935497294,2.2058939933776855,2019-06-18 15:57:38:019
0.3121196925640106,0.06417210400104523,9.728102684020996,0.0007442689355028748,0.010056687165006064,-0.0036655377337565594,2.209987163543701,2019-06-18 15:57:38:023
0.3073301911354065,0.0593826100230217,9.778392791748047,-0.002452304790623564,0.008857972350928878,-0.005929777318264968,2.21596097946167,2019-06-18 15:57:38:029
0.32888296246528625,0.0593826100230217,9.797551155090332,0.002076174638467579,0.01378602295125521,-0.0024668226596050486,2.220001697540283,2019-06-18 15:57:38:033
0.28338271379470825,0.02585611306130886,9.7257080078125,-0.0019195425354451149,0.01232092752973745,-0.005130633935497294,2.2250094413757324,2019-06-18 15:57:38:038
0.2785932123661041,0.06417210400104523,9.742471694946289,-0.0012535897164720534,0.008192019271881493,-0.008060826338978765,2.2299914360046387,2019-06-18 15:57:38:043
0.2929617166519165,0.10727760195732117,9.701761245727539,0.0010106500630920993,0.008857972350928878,-0.009392731976924888,2.2358765602111816,2019-06-18 15:57:38:049
0.2618299722671509,0.05219835788011551,9.814313888549805,0.0034080802764137014,0.005128636044531084,-0.006595730397312356,2.239990711212158,2019-06-18 15:57:38:053
0.29056695103645325,0.021066613495349884,9.797551155090332,-0.0020527330992397273,0.004063111534174186,-0.0022004415320158242,2.2459030151367188,2019-06-18 15:57:38:059
0.32409346103668213,0.07614585757255554,9.8167085647583,0.0004778877754043595,0.0061941605548879826,-0.003399156606167335,2.2499966621398926,2019-06-18 15:57:38:063
0.3001459538936615,0.08093535900115967,9.768814086914062,-0.0008540179600696353,0.010722639723904802,-0.0031327754785781103,2.2559046745300293,2019-06-18 15:57:38:069
0.319303959608078,0.042619358748197556,9.843050956726074,-0.002452304790623564,0.011921355578279287,-0.00486425280790807,2.2599897384643555,2019-06-18 15:57:38:073
0.31690919399261475,0.04501410946249962,9.790366172790527,0.0003446972116097473,0.010722639723904802,-0.0016676791468002124,2.2658796310424805,2019-06-18 15:57:38:079
0.30254068970680237,0.004303365014493465,9.785576820373535,0.00021150663156048962,0.013519642343814635,-0.005796587014544681,2.2699966430664062,2019-06-18 15:57:38:083
0.24985620379447937,0.03782986104488373,9.71373462677002,0.0038076519677975387,0.00832521009575043,-0.005929777318264968,2.2758898735046387,2019-06-18 15:57:38:089
0.3121196925640106,0.042619358748197556,9.7352876663208,-0.00045444623617650777,0.008857972350928878,-0.008993161065764026,2.2799859046936035,2019-06-18 15:57:38:093
0.3073301911354065,0.0785406082868576,9.747261047363281,0.002209365202262191,0.010189877468726351,-0.006196158445854193,2.285876750946045,2019-06-18 15:57:38:099
0.3001459538936615,0.0330403633415699,9.76402473449707,-0.0009872085238642476,0.005528207995989247,-0.006862111524901579,2.2899909019470215,2019-06-18 15:57:38:103
0.2953564524650574,0.01148761436343193,9.778392791748047,0.001143840691905293,0.0027312058962280636,-0.005530205886955456,2.2949938774108887,2019-06-18 15:57:38:108
0.3145144581794739,0.08333010226488113,9.864603996276855,-0.0008540179600696353,0.006593732506346145,-0.008460398290436927,2.301443576812744,2019-06-18 15:57:38:114
0.3049354553222656,0.10967235267162323,9.840656280517578,0.002076174638467579,0.008991162654649167,-0.0041982999889350085,2.3064985275268555,2019-06-18 15:57:38:120
0.32888296246528625,0.0785406082868576,9.80473518371582,-0.0005876368324804107,0.012720498440898311,-0.005530205886955456,2.3114662170410156,2019-06-18 15:57:38:124
0.30254068970680237,0.05459310859441757,9.771208763122559,-0.0005876368324804107,0.008991162654649167,-0.004331490552729621,2.316551685333252,2019-06-18 15:57:38:130
0.3384619355201721,0.04501410946249962,9.840656280517578,0.0012770312556999051,0.005927779427298759,-0.008060826338978765,2.321460723876953,2019-06-18 15:57:38:134
0.27619844675064087,0.14798834919929504,9.783182144165039,-0.0005876368324804107,0.006060970251167696,-0.006728920701032642,2.3263840675354004,2019-06-18 15:57:38:139
0.30972495675086975,0.11925134807825089,9.799945831298828,-0.0003212556723818955,0.0053950171721203095,-0.0006021545714247328,2.3308868408203125,2019-06-18 15:57:38:144
0.31690919399261475,0.12883034348487854,9.847840309143066,0.0004778877754043595,0.0015324906920393903,-0.007128492652490805,2.334990978240967,2019-06-18 15:57:38:148
0.3456462025642395,0.04501410946249962,9.797551155090332,-0.0015199708440612782,0.007526066192834106,6.379828412128062e-05,2.3408918380737305,2019-06-18 15:57:38:154
0.32409346103668213,0.09769860655069351,9.785576820373535,0.00473998617443415,0.00686011363393537,-0.003931918861345784,2.345024585723877,2019-06-18 15:57:38:158
0.379172682762146,0.10967235267162323,9.835866928100586,0.0008774594992974871,0.011921355578279287,-0.0015344885830056003,2.3499913215637207,2019-06-18 15:57:38:163
0.319303959608078,0.11206710338592529,9.77599811553955,0.004340414222975988,0.008458400399470718,0.0007297511315399715,2.3558783531188965,2019-06-18 15:57:38:169
0.32409346103668213,0.1048828512430191,9.785576820373535,0.0006110783717082625,0.006060970251167696,0.0003301794401561345,2.360008716583252,2019-06-18 15:57:38:173
0.326488196849823,0.06177735701203346,9.761629104614258,0.0026089368936460283,0.009124352958369454,0.005790992815809564,2.3650059700012207,2019-06-18 15:57:38:178
0.33606719970703125,0.05459310859441757,9.728102684020996,0.0027421274574406405,0.004462683485632349,0.006057373943398788,2.3708701133728027,2019-06-18 15:57:38:184
0.31690919399261475,0.10248810052871704,9.787971496582031,0.0012770312556999051,0.006060970251167696,0.008854376043159971,2.3749823570251465,2019-06-18 15:57:38:188
0.3001459538936615,0.1312250941991806,9.795156478881836,0.0003446972116097473,0.006460541682477208,0.009253947994618133,2.3799967765808105,2019-06-18 15:57:38:193
0.3073301911354065,0.11446185410022736,9.785576820373535,0.0036744614040029266,0.008058828968161205,0.008454804091701809,2.385005474090576,2019-06-18 15:57:38:198
0.326488196849823,0.0785406082868576,9.852629661560059,0.0038076519677975387,0.004729064613221573,0.003793134358890379,2.3908772468566895,2019-06-18 15:57:38:204
0.333672434091568,0.07375110685825348,9.747261047363281,-0.0005876368324804107,0.0117881642342617,0.009786710249796583,2.3949828147888184,2019-06-18 15:57:38:208
0.33606719970703125,0.11685659736394882,9.778392791748047,0.002209365202262191,0.01232092752973745,0.01085223476015348,2.3999953269958496,2019-06-18 15:57:38:213
0.3145144581794739,0.11925134807825089,9.756839752197266,0.006604654067558721,0.005661398299709534,0.011518187319052216,2.405904769897461,2019-06-18 15:57:38:219
0.319303959608078,0.06656685471534729,9.787971496582031,-0.0027186859182127886,0.0076592570167030435,0.010452662808695319,2.40999174118042,2019-06-18 15:57:38:223
0.333672434091568,0.042619358748197556,9.71373462677002,-0.0019195425354451149,0.006726922810066432,0.013382855732325439,2.4158787727355957,2019-06-18 15:57:38:229
0.37438318133354187,0.08811960369348526,9.7352876663208,0.0028753180212352527,0.0036635398427903496,0.013382855732325439,2.4199910163879395,2019-06-18 15:57:38:233
0.364804208278656,0.09051435440778732,9.766419410705566,-0.0015199708440612782,0.0015324906920393903,0.016046667008217684,2.4258837699890137,2019-06-18 15:57:38:239
0.40072545409202576,0.14798834919929504,9.80473518371582,0.0038076519677975387,0.006460541682477208,0.008321613787981522,2.4299845695495605,2019-06-18 15:57:38:243
0.4103044271469116,0.12404084950685501,9.783182144165039,0.0028753180212352527,0.006993303937655657,0.014448380242682338,2.4350180625915527,2019-06-18 15:57:38:248
0.41509392857551575,0.09290910512208939,9.787971496582031,0.00021150663156048962,0.012054545881999576,0.014448380242682338,2.4408726692199707,2019-06-18 15:57:38:254
0.4103044271469116,0.1048828512430191,9.773603439331055,0.0026089368936460283,0.010855831067922388,0.014847952194140498,2.4450087547302246,2019-06-18 15:57:38:258
0.3935411870479584,0.10248810052871704,9.752050399780273,-0.0021859236630343394,0.010989021371642677,0.010053090857237157,2.450883388519287,2019-06-18 15:57:38:264
0.3935411870479584,0.11206710338592529,9.756839752197266,0.006071891812380273,0.003796730406584962,0.011651377622772505,2.4549927711486816,2019-06-18 15:57:38:268
0.333672434091568,0.0857248529791832,9.838261604309082,0.0008774594992974871,-0.0008649395863007935,0.007788851532803074,2.460872173309326,2019-06-18 15:57:38:274
0.31690919399261475,0.06656685471534729,9.859814643859863,0.003940842531592151,0.0036635398427903496,0.008721185219291034,2.464982509613037,2019-06-18 15:57:38:278
0.40790969133377075,0.01867186278104782,9.852629661560059,0.005805510684791048,0.009257544302387042,0.007788851532803074,2.4699926376342773,2019-06-18 15:57:38:283
0.48693642020225525,-0.01006513275206089,9.826288223266602,0.007137416322737172,0.01032306881274394,0.008454804091701809,2.4749913215637207,2019-06-18 15:57:38:288
0.46777844429016113,0.06656685471534729,9.8167085647583,0.003141699148824477,0.0117881642342617,0.006323755070988013,2.480008602142334,2019-06-18 15:57:38:293
0.319303959608078,0.1384093463420868,9.752050399780273,-0.0013867802802666658,0.018181311296403088,-0.001934060274389437,2.4858813285827637,2019-06-18 15:57:38:299
0.364804208278656,0.10727760195732117,9.716129302978516,-0.0012535897164720534,0.015917071971969007,-0.0003357734438355082,2.489987373352051,2019-06-18 15:57:38:303
0.30254068970680237,-0.01006513275206089,9.665839195251465,0.002076174638467579,0.009523924909827616,0.0005965605677453591,2.4958767890930176,2019-06-18 15:57:38:309
0.2953564524650574,-0.029223131015896797,9.728102684020996,0.003940842531592151,0.001399300128244778,0.0067233270224461746,2.4999890327453613,2019-06-18 15:57:38:313
0.30254068970680237,0.0330403633415699,9.694576263427734,0.009401655647171254,-0.0013977018414792427,0.005924183639678501,2.5058770179748535,2019-06-18 15:57:38:319
0.33606719970703125,0.09290910512208939,9.787971496582031,0.007803369401784558,0.0024648247686388392,0.002328037897075319,2.509986400604248,2019-06-18 15:57:38:323
0.35043570399284363,0.1048828512430191,9.878972053527832,0.004074033095386763,0.007526066192834106,-0.0053970150630865184,2.5159029960632324,2019-06-18 15:57:38:329
0.3935411870479584,0.035435110330581665,9.895735740661621,0.003141699148824477,0.012587308137178023,-0.008060826338978765,2.5200047492980957,2019-06-18 15:57:38:333
0.4103044271469116,-0.03161787986755371,9.869393348693848,0.002209365202262191,0.018580883247861252,-0.004731062504187783,2.525007724761963,2019-06-18 15:57:38:338
0.32409346103668213,0.023461362347006798,9.747261047363281,0.0007442689355028748,0.018980455199319412,-0.004597871680318845,2.530869483947754,2019-06-18 15:57:38:344
0.280987948179245,0.06656685471534729,9.75444507598877,-0.0007208273962750229,0.01658302557116504,-0.003931918861345784,2.5349860191345215,2019-06-18 15:57:38:348
0.23548771440982819,0.05459310859441757,9.69697093963623,-0.008712261549044666,0.007259685065244881,-0.010058685576120925,2.5399937629699707,2019-06-18 15:57:38:353
0.2594352066516876,0.013882364146411419,9.718523979187012,0.0010106500630920993,0.0024648247686388392,-0.005796587014544681,2.5458993911743164,2019-06-18 15:57:38:359
0.32409346103668213,-0.01724938116967678,9.730497360229492,0.0023425557660568036,-0.0027296074794253655,-0.0022004415320158242,2.549985408782959,2019-06-18 15:57:38:363
0.37438318133354187,0.0019086154643446207,9.740077018737793,0.003940842531592151,0.0002005850053293314,-0.006196158445854193,2.554987907409668,2019-06-18 15:57:38:368
0.333672434091568,0.09051435440778732,9.87418270111084,0.0010106500630920993,0.013386452040094348,-0.009126351369484314,2.560898780822754,2019-06-18 15:57:38:374
0.36959367990493774,0.10009334981441498,9.838261604309082,0.0004778877754043595,0.011521783626821125,-0.014187593313828233,2.5650038719177246,2019-06-18 15:57:38:378
0.31690919399261475,-0.0028808838687837124,9.850234985351562,-0.00045444623617650777,0.017781741425539527,-0.010458256487281785,2.5708770751953125,2019-06-18 15:57:38:384
0.3145144581794739,-0.019644131883978844,9.802340507507324,0.0018097935108783545,0.01711578782634349,-0.011124210086477822,2.5749855041503906,2019-06-18 15:57:38:388
0.2857774496078491,0.013882364146411419,9.723313331604004,0.007936559705504845,0.012587308137178023,-0.009259541673204601,2.5808792114257812,2019-06-18 15:57:38:394
0.2522509694099426,0.06896160542964935,9.718523979187012,0.0028753180212352527,0.0023316342048442266,-0.009659113624662763,2.584989070892334,2019-06-18 15:57:38:398
0.24506671726703644,0.09530385583639145,9.687392234802246,0.0008774594992974871,0.0020652529472178394,-0.01272249685201317,2.5899882316589355,2019-06-18 15:57:38:403
0.2690142095088959,0.0330403633415699,9.831077575683594,0.005539129557201824,0.0008665378730663289,-0.015119926480167542,2.5949883460998535,2019-06-18 15:57:38:408
0.29775121808052063,-0.012459882535040379,9.819103240966797,0.0027421274574406405,0.0024648247686388392,-0.014054401969810643,2.6000161170959473,2019-06-18 15:57:38:413
0.32888296246528625,-0.01006513275206089,9.890946388244629,0.00473998617443415,0.008857972350928878,-0.014453973921268804,2.605896472930908,2019-06-18 15:57:38:419
0.2953564524650574,0.1048828512430191,9.86220932006836,0.0023425557660568036,0.011921355578279287,-0.013788021362370069,2.6099958419799805,2019-06-18 15:57:38:423
0.3121196925640106,0.0785406082868576,9.828682899475098,-0.004316972683748136,0.017248978130063777,-0.01179016264537656,2.615884304046631,2019-06-18 15:57:38:429
0.2953564524650574,0.09530385583639145,9.787971496582031,-0.0008540179600696353,0.016849406178605617,-0.011390590693918397,2.6199870109558105,2019-06-18 15:57:38:433
0.2594352066516876,0.01867186278104782,9.749655723571777,0.001143840691905293,0.01418559490271337,-0.013788021362370069,2.625883102416992,2019-06-18 15:57:38:439
0.228303462266922,-0.00048613420221954584,9.761629104614258,0.0050063673020233745,0.005661398299709534,-0.006728920701032642,2.629991054534912,2019-06-18 15:57:38:443
0.2618299722671509,0.0785406082868576,9.689786911010742,-0.0019195425354451149,0.0061941605548879826,-0.0072616829562110905,2.6358814239501953,2019-06-18 15:57:38:449
0.228303462266922,0.11925134807825089,9.720918655395508,-0.0015199708440612782,0.0006001567454771042,-0.010458256487281785,2.639988899230957,2019-06-18 15:57:38:453
0.2690142095088959,0.11446185410022736,9.802340507507324,0.00021150663156048962,-0.00046536786240766596,-0.008060826338978765,2.6459126472473145,2019-06-18 15:57:38:459
0.30254068970680237,0.04740886017680168,9.790366172790527,-0.00018806509233263786,0.0024648247686388392,-0.0031327754785781103,2.6499924659729004,2019-06-18 15:57:38:463
0.33606719970703125,0.0857248529791832,9.850234985351562,0.005539129557201824,0.011122211675362963,-0.004997443631777007,2.655902862548828,2019-06-18 15:57:38:469
0.3456462025642395,0.06417210400104523,9.821497917175293,7.831605963855469e-05,0.014585166854171532,0.00166208520813942,2.659987449645996,2019-06-18 15:57:38:473
0.3145144581794739,0.1647515892982483,9.785576820373535,-0.0037842104285696868,0.015517501060808144,0.003793134358890379,2.664989471435547,2019-06-18 15:57:38:478
0.26422470808029175,0.08333010226488113,9.744866371154785,0.002076174638467579,0.010056687165006064,0.00326037210371193,2.670876979827881,2019-06-18 15:57:38:484
0.24506671726703644,0.0785406082868576,9.641892433166504,-0.0021859236630343394,0.010589449420184513,0.0025944190246645436,2.674987316131592,2019-06-18 15:57:38:488
0.2881722152233124,0.06656685471534729,9.730497360229492,0.003141699148824477,0.005528207995989247,0.01085223476015348,2.68087100982666,2019-06-18 15:57:38:494
0.32169869542121887,0.09769860655069351,9.744866371154785,0.0030085085850298653,0.0032639681514065122,0.007655660708934136,2.6849842071533203,2019-06-18 15:57:38:498
0.333672434091568,0.12164609879255295,9.780787467956543,-0.0003212556723818955,6.739442934373515e-05,0.009786710249796583,2.690002918243408,2019-06-18 15:57:38:503
0.3312776982784271,0.17433059215545654,9.84544563293457,-0.0011203991526774412,0.007925638144292268,0.005657802512089276,2.695883274078369,2019-06-18 15:57:38:509
0.32409346103668213,0.09051435440778732,9.90291976928711,-0.0019195425354451149,0.01218773618571986,0.00991990055351687,2.700010299682617,2019-06-18 15:57:38:513
0.319303959608078,0.07614585757255554,9.823892593383789,-0.0032514481733912377,0.012986880088636184,0.011251806711611644,2.7049951553344727,2019-06-18 15:57:38:518
0.29056695103645325,0.09530385583639145,9.807129859924316,0.004606795350565213,0.016050263315986593,0.014981142497860787,2.7108712196350098,2019-06-18 15:57:38:524
0.2690142095088959,0.0785406082868576,9.780787467956543,-0.0015199708440612782,0.012587308137178023,0.012450521525688828,2.7158761024475098,2019-06-18 15:57:38:529
0.2618299722671509,0.09530385583639145,9.708945274353027,-0.0015199708440612782,0.008857972350928878,0.01391561798750389,2.7199912071228027,2019-06-18 15:57:38:533
0.24985620379447937,0.07375110685825348,9.761629104614258,0.003141699148824477,0.0039299209703795735,0.011784568966790091,2.725879192352295,2019-06-18 15:57:38:539
0.2618299722671509,0.04740886017680168,9.720918655395508,0.0019429840746729666,0.005661398299709534,0.010053090857237157,2.7299861907958984,2019-06-18 15:57:38:543
0.2881722152233124,0.042619358748197556,9.761629104614258,0.002076174638467579,0.0024648247686388392,0.013649236339766014,2.7358908653259277,2019-06-18 15:57:38:549
0.35522520542144775,0.08811960369348526,9.811919212341309,0.0023425557660568036,0.012054545881999576,0.011118615367594054,2.739987850189209,2019-06-18 15:57:38:553
0.32169869542121887,0.08333010226488113,9.84544563293457,-0.0009872085238642476,0.01032306881274394,0.008188422964112586,2.745911121368408,2019-06-18 15:57:38:559
0.3001459538936615,0.08811960369348526,9.785576820373535,-0.0023191142268289516,0.016982597522623204,0.0069897081500354,2.749988079071045,2019-06-18 15:57:38:563
0.3001459538936615,0.10727760195732117,9.76402473449707,0.001676602947083742,0.01525111941307027,0.008188422964112586,2.7558770179748535,2019-06-18 15:57:38:569
0.24506671726703644,0.06417210400104523,9.768814086914062,-0.00045444623617650777,0.013919214295272795,0.0025944190246645436,2.7599921226501465,2019-06-18 15:57:38:573
0.25704047083854675,0.08333010226488113,9.730497360229492,0.0024757463298514157,0.008724781527059942,0.005924183639678501,2.7658820152282715,2019-06-18 15:57:38:579
0.27619844675064087,0.07614585757255554,9.7257080078125,0.0024757463298514157,0.006593732506346145,0.008721185219291034,2.7699875831604004,2019-06-18 15:57:38:583
0.2666194438934326,0.11685659736394882,9.680208206176758,0.00154341238328913,0.001798871819628615,0.0040595154864796045,2.7758822441101074,2019-06-18 15:57:38:589
0.27140894532203674,0.09051435440778732,9.838261604309082,0.0010106500630920993,0.0007333473092717165,0.00326037210371193,2.780013084411621,2019-06-18 15:57:38:593
0.31690919399261475,0.09530385583639145,9.797551155090332,7.831605963855469e-05,0.0061941605548879826,0.0019284663357286445,2.7849931716918945,2019-06-18 15:57:38:598
0.32409346103668213,-0.005275633651763201,9.783182144165039,0.0030085085850298653,0.010456259116464226,6.379828412128062e-05,2.7908778190612793,2019-06-18 15:57:38:604
0.333672434091568,0.08333010226488113,9.802340507507324,0.0024757463298514157,0.012054545881999576,0.00499184943304189,2.7949953079223633,2019-06-18 15:57:38:608
0.2881722152233124,0.08811960369348526,9.783182144165039,0.0012770312556999051,0.01325326069607676,0.0001969888601068769,2.800872325897217,2019-06-18 15:57:38:614
0.3049354553222656,0.0785406082868576,9.661049842834473,0.0038076519677975387,0.008458400399470718,0.0008629416953345836,2.804985523223877,2019-06-18 15:57:38:618
0.2953564524650574,0.04022461175918579,9.744866371154785,7.831605963855469e-05,0.007792447840571981,-0.0022004415320158242,2.8108811378479004,2019-06-18 15:57:38:624
0.326488196849823,0.009092864580452442,9.756839752197266,0.0012770312556999051,0.004462683485632349,0.0021948473332807066,2.814990520477295,2019-06-18 15:57:38:628
0.3121196925640106,0.05459310859441757,9.826288223266602,0.006604654067558721,0.0039299209703795735,0.0011293228229238084,2.8209009170532227,2019-06-18 15:57:38:634
0.3600147068500519,0.056987859308719635,9.881366729736328,0.002076174638467579,0.004729064613221573,-0.003931918861345784,2.8250045776367188,2019-06-18 15:57:38:638
0.319303959608078,0.056987859308719635,9.895735740661621,0.0024757463298514157,0.007526066192834106,0.000996132259129196,2.8299880027770996,2019-06-18 15:57:38:643
0.35043570399284363,0.06656685471534729,9.86220932006836,-0.0017863519716505025,0.01165497393054141,0.005125040256910827,2.835875988006592,2019-06-18 15:57:38:649
0.3671989440917969,-0.00048613420221954584,9.826288223266602,0.0038076519677975387,0.011388593323100838,-0.0041982999889350085,2.8408989906311035,2019-06-18 15:57:38:654
0.35522520542144775,0.009092864580452442,9.83347225189209,0.0012770312556999051,0.01218773618571986,-0.0015344885830056003,2.8449902534484863,2019-06-18 15:57:38:658
0.3839621841907501,0.09290910512208939,9.819103240966797,-0.00045444623617650777,0.009257544302387042,0.0027276098485334807,2.8508710861206055,2019-06-18 15:57:38:664
0.319303959608078,0.0785406082868576,9.737682342529297,0.00154341238328913,0.003530349278995737,-0.004331490552729621,2.8549866676330566,2019-06-18 15:57:38:668
0.34325143694877625,0.09051435440778732,9.785576820373535,0.00021150663156048962,0.004595873789352636,-0.0024668226596050486,2.860879898071289,2019-06-18 15:57:38:674
0.32409346103668213,0.04022461175918579,9.77599811553955,0.0036744614040029266,0.0015324906920393903,-0.005263824759366232,2.8650054931640625,2019-06-18 15:57:38:678
0.3935411870479584,0.08333010226488113,9.828682899475098,0.007004226019016884,0.0039299209703795735,0.004192706050274216,2.870004177093506,2019-06-18 15:57:38:683
0.3983306884765625,0.05459310859441757,9.814313888549805,0.001143840691905293,0.0076592570167030435,-0.002999584914783498,2.8749876022338867,2019-06-18 15:57:38:688
0.379172682762146,0.11206710338592529,9.831077575683594,-0.0027186859182127886,0.011388593323100838,-0.005263824759366232,2.880916118621826,2019-06-18 15:57:38:694
0.42227819561958313,0.06896160542964935,9.785576820373535,-0.0028518764820074007,0.013386452040094348,0.0004633700039507468,2.885005474090576,2019-06-18 15:57:38:698
0.36959367990493774,0.07375110685825348,9.785576820373535,0.004340414222975988,0.010855831067922388,0.0007297511315399715,2.8899898529052734,2019-06-18 15:57:38:703
0.3911464512348175,0.06177735701203346,9.718523979187012,0.004207223659181376,0.00686011363393537,-0.004997443631777007,2.895876407623291,2019-06-18 15:57:38:709
0.38875168561935425,0.07614585757255554,9.701761245727539,0.0032748897126190896,0.0049954457408107975,-0.0035323471699619468,2.899989604949951,2019-06-18 15:57:38:713
0.3983306884765625,0.11446185410022736,9.675418853759766,-0.0008540179600696353,0.001399300128244778,-0.00486425280790807,2.905892848968506,2019-06-18 15:57:38:719
0.3935411870479584,0.05219835788011551,9.766419410705566,0.002076174638467579,0.0031307775876119005,-0.0041982999889350085,2.910062789916992,2019-06-18 15:57:38:723
0.39593595266342163,0.0593826100230217,9.780787467956543,0.00620508211610056,0.004729064613221573,-0.0036655377337565594,2.9158873558044434,2019-06-18 15:57:38:729
0.4031201899051666,0.06896160542964935,9.790366172790527,0.0034080802764137014,0.013519642343814635,0.0019284663357286445,2.9199843406677246,2019-06-18 15:57:38:733
0.42227819561958313,0.09530385583639145,9.850234985351562,0.0010106500630920993,0.009390734606107327,-0.0027332037871942733,2.9258980751037598,2019-06-18 15:57:38:739
0.3911464512348175,0.07375110685825348,9.80473518371582,-0.002452304790623564,0.009124352958369454,-0.0011349168916217633,2.930886745452881,2019-06-18 15:57:38:744
0.4031201899051666,0.07135635614395142,9.792760848999023,-0.0040505915561589115,0.011122211675362963,-0.005263824759366232,2.934985637664795,2019-06-18 15:57:38:748
0.40790969133377075,0.042619358748197556,9.75444507598877,0.0024757463298514157,0.007392875889113818,-0.0026000132233996607,2.940880298614502,2019-06-18 15:57:38:754
0.3863569498062134,0.0785406082868576,9.756839752197266,0.0004778877754043595,0.009390734606107327,-0.0014012980192109879,2.944990634918213,2019-06-18 15:57:38:758
0.3671989440917969,0.11206710338592529,9.785576820373535,0.005405938733332886,0.006460541682477208,-0.004065109425140397,2.9508748054504395,2019-06-18 15:57:38:764
0.364804208278656,0.0593826100230217,9.840656280517578,0.002076174638467579,0.006726922810066432,-0.0041982999889350085,2.955014705657959,2019-06-18 15:57:38:768
0.3600147068500519,0.08333010226488113,9.787971496582031,0.00620508211610056,0.005794589123578471,-0.004065109425140397,2.9599924087524414,2019-06-18 15:57:38:773
0.40072545409202576,0.07135635614395142,9.864603996276855,0.0007442689355028748,0.004462683485632349,-0.0010017262628085697,2.9649882316589355,2019-06-18 15:57:38:778
0.40790969133377075,0.06896160542964935,9.838261604309082,-0.0003212556723818955,0.009523924909827616,-0.0035323471699619468,2.9699959754943848,2019-06-18 15:57:38:783
0.3863569498062134,0.08093535900115967,9.843050956726074,0.0076701785779156205,0.009923496861285777,-6.939229186431566e-05,2.975886821746826,2019-06-18 15:57:38:789
0.379172682762146,0.08093535900115967,9.771208763122559,-0.0027186859182127886,0.01032306881274394,-0.004597871680318845,2.9799857139587402,2019-06-18 15:57:38:793
0.333672434091568,0.08333010226488113,9.831077575683594,-0.00045444623617650777,0.007126494761524595,-0.0022004415320158242,2.9858765602111816,2019-06-18 15:57:38:799
0.3384619355201721,0.03782986104488373,9.768814086914062,0.0026089368936460283,0.005927779427298759,0.0025944190246645436,2.989990711212158,2019-06-18 15:57:38:803
0.326488196849823,0.04022461175918579,9.761629104614258,0.0030085085850298653,0.006726922810066432,0.002461228460869931,2.9949936866760254,2019-06-18 15:57:38:808
0.319303959608078,0.04740886017680168,9.756839752197266,0.0034080802764137014,0.002997587023817288,-0.001934060274389437,3.000899314880371,2019-06-18 15:57:38:814
0.34804093837738037,0.08093535900115967,9.785576820373535,-0.00045444623617650777,0.008458400399470718,-0.0004689640076301205,3.004991054534912,2019-06-18 15:57:38:818
0.3767779469490051,0.06656685471534729,9.80473518371582,-0.0009872085238642476,0.008724781527059942,0.0004633700039507468,3.010873317718506,2019-06-18 15:57:38:824
0.3576199412345886,0.056987859308719635,9.8167085647583,0.002076174638467579,0.008058828968161205,-0.0012681074554163755,3.015015125274658,2019-06-18 15:57:38:828
0.326488196849823,0.05219835788011551,9.785576820373535,0.0026089368936460283,0.01218773618571986,0.0017952757719340324,3.020874500274658,2019-06-18 15:57:38:834
0.31690919399261475,0.09290910512208939,9.747261047363281,0.0026089368936460283,0.012454117833457736,0.002461228460869931,3.024984836578369,2019-06-18 15:57:38:838
0.2881722152233124,0.05459310859441757,9.740077018737793,0.0024757463298514157,0.009923496861285777,0.004592277481583728,3.030883312225342,2019-06-18 15:57:38:844
0.29056695103645325,0.10967235267162323,9.742471694946289,-0.0037842104285696868,0.011921355578279287,0.0008629416953345836,3.0349907875061035,2019-06-18 15:57:38:848
0.280987948179245,0.0593826100230217,9.778392791748047,-0.0023191142268289516,0.0004669661491732013,0.0021948473332807066,3.040872097015381,2019-06-18 15:57:38:854
0.3312776982784271,0.12164609879255295,9.737682342529297,0.00021150663156048962,0.0025980153324334514,6.379828412128062e-05,3.0450053215026855,2019-06-18 15:57:38:858
0.2881722152233124,0.05459310859441757,9.83347225189209,-0.0008540179600696353,0.0031307775876119005,0.00898756634688026,3.0508809089660645,2019-06-18 15:57:38:864
0.30972495675086975,0.09530385583639145,9.847840309143066,0.0024757463298514157,0.0016656812558340024,0.003393562667506543,3.0549864768981934,2019-06-18 15:57:38:868
0.29775121808052063,0.10727760195732117,9.795156478881836,0.001676602947083742,0.005128636044531084,0.012184139877950953,3.059999465942383,2019-06-18 15:57:38:873
0.32409346103668213,0.06417210400104523,9.792760848999023,-5.487451634704159e-05,0.012587308137178023,0.012050949574230667,3.0649962425231934,2019-06-18 15:57:38:878
0.25704047083854675,0.09530385583639145,9.761629104614258,-0.0015199708440612782,0.012853689784915898,0.011251806711611644,3.070870876312256,2019-06-18 15:57:38:884
0.2881722152233124,0.08811960369348526,9.80473518371582,0.0012770312556999051,0.008857972350928878,0.010452662808695319,3.074985980987549,2019-06-18 15:57:38:888
0.26422470808029175,0.0593826100230217,9.76402473449707,-0.002452304790623564,0.00686011363393537,0.012850093477146989,3.0799946784973145,2019-06-18 15:57:38:893
0.27140894532203674,0.06896160542964935,9.766419410705566,-0.0027186859182127886,0.0025980153324334514,0.009786710249796583,3.0858778953552246,2019-06-18 15:57:38:899
0.27619844675064087,0.0593826100230217,9.677813529968262,0.002076174638467579,0.004063111534174186,0.01085223476015348,3.0900793075561523,2019-06-18 15:57:38:903
0.27619844675064087,0.049803610891103745,9.759234428405762,-0.0009872085238642476,0.004063111534174186,0.011518187319052216,3.095010280609131,2019-06-18 15:57:38:908
0.2785932123661041,0.09290910512208939,9.752050399780273,0.002209365202262191,0.0053950171721203095,0.011251806711611644,3.10087251663208,2019-06-18 15:57:38:914
0.3384619355201721,0.04501410946249962,9.787971496582031,-0.0015199708440612782,0.010722639723904802,0.010719044456433194,3.105888843536377,2019-06-18 15:57:38:919
0.30254068970680237,0.06177735701203346,9.759234428405762,0.0014102218194945173,0.012054545881999576,0.01098542506387377,3.1099886894226074,2019-06-18 15:57:38:923
0.31690919399261475,0.042619358748197556,9.723313331604004,0.00021150663156048962,0.010722639723904802,0.012583711829409117,3.114988327026367,2019-06-18 15:57:38:928
0.26422470808029175,0.004303365014493465,9.77599811553955,0.0004778877754043595,0.00832521009575043,0.01324966438830785,3.120880603790283,2019-06-18 15:57:38:934
0.280987948179245,0.03782986104488373,9.728102684020996,0.001143840691905293,0.0117881642342617,0.007256089277624623,3.124990940093994,2019-06-18 15:57:38:938
0.30972495675086975,0.006698114797472954,9.723313331604004,0.005938700988511335,0.005927779427298759,0.011784568966790091,3.1308722496032715,2019-06-18 15:57:38:944
0.3121196925640106,0.028250861912965775,9.761629104614258,0.004340414222975988,0.008458400399470718,0.00991990055351687,3.1350064277648926,2019-06-18 15:57:38:948
0.3073301911354065,0.09769860655069351,9.771208763122559,-0.0028518764820074007,0.00632735137875692,0.006856517326166462,3.140885353088379,2019-06-18 15:57:38:954
0.32409346103668213,0.049803610891103745,9.783182144165039,-0.0003212556723818955,0.007259685065244881,0.009786710249796583,3.144986152648926,2019-06-18 15:57:38:958
0.3073301911354065,0.013882364146411419,9.799945831298828,0.0010106500630920993,0.008724781527059942,0.007655660708934136,3.1500163078308105,2019-06-18 15:57:38:963
0.319303959608078,0.03782986104488373,9.814313888549805,0.0034080802764137014,0.013120070392356473,0.007122898453755686,3.1558823585510254,2019-06-18 15:57:38:969
0.3001459538936615,0.0330403633415699,9.771208763122559,-0.0009872085238642476,0.019380027150777576,0.006190564767267726,3.159987449645996,2019-06-18 15:57:38:973
0.27619844675064087,0.0785406082868576,9.771208763122559,0.0010106500630920993,0.01165497393054141,0.00499184943304189,3.165876865386963,2019-06-18 15:57:38:979
0.22351396083831787,0.05219835788011551,9.778392791748047,-0.0013867802802666658,0.011122211675362963,0.0008629416953345836,3.169989585876465,2019-06-18 15:57:38:983
0.24267196655273438,0.006698114797472954,9.76402473449707,-0.0003212556723818955,0.006060970251167696,0.0013957039505130327,3.175877094268799,2019-06-18 15:57:38:989
0.2546457052230835,0.04501410946249962,9.76402473449707,0.0006110783717082625,0.004729064613221573,-0.0024668226596050486,3.1799864768981934,2019-06-18 15:57:38:993
0.28338271379470825,0.016277113929390907,9.795156478881836,0.005672319860922111,0.008591591223339655,0.002461228460869931,3.1858839988708496,2019-06-18 15:57:38:999
0.2690142095088959,0.08333010226488113,9.807129859924316,0.004207223659181376,0.007126494761524595,-0.001934060274389437,3.1900134086608887,2019-06-18 15:57:39:003
0.26422470808029175,0.06896160542964935,9.847840309143066,0.001143840691905293,0.008991162654649167,-0.010458256487281785,3.195918560028076,2019-06-18 15:57:39:009
0.2618299722671509,0.07614585757255554,9.84544563293457,0.00021150663156048962,0.008192019271881493,-0.006862111524901579,3.2008867263793945,2019-06-18 15:57:39:014
0.23309296369552612,0.08811960369348526,9.828682899475098,-5.487451634704159e-05,0.01218773618571986,-0.006862111524901579,3.204986095428467,2019-06-18 15:57:39:018
0.21632970869541168,0.0593826100230217,9.783182144165039,0.002209365202262191,0.008857972350928878,-0.0053970150630865184,3.210879325866699,2019-06-18 15:57:39:024
0.22351396083831787,0.056987859308719635,9.716129302978516,0.0007442689355028748,0.010189877468726351,-0.010058685576120925,3.2149882316589355,2019-06-18 15:57:39:028
0.23069821298122406,0.08333010226488113,9.749655723571777,-0.0008540179600696353,0.0076592570167030435,-0.008593589114305866,3.2208714485168457,2019-06-18 15:57:39:034
0.24267196655273438,0.0330403633415699,9.742471694946289,0.001143840691905293,0.003530349278995737,-0.009259541673204601,3.2249860763549805,2019-06-18 15:57:39:038
0.27140894532203674,0.05459310859441757,9.843050956726074,0.0026089368936460283,0.0009997284368609412,-0.010458256487281785,3.230909824371338,2019-06-18 15:57:39:044
0.2546457052230835,0.04740886017680168,9.692181587219238,0.0034080802764137014,0.007526066192834106,-0.007661254907669253,3.2350053787231445,2019-06-18 15:57:39:048
0.2785932123661041,0.030645612627267838,9.821497917175293,0.003141699148824477,0.014052404598993085,-0.006995301828621867,3.240872383117676,2019-06-18 15:57:39:054
0.30254068970680237,0.028250861912965775,9.778392791748047,0.002209365202262191,0.006593732506346145,-0.004331490552729621,3.2449984550476074,2019-06-18 15:57:39:058
0.2522509694099426,0.04022461175918579,9.802340507507324,-0.003118257609596625,0.012454117833457736,-0.006995301828621867,3.250004291534424,2019-06-18 15:57:39:063
0.2522509694099426,0.021066613495349884,9.783182144165039,0.0008774594992974871,0.008192019271881493,-0.007528064083800316,3.2549891471862793,2019-06-18 15:57:39:068
0.2857774496078491,0.049803610891103745,9.67302417755127,0.00021150663156048962,0.007126494761524595,-0.009525923320942476,3.260878562927246,2019-06-18 15:57:39:074
0.25704047083854675,0.0857248529791832,9.80473518371582,0.0006110783717082625,0.0061941605548879826,-0.008194017162847702,3.2649893760681152,2019-06-18 15:57:39:078
0.2666194438934326,0.0785406082868576,9.742471694946289,0.001143840691905293,0.009124352958369454,-0.006196158445854193,3.2708740234375,2019-06-18 15:57:39:084
0.3121196925640106,0.06177735701203346,9.783182144165039,0.001143840691905293,0.005528207995989247,-0.006196158445854193,3.2750020027160645,2019-06-18 15:57:39:088
0.3384619355201721,0.0857248529791832,9.795156478881836,7.831605963855469e-05,0.00686011363393537,-0.007528064083800316,3.2808775901794434,2019-06-18 15:57:39:094
0.32888296246528625,0.04501410946249962,9.787971496582031,0.0024757463298514157,0.006460541682477208,-0.007528064083800316,3.284982204437256,2019-06-18 15:57:39:098
0.36240944266319275,0.07135635614395142,9.857419967651367,-0.0032514481733912377,0.010722639723904802,-0.004997443631777007,3.290980815887451,2019-06-18 15:57:39:104
0.3576199412345886,0.05219835788011551,9.747261047363281,0.0018097935108783545,0.01218773618571986,-0.00979230392838305,3.295004367828369,2019-06-18 15:57:39:108
0.4055149257183075,0.07135635614395142,9.761629104614258,0.0038076519677975387,0.007392875889113818,-0.007661254907669253,3.3008713722229004,2019-06-18 15:57:39:114
0.34325143694877625,0.11685659736394882,9.706550598144531,0.004606795350565213,0.0049954457408107975,-0.0011349168916217633,3.3049826622009277,2019-06-18 15:57:39:118
0.3576199412345886,0.08093535900115967,9.783182144165039,-0.004583353811337361,0.005794589123578471,-0.007394873780080028,3.310883045196533,2019-06-18 15:57:39:124
0.40072545409202576,0.09051435440778732,9.69697093963623,0.001143840691905293,0.003397158715201125,0.0008629416953345836,3.314992904663086,2019-06-18 15:57:39:128
0.3983306884765625,0.1048828512430191,9.773603439331055,0.002076174638467579,0.004462683485632349,-0.0022004415320158242,3.32090425491333,2019-06-18 15:57:39:134
0.3911464512348175,0.06177735701203346,9.855024337768555,0.004606795350565213,0.008192019271881493,-0.0028663943509888855,3.3250045776367188,2019-06-18 15:57:39:138
0.4055149257183075,0.09051435440778732,9.840656280517578,0.0007442689355028748,0.013386452040094348,0.002328037897075319,3.330869674682617,2019-06-18 15:57:39:144
0.4103044271469116,0.12164609879255295,9.83347225189209,7.831605963855469e-05,0.010056687165006064,0.005391421384500052,3.3350062370300293,2019-06-18 15:57:39:148
0.40072545409202576,0.13601459562778473,9.76402473449707,-5.487451634704159e-05,0.01365283264753492,0.004858658609172953,3.3408865928649902,2019-06-18 15:57:39:154
0.35043570399284363,0.07135635614395142,9.7352876663208,-0.0028518764820074007,0.009923496861285777,-0.003399156606167335,3.344984531402588,2019-06-18 15:57:39:158
0.35522520542144775,0.0593826100230217,9.797551155090332,0.00154341238328913,0.01032306881274394,0.0025944190246645436,3.349997043609619,2019-06-18 15:57:39:163
0.3911464512348175,0.10248810052871704,9.747261047363281,0.0026089368936460283,0.008192019271881493,0.003926324922684992,3.3558812141418457,2019-06-18 15:57:39:169
0.3528304398059845,0.09051435440778732,9.809524536132812,-0.0025854953544181764,0.005128636044531084,0.004592277481583728,3.3599867820739746,2019-06-18 15:57:39:173
0.4055149257183075,0.07614585757255554,9.802340507507324,-0.0008540179600696353,0.0036635398427903496,6.379828412128062e-05,3.3658804893493652,2019-06-18 15:57:39:179
0.4055149257183075,0.10248810052871704,9.778392791748047,0.005272748429612599,0.00686011363393537,0.002328037897075319,3.3700098991394043,2019-06-18 15:57:39:183
0.4390414357185364,0.06417210400104523,9.819103240966797,0.0028753180212352527,0.005927779427298759,-0.0010017262628085697,3.3758835792541504,2019-06-18 15:57:39:189
0.3911464512348175,0.049803610891103745,9.802340507507324,-0.0003212556723818955,0.008058828968161205,0.0027276098485334807,3.380002498626709,2019-06-18 15:57:39:193
0.4031201899051666,0.056987859308719635,9.785576820373535,-0.0008540179600696353,0.010189877468726351,0.0025944190246645436,3.385887622833252,2019-06-18 15:57:39:199
0.3671989440917969,0.11685659736394882,9.76402473449707,0.002209365202262191,0.011388593323100838,-0.004731062504187783,3.389984130859375,2019-06-18 15:57:39:203
0.34804093837738037,0.04022461175918579,9.790366172790527,-0.0017863519716505025,0.009657115213547902,0.003393562667506543,3.395876407623291,2019-06-18 15:57:39:209
0.364804208278656,0.07614585757255554,9.730497360229492,0.0007442689355028748,0.006993303937655657,0.0017952757719340324,3.3999924659729004,2019-06-18 15:57:39:213
0.3839621841907501,0.04740886017680168,9.759234428405762,0.003141699148824477,0.0011329190006555533,0.0007297511315399715,3.4058804512023926,2019-06-18 15:57:39:219
0.4055149257183075,0.11446185410022736,9.80473518371582,0.0010106500630920993,0.006993303937655657,-0.00486425280790807,3.409987449645996,2019-06-18 15:57:39:223
0.4055149257183075,0.07135635614395142,9.742471694946289,0.006471463243689784,0.006060970251167696,-0.0012681074554163755,3.415893077850342,2019-06-18 15:57:39:229
0.37438318133354187,0.07614585757255554,9.785576820373535,0.00021150663156048962,0.008991162654649167,0.003393562667506543,3.4208855628967285,2019-06-18 15:57:39:234
0.379172682762146,0.11206710338592529,9.811919212341309,-0.0007208273962750229,0.010189877468726351,0.0003301794401561345,3.424987316131592,2019-06-18 15:57:39:238
0.4126991927623749,0.06896160542964935,9.802340507507324,0.0024757463298514157,0.009257544302387042,-0.002999584914783498,3.430881977081299,2019-06-18 15:57:39:244
0.34804093837738037,0.06656685471534729,9.761629104614258,0.0010106500630920993,0.01418559490271337,0.002461228460869931,3.434988021850586,2019-06-18 15:57:39:248
0.364804208278656,0.10967235267162323,9.831077575683594,0.0038076519677975387,0.005794589123578471,0.000996132259129196,3.44089937210083,2019-06-18 15:57:39:254
0.37438318133354187,0.12883034348487854,9.80473518371582,0.006338272939969498,0.004063111534174186,0.004592277481583728,3.444990634918213,2019-06-18 15:57:39:258
0.32409346103668213,0.05219835788011551,9.785576820373535,0.0032748897126190896,0.008591591223339655,0.0011293228229238084,3.450894832611084,2019-06-18 15:57:39:264
0.36959367990493774,0.09290910512208939,9.76402473449707,0.00154341238328913,0.011521783626821125,0.0012625133867184206,3.454987049102783,2019-06-18 15:57:39:268
0.3576199412345886,0.07135635614395142,9.809524536132812,0.0018097935108783545,0.009124352958369454,-0.0015344885830056003,3.4608969688415527,2019-06-18 15:57:39:274
0.3408567011356354,0.09051435440778732,9.828682899475098,0.006338272939969498,0.009390734606107327,0.0011293228229238084,3.464996814727783,2019-06-18 15:57:39:278
0.364804208278656,0.09051435440778732,9.811919212341309,0.004074033095386763,0.006726922810066432,0.004192706050274216,3.4699902534484863,2019-06-18 15:57:39:283
0.2929617166519165,0.08333010226488113,9.730497360229492,0.0008774594992974871,0.008857972350928878,0.004192706050274216,3.4749879837036133,2019-06-18 15:57:39:288
0.34804093837738037,0.035435110330581665,9.814313888549805,-0.00018806509233263786,0.007526066192834106,0.000996132259129196,3.480879306793213,2019-06-18 15:57:39:294
0.3408567011356354,0.030645612627267838,9.787971496582031,0.0008774594992974871,0.009523924909827616,0.004325896614068829,3.4858994483947754,2019-06-18 15:57:39:299
0.319303959608078,0.08333010226488113,9.768814086914062,-0.0008540179600696353,0.003530349278995737,0.0012625133867184206,3.489988327026367,2019-06-18 15:57:39:303
0.326488196849823,0.05219835788011551,9.797551155090332,0.0027421274574406405,0.00979030655756549,-0.003399156606167335,3.495879650115967,2019-06-18 15:57:39:309
0.3145144581794739,0.06896160542964935,9.795156478881836,0.0014102218194945173,0.007526066192834106,0.002328037897075319,3.4999890327453613,2019-06-18 15:57:39:313
0.333672434091568,0.08333010226488113,9.80473518371582,0.0030085085850298653,0.00979030655756549,0.0004633700039507468,3.5049920082092285,2019-06-18 15:57:39:318
0.3001459538936615,0.07614585757255554,9.778392791748047,0.0034080802764137014,0.009657115213547902,0.0029939909761227054,3.510892868041992,2019-06-18 15:57:39:324
0.326488196849823,0.06656685471534729,9.80473518371582,0.0012770312556999051,0.01125540197908325,-0.0012681074554163755,3.5149893760681152,2019-06-18 15:57:39:328
0.29775121808052063,0.03782986104488373,9.740077018737793,0.0008774594992974871,0.008857972350928878,0.003793134358890379,3.519988536834717,2019-06-18 15:57:39:333
0.3073301911354065,0.07614585757255554,9.7352876663208,0.0019429840746729666,0.01232092752973745,0.0019284663357286445,3.525880813598633,2019-06-18 15:57:39:339
0.2929617166519165,0.08093535900115967,9.744866371154785,0.0004778877754043595,0.00632735137875692,-0.001934060274389437,3.530003070831299,2019-06-18 15:57:39:343
0.26422470808029175,0.07135635614395142,9.766419410705566,0.004074033095386763,0.010189877468726351,0.0003301794401561345,3.5358848571777344,2019-06-18 15:57:39:349
0.29056695103645325,0.05219835788011551,9.7352876663208,0.005672319860922111,0.007792447840571981,0.003659943795095767,3.5399856567382812,2019-06-18 15:57:39:353
0.280987948179245,0.05219835788011551,9.792760848999023,0.0003446972116097473,0.005528207995989247,-0.0006021545714247328,3.5458784103393555,2019-06-18 15:57:39:359
0.2690142095088959,0.021066613495349884,9.797551155090332,0.005405938733332886,0.007126494761524595,-0.0020672508381840496,3.5500845909118652,2019-06-18 15:57:39:363
0.2857774496078491,0.049803610891103745,9.792760848999023,0.0030085085850298653,0.005128636044531084,-0.0010017262628085697,3.5558981895446777,2019-06-18 15:57:39:369
0.2857774496078491,0.049803610891103745,9.797551155090332,0.002076174638467579,0.009923496861285777,-0.0037987282975511715,3.559985637664795,2019-06-18 15:57:39:373
0.2785932123661041,0.028250861912965775,9.807129859924316,0.004074033095386763,0.009257544302387042,-0.0020672508381840496,3.5649871826171875,2019-06-18 15:57:39:378
0.280987948179245,0.056987859308719635,9.799945831298828,0.0010106500630920993,0.00686011363393537,-0.0014012980192109879,3.5699944496154785,2019-06-18 15:57:39:383
0.2929617166519165,0.0593826100230217,9.792760848999023,-0.004982925762795523,0.005128636044531084,0.001528894514307645,3.5758838653564453,2019-06-18 15:57:39:389
0.29775121808052063,0.0593826100230217,9.778392791748047,0.0024757463298514157,0.01218773618571986,0.002061656899523257,3.579993724822998,2019-06-18 15:57:39:393
0.30254068970680237,0.056987859308719635,9.761629104614258,0.0072706071466061084,0.010056687165006064,0.0027276098485334807,3.585876941680908,2019-06-18 15:57:39:399
0.28338271379470825,0.01867186278104782,9.869393348693848,-0.0009872085238642476,0.007392875889113818,0.0021948473332807066,3.589993476867676,2019-06-18 15:57:39:403
0.280987948179245,0.049803610891103745,9.783182144165039,-5.487451634704159e-05,0.008724781527059942,-0.0018008697105948246,3.595888614654541,2019-06-18 15:57:39:409
0.30972495675086975,0.04022461175918579,9.7352876663208,7.831605963855469e-05,0.010456259116464226,0.002061656899523257,3.599992275238037,2019-06-18 15:57:39:413
0.2881722152233124,0.009092864580452442,9.761629104614258,0.0003446972116097473,0.010056687165006064,-6.939229186431566e-05,3.604989528656006,2019-06-18 15:57:39:418
0.32169869542121887,0.06417210400104523,9.807129859924316,0.00021150663156048962,0.008857972350928878,0.003926324922684992,3.610881805419922,2019-06-18 15:57:39:424
