ACCELEROMETER X (m/s²),ACCELEROMETER Y (m/s²),ACCELEROMETER Z (m/s²),GYROSCOPE X (rad/s),GYROSCOPE Y (rad/s),GYROSCOPE Z (rad/s),Time since start in ms ,YYYY-MO-DD HH-MI-SS_SSS
-0.04469800367951393,-0.048381127417087555,9.811919212341309,0.0012770312556999051,0.008192019271881493,0.0029939909761227054,0.0,2019-06-18 14:51:12:724
-0.07582975178956985,-0.02443363144993782,9.797551155090332,-0.0003212556723818955,0.0024648247686388392,-0.0041982999889350085,0.004138469696044922,2019-06-18 14:51:12:728
-0.06864549964666367,-0.05796012654900551,9.80473518371582,0.003541270840208314,0.003397158715201125,-0.0003357734438355082,0.010008811950683594,2019-06-18 14:51:12:734
-0.032724253833293915,-0.06753912568092346,9.761629104614258,0.0006110783717082625,0.002864396460022676,0.0035267532313011545,0.015043258666992188,2019-06-18 14:51:12:739
-0.04469800367951393,-0.05796012654900551,9.831077575683594,-0.0017863519716505025,0.005661398299709534,-0.0006021545714247328,0.019134998321533203,2019-06-18 14:51:12:743
-0.04469800367951393,-0.06274962425231934,9.809524536132812,0.004074033095386763,0.0023316342048442266,0.00326037210371193,0.025003910064697266,2019-06-18 14:51:12:749
-0.032724253833293915,-0.03161787986755371,9.855024337768555,-0.0008540179600696353,0.004595873789352636,-0.0016676791468002124,0.029118061065673828,2019-06-18 14:51:12:753
-0.05188225209712982,-0.029223131015896797,9.766419410705566,0.0008774594992974871,0.004462683485632349,-0.0014012980192109879,0.03500699996948242,2019-06-18 14:51:12:759
-0.006382008083164692,-0.06035487726330757,9.83347225189209,0.0026089368936460283,0.005794589123578471,-0.0004689640076301205,0.040003299713134766,2019-06-18 14:51:12:764
-0.05906650051474571,-0.055565375834703445,9.787971496582031,0.0030085085850298653,0.0053950171721203095,0.0008629416953345836,0.04411935806274414,2019-06-18 14:51:12:768
-0.0039872583001852036,-0.05317062884569168,9.811919212341309,-0.0005876368324804107,0.0020652529472178394,-0.0012681074554163755,0.049999237060546875,2019-06-18 14:51:12:774
-0.027934754267334938,-0.03640738129615784,9.799945831298828,-0.0013867802802666658,-6.579614257819981e-05,0.001528894514307645,0.05500936508178711,2019-06-18 14:51:12:779
-0.0039872583001852036,-0.034012630581855774,9.80473518371582,-0.002452304790623564,0.00686011363393537,0.003659943795095767,0.060030460357666016,2019-06-18 14:51:12:784
-0.05906650051474571,-0.0388021282851696,9.792760848999023,-0.0009872085238642476,0.0032639681514065122,-0.0014012980192109879,0.06413078308105469,2019-06-18 14:51:12:788
-0.04230325296521187,-0.026828380301594734,9.8167085647583,0.0012770312556999051,0.005661398299709534,-6.939229186431566e-05,0.07000255584716797,2019-06-18 14:51:12:794
-0.03751375526189804,-0.05317062884569168,9.80473518371582,0.0003446972116097473,0.0053950171721203095,0.0029939909761227054,0.07500505447387695,2019-06-18 14:51:12:799
-0.04948750138282776,-0.0388021282851696,9.759234428405762,-0.0011203991526774412,0.005927779427298759,-0.0010017262628085697,0.0800013542175293,2019-06-18 14:51:12:804
-0.054277002811431885,-0.08909187465906143,9.723313331604004,-5.487451634704159e-05,0.0016656812558340024,0.0012625133867184206,0.08411836624145508,2019-06-18 14:51:12:808
-0.039908502250909805,-0.048381127417087555,9.747261047363281,-0.00045444623617650777,-0.00019898671856379607,0.003659943795095767,0.08999776840209961,2019-06-18 14:51:12:814
-0.04230325296521187,-0.05796012654900551,9.771208763122559,-0.0011203991526774412,0.00486225491694186,0.0005965605677453591,0.09501028060913086,2019-06-18 14:51:12:819
-0.02314525656402111,-0.041196878999471664,9.787971496582031,-0.0025854953544181764,0.0053950171721203095,0.006190564767267726,0.1000223159790039,2019-06-18 14:51:12:824
-0.032724253833293915,-0.03161787986755371,9.752050399780273,-0.0036510198647750746,0.008591591223339655,-0.0016676791468002124,0.10502958297729492,2019-06-18 14:51:12:829
-0.027934754267334938,-0.026828380301594734,9.8167085647583,0.0014102218194945173,0.002997587023817288,-0.0003357734438355082,0.10912179946899414,2019-06-18 14:51:12:833
-0.0039872583001852036,-0.0651443749666214,9.823892593383789,-0.0003212556723818955,0.00033377558537858905,0.0003301794401561345,0.1150059700012207,2019-06-18 14:51:12:839
-0.047092754393815994,-0.0651443749666214,9.843050956726074,0.002076174638467579,0.004196302097968799,-0.00020258286378625062,0.12000417709350586,2019-06-18 14:51:12:844
-0.027934754267334938,-0.06274962425231934,9.77599811553955,0.0007442689355028748,0.004462683485632349,0.0021948473332807066,0.12411928176879883,2019-06-18 14:51:12:848
-0.047092754393815994,-0.06035487726330757,9.814313888549805,0.0004778877754043595,0.0039299209703795735,0.00326037210371193,0.12999773025512695,2019-06-18 14:51:12:854
0.0008022411493584514,-0.04359162971377373,9.759234428405762,0.0006110783717082625,-6.579614257819981e-05,0.0013957039505130327,0.13411569595336914,2019-06-18 14:51:12:858
-0.04948750138282776,-0.0651443749666214,9.759234428405762,0.004473605046844925,0.0076592570167030435,0.005391421384500052,0.14002466201782227,2019-06-18 14:51:12:864
-0.06864549964666367,-0.05077587813138962,9.773603439331055,0.0010106500630920993,0.00486225491694186,0.0035267532313011545,0.14413070678710938,2019-06-18 14:51:12:868
-0.07343500107526779,-0.0388021282851696,9.850234985351562,0.0004778877754043595,0.004729064613221573,0.0027276098485334807,0.15000009536743164,2019-06-18 14:51:12:874
-0.02314525656402111,-0.0388021282851696,9.823892593383789,-0.0013867802802666658,0.007126494761524595,0.003926324922684992,0.15413427352905273,2019-06-18 14:51:12:878
-0.0662507489323616,-0.05796012654900551,9.787971496582031,-0.0009872085238642476,0.0012661095644501657,0.0003301794401561345,0.160003662109375,2019-06-18 14:51:12:884
-0.047092754393815994,-0.04359162971377373,9.799945831298828,-0.004183782119953524,0.00033377558537858905,0.0011293228229238084,0.1650071144104004,2019-06-18 14:51:12:889
-0.02314525656402111,-0.048381127417087555,9.768814086914062,0.004340414222975988,0.004329492661763411,0.001528894514307645,0.16911840438842773,2019-06-18 14:51:12:893
-0.05906650051474571,-0.048381127417087555,9.780787467956543,0.0003446972116097473,0.00686011363393537,0.0007297511315399715,0.17500066757202148,2019-06-18 14:51:12:899
-0.03751375526189804,-0.05796012654900551,9.823892593383789,0.0018097935108783545,0.006060970251167696,0.001528894514307645,0.17911672592163086,2019-06-18 14:51:12:903
-0.05667174980044365,-0.03161787986755371,9.797551155090332,0.0012770312556999051,-6.579614257819981e-05,0.0017952757719340324,0.18500566482543945,2019-06-18 14:51:12:909
-0.039908502250909805,-0.05317062884569168,9.773603439331055,-0.0007208273962750229,0.005128636044531084,0.00499184943304189,0.18912458419799805,2019-06-18 14:51:12:913
-0.020750505849719048,-0.04359162971377373,9.783182144165039,0.0004778877754043595,0.003397158715201125,0.002328037897075319,0.19501256942749023,2019-06-18 14:51:12:919
-0.039908502250909805,-0.022038880735635757,9.766419410705566,0.0032748897126190896,0.004595873789352636,-0.0018008697105948246,0.19913482666015625,2019-06-18 14:51:12:923
-0.05667174980044365,-0.06753912568092346,9.740077018737793,0.0006110783717082625,0.004462683485632349,-0.004331490552729621,0.20502424240112305,2019-06-18 14:51:12:929
-0.05667174980044365,-0.048381127417087555,9.792760848999023,0.0032748897126190896,0.0007333473092717165,0.003659943795095767,0.2091202735900879,2019-06-18 14:51:12:933
-0.09019824862480164,-0.04359162971377373,9.84544563293457,-0.0040505915561589115,0.0024648247686388392,0.0005965605677453591,0.21500444412231445,2019-06-18 14:51:12:939
-0.06864549964666367,-0.04598637670278549,9.797551155090332,0.0006110783717082625,-0.00046536786240766596,0.002061656899523257,0.21912050247192383,2019-06-18 14:51:12:943
-0.06864549964666367,-0.026828380301594734,9.8167085647583,-0.0007208273962750229,0.003530349278995737,-0.0031327754785781103,0.22499990463256836,2019-06-18 14:51:12:949
-0.030329504981637,-0.055565375834703445,9.814313888549805,0.005405938733332886,0.003397158715201125,0.0029939909761227054,0.22911977767944336,2019-06-18 14:51:12:953
-0.03751375526189804,-0.055565375834703445,9.787971496582031,-0.002452304790623564,0.0039299209703795735,0.0008629416953345836,0.23500585556030273,2019-06-18 14:51:12:959
-0.032724253833293915,-0.05317062884569168,9.792760848999023,0.0014102218194945173,0.006993303937655657,0.0011293228229238084,0.2400212287902832,2019-06-18 14:51:12:964
-0.047092754393815994,-0.048381127417087555,9.759234428405762,0.004074033095386763,0.004063111534174186,-0.0010017262628085697,0.24501514434814453,2019-06-18 14:51:12:969
-0.07822450250387192,-0.029223131015896797,9.787971496582031,0.0026089368936460283,0.005261826868400022,0.0005965605677453591,0.250002384185791,2019-06-18 14:51:12:974
-0.07822450250387192,-0.041196878999471664,9.780787467956543,0.0012770312556999051,0.0012661095644501657,0.0007297511315399715,0.2550067901611328,2019-06-18 14:51:12:979
-0.03511900454759598,-0.014854632318019867,9.785576820373535,0.0026089368936460283,0.003530349278995737,0.0027276098485334807,0.26000452041625977,2019-06-18 14:51:12:984
-0.054277002811431885,-0.04359162971377373,9.8167085647583,0.001676602947083742,0.004595873789352636,-0.0014012980192109879,0.2650032043457031,2019-06-18 14:51:12:989
-0.04948750138282776,-0.07232862710952759,9.83347225189209,0.0007442689355028748,0.0012661095644501657,0.002328037897075319,0.2700004577636719,2019-06-18 14:51:12:994
-0.030329504981637,-0.022038880735635757,9.756839752197266,0.0014102218194945173,-0.0013977018414792427,0.002860800412328093,0.275026798248291,2019-06-18 14:51:12:999
-0.06864549964666367,-0.04598637670278549,9.811919212341309,0.0010106500630920993,-0.0012645112776846303,-0.0003357734438355082,0.27912092208862305,2019-06-18 14:51:13:003
-0.07343500107526779,-0.05317062884569168,9.821497917175293,0.0028753180212352527,0.0012661095644501657,0.0019284663357286445,0.28500795364379883,2019-06-18 14:51:13:009
-0.027934754267334938,-0.06274962425231934,9.783182144165039,0.00154341238328913,0.0049954457408107975,0.002328037897075319,0.2891221046447754,2019-06-18 14:51:13:013
-0.04948750138282776,-0.05077587813138962,9.80473518371582,0.0018097935108783545,0.0009997284368609412,-0.0015344885830056003,0.29500389099121094,2019-06-18 14:51:13:019
-0.047092754393815994,-0.02443363144993782,9.773603439331055,0.0003446972116097473,0.004063111534174186,0.0029939909761227054,0.2991189956665039,2019-06-18 14:51:13:023
-0.0662507489323616,-0.01724938116967678,9.807129859924316,-0.0015199708440612782,0.0024648247686388392,-0.003399156606167335,0.3050045967102051,2019-06-18 14:51:13:029
-0.05188225209712982,-0.019644131883978844,9.80473518371582,0.0024757463298514157,0.0039299209703795735,0.002061656899523257,0.30911874771118164,2019-06-18 14:51:13:033
-0.047092754393815994,-0.048381127417087555,9.795156478881836,-0.00018806509233263786,0.002997587023817288,0.0001969888601068769,0.31500768661499023,2019-06-18 14:51:13:039
-0.04948750138282776,-0.026828380301594734,9.780787467956543,0.0010106500630920993,0.0007333473092717165,0.0012625133867184206,0.3191394805908203,2019-06-18 14:51:13:043
-0.05188225209712982,-0.05796012654900551,9.802340507507324,-0.0037842104285696868,0.001399300128244778,-0.0023336320958104364,0.32500362396240234,2019-06-18 14:51:13:049
-0.0039872583001852036,-0.03161787986755371,9.752050399780273,0.001676602947083742,0.0039299209703795735,0.004192706050274216,0.32912778854370117,2019-06-18 14:51:13:053
-0.01596100628376007,-0.05077587813138962,9.80473518371582,-0.0020527330992397273,0.0061941605548879826,0.005125040256910827,0.3350052833557129,2019-06-18 14:51:13:059
-0.04948750138282776,-0.0843023732304573,9.787971496582031,-0.0008540179600696353,0.004729064613221573,-0.001934060274389437,0.33911895751953125,2019-06-18 14:51:13:063
-0.04469800367951393,-0.06274962425231934,9.828682899475098,0.005672319860922111,0.0020652529472178394,0.006590136198577237,0.3450040817260742,2019-06-18 14:51:13:069
-0.011171507649123669,-0.019644131883978844,9.75444507598877,0.00154341238328913,0.00632735137875692,-0.0006021545714247328,0.3491215705871582,2019-06-18 14:51:13:073
-0.02314525656402111,-0.06753912568092346,9.792760848999023,0.0018097935108783545,0.006593732506346145,0.0027276098485334807,0.3549990653991699,2019-06-18 14:51:13:079
-0.00877675786614418,-0.06753912568092346,9.802340507507324,0.0004778877754043595,0.005927779427298759,0.0003301794401561345,0.3591189384460449,2019-06-18 14:51:13:083
0.02714448794722557,-0.02443363144993782,9.792760848999023,-0.0003212556723818955,0.001798871819628615,-0.0008685356990139574,0.36501646041870117,2019-06-18 14:51:13:089
-0.006382008083164692,-0.06035487726330757,9.823892593383789,0.0004778877754043595,0.0032639681514065122,0.0031271815399173176,0.36912059783935547,2019-06-18 14:51:13:093
-0.020750505849719048,-0.08909187465906143,9.819103240966797,0.0036744614040029266,0.00686011363393537,0.002328037897075319,0.37500429153442383,2019-06-18 14:51:13:099
-0.06864549964666367,-0.06274962425231934,9.811919212341309,-0.0003212556723818955,0.0004669661491732013,-0.0016676791468002124,0.3791232109069824,2019-06-18 14:51:13:103
-0.0015925085172057152,-0.0651443749666214,9.809524536132812,-5.487451634704159e-05,0.0004669661491732013,0.00166208520813942,0.3850064277648926,2019-06-18 14:51:13:109
-0.020750505849719048,-0.06753912568092346,9.77599811553955,0.0026089368936460283,0.00486225491694186,0.0031271815399173176,0.38911962509155273,2019-06-18 14:51:13:113
0.003196990815922618,-0.026828380301594734,9.835866928100586,-5.487451634704159e-05,0.0031307775876119005,0.0027276098485334807,0.3950009346008301,2019-06-18 14:51:13:119
0.010381239466369152,-0.055565375834703445,9.792760848999023,0.003940842531592151,0.0036635398427903496,-0.0015344885830056003,0.3991208076477051,2019-06-18 14:51:13:123
-0.020750505849719048,-0.07232862710952759,9.8167085647583,-0.00018806509233263786,0.0049954457408107975,0.0021948473332807066,0.40503454208374023,2019-06-18 14:51:13:129
-0.011171507649123669,-0.08909187465906143,9.780787467956543,0.0034080802764137014,0.0012661095644501657,0.0005965605677453591,0.4091324806213379,2019-06-18 14:51:13:133
-0.018355756998062134,-0.00048613420221954584,9.737682342529297,0.002076174638467579,0.0019320623834232272,-0.001934060274389437,0.41500282287597656,2019-06-18 14:51:13:139
-0.020750505849719048,-0.08190762251615524,9.785576820373535,0.002076174638467579,0.005927779427298759,0.0019284663357286445,0.4191279411315918,2019-06-18 14:51:13:143
-0.025540005415678024,-0.05796012654900551,9.821497917175293,-0.0016531614078558903,0.0039299209703795735,0.0021948473332807066,0.4250059127807617,2019-06-18 14:51:13:149
-0.01596100628376007,-0.07472337782382965,9.759234428405762,0.0008774594992974871,0.0012661095644501657,-0.000735345135219345,0.4291200637817383,2019-06-18 14:51:13:153
0.01277598924934864,-0.03640738129615784,9.771208763122559,0.0027421274574406405,0.004595873789352636,0.0017952757719340324,0.43500518798828125,2019-06-18 14:51:13:159
-0.039908502250909805,-0.05796012654900551,9.799945831298828,0.00021150663156048962,0.0021984436410496144,-0.0008685356990139574,0.4391188621520996,2019-06-18 14:51:13:163
-0.018355756998062134,-0.05317062884569168,9.83347225189209,-0.0003212556723818955,0.00486225491694186,0.0012625133867184206,0.44500160217285156,2019-06-18 14:51:13:169
-0.020750505849719048,-0.0388021282851696,9.792760848999023,0.0003446972116097473,0.004063111534174186,-0.000735345135219345,0.450014591217041,2019-06-18 14:51:13:174
-0.00877675786614418,-0.014854632318019867,9.797551155090332,0.003141699148824477,0.0020652529472178394,0.0013957039505130327,0.4541287422180176,2019-06-18 14:51:13:178
0.0008022411493584514,-0.0651443749666214,9.759234428405762,0.0012770312556999051,0.0025980153324334514,0.0004633700039507468,0.46000146865844727,2019-06-18 14:51:13:184
0.0008022411493584514,-0.04598637670278549,9.76402473449707,0.0030085085850298653,-0.000598558458711569,-0.0020672508381840496,0.46411991119384766,2019-06-18 14:51:13:188
-0.03751375526189804,-0.06753912568092346,9.783182144165039,-0.003917400992364299,6.739442934373515e-05,0.001528894514307645,0.470001220703125,2019-06-18 14:51:13:194
-0.006382008083164692,-0.034012630581855774,9.787971496582031,-0.0003212556723818955,0.0020652529472178394,-0.004065109425140397,0.47412109375,2019-06-18 14:51:13:198
0.007986490614712238,-0.0028808838687837124,9.840656280517578,-0.00045444623617650777,0.0016656812558340024,0.0005965605677453591,0.47913217544555664,2019-06-18 14:51:13:203
-0.039908502250909805,-0.03161787986755371,9.823892593383789,0.003541270840208314,0.003530349278995737,0.003659943795095767,0.48500490188598633,2019-06-18 14:51:13:209
0.010381239466369152,-0.01724938116967678,9.802340507507324,-0.0013867802802666658,0.003796730406584962,6.379828412128062e-05,0.4891195297241211,2019-06-18 14:51:13:213
-0.03511900454759598,-0.0388021282851696,9.799945831298828,0.0018097935108783545,0.003397158715201125,0.0013957039505130327,0.4950108528137207,2019-06-18 14:51:13:219
-0.047092754393815994,-0.05077587813138962,9.778392791748047,-0.0021859236630343394,0.004729064613221573,-0.0008685356990139574,0.5000081062316895,2019-06-18 14:51:13:224
-0.06385599821805954,-0.05317062884569168,9.802340507507324,0.0007442689355028748,0.0021984436410496144,0.0035267532313011545,0.5041136741638184,2019-06-18 14:51:13:228
-0.05667174980044365,-0.03640738129615784,9.768814086914062,7.831605963855469e-05,0.005661398299709534,0.0025944190246645436,0.5091300010681152,2019-06-18 14:51:13:233
-0.061461251229047775,-0.06753912568092346,9.766419410705566,0.0004778877754043595,0.005128636044531084,0.0011293228229238084,0.5150036811828613,2019-06-18 14:51:13:239
-0.02314525656402111,-0.03161787986755371,9.802340507507324,-0.00018806509233263786,0.0020652529472178394,0.0029939909761227054,0.5200047492980957,2019-06-18 14:51:13:244
-0.027934754267334938,-0.005275633651763201,9.780787467956543,0.0032748897126190896,0.0012661095644501657,0.002860800412328093,0.5250277519226074,2019-06-18 14:51:13:249
-0.061461251229047775,-0.06035487726330757,9.730497360229492,0.0007442689355028748,0.0012661095644501657,0.0003301794401561345,0.5292568206787109,2019-06-18 14:51:13:253
-0.07582975178956985,-0.02443363144993782,9.814313888549805,0.005139557605743661,0.004196302097968799,-0.0006021545714247328,0.5341429710388184,2019-06-18 14:51:13:258
-0.10217199474573135,-0.041196878999471664,9.76402473449707,0.004207223659181376,0.004595873789352636,0.00326037210371193,0.5400071144104004,2019-06-18 14:51:13:264
-0.05906650051474571,-0.0651443749666214,9.83347225189209,0.002076174638467579,-0.0008649395863007935,0.0029939909761227054,0.544121265411377,2019-06-18 14:51:13:268
-0.061461251229047775,-0.05796012654900551,9.783182144165039,-0.0017863519716505025,0.0019320623834232272,0.0005965605677453591,0.5500035285949707,2019-06-18 14:51:13:274
-0.0925929993391037,-0.01006513275206089,9.86220932006836,0.0028753180212352527,0.0011329190006555533,0.006856517326166462,0.5541195869445801,2019-06-18 14:51:13:278
-0.06864549964666367,-0.04598637670278549,9.86220932006836,-0.0003212556723818955,0.0049954457408107975,-0.0010017262628085697,0.5600008964538574,2019-06-18 14:51:13:284
-0.05188225209712982,-0.014854632318019867,9.761629104614258,0.0024757463298514157,0.004329492661763411,0.0007297511315399715,0.5641188621520996,2019-06-18 14:51:13:288
-0.027934754267334938,-0.022038880735635757,9.77599811553955,0.003141699148824477,0.0012661095644501657,-0.004331490552729621,0.5700163841247559,2019-06-18 14:51:13:294
-0.0662507489323616,-0.03640738129615784,9.871788024902344,-0.002452304790623564,0.0016656812558340024,0.0008629416953345836,0.574120044708252,2019-06-18 14:51:13:298
-0.08301399648189545,-0.029223131015896797,9.783182144165039,0.0008774594992974871,0.00686011363393537,0.0027276098485334807,0.5800004005432129,2019-06-18 14:51:13:304
-0.07104025036096573,-0.02443363144993782,9.783182144165039,0.00021150663156048962,0.004462683485632349,0.00326037210371193,0.585026741027832,2019-06-18 14:51:13:309
-0.061461251229047775,-0.06274962425231934,9.768814086914062,-0.0008540179600696353,0.0015324906920393903,-0.0006021545714247328,0.5891213417053223,2019-06-18 14:51:13:313
-0.04948750138282776,-0.048381127417087555,9.740077018737793,-0.0008540179600696353,0.005661398299709534,0.002328037897075319,0.5950074195861816,2019-06-18 14:51:13:319
-0.05188225209712982,-0.041196878999471664,9.744866371154785,-0.004450163507617074,0.0024648247686388392,0.003659943795095767,0.5991215705871582,2019-06-18 14:51:13:323
-0.04469800367951393,-0.034012630581855774,9.819103240966797,-0.0028518764820074007,0.004329492661763411,-0.005130633935497294,0.6050009727478027,2019-06-18 14:51:13:329
-0.09019824862480164,-0.05796012654900551,9.828682899475098,0.0028753180212352527,0.004196302097968799,-0.0024668226596050486,0.6100258827209473,2019-06-18 14:51:13:334
-0.04948750138282776,-0.01724938116967678,9.828682899475098,0.0010106500630920993,0.003796730406584962,-0.0008685356990139574,0.6150164604187012,2019-06-18 14:51:13:339
-0.05188225209712982,-0.03161787986755371,9.809524536132812,0.0014102218194945173,0.0025980153324334514,-0.0072616829562110905,0.6200013160705566,2019-06-18 14:51:13:344
-0.08301399648189545,-0.019644131883978844,9.792760848999023,0.0018097935108783545,0.003530349278995737,-0.0018008697105948246,0.624117374420166,2019-06-18 14:51:13:348
-0.03511900454759598,-0.04598637670278549,9.823892593383789,0.004074033095386763,0.004196302097968799,-0.0024668226596050486,0.6300177574157715,2019-06-18 14:51:13:354
-0.08301399648189545,-0.02443363144993782,9.811919212341309,0.0010106500630920993,0.0039299209703795735,0.0003301794401561345,0.6341195106506348,2019-06-18 14:51:13:358
-0.08301399648189545,-0.07232862710952759,9.783182144165039,0.004207223659181376,-0.0012645112776846303,-0.0018008697105948246,0.6391167640686035,2019-06-18 14:51:13:363
-0.07104025036096573,-0.041196878999471664,9.76402473449707,0.0032748897126190896,0.0036635398427903496,0.0007297511315399715,0.6450009346008301,2019-06-18 14:51:13:369
-0.07104025036096573,-0.04598637670278549,9.766419410705566,0.0008774594992974871,0.0025980153324334514,0.0004633700039507468,0.6491208076477051,2019-06-18 14:51:13:373
-0.030329504981637,-0.07232862710952759,9.809524536132812,0.003541270840208314,0.002997587023817288,-0.0020672508381840496,0.6550078392028809,2019-06-18 14:51:13:379
-0.0662507489323616,-0.07472337782382965,9.77599811553955,-0.0020527330992397273,0.004063111534174186,0.0004633700039507468,0.6591248512268066,2019-06-18 14:51:13:383
-0.09498775005340576,-0.03640738129615784,9.780787467956543,0.0004778877754043595,0.0049954457408107975,0.0017952757719340324,0.6650071144104004,2019-06-18 14:51:13:389
-0.07343500107526779,-0.022038880735635757,9.75444507598877,0.007803369401784558,0.0020652529472178394,-0.000735345135219345,0.6700196266174316,2019-06-18 14:51:13:394
-0.06864549964666367,-0.034012630581855774,9.756839752197266,0.0010106500630920993,0.004196302097968799,-0.0036655377337565594,0.6741313934326172,2019-06-18 14:51:13:398
-0.05667174980044365,-0.06035487726330757,9.819103240966797,0.00473998617443415,0.003530349278995737,-0.002999584914783498,0.6800031661987305,2019-06-18 14:51:13:404
-0.05667174980044365,-0.06274962425231934,9.795156478881836,0.0032748897126190896,0.0015324906920393903,-0.0026000132233996607,0.684119701385498,2019-06-18 14:51:13:408
-0.05667174980044365,-0.048381127417087555,9.785576820373535,0.0036744614040029266,0.002997587023817288,0.002061656899523257,0.6899991035461426,2019-06-18 14:51:13:414
-0.04230325296521187,-0.03640738129615784,9.835866928100586,0.0008774594992974871,-6.579614257819981e-05,0.0021948473332807066,0.6941161155700684,2019-06-18 14:51:13:418
-0.05906650051474571,-0.029223131015896797,9.792760848999023,-0.0005876368324804107,0.0011329190006555533,0.004325896614068829,0.700005054473877,2019-06-18 14:51:13:424
-0.03511900454759598,-0.007670383434742689,9.77599811553955,0.0003446972116097473,0.0023316342048442266,0.0040595154864796045,0.7041220664978027,2019-06-18 14:51:13:428
-0.05906650051474571,-0.06993387639522552,9.799945831298828,-0.0020527330992397273,0.003530349278995737,0.0003301794401561345,0.7100024223327637,2019-06-18 14:51:13:434
-0.039908502250909805,-0.01006513275206089,9.807129859924316,0.0007442689355028748,0.0031307775876119005,0.0025944190246645436,0.7141284942626953,2019-06-18 14:51:13:438
-0.061461251229047775,-0.026828380301594734,9.771208763122559,-0.0007208273962750229,0.0021984436410496144,0.003659943795095767,0.7200312614440918,2019-06-18 14:51:13:444
-0.06385599821805954,-0.06274962425231934,9.807129859924316,0.001143840691905293,0.004063111534174186,0.002461228460869931,0.7241220474243164,2019-06-18 14:51:13:448
-0.027934754267334938,-0.07711812108755112,9.8167085647583,0.0014102218194945173,0.0025980153324334514,0.002061656899523257,0.7299942970275879,2019-06-18 14:51:13:454
-0.030329504981637,-0.03161787986755371,9.83347225189209,-0.0016531614078558903,0.0015324906920393903,-0.0008685356990139574,0.7341151237487793,2019-06-18 14:51:13:458
-0.0662507489323616,-0.05317062884569168,9.855024337768555,0.006338272939969498,0.008192019271881493,0.0012625133867184206,0.7400021553039551,2019-06-18 14:51:13:464
-0.03751375526189804,-0.026828380301594734,9.771208763122559,-0.0015199708440612782,0.005528207995989247,0.003926324922684992,0.7450346946716309,2019-06-18 14:51:13:469
-0.05906650051474571,-0.019644131883978844,9.799945831298828,0.005139557605743661,0.004729064613221573,0.0027276098485334807,0.7491168975830078,2019-06-18 14:51:13:473
-0.05906650051474571,-0.029223131015896797,9.811919212341309,0.0038076519677975387,0.002864396460022676,0.0021948473332807066,0.7550020217895508,2019-06-18 14:51:13:479
-0.061461251229047775,-0.05077587813138962,9.785576820373535,0.001143840691905293,0.004329492661763411,0.0012625133867184206,0.7591242790222168,2019-06-18 14:51:13:483
-0.04469800367951393,-0.0388021282851696,9.778392791748047,0.002076174638467579,0.005794589123578471,-0.0014012980192109879,0.7650237083435059,2019-06-18 14:51:13:489
-0.032724253833293915,-0.05077587813138962,9.831077575683594,-0.0007208273962750229,0.003530349278995737,0.007389279581344911,0.7691178321838379,2019-06-18 14:51:13:493
-0.0039872583001852036,-0.026828380301594734,9.790366172790527,0.004207223659181376,6.739442934373515e-05,-0.0027332037871942733,0.7750048637390137,2019-06-18 14:51:13:499
-0.013566257432103157,-0.0388021282851696,9.838261604309082,-5.487451634704159e-05,0.00486225491694186,0.0052582305606311145,0.7800097465515137,2019-06-18 14:51:13:504
-0.030329504981637,-0.022038880735635757,9.785576820373535,0.0006110783717082625,0.0036635398427903496,0.0027276098485334807,0.7841224670410156,2019-06-18 14:51:13:508
-0.03751375526189804,-0.06035487726330757,9.785576820373535,0.001143840691905293,0.004729064613221573,0.00166208520813942,0.7900214195251465,2019-06-18 14:51:13:514
-0.013566257432103157,-0.034012630581855774,9.797551155090332,-0.0021859236630343394,0.00486225491694186,-0.0012681074554163755,0.7941279411315918,2019-06-18 14:51:13:518
-0.032724253833293915,-0.06274962425231934,9.699365615844727,0.0007442689355028748,0.007259685065244881,-0.0006021545714247328,0.7999987602233887,2019-06-18 14:51:13:524
-0.047092754393815994,-0.02443363144993782,9.766419410705566,0.00021150663156048962,0.005261826868400022,0.0011293228229238084,0.8041176795959473,2019-06-18 14:51:13:528
-0.027934754267334938,-0.03161787986755371,9.77599811553955,-0.003118257609596625,0.0049954457408107975,0.0040595154864796045,0.8100237846374512,2019-06-18 14:51:13:534
-0.06864549964666367,-0.08669712394475937,9.83347225189209,0.003940842531592151,0.001399300128244778,0.0027276098485334807,0.8141264915466309,2019-06-18 14:51:13:538
-0.05188225209712982,-0.055565375834703445,9.747261047363281,-0.0013867802802666658,0.005261826868400022,0.0008629416953345836,0.8199992179870605,2019-06-18 14:51:13:544
-0.03751375526189804,-0.04359162971377373,9.814313888549805,0.0008774594992974871,0.003530349278995737,0.004725468305452665,0.8241152763366699,2019-06-18 14:51:13:548
-0.03511900454759598,-0.014854632318019867,9.823892593383789,0.0018097935108783545,0.00033377558537858905,0.0013957039505130327,0.8300051689147949,2019-06-18 14:51:13:554
-0.054277002811431885,-0.019644131883978844,9.84544563293457,0.003141699148824477,0.00686011363393537,6.379828412128062e-05,0.8350281715393066,2019-06-18 14:51:13:559
-0.06385599821805954,-0.04359162971377373,9.831077575683594,0.0003446972116097473,0.00686011363393537,-0.000735345135219345,0.8391227722167969,2019-06-18 14:51:13:563
-0.027934754267334938,-0.019644131883978844,9.811919212341309,0.001676602947083742,0.0019320623834232272,0.0029939909761227054,0.8450016975402832,2019-06-18 14:51:13:569
-0.025540005415678024,-0.06993387639522552,9.855024337768555,0.0026089368936460283,0.00486225491694186,0.0001969888601068769,0.8491392135620117,2019-06-18 14:51:13:573
-0.02314525656402111,-0.034012630581855774,9.828682899475098,0.0018097935108783545,0.00632735137875692,0.004725468305452665,0.855013370513916,2019-06-18 14:51:13:579
0.007986490614712238,-0.01724938116967678,9.843050956726074,-0.0015199708440612782,0.0032639681514065122,-0.0020672508381840496,0.8591179847717285,2019-06-18 14:51:13:583
-0.05188225209712982,-0.01724938116967678,9.823892593383789,0.0030085085850298653,0.0012661095644501657,-0.00486425280790807,0.8650045394897461,2019-06-18 14:51:13:589
-0.05188225209712982,-0.041196878999471664,9.778392791748047,-0.0036510198647750746,0.002997587023817288,0.0021948473332807066,0.8691325187683105,2019-06-18 14:51:13:593
-0.039908502250909805,-0.041196878999471664,9.792760848999023,0.005539129557201824,0.003796730406584962,0.0035267532313011545,0.8750081062316895,2019-06-18 14:51:13:599
-0.03751375526189804,-0.06274962425231934,9.780787467956543,0.0019429840746729666,0.002864396460022676,6.379828412128062e-05,0.8791184425354004,2019-06-18 14:51:13:603
-0.03751375526189804,-0.026828380301594734,9.77599811553955,-5.487451634704159e-05,0.0023316342048442266,0.0004633700039507468,0.8841409683227539,2019-06-18 14:51:13:608
-0.039908502250909805,-0.01724938116967678,9.778392791748047,0.004340414222975988,0.0061941605548879826,0.002860800412328093,0.8899984359741211,2019-06-18 14:51:13:614
-0.08061924576759338,-0.06035487726330757,9.749655723571777,0.003940842531592151,0.0019320623834232272,-0.0003357734438355082,0.8941197395324707,2019-06-18 14:51:13:618
-0.05188225209712982,-0.05317062884569168,9.80473518371582,0.006737844891427659,0.0021984436410496144,0.004325896614068829,0.8999996185302734,2019-06-18 14:51:13:624
-0.02314525656402111,-0.014854632318019867,9.802340507507324,0.002209365202262191,0.0002005850053293314,-6.939229186431566e-05,0.9041147232055664,2019-06-18 14:51:13:628
-0.01596100628376007,-0.026828380301594734,9.718523979187012,-0.0003212556723818955,0.0031307775876119005,0.0031271815399173176,0.9100251197814941,2019-06-18 14:51:13:634
-0.03751375526189804,-0.05077587813138962,9.783182144165039,0.00021150663156048962,0.0019320623834232272,0.0040595154864796045,0.91412353515625,2019-06-18 14:51:13:638
-0.04230325296521187,-0.07472337782382965,9.77599811553955,0.0024757463298514157,0.0027312058962280636,-0.0020672508381840496,0.9199967384338379,2019-06-18 14:51:13:644
-0.013566257432103157,-0.06035487726330757,9.80473518371582,0.0006110783717082625,0.004595873789352636,0.0067233270224461746,0.9241366386413574,2019-06-18 14:51:13:648
-0.05188225209712982,0.009092864580452442,9.787971496582031,0.004873176478154437,0.0016656812558340024,0.0027276098485334807,0.9300074577331543,2019-06-18 14:51:13:654
-0.047092754393815994,-0.007670383434742689,9.799945831298828,0.0024757463298514157,0.007126494761524595,0.000996132259129196,0.9341130256652832,2019-06-18 14:51:13:658
-0.08301399648189545,-0.03640738129615784,9.814313888549805,0.002076174638467579,0.0036635398427903496,0.002461228460869931,0.9391427040100098,2019-06-18 14:51:13:663
-0.061461251229047775,-0.034012630581855774,9.811919212341309,0.0018097935108783545,0.006060970251167696,-0.000735345135219345,0.9450082778930664,2019-06-18 14:51:13:669
-0.04230325296521187,-0.04598637670278549,9.821497917175293,0.005539129557201824,0.001798871819628615,0.0019284663357286445,0.9491133689880371,2019-06-18 14:51:13:673
-0.039908502250909805,-0.01006513275206089,9.799945831298828,0.003940842531592151,-0.0019304640966576916,0.0011293228229238084,0.9550013542175293,2019-06-18 14:51:13:679
-0.07582975178956985,-0.029223131015896797,9.826288223266602,0.0006110783717082625,0.002997587023817288,-0.0006021545714247328,0.9591231346130371,2019-06-18 14:51:13:683
-0.054277002811431885,-0.022038880735635757,9.807129859924316,0.0024757463298514157,-0.0009981301500954058,6.379828412128062e-05,0.9650073051452637,2019-06-18 14:51:13:689
-0.05906650051474571,-0.029223131015896797,9.783182144165039,0.0023425557660568036,0.004462683485632349,0.0040595154864796045,0.9691309928894043,2019-06-18 14:51:13:693
-0.025540005415678024,-0.05077587813138962,9.747261047363281,0.0014102218194945173,0.006060970251167696,0.0035267532313011545,0.9750123023986816,2019-06-18 14:51:13:699
-0.02314525656402111,-0.04359162971377373,9.835866928100586,0.0008774594992974871,0.0032639681514065122,-0.0011349168916217633,0.9791150093078613,2019-06-18 14:51:13:703
-0.07822450250387192,0.004303365014493465,9.814313888549805,-0.0008540179600696353,0.004462683485632349,0.0031271815399173176,0.9850249290466309,2019-06-18 14:51:13:709
-0.03511900454759598,-0.03640738129615784,9.828682899475098,-0.0005876368324804107,0.0008665378730663289,-0.000735345135219345,0.9891166687011719,2019-06-18 14:51:13:713
-0.06864549964666367,-0.0388021282851696,9.771208763122559,0.0024757463298514157,0.005261826868400022,0.006057373943398788,0.9950013160705566,2019-06-18 14:51:13:719
-0.032724253833293915,-0.05077587813138962,9.809524536132812,0.0012770312556999051,0.0053950171721203095,0.0004633700039507468,0.9991240501403809,2019-06-18 14:51:13:723
-0.039908502250909805,-0.048381127417087555,9.790366172790527,0.0018097935108783545,0.0021984436410496144,0.0019284663357286445,1.0050044059753418,2019-06-18 14:51:13:729
-0.020750505849719048,-0.005275633651763201,9.7352876663208,-0.0021859236630343394,0.0061941605548879826,-0.0006021545714247328,1.009138584136963,2019-06-18 14:51:13:733
-0.047092754393815994,-0.05077587813138962,9.780787467956543,0.0014102218194945173,0.0020652529472178394,-0.0026000132233996607,1.015058994293213,2019-06-18 14:51:13:739
-0.05667174980044365,-0.04359162971377373,9.826288223266602,0.0018097935108783545,0.0031307775876119005,-0.0003357734438355082,1.019117832183838,2019-06-18 14:51:13:743
-0.05188225209712982,-0.08909187465906143,9.847840309143066,-0.0015199708440612782,0.005528207995989247,0.0025944190246645436,1.0250186920166016,2019-06-18 14:51:13:749
-0.054277002811431885,-0.08190762251615524,9.795156478881836,0.002076174638467579,0.0049954457408107975,0.0003301794401561345,1.0291285514831543,2019-06-18 14:51:13:753
-0.05906650051474571,-0.02443363144993782,9.802340507507324,-0.00045444623617650777,0.0020652529472178394,0.000996132259129196,1.0350041389465332,2019-06-18 14:51:13:759
-0.07104025036096573,-0.04359162971377373,9.807129859924316,0.0024757463298514157,0.0031307775876119005,-0.0004689640076301205,1.0391249656677246,2019-06-18 14:51:13:763
-0.04469800367951393,-0.022038880735635757,9.795156478881836,0.0004778877754043595,0.004196302097968799,6.379828412128062e-05,1.0450048446655273,2019-06-18 14:51:13:769
-0.054277002811431885,-0.05796012654900551,9.83347225189209,-0.002452304790623564,0.003530349278995737,0.0027276098485334807,1.0491185188293457,2019-06-18 14:51:13:773
-0.054277002811431885,-0.06993387639522552,9.799945831298828,0.0026089368936460283,0.005794589123578471,-0.0018008697105948246,1.0550365447998047,2019-06-18 14:51:13:779
-0.01596100628376007,-0.06753912568092346,9.740077018737793,-0.0008540179600696353,0.003530349278995737,0.0005965605677453591,1.0591511726379395,2019-06-18 14:51:13:783
-0.05667174980044365,-0.06274962425231934,9.749655723571777,0.005405938733332886,0.006060970251167696,0.0004633700039507468,1.0650181770324707,2019-06-18 14:51:13:789
-0.06864549964666367,-0.02443363144993782,9.826288223266602,-5.487451634704159e-05,0.00686011363393537,0.0025944190246645436,1.0700163841247559,2019-06-18 14:51:13:794
-0.05188225209712982,-0.012459882535040379,9.835866928100586,-0.0007208273962750229,0.005661398299709534,-0.00486425280790807,1.0741267204284668,2019-06-18 14:51:13:798
-0.054277002811431885,-0.005275633651763201,9.807129859924316,-0.00045444623617650777,0.0019320623834232272,0.007389279581344911,1.0799956321716309,2019-06-18 14:51:13:804
-0.07582975178956985,-0.019644131883978844,9.790366172790527,0.0012770312556999051,0.006460541682477208,-0.0016676791468002124,1.0841155052185059,2019-06-18 14:51:13:808
0.0008022411493584514,-0.026828380301594734,9.795156478881836,0.0026089368936460283,0.0049954457408107975,-0.0023336320958104364,1.090003490447998,2019-06-18 14:51:13:814
-0.03751375526189804,-0.03161787986755371,9.850234985351562,-0.0040505915561589115,0.005528207995989247,-0.0012681074554163755,1.094123363494873,2019-06-18 14:51:13:818
0.005591740366071463,-0.04598637670278549,9.747261047363281,0.001676602947083742,0.008724781527059942,-0.0012681074554163755,1.1000361442565918,2019-06-18 14:51:13:824
-0.07582975178956985,-0.03640738129615784,9.819103240966797,0.0012770312556999051,0.0025980153324334514,0.00166208520813942,1.1041359901428223,2019-06-18 14:51:13:828
-0.039908502250909805,-0.03161787986755371,9.84544563293457,0.0006110783717082625,0.002864396460022676,0.001528894514307645,1.1099944114685059,2019-06-18 14:51:13:834
-0.04948750138282776,-0.06274962425231934,9.799945831298828,0.004606795350565213,0.004462683485632349,-0.000735345135219345,1.1150269508361816,2019-06-18 14:51:13:839
-0.027934754267334938,-0.041196878999471664,9.80473518371582,0.0014102218194945173,0.002997587023817288,0.0005965605677453591,1.120002269744873,2019-06-18 14:51:13:844
-0.07104025036096573,-0.06753912568092346,9.828682899475098,-0.0011203991526774412,0.005128636044531084,0.004725468305452665,1.1241140365600586,2019-06-18 14:51:13:848
-0.04469800367951393,-0.041196878999471664,9.8167085647583,-0.0012535897164720534,-0.0008649395863007935,-0.0006021545714247328,1.1300034523010254,2019-06-18 14:51:13:854
-0.04948750138282776,-0.07472337782382965,9.768814086914062,-0.0019195425354451149,0.006460541682477208,-0.0006021545714247328,1.1341228485107422,2019-06-18 14:51:13:858
-0.04469800367951393,-0.014854632318019867,9.780787467956543,-0.0017863519716505025,-0.0003321772986130537,6.379828412128062e-05,1.13999605178833,2019-06-18 14:51:13:864
-0.047092754393815994,-0.055565375834703445,9.799945831298828,0.0036744614040029266,0.006726922810066432,0.00326037210371193,1.1441426277160645,2019-06-18 14:51:13:868
-0.027934754267334938,-0.029223131015896797,9.787971496582031,0.003141699148824477,0.0020652529472178394,0.002461228460869931,1.1500048637390137,2019-06-18 14:51:13:874
-0.08540874719619751,-0.048381127417087555,9.749655723571777,0.0003446972116097473,0.006726922810066432,-0.0003357734438355082,1.1541142463684082,2019-06-18 14:51:13:878
-0.04948750138282776,-0.007670383434742689,9.84544563293457,0.00021150663156048962,0.006060970251167696,0.005391421384500052,1.160027027130127,2019-06-18 14:51:13:884
-0.032724253833293915,-0.03161787986755371,9.747261047363281,-0.0003212556723818955,-0.00019898671856379607,0.002061656899523257,1.1650190353393555,2019-06-18 14:51:13:889
-0.011171507649123669,-0.055565375834703445,9.814313888549805,0.0019429840746729666,0.003397158715201125,0.0008629416953345836,1.1691184043884277,2019-06-18 14:51:13:893
-0.027934754267334938,-0.00048613420221954584,9.783182144165039,-0.0009872085238642476,0.004462683485632349,-0.0014012980192109879,1.174999713897705,2019-06-18 14:51:13:899
-0.06864549964666367,-0.034012630581855774,9.766419410705566,0.005139557605743661,0.0024648247686388392,-0.0018008697105948246,1.179121971130371,2019-06-18 14:51:13:903
-0.032724253833293915,-0.034012630581855774,9.83347225189209,-0.0003212556723818955,0.0004669661491732013,0.002061656899523257,1.1850056648254395,2019-06-18 14:51:13:909
-0.047092754393815994,-0.026828380301594734,9.737682342529297,-0.0023191142268289516,0.0053950171721203095,0.001528894514307645,1.189277172088623,2019-06-18 14:51:13:913
-0.039908502250909805,-0.022038880735635757,9.77599811553955,0.001676602947083742,0.0027312058962280636,0.0001969888601068769,1.1950082778930664,2019-06-18 14:51:13:919
-0.04469800367951393,-0.01006513275206089,9.771208763122559,0.003141699148824477,0.005128636044531084,0.0040595154864796045,1.1991167068481445,2019-06-18 14:51:13:923
-0.011171507649123669,-0.0843023732304573,9.75444507598877,7.831605963855469e-05,0.003397158715201125,0.004725468305452665,1.205019474029541,2019-06-18 14:51:13:929
-0.039908502250909805,-0.0388021282851696,9.783182144165039,-0.0005876368324804107,0.003397158715201125,0.0007297511315399715,1.2091383934020996,2019-06-18 14:51:13:933
-0.025540005415678024,-0.06993387639522552,9.77599811553955,0.003541270840208314,0.0006001567454771042,0.004592277481583728,1.2150006294250488,2019-06-18 14:51:13:939
-0.03511900454759598,-0.01724938116967678,9.761629104614258,0.004074033095386763,0.0019320623834232272,0.0005965605677453591,1.219123363494873,2019-06-18 14:51:13:943
-0.04948750138282776,-0.029223131015896797,9.811919212341309,-0.0012535897164720534,0.0023316342048442266,0.002328037897075319,1.225003719329834,2019-06-18 14:51:13:949
-0.03511900454759598,-0.02443363144993782,9.87418270111084,-0.004450163507617074,0.002997587023817288,-0.0027332037871942733,1.2299981117248535,2019-06-18 14:51:13:954
-0.0662507489323616,-0.06993387639522552,9.847840309143066,0.0014102218194945173,0.006060970251167696,0.000996132259129196,1.2350349426269531,2019-06-18 14:51:13:959
-0.0662507489323616,-0.029223131015896797,9.831077575683594,0.0023425557660568036,0.003397158715201125,0.002061656899523257,1.2391161918640137,2019-06-18 14:51:13:963
-0.061461251229047775,-0.05077587813138962,9.823892593383789,0.0006110783717082625,0.001399300128244778,-0.0024668226596050486,1.2450871467590332,2019-06-18 14:51:13:969
-0.07822450250387192,-0.08909187465906143,9.787971496582031,-0.0003212556723818955,0.002997587023817288,-0.0004689640076301205,1.2500052452087402,2019-06-18 14:51:13:974
-0.05667174980044365,-0.0388021282851696,9.790366172790527,-0.00045444623617650777,0.0020652529472178394,0.0004633700039507468,1.2541155815124512,2019-06-18 14:51:13:978
-0.027934754267334938,-0.029223131015896797,9.744866371154785,0.002076174638467579,0.0015324906920393903,-0.0010017262628085697,1.2600054740905762,2019-06-18 14:51:13:984
-0.04948750138282776,-0.03161787986755371,9.819103240966797,0.00154341238328913,0.0053950171721203095,-0.0004689640076301205,1.2641215324401855,2019-06-18 14:51:13:988
-0.032724253833293915,-0.05317062884569168,9.771208763122559,0.001676602947083742,0.005927779427298759,0.0025944190246645436,1.2699999809265137,2019-06-18 14:51:13:994
-0.020750505849719048,-0.055565375834703445,9.838261604309082,0.00620508211610056,0.003530349278995737,0.0004633700039507468,1.2741141319274902,2019-06-18 14:51:13:998
-0.04230325296521187,-0.048381127417087555,9.768814086914062,-0.00045444623617650777,0.0024648247686388392,0.0025944190246645436,1.2791428565979004,2019-06-18 14:51:14:003
0.0008022411493584514,-0.048381127417087555,9.790366172790527,0.001676602947083742,0.0023316342048442266,0.0025944190246645436,1.2850069999694824,2019-06-18 14:51:14:009
-0.00877675786614418,-0.026828380301594734,9.752050399780273,0.006871035195147947,0.0002005850053293314,0.002328037897075319,1.289125919342041,2019-06-18 14:51:14:013
-0.030329504981637,-0.048381127417087555,9.80473518371582,0.0027421274574406405,0.0025980153324334514,0.0021948473332807066,1.2950072288513184,2019-06-18 14:51:14:019
-0.00877675786614418,-0.03640738129615784,9.742471694946289,-5.487451634704159e-05,0.0011329190006555533,0.00166208520813942,1.29911470413208,2019-06-18 14:51:14:023
-0.061461251229047775,-0.06035487726330757,9.76402473449707,0.003541270840208314,0.0008665378730663289,0.0021948473332807066,1.3049988746643066,2019-06-18 14:51:14:029
-0.04948750138282776,-0.014854632318019867,9.811919212341309,-0.0011203991526774412,0.0025980153324334514,0.0017952757719340324,1.309150218963623,2019-06-18 14:51:14:033
-0.03511900454759598,-0.007670383434742689,9.799945831298828,-0.0011203991526774412,0.002864396460022676,-0.0010017262628085697,1.3150076866149902,2019-06-18 14:51:14:039
-0.03751375526189804,-0.01724938116967678,9.759234428405762,0.0027421274574406405,0.006593732506346145,0.0011293228229238084,1.3193764686584473,2019-06-18 14:51:14:043
-0.06385599821805954,-0.005275633651763201,9.771208763122559,0.005405938733332886,0.0021984436410496144,-0.0022004415320158242,1.324136734008789,2019-06-18 14:51:14:048
-0.006382008083164692,-0.02443363144993782,9.771208763122559,-0.0003212556723818955,0.0008665378730663289,0.00166208520813942,1.3299965858459473,2019-06-18 14:51:14:054
-0.047092754393815994,-0.07232862710952759,9.790366172790527,0.00021150663156048962,0.0009997284368609412,-0.0028663943509888855,1.3350286483764648,2019-06-18 14:51:14:059
-0.04948750138282776,-0.022038880735635757,9.802340507507324,-0.004316972683748136,0.0020652529472178394,-0.004731062504187783,1.3391194343566895,2019-06-18 14:51:14:063
-0.04469800367951393,-0.0388021282851696,9.80473518371582,0.0036744614040029266,0.0031307775876119005,-0.0024668226596050486,1.3450007438659668,2019-06-18 14:51:14:069
-0.04469800367951393,-0.04359162971377373,9.795156478881836,-0.00045444623617650777,0.0004669661491732013,0.0017952757719340324,1.3491206169128418,2019-06-18 14:51:14:073
-0.018355756998062134,-0.041196878999471664,9.83347225189209,0.0010106500630920993,0.0021984436410496144,-0.0018008697105948246,1.3550033569335938,2019-06-18 14:51:14:079
0.0008022411493584514,-0.05317062884569168,9.811919212341309,-0.0007208273962750229,0.0023316342048442266,-0.0026000132233996607,1.359114646911621,2019-06-18 14:51:14:083
-0.020750505849719048,-0.04359162971377373,9.778392791748047,7.831605963855469e-05,0.00632735137875692,-0.0023336320958104364,1.3650269508361816,2019-06-18 14:51:14:089
-0.020750505849719048,-0.09627611935138702,9.742471694946289,-0.0005876368324804107,0.0019320623834232272,0.0005965605677453591,1.36912202835083,2019-06-18 14:51:14:093
-0.025540005415678024,-0.029223131015896797,9.838261604309082,0.0018097935108783545,0.0027312058962280636,0.0025944190246645436,1.375002384185791,2019-06-18 14:51:14:099
-0.061461251229047775,-0.041196878999471664,9.75444507598877,0.0026089368936460283,0.004595873789352636,-0.0014012980192109879,1.3791441917419434,2019-06-18 14:51:14:103
-0.011171507649123669,-0.05317062884569168,9.783182144165039,0.0024757463298514157,0.0031307775876119005,0.004192706050274216,1.3850064277648926,2019-06-18 14:51:14:109
-0.04230325296521187,0.0330403633415699,9.771208763122559,0.0004778877754043595,0.0027312058962280636,-0.0004689640076301205,1.3891143798828125,2019-06-18 14:51:14:113
-0.006382008083164692,-0.029223131015896797,9.783182144165039,0.0026089368936460283,0.008192019271881493,0.005924183639678501,1.3950004577636719,2019-06-18 14:51:14:119
-0.054277002811431885,-0.03640738129615784,9.723313331604004,0.0034080802764137014,0.0016656812558340024,0.0029939909761227054,1.3991246223449707,2019-06-18 14:51:14:123
-0.08540874719619751,-0.0651443749666214,9.799945831298828,-0.0003212556723818955,0.0024648247686388392,0.004325896614068829,1.4050049781799316,2019-06-18 14:51:14:129
-0.08301399648189545,-0.034012630581855774,9.811919212341309,0.0032748897126190896,0.001798871819628615,0.0011293228229238084,1.409233570098877,2019-06-18 14:51:14:133
-0.047092754393815994,-0.05317062884569168,9.778392791748047,-0.0036510198647750746,0.005261826868400022,0.000996132259129196,1.4150137901306152,2019-06-18 14:51:14:139
-0.03751375526189804,-0.022038880735635757,9.742471694946289,0.005272748429612599,0.0039299209703795735,0.0012625133867184206,1.419118881225586,2019-06-18 14:51:14:143
-0.032724253833293915,-0.01006513275206089,9.823892593383789,0.0006110783717082625,0.00486225491694186,-0.005530205886955456,1.425023078918457,2019-06-18 14:51:14:149
-0.05906650051474571,-0.055565375834703445,9.759234428405762,0.0003446972116097473,0.004196302097968799,0.0031271815399173176,1.429114818572998,2019-06-18 14:51:14:153
-0.04230325296521187,-0.041196878999471664,9.809524536132812,0.00021150663156048962,0.00486225491694186,-0.00020258286378625062,1.4350018501281738,2019-06-18 14:51:14:159
-0.03751375526189804,-0.05796012654900551,9.783182144165039,0.0030085085850298653,0.004063111534174186,0.001528894514307645,1.4391217231750488,2019-06-18 14:51:14:163
-0.0925929993391037,-0.0388021282851696,9.831077575683594,0.0028753180212352527,6.739442934373515e-05,0.0003301794401561345,1.445004940032959,2019-06-18 14:51:14:169
-0.047092754393815994,-0.012459882535040379,9.771208763122559,-0.0015199708440612782,0.003397158715201125,0.0001969888601068769,1.4491162300109863,2019-06-18 14:51:14:173
-0.03751375526189804,-0.02443363144993782,9.768814086914062,-0.0019195425354451149,0.0049954457408107975,0.003926324922684992,1.454139232635498,2019-06-18 14:51:14:178
-0.07822450250387192,-0.0388021282851696,9.756839752197266,0.0024757463298514157,0.0008665378730663289,0.0003301794401561345,1.4599971771240234,2019-06-18 14:51:14:184
-0.061461251229047775,-0.0388021282851696,9.797551155090332,0.0034080802764137014,0.005128636044531084,0.003393562667506543,1.465024471282959,2019-06-18 14:51:14:189
-0.05188225209712982,-0.00048613420221954584,9.785576820373535,0.0027421274574406405,0.0020652529472178394,0.00499184943304189,1.4691290855407715,2019-06-18 14:51:14:193
-0.04230325296521187,-0.022038880735635757,9.799945831298828,0.0027421274574406405,0.0024648247686388392,-0.0018008697105948246,1.4750027656555176,2019-06-18 14:51:14:199
-0.05906650051474571,-0.055565375834703445,9.799945831298828,0.003940842531592151,0.0027312058962280636,0.0007297511315399715,1.4791264533996582,2019-06-18 14:51:14:203
-0.0015925085172057152,-0.0388021282851696,9.840656280517578,-0.0023191142268289516,0.005261826868400022,-0.0006021545714247328,1.4850058555603027,2019-06-18 14:51:14:209
-0.011171507649123669,0.006698114797472954,9.730497360229492,0.007936559705504845,0.004462683485632349,-0.0006021545714247328,1.4891166687011719,2019-06-18 14:51:14:213
-0.027934754267334938,-0.029223131015896797,9.84544563293457,0.0006110783717082625,0.003796730406584962,6.379828412128062e-05,1.4953083992004395,2019-06-18 14:51:14:219
-0.06385599821805954,-0.04359162971377373,9.797551155090332,-0.0028518764820074007,0.004329492661763411,0.002061656899523257,1.5000214576721191,2019-06-18 14:51:14:224
-0.0925929993391037,-0.029223131015896797,9.814313888549805,7.831605963855469e-05,0.006726922810066432,0.0004633700039507468,1.5041232109069824,2019-06-18 14:51:14:228
-0.03511900454759598,0.01867186278104782,9.780787467956543,0.0034080802764137014,0.005927779427298759,0.0027276098485334807,1.5100317001342773,2019-06-18 14:51:14:234
-0.07822450250387192,-0.0651443749666214,9.768814086914062,0.003141699148824477,0.0012661095644501657,-0.0015344885830056003,1.5141253471374512,2019-06-18 14:51:14:238
-0.025540005415678024,-0.041196878999471664,9.826288223266602,0.0008774594992974871,0.007126494761524595,0.0040595154864796045,1.5199942588806152,2019-06-18 14:51:14:244
-0.05667174980044365,-0.03161787986755371,9.802340507507324,-0.0007208273962750229,0.003397158715201125,-0.0015344885830056003,1.5241165161132812,2019-06-18 14:51:14:248
-0.05667174980044365,-0.06035487726330757,9.787971496582031,0.004473605046844925,0.004063111534174186,0.001528894514307645,1.5300064086914062,2019-06-18 14:51:14:254
-0.05188225209712982,-0.048381127417087555,9.86220932006836,-0.0023191142268289516,0.0012661095644501657,-0.0008685356990139574,1.534121036529541,2019-06-18 14:51:14:258
-0.07104025036096573,-0.07711812108755112,9.8167085647583,0.0027421274574406405,0.007526066192834106,0.0012625133867184206,1.5401368141174316,2019-06-18 14:51:14:264
-0.11414574086666107,-0.05796012654900551,9.814313888549805,0.004606795350565213,0.0012661095644501657,-0.001934060274389437,1.5441384315490723,2019-06-18 14:51:14:268
-0.06385599821805954,-0.022038880735635757,9.771208763122559,-5.487451634704159e-05,0.006726922810066432,0.00166208520813942,1.549997329711914,2019-06-18 14:51:14:274
-0.09498775005340576,-0.026828380301594734,9.768814086914062,-5.487451634704159e-05,0.0049954457408107975,0.001528894514307645,1.5541415214538574,2019-06-18 14:51:14:278
-0.03751375526189804,-0.034012630581855774,9.8167085647583,0.0028753180212352527,0.00486225491694186,0.004725468305452665,1.559995174407959,2019-06-18 14:51:14:284
-0.032724253833293915,-0.019644131883978844,9.747261047363281,0.0019429840746729666,0.0012661095644501657,-0.003399156606167335,1.564115047454834,2019-06-18 14:51:14:288
-0.039908502250909805,-0.026828380301594734,9.799945831298828,0.002076174638467579,0.0032639681514065122,0.00326037210371193,1.5700035095214844,2019-06-18 14:51:14:294
-0.027934754267334938,-0.0388021282851696,9.787971496582031,0.00021150663156048962,0.002864396460022676,-0.0006021545714247328,1.5741233825683594,2019-06-18 14:51:14:298
-0.04948750138282776,-0.0388021282851696,9.77599811553955,0.0024757463298514157,0.002997587023817288,0.002461228460869931,1.5799975395202637,2019-06-18 14:51:14:304
-0.061461251229047775,-0.05077587813138962,9.785576820373535,-0.00018806509233263786,0.0032639681514065122,0.002061656899523257,1.585007667541504,2019-06-18 14:51:14:309
-0.061461251229047775,-0.03640738129615784,9.814313888549805,0.002076174638467579,0.004729064613221573,0.0007297511315399715,1.5891222953796387,2019-06-18 14:51:14:313
-0.027934754267334938,-0.029223131015896797,9.792760848999023,0.002209365202262191,0.0032639681514065122,0.005657802512089276,1.5950360298156738,2019-06-18 14:51:14:319
-0.054277002811431885,-0.04359162971377373,9.783182144165039,0.0004778877754043595,0.003397158715201125,0.002461228460869931,1.5991358757019043,2019-06-18 14:51:14:323
-0.07822450250387192,-0.026828380301594734,9.823892593383789,-0.0011203991526774412,0.003530349278995737,-0.0024668226596050486,1.6050066947937012,2019-06-18 14:51:14:329
-0.039908502250909805,-0.06035487726330757,9.790366172790527,0.00154341238328913,0.0039299209703795735,0.00645694589485695,1.6091179847717285,2019-06-18 14:51:14:333
-0.030329504981637,-0.026828380301594734,9.787971496582031,-0.0020527330992397273,6.739442934373515e-05,0.0040595154864796045,1.6150050163269043,2019-06-18 14:51:14:339
-0.03751375526189804,-0.05317062884569168,9.797551155090332,0.0024757463298514157,0.0049954457408107975,0.0008629416953345836,1.6200079917907715,2019-06-18 14:51:14:344
-0.013566257432103157,-0.10106562077999115,9.835866928100586,0.001676602947083742,0.0011329190006555533,0.0004633700039507468,1.6241202354431152,2019-06-18 14:51:14:348
-0.00877675786614418,-0.019644131883978844,9.80473518371582,-0.00045444623617650777,0.0021984436410496144,-0.000735345135219345,1.6300053596496582,2019-06-18 14:51:14:354
-0.05667174980044365,-0.03161787986755371,9.797551155090332,-0.00018806509233263786,0.002997587023817288,-0.0023336320958104364,1.6341252326965332,2019-06-18 14:51:14:358
-0.04230325296521187,-0.01724938116967678,9.799945831298828,-0.00018806509233263786,0.0031307775876119005,-0.0026000132233996607,1.6400189399719238,2019-06-18 14:51:14:364
-0.04230325296521187,-0.06993387639522552,9.799945831298828,-0.0020527330992397273,0.0076592570167030435,-0.0014012980192109879,1.6441349983215332,2019-06-18 14:51:14:368
-0.05667174980044365,-0.029223131015896797,9.75444507598877,-0.0008540179600696353,0.005261826868400022,-0.0028663943509888855,1.6499934196472168,2019-06-18 14:51:14:374
-0.0662507489323616,-0.0914866253733635,9.826288223266602,0.0030085085850298653,0.002864396460022676,0.001528894514307645,1.6541152000427246,2019-06-18 14:51:14:378
0.010381239466369152,-0.05077587813138962,9.718523979187012,-0.0007208273962750229,0.005794589123578471,0.003926324922684992,1.6600022315979004,2019-06-18 14:51:14:384
-0.025540005415678024,-0.06035487726330757,9.787971496582031,-0.0016531614078558903,0.004595873789352636,0.0005965605677453591,1.6641216278076172,2019-06-18 14:51:14:388
0.003196990815922618,-0.04598637670278549,9.828682899475098,-0.0017863519716505025,0.0023316342048442266,0.002860800412328093,1.6700067520141602,2019-06-18 14:51:14:394
-0.05188225209712982,-0.0651443749666214,9.7257080078125,-0.002452304790623564,0.005927779427298759,0.0017952757719340324,1.675039291381836,2019-06-18 14:51:14:399
-0.04469800367951393,-0.08909187465906143,9.783182144165039,-0.0015199708440612782,0.0031307775876119005,0.0029939909761227054,1.6791205406188965,2019-06-18 14:51:14:403
-0.03751375526189804,-0.04598637670278549,9.76402473449707,-0.0016531614078558903,0.0016656812558340024,0.0013957039505130327,1.6850075721740723,2019-06-18 14:51:14:409
-0.032724253833293915,-0.029223131015896797,9.799945831298828,-0.00045444623617650777,0.005794589123578471,-0.0027332037871942733,1.6891193389892578,2019-06-18 14:51:14:413
-0.05188225209712982,-0.0388021282851696,9.797551155090332,0.0019429840746729666,0.0012661095644501657,0.0004633700039507468,1.6950020790100098,2019-06-18 14:51:14:419
-0.01596100628376007,-0.048381127417087555,9.785576820373535,0.002076174638467579,0.004462683485632349,-0.002999584914783498,1.7000079154968262,2019-06-18 14:51:14:424
-0.03751375526189804,-0.04598637670278549,9.675418853759766,-0.0015199708440612782,0.0053950171721203095,6.379828412128062e-05,1.7041215896606445,2019-06-18 14:51:14:428
-0.04230325296521187,-0.0388021282851696,9.76402473449707,-0.00018806509233263786,0.004196302097968799,0.004725468305452665,1.7099957466125488,2019-06-18 14:51:14:434
-0.05188225209712982,-0.03161787986755371,9.742471694946289,0.0050063673020233745,0.005927779427298759,0.0004633700039507468,1.7150683403015137,2019-06-18 14:51:14:439
-0.039908502250909805,-0.07232862710952759,9.771208763122559,0.00154341238328913,0.0049954457408107975,0.0005965605677453591,1.7191386222839355,2019-06-18 14:51:14:443
-0.05667174980044365,-0.01006513275206089,9.823892593383789,0.0030085085850298653,0.0049954457408107975,0.0008629416953345836,1.7250065803527832,2019-06-18 14:51:14:449
-0.0662507489323616,-0.01724938116967678,9.807129859924316,0.0027421274574406405,0.0031307775876119005,0.00166208520813942,1.730095386505127,2019-06-18 14:51:14:454
-0.07343500107526779,-0.012459882535040379,9.787971496582031,0.0028753180212352527,-0.000598558458711569,-6.939229186431566e-05,1.734128475189209,2019-06-18 14:51:14:458
-0.00877675786614418,-0.02443363144993782,9.852629661560059,0.005672319860922111,0.0023316342048442266,0.0027276098485334807,1.7399964332580566,2019-06-18 14:51:14:464
-0.05667174980044365,-0.014854632318019867,9.80473518371582,0.001143840691905293,0.0032639681514065122,0.0003301794401561345,1.7441134452819824,2019-06-18 14:51:14:468
-0.02314525656402111,-0.02443363144993782,9.840656280517578,0.002209365202262191,0.004329492661763411,-0.0015344885830056003,1.7500028610229492,2019-06-18 14:51:14:474
-0.039908502250909805,-0.048381127417087555,9.807129859924316,-0.0005876368324804107,0.005661398299709534,0.0011293228229238084,1.7541213035583496,2019-06-18 14:51:14:478
-0.07104025036096573,-0.034012630581855774,9.780787467956543,0.0006110783717082625,0.007526066192834106,-0.004331490552729621,1.7600188255310059,2019-06-18 14:51:14:484
-0.047092754393815994,-0.05317062884569168,9.730497360229492,0.0007442689355028748,0.00486225491694186,0.0012625133867184206,1.7641372680664062,2019-06-18 14:51:14:488
-0.04469800367951393,-0.06035487726330757,9.823892593383789,0.003141699148824477,0.004729064613221573,0.0031271815399173176,1.7700018882751465,2019-06-18 14:51:14:494
-0.05667174980044365,0.004303365014493465,9.828682899475098,0.0026089368936460283,0.003796730406584962,-0.0015344885830056003,1.7741432189941406,2019-06-18 14:51:14:498
-0.05188225209712982,-0.029223131015896797,9.75444507598877,-0.0027186859182127886,0.0039299209703795735,6.379828412128062e-05,1.779996395111084,2019-06-18 14:51:14:504
-0.054277002811431885,-0.0843023732304573,9.768814086914062,0.0019429840746729666,0.0027312058962280636,0.002061656899523257,1.7850041389465332,2019-06-18 14:51:14:509
-0.08540874719619751,-0.029223131015896797,9.778392791748047,0.0019429840746729666,0.005661398299709534,0.0027276098485334807,1.790010929107666,2019-06-18 14:51:14:514
-0.07104025036096573,-0.034012630581855774,9.795156478881836,0.004207223659181376,0.0036635398427903496,0.002328037897075319,1.7941193580627441,2019-06-18 14:51:14:518
-0.08061924576759338,-0.034012630581855774,9.802340507507324,0.003141699148824477,0.005128636044531084,0.004592277481583728,1.799994945526123,2019-06-18 14:51:14:524
-0.06385599821805954,-0.026828380301594734,9.787971496582031,0.0006110783717082625,0.00632735137875692,0.005125040256910827,1.8041157722473145,2019-06-18 14:51:14:528
-0.09977724403142929,-0.026828380301594734,9.761629104614258,0.0026089368936460283,0.0002005850053293314,6.379828412128062e-05,1.8091530799865723,2019-06-18 14:51:14:533
-0.054277002811431885,-0.048381127417087555,9.795156478881836,0.0032748897126190896,0.002997587023817288,0.0031271815399173176,1.81504487991333,2019-06-18 14:51:14:539
-0.07343500107526779,-0.019644131883978844,9.752050399780273,0.0006110783717082625,0.0032639681514065122,6.379828412128062e-05,1.8191399574279785,2019-06-18 14:51:14:543
-0.013566257432103157,-0.04359162971377373,9.77599811553955,-0.0029850670458020133,0.006726922810066432,0.003393562667506543,1.8250079154968262,2019-06-18 14:51:14:549
-0.061461251229047775,-0.04598637670278549,9.792760848999023,0.0014102218194945173,0.0032639681514065122,0.00166208520813942,1.8291172981262207,2019-06-18 14:51:14:553
-0.04469800367951393,-0.029223131015896797,9.795156478881836,7.831605963855469e-05,0.007925638144292268,0.0025944190246645436,1.8349995613098145,2019-06-18 14:51:14:559
-0.04469800367951393,-0.026828380301594734,9.780787467956543,0.0026089368936460283,0.0012661095644501657,0.004325896614068829,1.8391218185424805,2019-06-18 14:51:14:563
-0.04230325296521187,-0.048381127417087555,9.768814086914062,0.0019429840746729666,0.004063111534174186,0.004858658609172953,1.845003604888916,2019-06-18 14:51:14:569
-0.08301399648189545,-0.0388021282851696,9.823892593383789,0.0018097935108783545,0.00632735137875692,0.000996132259129196,1.8491168022155762,2019-06-18 14:51:14:573
-0.047092754393815994,-0.01006513275206089,9.86220932006836,0.003541270840208314,0.004063111534174186,0.005391421384500052,1.8550190925598145,2019-06-18 14:51:14:579
-0.04469800367951393,-0.0651443749666214,9.835866928100586,0.0024757463298514157,0.004196302097968799,0.0005965605677453591,1.8591184616088867,2019-06-18 14:51:14:583
-0.05667174980044365,-0.034012630581855774,9.828682899475098,0.002209365202262191,0.003397158715201125,-0.0015344885830056003,1.865018367767334,2019-06-18 14:51:14:589
-0.030329504981637,-0.014854632318019867,9.787971496582031,0.0038076519677975387,0.0031307775876119005,-0.0024668226596050486,1.869117259979248,2019-06-18 14:51:14:593
-0.05667174980044365,-0.05077587813138962,9.8167085647583,0.004074033095386763,0.0023316342048442266,-0.0011349168916217633,1.8750061988830566,2019-06-18 14:51:14:599
-0.08061924576759338,-0.041196878999471664,9.802340507507324,0.001676602947083742,-0.0008649395863007935,0.003393562667506543,1.8800115585327148,2019-06-18 14:51:14:604
-0.030329504981637,-0.05796012654900551,9.850234985351562,-0.0017863519716505025,0.0012661095644501657,0.0011293228229238084,1.8841185569763184,2019-06-18 14:51:14:608
-0.047092754393815994,-0.05796012654900551,9.840656280517578,-0.0027186859182127886,0.005128636044531084,-0.0018008697105948246,1.8899970054626465,2019-06-18 14:51:14:614
-0.05906650051474571,-0.05077587813138962,9.843050956726074,0.0012770312556999051,0.0025980153324334514,0.0013957039505130327,1.8941149711608887,2019-06-18 14:51:14:618
-0.039908502250909805,-0.014854632318019867,9.768814086914062,0.0024757463298514157,0.0016656812558340024,0.0019284663357286445,1.9000234603881836,2019-06-18 14:51:14:624
-0.05188225209712982,-0.06753912568092346,9.835866928100586,-0.0009872085238642476,0.004729064613221573,0.00166208520813942,1.9041361808776855,2019-06-18 14:51:14:628
-0.04948750138282776,-0.02443363144993782,9.778392791748047,0.0018097935108783545,0.0032639681514065122,-0.0028663943509888855,1.9099955558776855,2019-06-18 14:51:14:634
-0.04230325296521187,-0.041196878999471664,9.838261604309082,0.0004778877754043595,0.007526066192834106,0.0013957039505130327,1.914116382598877,2019-06-18 14:51:14:638
-0.02314525656402111,-0.06753912568092346,9.811919212341309,-0.0032514481733912377,0.002997587023817288,-0.0004689640076301205,1.9200034141540527,2019-06-18 14:51:14:644
-0.047092754393815994,-0.03161787986755371,9.83347225189209,0.0007442689355028748,0.0039299209703795735,-0.0006021545714247328,1.9250049591064453,2019-06-18 14:51:14:649
-0.05667174980044365,-0.026828380301594734,9.828682899475098,0.003141699148824477,0.0020652529472178394,-0.0020672508381840496,1.9291129112243652,2019-06-18 14:51:14:653
-0.006382008083164692,-0.06274962425231934,9.773603439331055,0.00021150663156048962,0.007259685065244881,0.0007297511315399715,1.9350037574768066,2019-06-18 14:51:14:659
0.007986490614712238,-0.04598637670278549,9.83347225189209,0.0028753180212352527,0.002864396460022676,0.0007297511315399715,1.939323902130127,2019-06-18 14:51:14:663
-0.07343500107526779,-0.007670383434742689,9.756839752197266,0.0003446972116097473,0.002864396460022676,-0.00020258286378625062,1.9441351890563965,2019-06-18 14:51:14:668
-0.05188225209712982,-0.05077587813138962,9.823892593383789,0.0014102218194945173,0.0032639681514065122,-0.0032659660423727224,1.9500021934509277,2019-06-18 14:51:14:674
-0.02314525656402111,-0.0388021282851696,9.732892990112305,0.0008774594992974871,0.005927779427298759,-0.0003357734438355082,1.9550137519836426,2019-06-18 14:51:14:679
0.01996023952960968,-0.0651443749666214,9.809524536132812,0.0012770312556999051,0.0007333473092717165,-0.001934060274389437,1.9591155052185059,2019-06-18 14:51:14:683
-0.039908502250909805,-0.05796012654900551,9.807129859924316,0.0004778877754043595,0.004063111534174186,0.0001969888601068769,1.965001106262207,2019-06-18 14:51:14:689
-0.032724253833293915,-0.022038880735635757,9.843050956726074,0.003141699148824477,0.004462683485632349,-0.0014012980192109879,1.9700069427490234,2019-06-18 14:51:14:694
-0.020750505849719048,-0.05077587813138962,9.8167085647583,0.0010106500630920993,0.003796730406584962,0.004192706050274216,1.974118709564209,2019-06-18 14:51:14:698
-0.03511900454759598,-0.04598637670278549,9.742471694946289,-0.0007208273962750229,0.004595873789352636,-0.0004689640076301205,1.979994297027588,2019-06-18 14:51:14:704
-0.032724253833293915,0.009092864580452442,9.850234985351562,-0.0011203991526774412,0.0020652529472178394,0.0012625133867184206,1.9841337203979492,2019-06-18 14:51:14:708
-0.04469800367951393,-0.005275633651763201,9.835866928100586,0.001143840691905293,0.0036635398427903496,-0.0011349168916217633,1.9900002479553223,2019-06-18 14:51:14:714
-0.03511900454759598,-0.02443363144993782,9.871788024902344,-0.0027186859182127886,0.005794589123578471,-0.0003357734438355082,1.995032787322998,2019-06-18 14:51:14:719
-0.027934754267334938,-0.026828380301594734,9.8167085647583,-0.0009872085238642476,0.004462683485632349,0.00166208520813942,1.9991202354431152,2019-06-18 14:51:14:723
-0.011171507649123669,-0.06035487726330757,9.823892593383789,-5.487451634704159e-05,0.0053950171721203095,-0.0023336320958104364,2.005000114440918,2019-06-18 14:51:14:729
-0.02314525656402111,-0.07951287180185318,9.83347225189209,0.0032748897126190896,0.003397158715201125,0.006323755070988013,2.009124279022217,2019-06-18 14:51:14:733
-0.04948750138282776,-0.026828380301594734,9.821497917175293,0.0027421274574406405,-6.579614257819981e-05,0.0017952757719340324,2.0150275230407715,2019-06-18 14:51:14:739
-0.06864549964666367,-0.08909187465906143,9.756839752197266,0.00473998617443415,0.0023316342048442266,0.000996132259129196,2.0191168785095215,2019-06-18 14:51:14:743
-0.03511900454759598,0.004303365014493465,9.809524536132812,0.0012770312556999051,0.0031307775876119005,0.006190564767267726,2.0250048637390137,2019-06-18 14:51:14:749
-0.03511900454759598,-0.01006513275206089,9.852629661560059,0.0003446972116097473,0.0008665378730663289,-0.0020672508381840496,2.029228687286377,2019-06-18 14:51:14:753
-0.030329504981637,-0.04598637670278549,9.80473518371582,0.0038076519677975387,0.004729064613221573,0.004725468305452665,2.0353126525878906,2019-06-18 14:51:14:759
-0.039908502250909805,-0.00048613420221954584,9.76402473449707,-0.004849734938926585,0.0019320623834232272,0.0003301794401561345,2.039139747619629,2019-06-18 14:51:14:763
-0.025540005415678024,-0.07232862710952759,9.783182144165039,0.00620508211610056,0.0016656812558340024,0.00326037210371193,2.0450053215026855,2019-06-18 14:51:14:769
0.005591740366071463,-0.029223131015896797,9.802340507507324,-0.00018806509233263786,0.006726922810066432,-0.0003357734438355082,2.049116611480713,2019-06-18 14:51:14:773
-0.061461251229047775,-0.07232862710952759,9.744866371154785,0.00021150663156048962,0.003530349278995737,0.0011293228229238084,2.0550026893615723,2019-06-18 14:51:14:779
-0.05188225209712982,-0.026828380301594734,9.84544563293457,-0.00045444623617650777,0.0012661095644501657,0.0019284663357286445,2.0600037574768066,2019-06-18 14:51:14:784
-0.03511900454759598,-0.026828380301594734,9.694576263427734,0.0023425557660568036,0.005528207995989247,0.002860800412328093,2.064119815826416,2019-06-18 14:51:14:788
-0.054277002811431885,-0.03161787986755371,9.80473518371582,0.0076701785779156205,0.003796730406584962,0.0035267532313011545,2.069997787475586,2019-06-18 14:51:14:794
-0.04230325296521187,-0.03161787986755371,9.792760848999023,7.831605963855469e-05,0.005794589123578471,6.379828412128062e-05,2.0741429328918457,2019-06-18 14:51:14:798
-0.05667174980044365,-0.041196878999471664,9.76402473449707,0.004606795350565213,0.0076592570167030435,0.0031271815399173176,2.0802154541015625,2019-06-18 14:51:14:804
-0.039908502250909805,0.028250861912965775,9.80473518371582,0.0027421274574406405,0.0012661095644501657,0.002860800412328093,2.0841355323791504,2019-06-18 14:51:14:808
-0.0662507489323616,-0.026828380301594734,9.756839752197266,0.0019429840746729666,-6.579614257819981e-05,0.0008629416953345836,2.089996814727783,2019-06-18 14:51:14:814
-0.020750505849719048,-0.06035487726330757,9.795156478881836,0.0003446972116097473,0.0024648247686388392,0.004325896614068829,2.094113826751709,2019-06-18 14:51:14:818
-0.03751375526189804,-0.04598637670278549,9.835866928100586,0.0003446972116097473,0.01032306881274394,-6.939229186431566e-05,2.1000094413757324,2019-06-18 14:51:14:824
-0.039908502250909805,-0.01724938116967678,9.823892593383789,0.0032748897126190896,0.0016656812558340024,0.002061656899523257,2.104119300842285,2019-06-18 14:51:14:828
-0.030329504981637,-0.026828380301594734,9.795156478881836,0.0028753180212352527,0.0076592570167030435,0.006190564767267726,2.1099963188171387,2019-06-18 14:51:14:834
-0.05906650051474571,-0.01006513275206089,9.807129859924316,0.0007442689355028748,0.0025980153324334514,0.005657802512089276,2.1153149604797363,2019-06-18 14:51:14:839
-0.05906650051474571,-0.0388021282851696,9.802340507507324,0.0014102218194945173,0.008458400399470718,-0.0012681074554163755,2.119140148162842,2019-06-18 14:51:14:843
-0.05906650051474571,-0.06993387639522552,9.819103240966797,0.0010106500630920993,0.002997587023817288,0.002860800412328093,2.1250109672546387,2019-06-18 14:51:14:849
-0.08061924576759338,-0.06274962425231934,9.826288223266602,0.002209365202262191,0.0019320623834232272,0.008854376043159971,2.1291213035583496,2019-06-18 14:51:14:853
-0.05906650051474571,-0.03161787986755371,9.809524536132812,-0.0005876368324804107,0.0024648247686388392,-0.0026000132233996607,2.1350021362304688,2019-06-18 14:51:14:859
-0.04230325296521187,-0.08669712394475937,9.802340507507324,-0.0009872085238642476,0.0049954457408107975,0.0008629416953345836,2.140005588531494,2019-06-18 14:51:14:864
-0.03511900454759598,-0.06274962425231934,9.807129859924316,-0.0033846387371858503,0.0053950171721203095,-0.0032659660423727224,2.1441168785095215,2019-06-18 14:51:14:868
-0.0662507489323616,-0.007670383434742689,9.76402473449707,0.00154341238328913,0.001399300128244778,0.0008629416953345836,2.149994373321533,2019-06-18 14:51:14:874
-0.04948750138282776,-0.055565375834703445,9.77599811553955,0.0034080802764137014,0.0009997284368609412,0.0005965605677453591,2.155007839202881,2019-06-18 14:51:14:879
-0.04948750138282776,-0.041196878999471664,9.855024337768555,-0.0009872085238642476,0.0006001567454771042,0.0031271815399173176,2.1592345237731934,2019-06-18 14:51:14:883
-0.06385599821805954,-0.04359162971377373,9.752050399780273,-0.0009872085238642476,0.0019320623834232272,-0.0022004415320158242,2.1641335487365723,2019-06-18 14:51:14:888
-0.027934754267334938,-0.048381127417087555,9.766419410705566,0.0024757463298514157,0.005794589123578471,-0.0020672508381840496,2.170006275177002,2019-06-18 14:51:14:894
-0.020750505849719048,-0.026828380301594734,9.83347225189209,0.005405938733332886,0.004196302097968799,0.0012625133867184206,2.174124240875244,2019-06-18 14:51:14:898
-0.047092754393815994,-0.0388021282851696,9.811919212341309,-0.0007208273962750229,0.005128636044531084,0.0004633700039507468,2.179997444152832,2019-06-18 14:51:14:904
-0.07343500107526779,-0.03640738129615784,9.823892593383789,0.0024757463298514157,0.005528207995989247,0.003393562667506543,2.1841115951538086,2019-06-18 14:51:14:908
-0.030329504981637,-0.019644131883978844,9.843050956726074,0.001676602947083742,0.001798871819628615,0.002061656899523257,2.1900010108947754,2019-06-18 14:51:14:914
-0.04948750138282776,-0.048381127417087555,9.732892990112305,-0.0037842104285696868,0.004729064613221573,-0.0032659660423727224,2.1941189765930176,2019-06-18 14:51:14:918
-0.05906650051474571,-0.03161787986755371,9.747261047363281,0.0010106500630920993,0.008058828968161205,-0.0018008697105948246,2.1999969482421875,2019-06-18 14:51:14:924
-0.05188225209712982,-0.03640738129615784,9.823892593383789,-0.0003212556723818955,0.001399300128244778,-0.006196158445854193,2.204162120819092,2019-06-18 14:51:14:928
-0.018355756998062134,-0.0843023732304573,9.797551155090332,0.0026089368936460283,0.005927779427298759,-0.0027332037871942733,2.2100038528442383,2019-06-18 14:51:14:934
-0.04469800367951393,-0.0651443749666214,9.783182144165039,0.001143840691905293,0.00033377558537858905,-0.0027332037871942733,2.2141618728637695,2019-06-18 14:51:14:938
-0.0662507489323616,-0.022038880735635757,9.759234428405762,0.00021150663156048962,0.0004669661491732013,6.379828412128062e-05,2.219999313354492,2019-06-18 14:51:14:944
-0.04230325296521187,-0.026828380301594734,9.859814643859863,0.005272748429612599,0.005128636044531084,0.000996132259129196,2.224114418029785,2019-06-18 14:51:14:948
-0.05188225209712982,-0.022038880735635757,9.831077575683594,-0.0011203991526774412,0.006726922810066432,0.002860800412328093,2.2300057411193848,2019-06-18 14:51:14:954
-0.03511900454759598,-0.048381127417087555,9.83347225189209,0.00473998617443415,-0.0009981301500954058,0.0031271815399173176,2.234118938446045,2019-06-18 14:51:14:958
-0.05667174980044365,-0.019644131883978844,9.811919212341309,-0.0003212556723818955,0.0019320623834232272,-0.0008685356990139574,2.2399954795837402,2019-06-18 14:51:14:964
-0.03511900454759598,-0.0388021282851696,9.835866928100586,0.0007442689355028748,0.006726922810066432,0.003926324922684992,2.244114398956299,2019-06-18 14:51:14:968
-0.027934754267334938,-0.0651443749666214,9.831077575683594,0.0003446972116097473,0.0024648247686388392,0.0013957039505130327,2.250007152557373,2019-06-18 14:51:14:974
-0.018355756998062134,-0.0388021282851696,9.771208763122559,0.0032748897126190896,0.0015324906920393903,0.0004633700039507468,2.2541232109069824,2019-06-18 14:51:14:978
-0.04948750138282776,-0.041196878999471664,9.778392791748047,-0.004450163507617074,0.006593732506346145,-0.0003357734438355082,2.260016918182373,2019-06-18 14:51:14:984
-0.07343500107526779,-0.06035487726330757,9.835866928100586,0.0007442689355028748,0.0027312058962280636,0.00898756634688026,2.2641239166259766,2019-06-18 14:51:14:988
-0.04230325296521187,-0.0651443749666214,9.780787467956543,0.0038076519677975387,0.005794589123578471,-0.0008685356990139574,2.269998550415039,2019-06-18 14:51:14:994
-0.061461251229047775,-0.05077587813138962,9.814313888549805,-0.0040505915561589115,0.0027312058962280636,0.00166208520813942,2.274113178253174,2019-06-18 14:51:14:998
-0.0662507489323616,-0.014854632318019867,9.771208763122559,-0.00045444623617650777,0.0006001567454771042,-0.0012681074554163755,2.2800073623657227,2019-06-18 14:51:15:004
-0.03751375526189804,-0.041196878999471664,9.802340507507324,0.0038076519677975387,0.002864396460022676,0.0052582305606311145,2.2841200828552246,2019-06-18 14:51:15:008
-0.032724253833293915,-0.03161787986755371,9.847840309143066,0.0004778877754043595,0.007126494761524595,-0.00020258286378625062,2.2899975776672363,2019-06-18 14:51:15:014
-0.047092754393815994,-0.0651443749666214,9.783182144165039,0.005405938733332886,0.0012661095644501657,-0.000735345135219345,2.2950291633605957,2019-06-18 14:51:15:019
-0.06385599821805954,-0.01724938116967678,9.766419410705566,0.0038076519677975387,0.004595873789352636,0.0027276098485334807,2.299137592315674,2019-06-18 14:51:15:023
-0.03751375526189804,-0.034012630581855774,9.795156478881836,0.0019429840746729666,0.0053950171721203095,0.002461228460869931,2.3041329383850098,2019-06-18 14:51:15:028
-0.04230325296521187,-0.0388021282851696,9.811919212341309,0.0010106500630920993,0.005261826868400022,-0.0035323471699619468,2.3099961280822754,2019-06-18 14:51:15:034
-0.07104025036096573,-0.034012630581855774,9.761629104614258,-0.0023191142268289516,0.0020652529472178394,0.00499184943304189,2.3141140937805176,2019-06-18 14:51:15:038
-0.04948750138282776,-0.06035487726330757,9.795156478881836,0.0030085085850298653,0.00632735137875692,0.004725468305452665,2.32000732421875,2019-06-18 14:51:15:044
-0.05906650051474571,-0.07232862710952759,9.8167085647583,0.0006110783717082625,0.003796730406584962,0.0027276098485334807,2.324120044708252,2019-06-18 14:51:15:048
-0.027934754267334938,-0.03640738129615784,9.84544563293457,0.0003446972116097473,0.004063111534174186,-0.0026000132233996607,2.3299970626831055,2019-06-18 14:51:15:054
-0.054277002811431885,-0.034012630581855774,9.766419410705566,0.0027421274574406405,0.0020652529472178394,-0.0016676791468002124,2.3341145515441895,2019-06-18 14:51:15:058
-0.039908502250909805,0.006698114797472954,9.814313888549805,0.0027421274574406405,0.004196302097968799,-0.0024668226596050486,2.3400230407714844,2019-06-18 14:51:15:064
-0.030329504981637,-0.02443363144993782,9.821497917175293,-0.0003212556723818955,0.001399300128244778,0.0007297511315399715,2.3441319465637207,2019-06-18 14:51:15:068
-0.039908502250909805,-0.026828380301594734,9.847840309143066,0.0014102218194945173,0.004462683485632349,-0.0027332037871942733,2.350001811981201,2019-06-18 14:51:15:074
-0.02314525656402111,-0.0388021282851696,9.840656280517578,0.0007442689355028748,-0.0017972735328630795,-0.0020672508381840496,2.3541207313537598,2019-06-18 14:51:15:078
-0.027934754267334938,-0.05317062884569168,9.8167085647583,-0.00018806509233263786,0.0049954457408107975,-0.0010017262628085697,2.3600029945373535,2019-06-18 14:51:15:084
-0.030329504981637,-0.05796012654900551,9.8167085647583,-0.0040505915561589115,0.0021984436410496144,0.0004633700039507468,2.365006923675537,2019-06-18 14:51:15:089
-0.05188225209712982,-0.06274962425231934,9.76402473449707,0.0018097935108783545,0.0039299209703795735,0.002461228460869931,2.3691201210021973,2019-06-18 14:51:15:093
-0.030329504981637,-0.05077587813138962,9.843050956726074,0.0004778877754043595,0.001798871819628615,-0.00020258286378625062,2.3741164207458496,2019-06-18 14:51:15:098
-0.04230325296521187,-0.014854632318019867,9.783182144165039,-5.487451634704159e-05,-0.00046536786240766596,0.0012625133867184206,2.380028247833252,2019-06-18 14:51:15:104
-0.039908502250909805,-0.05077587813138962,9.785576820373535,0.002209365202262191,0.003796730406584962,-0.0014012980192109879,2.384134292602539,2019-06-18 14:51:15:108
-0.047092754393815994,-0.02443363144993782,9.773603439331055,0.0012770312556999051,-0.00299598860701459,0.003659943795095767,2.390007495880127,2019-06-18 14:51:15:114
-0.05906650051474571,-0.041196878999471664,9.809524536132812,0.0004778877754043595,0.0023316342048442266,-0.0012681074554163755,2.3941245079040527,2019-06-18 14:51:15:118
-0.03511900454759598,-0.034012630581855774,9.792760848999023,-0.0011203991526774412,0.004462683485632349,0.002461228460869931,2.399996757507324,2019-06-18 14:51:15:124
0.007986490614712238,-0.06035487726330757,9.790366172790527,0.002076174638467579,0.003796730406584962,-0.0023336320958104364,2.405001163482666,2019-06-18 14:51:15:129
-0.047092754393815994,-0.05317062884569168,9.742471694946289,-0.0012535897164720534,0.0061941605548879826,0.0027276098485334807,2.410007953643799,2019-06-18 14:51:15:134
-0.025540005415678024,-0.06035487726330757,9.742471694946289,7.831605963855469e-05,0.008724781527059942,0.0013957039505130327,2.414144992828369,2019-06-18 14:51:15:138
-0.018355756998062134,-0.029223131015896797,9.771208763122559,0.005272748429612599,0.005528207995989247,0.0027276098485334807,2.4199986457824707,2019-06-18 14:51:15:144
-0.006382008083164692,-0.04359162971377373,9.790366172790527,-0.0036510198647750746,0.004196302097968799,-0.0027332037871942733,2.42411470413208,2019-06-18 14:51:15:148
-0.006382008083164692,-0.034012630581855774,9.76402473449707,0.003940842531592151,0.009523924909827616,0.0001969888601068769,2.430009365081787,2019-06-18 14:51:15:154
-0.05906650051474571,-0.055565375834703445,9.828682899475098,0.00154341238328913,0.00686011363393537,0.0021948473332807066,2.434147357940674,2019-06-18 14:51:15:158
-0.030329504981637,-0.03640738129615784,9.843050956726074,0.0012770312556999051,0.003397158715201125,-0.0024668226596050486,2.440000057220459,2019-06-18 14:51:15:164
-0.05188225209712982,-0.07711812108755112,9.706550598144531,0.002076174638467579,0.0039299209703795735,0.003793134358890379,2.4441142082214355,2019-06-18 14:51:15:168
-0.032724253833293915,-0.07232862710952759,9.792760848999023,-0.0020527330992397273,0.008591591223339655,-0.0020672508381840496,2.450007438659668,2019-06-18 14:51:15:174
-0.030329504981637,-0.055565375834703445,9.756839752197266,-0.0013867802802666658,0.005261826868400022,0.0003301794401561345,2.4541239738464355,2019-06-18 14:51:15:178
-0.0662507489323616,-0.0028808838687837124,9.77599811553955,-0.003917400992364299,0.0027312058962280636,-0.0016676791468002124,2.4599976539611816,2019-06-18 14:51:15:184
-0.04230325296521187,-0.04359162971377373,9.790366172790527,-0.00018806509233263786,0.0019320623834232272,-0.0024668226596050486,2.4641146659851074,2019-06-18 14:51:15:188
-0.018355756998062134,-0.02443363144993782,9.76402473449707,0.0007442689355028748,0.0020652529472178394,0.002328037897075319,2.4700074195861816,2019-06-18 14:51:15:194
-0.03751375526189804,-0.03640738129615784,9.771208763122559,0.003940842531592151,0.0004669661491732013,-0.008194017162847702,2.4741244316101074,2019-06-18 14:51:15:198
-0.039908502250909805,-0.005275633651763201,9.831077575683594,0.0027421274574406405,0.0025980153324334514,0.0004633700039507468,2.4800219535827637,2019-06-18 14:51:15:204
-0.03751375526189804,-0.012459882535040379,9.823892593383789,0.005139557605743661,0.007259685065244881,0.001528894514307645,2.4841227531433105,2019-06-18 14:51:15:208
-0.025540005415678024,-0.05796012654900551,9.792760848999023,-0.0019195425354451149,0.005128636044531084,0.0003301794401561345,2.489997386932373,2019-06-18 14:51:15:214
-0.027934754267334938,-0.05317062884569168,9.811919212341309,0.004873176478154437,0.00486225491694186,0.000996132259129196,2.4950037002563477,2019-06-18 14:51:15:219
-0.07343500107526779,-0.041196878999471664,9.759234428405762,-0.0005876368324804107,0.0027312058962280636,0.002328037897075319,2.5000123977661133,2019-06-18 14:51:15:224
-0.025540005415678024,-0.034012630581855774,9.783182144165039,-0.0009872085238642476,-0.00019898671856379607,-0.0004689640076301205,2.5041213035583496,2019-06-18 14:51:15:228
-0.06864549964666367,-0.03161787986755371,9.831077575683594,0.0023425557660568036,0.003397158715201125,-0.0003357734438355082,2.509993076324463,2019-06-18 14:51:15:234
-0.0925929993391037,-0.01724938116967678,9.742471694946289,0.00021150663156048962,0.0032639681514065122,0.0017952757719340324,2.514115810394287,2019-06-18 14:51:15:238
-0.03511900454759598,-0.022038880735635757,9.823892593383789,-0.0040505915561589115,0.004196302097968799,-0.001934060274389437,2.52003812789917,2019-06-18 14:51:15:244
-0.0662507489323616,-0.04359162971377373,9.749655723571777,-0.0003212556723818955,0.0015324906920393903,-0.0018008697105948246,2.524139881134033,2019-06-18 14:51:15:248
-0.05188225209712982,-0.034012630581855774,9.797551155090332,0.003940842531592151,0.0053950171721203095,-0.0011349168916217633,2.529996395111084,2019-06-18 14:51:15:254
-0.05188225209712982,-0.048381127417087555,9.756839752197266,-0.0009872085238642476,0.004462683485632349,0.005524611688220339,2.534114360809326,2019-06-18 14:51:15:258
-0.025540005415678024,-0.029223131015896797,9.744866371154785,0.0032748897126190896,0.002997587023817288,-0.0016676791468002124,2.5400052070617676,2019-06-18 14:51:15:264
-0.054277002811431885,-0.06993387639522552,9.802340507507324,-0.0003212556723818955,0.006460541682477208,0.003793134358890379,2.5441207885742188,2019-06-18 14:51:15:268
-0.04948750138282776,0.006698114797472954,9.838261604309082,-0.0009872085238642476,0.003796730406584962,6.379828412128062e-05,2.549996852874756,2019-06-18 14:51:15:274
-0.05906650051474571,-0.05317062884569168,9.809524536132812,0.00154341238328913,0.00686011363393537,0.001528894514307645,2.554112434387207,2019-06-18 14:51:15:278
-0.06864549964666367,-0.04359162971377373,9.752050399780273,0.0038076519677975387,0.001798871819628615,6.379828412128062e-05,2.5600051879882812,2019-06-18 14:51:15:284
-0.018355756998062134,-0.0651443749666214,9.799945831298828,0.003141699148824477,0.004063111534174186,0.005125040256910827,2.564177989959717,2019-06-18 14:51:15:288
-0.07582975178956985,-0.048381127417087555,9.795156478881836,0.0018097935108783545,0.004462683485632349,0.0021948473332807066,2.569129467010498,2019-06-18 14:51:15:293
-0.06385599821805954,-0.06035487726330757,9.828682899475098,0.003141699148824477,0.004196302097968799,0.002061656899523257,2.575000762939453,2019-06-18 14:51:15:299
-0.07104025036096573,-0.05796012654900551,9.759234428405762,0.0004778877754043595,0.004595873789352636,-0.0010017262628085697,2.579124927520752,2019-06-18 14:51:15:303
-0.018355756998062134,-0.03640738129615784,9.742471694946289,0.0036744614040029266,0.002864396460022676,-0.0031327754785781103,2.5850090980529785,2019-06-18 14:51:15:309
-0.02314525656402111,-0.07472337782382965,9.809524536132812,-0.00045444623617650777,0.00632735137875692,-0.0006021545714247328,2.589115619659424,2019-06-18 14:51:15:313
-0.03511900454759598,-0.02443363144993782,9.740077018737793,0.0034080802764137014,-0.0013977018414792427,0.00499184943304189,2.5950045585632324,2019-06-18 14:51:15:319
-0.03751375526189804,-0.05796012654900551,9.828682899475098,0.0014102218194945173,0.01032306881274394,0.005657802512089276,2.599127769470215,2019-06-18 14:51:15:323
-0.027934754267334938,0.006698114797472954,9.821497917175293,0.004074033095386763,0.0012661095644501657,0.0005965605677453591,2.6050047874450684,2019-06-18 14:51:15:329
-0.054277002811431885,-0.05317062884569168,9.809524536132812,0.00154341238328913,-6.579614257819981e-05,0.0011293228229238084,2.6092915534973145,2019-06-18 14:51:15:333
-0.0925929993391037,-0.041196878999471664,9.795156478881836,0.003541270840208314,0.0039299209703795735,0.0001969888601068769,2.6150150299072266,2019-06-18 14:51:15:339
-0.039908502250909805,-0.04598637670278549,9.80473518371582,-5.487451634704159e-05,0.004196302097968799,-0.0015344885830056003,2.619117259979248,2019-06-18 14:51:15:343
-0.047092754393815994,-0.03161787986755371,9.785576820373535,0.0006110783717082625,0.005794589123578471,-0.0008685356990139574,2.625000476837158,2019-06-18 14:51:15:349
-0.06864549964666367,-0.022038880735635757,9.76402473449707,0.003141699148824477,0.0025980153324334514,0.003926324922684992,2.6291213035583496,2019-06-18 14:51:15:353
-0.07822450250387192,0.023461362347006798,9.826288223266602,0.0018097935108783545,0.005528207995989247,0.005524611688220339,2.6341195106506348,2019-06-18 14:51:15:358
-0.0662507489323616,-0.01724938116967678,9.809524536132812,-0.0007208273962750229,0.0036635398427903496,0.0007297511315399715,2.63999605178833,2019-06-18 14:51:15:364
-0.032724253833293915,-0.0388021282851696,9.778392791748047,-0.002452304790623564,0.004329492661763411,0.0004633700039507468,2.6450066566467285,2019-06-18 14:51:15:369
-0.04230325296521187,-0.034012630581855774,9.785576820373535,0.002209365202262191,0.0012661095644501657,0.0035267532313011545,2.649120807647705,2019-06-18 14:51:15:373
-0.10217199474573135,-0.048381127417087555,9.895735740661621,-0.0020527330992397273,0.005261826868400022,0.001528894514307645,2.654148578643799,2019-06-18 14:51:15:378
-0.05188225209712982,-0.034012630581855774,9.783182144165039,0.0004778877754043595,0.005927779427298759,6.379828412128062e-05,2.6600050926208496,2019-06-18 14:51:15:384
-0.054277002811431885,-0.07472337782382965,9.80473518371582,0.00021150663156048962,0.002997587023817288,-0.001934060274389437,2.6650004386901855,2019-06-18 14:51:15:389
-0.08061924576759338,-0.0388021282851696,9.811919212341309,0.005805510684791048,0.005128636044531084,0.004725468305452665,2.6691222190856934,2019-06-18 14:51:15:393
-0.011171507649123669,-0.06035487726330757,9.77599811553955,-0.0025854953544181764,0.00033377558537858905,0.0019284663357286445,2.6750054359436035,2019-06-18 14:51:15:399
-0.03751375526189804,-0.04359162971377373,9.811919212341309,-0.00045444623617650777,0.004329492661763411,-0.0010017262628085697,2.6791138648986816,2019-06-18 14:51:15:403
-0.054277002811431885,0.0019086154643446207,9.747261047363281,-0.004316972683748136,0.0006001567454771042,0.0012625133867184206,2.684113025665283,2019-06-18 14:51:15:408
-0.04469800367951393,-0.029223131015896797,9.759234428405762,-0.0019195425354451149,0.002864396460022676,-0.002999584914783498,2.6900100708007812,2019-06-18 14:51:15:414
-0.030329504981637,-0.048381127417087555,9.802340507507324,0.0008774594992974871,0.0039299209703795735,0.003393562667506543,2.694118022918701,2019-06-18 14:51:15:418
-0.032724253833293915,-0.06993387639522552,9.821497917175293,-0.0011203991526774412,0.005528207995989247,-0.0027332037871942733,2.7000322341918945,2019-06-18 14:51:15:424
-0.08301399648189545,-0.04359162971377373,9.831077575683594,0.001676602947083742,0.0036635398427903496,0.004325896614068829,2.704118251800537,2019-06-18 14:51:15:428
-0.08061924576759338,-0.05317062884569168,9.811919212341309,-0.0036510198647750746,0.003397158715201125,-0.0020672508381840496,2.709995746612549,2019-06-18 14:51:15:434
-0.047092754393815994,-0.06035487726330757,9.778392791748047,0.0012770312556999051,0.005528207995989247,-0.0036655377337565594,2.7141146659851074,2019-06-18 14:51:15:438
-0.03511900454759598,-0.034012630581855774,9.77599811553955,-0.0019195425354451149,0.002997587023817288,-0.0035323471699619468,2.720008373260498,2019-06-18 14:51:15:444
-0.030329504981637,-0.0388021282851696,9.773603439331055,0.0010106500630920993,0.002864396460022676,-0.0018008697105948246,2.7241177558898926,2019-06-18 14:51:15:448
-0.025540005415678024,-0.03161787986755371,9.864603996276855,-0.0027186859182127886,0.006726922810066432,0.004325896614068829,2.7299962043762207,2019-06-18 14:51:15:454
-0.04469800367951393,-0.00048613420221954584,9.802340507507324,0.0007442689355028748,0.004196302097968799,0.0013957039505130327,2.7341136932373047,2019-06-18 14:51:15:458
-0.04469800367951393,-0.02443363144993782,9.869393348693848,0.004473605046844925,0.005128636044531084,-6.939229186431566e-05,2.740051746368408,2019-06-18 14:51:15:464
-0.025540005415678024,-0.08190762251615524,9.766419410705566,0.002209365202262191,0.005261826868400022,-0.0024668226596050486,2.7450294494628906,2019-06-18 14:51:15:469
-0.054277002811431885,-0.029223131015896797,9.718523979187012,0.005805510684791048,0.00686011363393537,-0.000735345135219345,2.7491140365600586,2019-06-18 14:51:15:473
-0.05906650051474571,-0.02443363144993782,9.778392791748047,-0.0017863519716505025,0.005261826868400022,0.0007297511315399715,2.754115104675293,2019-06-18 14:51:15:478
-0.05906650051474571,-0.01006513275206089,9.771208763122559,-0.0013867802802666658,0.006060970251167696,-0.0022004415320158242,2.7600059509277344,2019-06-18 14:51:15:484
-0.04948750138282776,-0.029223131015896797,9.783182144165039,0.0030085085850298653,0.0053950171721203095,0.0004633700039507468,2.76411771774292,2019-06-18 14:51:15:488
-0.06385599821805954,-0.026828380301594734,9.785576820373535,0.0050063673020233745,0.007126494761524595,-6.939229186431566e-05,2.769996166229248,2019-06-18 14:51:15:494
-0.04948750138282776,-0.01724938116967678,9.86220932006836,0.002209365202262191,0.003530349278995737,0.0008629416953345836,2.7750039100646973,2019-06-18 14:51:15:499
-0.03751375526189804,-0.0388021282851696,9.740077018737793,0.0024757463298514157,0.0061941605548879826,-0.0010017262628085697,2.7791213989257812,2019-06-18 14:51:15:503
-0.08301399648189545,-0.04359162971377373,9.797551155090332,0.0024757463298514157,0.003796730406584962,-0.005663396190675744,2.7850308418273926,2019-06-18 14:51:15:509
-0.05906650051474571,-0.0651443749666214,9.790366172790527,0.0014102218194945173,0.00686011363393537,-0.0024668226596050486,2.789137363433838,2019-06-18 14:51:15:513
-0.020750505849719048,-0.026828380301594734,9.819103240966797,-0.004849734938926585,0.003397158715201125,-0.0008685356990139574,2.795001983642578,2019-06-18 14:51:15:519
-0.047092754393815994,-0.03161787986755371,9.768814086914062,0.00021150663156048962,0.004595873789352636,-0.0010017262628085697,2.7991180419921875,2019-06-18 14:51:15:523
-0.025540005415678024,-0.06274962425231934,9.80473518371582,-0.0023191142268289516,0.0025980153324334514,0.0029939909761227054,2.8050055503845215,2019-06-18 14:51:15:529
-0.05906650051474571,-0.03640738129615784,9.814313888549805,0.00154341238328913,0.003397158715201125,-0.00020258286378625062,2.809107780456543,2019-06-18 14:51:15:533
-0.030329504981637,-0.029223131015896797,9.790366172790527,0.004606795350565213,0.003397158715201125,-0.0011349168916217633,2.815009593963623,2019-06-18 14:51:15:539
-0.006382008083164692,-0.022038880735635757,9.771208763122559,0.0003446972116097473,0.004196302097968799,6.379828412128062e-05,2.8191404342651367,2019-06-18 14:51:15:543
-0.032724253833293915,-0.04359162971377373,9.71373462677002,0.0038076519677975387,0.0012661095644501657,0.005924183639678501,2.825005054473877,2019-06-18 14:51:15:549
-0.04230325296521187,-0.055565375834703445,9.797551155090332,0.0004778877754043595,0.002864396460022676,0.0007297511315399715,2.830005168914795,2019-06-18 14:51:15:554
-0.03751375526189804,-0.034012630581855774,9.8167085647583,-0.0021859236630343394,0.0012661095644501657,0.004725468305452665,2.834129810333252,2019-06-18 14:51:15:558
0.015170739032328129,-0.04598637670278549,9.826288223266602,0.001143840691905293,0.0019320623834232272,-0.003399156606167335,2.840000629425049,2019-06-18 14:51:15:564
-0.030329504981637,-0.08190762251615524,9.761629104614258,0.002209365202262191,0.004595873789352636,-0.0004689640076301205,2.845000743865967,2019-06-18 14:51:15:569
-0.01596100628376007,-0.0388021282851696,9.780787467956543,0.0018097935108783545,0.0053950171721203095,0.0005965605677453591,2.849118709564209,2019-06-18 14:51:15:573
-0.04948750138282776,-0.022038880735635757,9.859814643859863,0.0027421274574406405,0.002864396460022676,-0.0041982999889350085,2.854118824005127,2019-06-18 14:51:15:578
-0.04230325296521187,0.004303365014493465,9.838261604309082,0.0008774594992974871,0.007526066192834106,0.0004633700039507468,2.8599953651428223,2019-06-18 14:51:15:584
-0.013566257432103157,-0.034012630581855774,9.80473518371582,0.00021150663156048962,0.0039299209703795735,-0.0012681074554163755,2.8641128540039062,2019-06-18 14:51:15:588
-0.020750505849719048,-0.04359162971377373,9.771208763122559,0.002076174638467579,0.001399300128244778,0.004858658609172953,2.870007038116455,2019-06-18 14:51:15:594
-0.02314525656402111,-0.04598637670278549,9.823892593383789,0.0026089368936460283,0.002997587023817288,0.0012625133867184206,2.8741374015808105,2019-06-18 14:51:15:598
-0.027934754267334938,-0.048381127417087555,9.797551155090332,-0.0005876368324804107,0.0032639681514065122,0.0013957039505130327,2.879140853881836,2019-06-18 14:51:15:603
-0.0662507489323616,-0.04359162971377373,9.76402473449707,0.0012770312556999051,0.0012661095644501657,0.00326037210371193,2.885009288787842,2019-06-18 14:51:15:609
-0.032724253833293915,-0.04359162971377373,9.814313888549805,-5.487451634704159e-05,0.002864396460022676,-0.001934060274389437,2.8891148567199707,2019-06-18 14:51:15:613
-0.05906650051474571,-0.029223131015896797,9.778392791748047,0.0019429840746729666,0.00632735137875692,0.002461228460869931,2.895002841949463,2019-06-18 14:51:15:619
-0.09738249331712723,-0.05317062884569168,9.795156478881836,-0.00045444623617650777,0.009257544302387042,0.002061656899523257,2.899122714996338,2019-06-18 14:51:15:623
-0.025540005415678024,-0.012459882535040379,9.809524536132812,0.002076174638467579,0.0025980153324334514,0.0019284663357286445,2.9050049781799316,2019-06-18 14:51:15:629
-0.020750505849719048,-0.05317062884569168,9.716129302978516,0.004340414222975988,0.0021984436410496144,0.004192706050274216,2.909116268157959,2019-06-18 14:51:15:633
-0.054277002811431885,-0.0651443749666214,9.787971496582031,-0.0003212556723818955,0.006593732506346145,-0.0004689640076301205,2.9150919914245605,2019-06-18 14:51:15:639
-0.011171507649123669,-0.06274962425231934,9.799945831298828,0.005672319860922111,0.0032639681514065122,0.003393562667506543,2.9191508293151855,2019-06-18 14:51:15:643
-0.01596100628376007,-0.06035487726330757,9.80473518371582,-5.487451634704159e-05,0.0032639681514065122,-0.0023336320958104364,2.925018787384033,2019-06-18 14:51:15:649
-0.06385599821805954,-0.01006513275206089,9.797551155090332,0.002076174638467579,0.0031307775876119005,-0.0011349168916217633,2.929114818572998,2019-06-18 14:51:15:653
-0.054277002811431885,-0.019644131883978844,9.83347225189209,0.0006110783717082625,0.006060970251167696,-0.0016676791468002124,2.9350008964538574,2019-06-18 14:51:15:659
-0.05667174980044365,-0.04598637670278549,9.759234428405762,0.005672319860922111,0.004063111534174186,0.0021948473332807066,2.939117908477783,2019-06-18 14:51:15:663
-0.018355756998062134,-0.03640738129615784,9.807129859924316,0.0038076519677975387,0.001399300128244778,0.0008629416953345836,2.9450011253356934,2019-06-18 14:51:15:669
-0.0662507489323616,-0.06274962425231934,9.809524536132812,0.0026089368936460283,-6.579614257819981e-05,0.0011293228229238084,2.9499993324279785,2019-06-18 14:51:15:674
-0.04469800367951393,-0.03640738129615784,9.780787467956543,-0.0033846387371858503,0.00686011363393537,-0.0041982999889350085,2.9541115760803223,2019-06-18 14:51:15:678
-0.05906650051474571,-0.012459882535040379,9.80473518371582,0.0030085085850298653,0.004063111534174186,0.006590136198577237,2.9601893424987793,2019-06-18 14:51:15:684
-0.04230325296521187,-0.06753912568092346,9.792760848999023,0.003940842531592151,0.003397158715201125,-6.939229186431566e-05,2.9641451835632324,2019-06-18 14:51:15:688
-0.04469800367951393,-0.0388021282851696,9.785576820373535,0.00154341238328913,0.0053950171721203095,0.002328037897075319,2.9700045585632324,2019-06-18 14:51:15:694
-0.05667174980044365,-0.04598637670278549,9.809524536132812,-0.0021859236630343394,0.0023316342048442266,0.002328037897075319,2.974113941192627,2019-06-18 14:51:15:698
-0.039908502250909805,-0.03640738129615784,9.799945831298828,0.0019429840746729666,0.003796730406584962,0.002461228460869931,2.9800071716308594,2019-06-18 14:51:15:704
-0.07582975178956985,-0.022038880735635757,9.876577377319336,-0.0009872085238642476,0.002997587023817288,0.00326037210371193,2.984117031097412,2019-06-18 14:51:15:708
-0.039908502250909805,-0.048381127417087555,9.802340507507324,-0.00018806509233263786,0.006460541682477208,0.0007297511315399715,2.9899983406066895,2019-06-18 14:51:15:714
-0.08061924576759338,-0.05077587813138962,9.783182144165039,0.0010106500630920993,0.005794589123578471,0.00166208520813942,2.994112491607666,2019-06-18 14:51:15:718
-0.032724253833293915,-0.007670383434742689,9.780787467956543,7.831605963855469e-05,0.007126494761524595,0.002461228460869931,3.0000100135803223,2019-06-18 14:51:15:724
-0.01596100628376007,-0.055565375834703445,9.75444507598877,0.001676602947083742,0.008458400399470718,0.0004633700039507468,3.0050148963928223,2019-06-18 14:51:15:729
-0.027934754267334938,-0.0651443749666214,9.761629104614258,-0.0008540179600696353,0.0016656812558340024,6.379828412128062e-05,3.009124279022217,2019-06-18 14:51:15:733
-0.027934754267334938,-0.06274962425231934,9.864603996276855,-0.0016531614078558903,0.0019320623834232272,0.0013957039505130327,3.015011787414551,2019-06-18 14:51:15:739
-0.05188225209712982,-0.05077587813138962,9.795156478881836,-0.0003212556723818955,0.004063111534174186,0.0035267532313011545,3.0191397666931152,2019-06-18 14:51:15:743
-0.06385599821805954,-0.05317062884569168,9.809524536132812,0.0008774594992974871,0.0019320623834232272,0.0017952757719340324,3.0250020027160645,2019-06-18 14:51:15:749
-0.01596100628376007,-0.02443363144993782,9.795156478881836,0.0034080802764137014,0.0006001567454771042,0.0017952757719340324,3.0291171073913574,2019-06-18 14:51:15:753
-0.0662507489323616,-0.03640738129615784,9.835866928100586,0.0034080802764137014,0.00033377558537858905,-0.0004689640076301205,3.0350069999694824,2019-06-18 14:51:15:759
-0.04469800367951393,-0.07232862710952759,9.795156478881836,0.00021150663156048962,0.004729064613221573,-0.0004689640076301205,3.039116382598877,2019-06-18 14:51:15:763
-0.04948750138282776,-0.0388021282851696,9.759234428405762,-0.00045444623617650777,0.0025980153324334514,0.0003301794401561345,3.0450053215026855,2019-06-18 14:51:15:769
-0.06864549964666367,-0.05317062884569168,9.814313888549805,0.00021150663156048962,0.0049954457408107975,-0.0036655377337565594,3.049121379852295,2019-06-18 14:51:15:773
-0.04230325296521187,-0.0388021282851696,9.778392791748047,-0.0011203991526774412,0.0027312058962280636,0.004192706050274216,3.0550284385681152,2019-06-18 14:51:15:779
-0.030329504981637,-0.03161787986755371,9.823892593383789,0.0012770312556999051,0.0011329190006555533,0.0021948473332807066,3.0591177940368652,2019-06-18 14:51:15:783
-0.07343500107526779,-0.041196878999471664,9.768814086914062,0.0014102218194945173,0.00486225491694186,-0.0003357734438355082,3.0649991035461426,2019-06-18 14:51:15:789
-0.04230325296521187,-0.05317062884569168,9.8167085647583,-0.0003212556723818955,0.0023316342048442266,-0.001934060274389437,3.0691208839416504,2019-06-18 14:51:15:793
-0.054277002811431885,-0.0388021282851696,9.749655723571777,0.0014102218194945173,0.007526066192834106,0.0008629416953345836,3.074118137359619,2019-06-18 14:51:15:798
-0.047092754393815994,-0.022038880735635757,9.83347225189209,0.005938700988511335,0.008058828968161205,0.0025944190246645436,3.0799975395202637,2019-06-18 14:51:15:804
-0.027934754267334938,-0.07472337782382965,9.780787467956543,0.0038076519677975387,0.006460541682477208,-0.004065109425140397,3.0841116905212402,2019-06-18 14:51:15:808
-0.03751375526189804,-0.012459882535040379,9.799945831298828,-0.00018806509233263786,0.0024648247686388392,-0.0012681074554163755,3.09000825881958,2019-06-18 14:51:15:814
-0.01596100628376007,-0.05317062884569168,9.77599811553955,0.0014102218194945173,0.0009997284368609412,-0.0010017262628085697,3.094139575958252,2019-06-18 14:51:15:818
-0.04469800367951393,-0.048381127417087555,9.795156478881836,0.001143840691905293,0.003530349278995737,-0.00020258286378625062,3.1000280380249023,2019-06-18 14:51:15:824
-0.04469800367951393,-0.06753912568092346,9.811919212341309,0.001676602947083742,0.005927779427298759,-0.003931918861345784,3.104118824005127,2019-06-18 14:51:15:828
-0.02314525656402111,-0.03161787986755371,9.797551155090332,-0.0003212556723818955,0.0061941605548879826,0.0017952757719340324,3.1099963188171387,2019-06-18 14:51:15:834
-0.032724253833293915,-0.01724938116967678,9.752050399780273,7.831605963855469e-05,0.001399300128244778,0.0035267532313011545,3.1141109466552734,2019-06-18 14:51:15:838
-0.013566257432103157,-0.04359162971377373,9.823892593383789,0.0018097935108783545,0.0023316342048442266,0.002860800412328093,3.120025157928467,2019-06-18 14:51:15:844
-0.04469800367951393,-0.041196878999471664,9.795156478881836,0.005272748429612599,0.0053950171721203095,-0.00486425280790807,3.1241183280944824,2019-06-18 14:51:15:848
-0.03751375526189804,-0.03161787986755371,9.790366172790527,0.0026089368936460283,-0.0008649395863007935,-0.0014012980192109879,3.129997730255127,2019-06-18 14:51:15:854
-0.054277002811431885,-0.03640738129615784,9.780787467956543,-0.0015199708440612782,0.003796730406584962,0.0001969888601068769,3.135098934173584,2019-06-18 14:51:15:859
0.003196990815922618,-0.041196878999471664,9.783182144165039,0.0023425557660568036,0.0039299209703795735,0.003926324922684992,3.1391491889953613,2019-06-18 14:51:15:863
-0.006382008083164692,-0.05077587813138962,9.795156478881836,0.0038076519677975387,0.001399300128244778,0.0001969888601068769,3.144132137298584,2019-06-18 14:51:15:868
-0.0662507489323616,-0.019644131883978844,9.795156478881836,0.0028753180212352527,0.0036635398427903496,0.002860800412328093,3.149998188018799,2019-06-18 14:51:15:874
-0.02314525656402111,-0.055565375834703445,9.785576820373535,0.0007442689355028748,0.005927779427298759,-0.0016676791468002124,3.155003070831299,2019-06-18 14:51:15:879
-0.047092754393815994,-0.0388021282851696,9.768814086914062,-0.00045444623617650777,0.0039299209703795735,0.002860800412328093,3.159118175506592,2019-06-18 14:51:15:883
-0.08780349791049957,-0.05077587813138962,9.811919212341309,0.001676602947083742,0.0020652529472178394,-0.0004689640076301205,3.164119243621826,2019-06-18 14:51:15:888
-0.030329504981637,-0.019644131883978844,9.768814086914062,0.004340414222975988,0.002997587023817288,0.0003301794401561345,3.169996738433838,2019-06-18 14:51:15:894
-0.032724253833293915,-0.041196878999471664,9.768814086914062,0.0008774594992974871,0.006060970251167696,0.001528894514307645,3.1750035285949707,2019-06-18 14:51:15:899
-0.07104025036096573,-0.041196878999471664,9.752050399780273,0.0004778877754043595,-0.0011313207138900182,-0.000735345135219345,3.1791348457336426,2019-06-18 14:51:15:903
-0.032724253833293915,-0.02443363144993782,9.75444507598877,-0.0021859236630343394,0.004196302097968799,0.0004633700039507468,3.185028076171875,2019-06-18 14:51:15:909
-0.06864549964666367,-0.026828380301594734,9.84544563293457,0.0028753180212352527,0.005927779427298759,-0.003399156606167335,3.1891207695007324,2019-06-18 14:51:15:913
-0.054277002811431885,-0.04359162971377373,9.747261047363281,-5.487451634704159e-05,0.0004669661491732013,0.004459087177863441,3.1950020790100098,2019-06-18 14:51:15:919
-0.027934754267334938,-0.041196878999471664,9.75444507598877,-0.0037842104285696868,-0.00019898671856379607,0.0027276098485334807,3.1991190910339355,2019-06-18 14:51:15:923
-0.0039872583001852036,-0.04598637670278549,9.843050956726074,0.0006110783717082625,0.003530349278995737,0.006323755070988013,3.205005168914795,2019-06-18 14:51:15:929
-0.03511900454759598,-0.05317062884569168,9.840656280517578,0.0023425557660568036,0.005128636044531084,-0.006196158445854193,3.2099990844726562,2019-06-18 14:51:15:934
-0.054277002811431885,-0.029223131015896797,9.802340507507324,0.0007442689355028748,0.004329492661763411,6.379828412128062e-05,3.2150015830993652,2019-06-18 14:51:15:939
-0.025540005415678024,-0.05796012654900551,9.780787467956543,-0.0020527330992397273,0.004063111534174186,0.0027276098485334807,3.219142436981201,2019-06-18 14:51:15:943
-0.039908502250909805,-0.01724938116967678,9.783182144165039,-0.0013867802802666658,0.005261826868400022,0.006590136198577237,3.224250316619873,2019-06-18 14:51:15:948
-0.05906650051474571,-0.026828380301594734,9.840656280517578,0.0006110783717082625,0.001399300128244778,0.0017952757719340324,3.230012893676758,2019-06-18 14:51:15:954
-0.020750505849719048,-0.05317062884569168,9.84544563293457,-0.0017863519716505025,0.0053950171721203095,0.0019284663357286445,3.2341227531433105,2019-06-18 14:51:15:958
-0.013566257432103157,-0.04598637670278549,9.76402473449707,-0.0008540179600696353,0.004462683485632349,0.001528894514307645,3.239996910095215,2019-06-18 14:51:15:964
-0.03751375526189804,-0.05796012654900551,9.821497917175293,0.0008774594992974871,0.0025980153324334514,-0.0026000132233996607,3.2441134452819824,2019-06-18 14:51:15:968
-0.04948750138282776,-0.034012630581855774,9.83347225189209,0.0026089368936460283,0.0031307775876119005,0.0004633700039507468,3.2500057220458984,2019-06-18 14:51:15:974
-0.047092754393815994,-0.04598637670278549,9.80473518371582,0.0014102218194945173,0.005927779427298759,-0.0037987282975511715,3.2550048828125,2019-06-18 14:51:15:979
-0.032724253833293915,-0.048381127417087555,9.761629104614258,0.0028753180212352527,0.007526066192834106,0.0021948473332807066,3.2591166496276855,2019-06-18 14:51:15:983
-0.02314525656402111,-0.029223131015896797,9.785576820373535,0.0004778877754043595,-6.579614257819981e-05,-0.0032659660423727224,3.2650046348571777,2019-06-18 14:51:15:989
-0.04469800367951393,-0.06753912568092346,9.730497360229492,0.0036744614040029266,0.0039299209703795735,0.0027276098485334807,3.26912260055542,2019-06-18 14:51:15:993
-0.07104025036096573,-0.01724938116967678,9.730497360229492,7.831605963855469e-05,0.006060970251167696,-0.0016676791468002124,3.275029182434082,2019-06-18 14:51:15:999
-0.0662507489323616,-0.041196878999471664,9.838261604309082,-0.0003212556723818955,0.0011329190006555533,0.0007297511315399715,3.279118061065674,2019-06-18 14:51:16:003
-0.01596100628376007,-0.02443363144993782,9.766419410705566,-0.0021859236630343394,0.0011329190006555533,0.0035267532313011545,3.285004138946533,2019-06-18 14:51:16:009
-0.039908502250909805,-0.06035487726330757,9.831077575683594,0.0014102218194945173,0.0008665378730663289,0.003659943795095767,3.2891178131103516,2019-06-18 14:51:16:013
-0.032724253833293915,-0.03640738129615784,9.814313888549805,0.0038076519677975387,0.003530349278995737,-0.001934060274389437,3.2950053215026855,2019-06-18 14:51:16:019
-0.05906650051474571,-0.034012630581855774,9.802340507507324,7.831605963855469e-05,0.004063111534174186,-0.000735345135219345,3.299117088317871,2019-06-18 14:51:16:023
-0.04948750138282776,0.004303365014493465,9.795156478881836,0.002076174638467579,0.0008665378730663289,-0.0016676791468002124,3.3050074577331543,2019-06-18 14:51:16:029
-0.03511900454759598,-0.014854632318019867,9.76402473449707,0.002209365202262191,0.0025980153324334514,-0.0026000132233996607,3.3091211318969727,2019-06-18 14:51:16:033
-0.02314525656402111,-0.01724938116967678,9.821497917175293,0.001143840691905293,0.003796730406584962,-0.0010017262628085697,3.314138889312744,2019-06-18 14:51:16:038
-0.027934754267334938,-0.05077587813138962,9.799945831298828,0.0028753180212352527,0.0021984436410496144,0.005924183639678501,3.3191943168640137,2019-06-18 14:51:16:043
-0.02314525656402111,-0.012459882535040379,9.835866928100586,0.005405938733332886,0.0023316342048442266,0.003393562667506543,3.3250555992126465,2019-06-18 14:51:16:049
-0.07104025036096573,-0.06274962425231934,9.8167085647583,0.0008774594992974871,-6.579614257819981e-05,0.0003301794401561345,3.329113483428955,2019-06-18 14:51:16:053
-0.047092754393815994,-0.034012630581855774,9.768814086914062,-0.0017863519716505025,0.004462683485632349,0.0004633700039507468,3.3350000381469727,2019-06-18 14:51:16:059
-0.020750505849719048,-0.02443363144993782,9.716129302978516,0.0006110783717082625,0.0004669661491732013,0.0007297511315399715,3.339118480682373,2019-06-18 14:51:16:063
-0.06864549964666367,-0.00048613420221954584,9.859814643859863,0.0032748897126190896,-0.0003321772986130537,0.001528894514307645,3.345003604888916,2019-06-18 14:51:16:069
-0.01596100628376007,-0.03161787986755371,9.811919212341309,0.005272748429612599,0.0039299209703795735,0.0005965605677453591,3.3491106033325195,2019-06-18 14:51:16:073
-0.04230325296521187,-0.007670383434742689,9.787971496582031,0.0008774594992974871,0.006060970251167696,0.003393562667506543,3.3550353050231934,2019-06-18 14:51:16:079
-0.06385599821805954,-0.026828380301594734,9.8167085647583,-0.0028518764820074007,0.00632735137875692,0.0005965605677453591,3.3591389656066895,2019-06-18 14:51:16:083
-0.020750505849719048,-0.02443363144993782,9.807129859924316,-0.004316972683748136,0.0016656812558340024,0.003926324922684992,3.365011692047119,2019-06-18 14:51:16:089
-0.030329504981637,-0.03161787986755371,9.814313888549805,0.0038076519677975387,0.004063111534174186,-0.0014012980192109879,3.369119644165039,2019-06-18 14:51:16:093
-0.04469800367951393,-0.014854632318019867,9.811919212341309,0.0028753180212352527,-6.579614257819981e-05,0.002328037897075319,3.375002384185791,2019-06-18 14:51:16:099
-0.061461251229047775,-0.055565375834703445,9.826288223266602,0.004873176478154437,0.0009997284368609412,0.0008629416953345836,3.3800082206726074,2019-06-18 14:51:16:104
-0.025540005415678024,-0.09627611935138702,9.799945831298828,0.0004778877754043595,-6.579614257819981e-05,-0.0022004415320158242,3.3841185569763184,2019-06-18 14:51:16:108
-0.047092754393815994,-0.05077587813138962,9.790366172790527,0.0027421274574406405,0.0011329190006555533,0.0029939909761227054,3.38999605178833,2019-06-18 14:51:16:114
-0.05906650051474571,-0.026828380301594734,9.742471694946289,0.0018097935108783545,0.004462683485632349,-0.0010017262628085697,3.3950061798095703,2019-06-18 14:51:16:119
-0.03511900454759598,-0.03161787986755371,9.756839752197266,0.0019429840746729666,0.0002005850053293314,0.00326037210371193,3.3991408348083496,2019-06-18 14:51:16:123
-0.05906650051474571,-0.03161787986755371,9.737682342529297,-0.0015199708440612782,0.005661398299709534,-0.0027332037871942733,3.405020236968994,2019-06-18 14:51:16:129
-0.011171507649123669,-0.06993387639522552,9.771208763122559,0.002076174638467579,0.007792447840571981,0.0017952757719340324,3.4091687202453613,2019-06-18 14:51:16:133
-0.032724253833293915,0.004303365014493465,9.780787467956543,0.0032748897126190896,0.004329492661763411,0.0019284663357286445,3.415010452270508,2019-06-18 14:51:16:139
-0.05906650051474571,-0.01006513275206089,9.8167085647583,0.00473998617443415,0.0006001567454771042,0.0021948473332807066,3.4191322326660156,2019-06-18 14:51:16:143
-0.032724253833293915,-0.019644131883978844,9.718523979187012,0.003141699148824477,0.00486225491694186,0.004459087177863441,3.425006866455078,2019-06-18 14:51:16:149
-0.03751375526189804,-0.019644131883978844,9.797551155090332,0.0010106500630920993,0.0011329190006555533,0.0001969888601068769,3.429123878479004,2019-06-18 14:51:16:153
-0.025540005415678024,-0.048381127417087555,9.802340507507324,-0.0015199708440612782,0.004729064613221573,0.0035267532313011545,3.435006618499756,2019-06-18 14:51:16:159
-0.039908502250909805,-0.048381127417087555,9.814313888549805,-0.0007208273962750229,0.002864396460022676,-0.0011349168916217633,3.4399986267089844,2019-06-18 14:51:16:164
-0.04948750138282776,-0.041196878999471664,9.771208763122559,0.0024757463298514157,0.0016656812558340024,-0.000735345135219345,3.444126605987549,2019-06-18 14:51:16:168
-0.04948750138282776,-0.0388021282851696,9.76402473449707,0.0018097935108783545,0.0016656812558340024,0.0007297511315399715,3.4500012397766113,2019-06-18 14:51:16:174
-0.020750505849719048,-0.06035487726330757,9.8167085647583,-0.00045444623617650777,-0.0016640829690684673,0.0013957039505130327,3.4550299644470215,2019-06-18 14:51:16:179
-0.054277002811431885,-0.012459882535040379,9.795156478881836,0.0010106500630920993,0.004462683485632349,-6.939229186431566e-05,3.459115505218506,2019-06-18 14:51:16:183
-0.039908502250909805,-0.03161787986755371,9.787971496582031,-0.0005876368324804107,0.002864396460022676,-0.0020672508381840496,3.4650025367736816,2019-06-18 14:51:16:189
-0.030329504981637,-0.014854632318019867,9.826288223266602,-5.487451634704159e-05,0.0039299209703795735,0.0005965605677453591,3.4691214561462402,2019-06-18 14:51:16:193
-0.04948750138282776,-0.05317062884569168,9.843050956726074,0.0023425557660568036,0.0023316342048442266,0.0029939909761227054,3.4750075340270996,2019-06-18 14:51:16:199
-0.05667174980044365,0.006698114797472954,9.840656280517578,0.0027421274574406405,0.004462683485632349,0.002461228460869931,3.4799981117248535,2019-06-18 14:51:16:204
-0.03751375526189804,-0.048381127417087555,9.847840309143066,-0.002452304790623564,0.005128636044531084,-0.0037987282975511715,3.48411226272583,2019-06-18 14:51:16:208
-0.05906650051474571,-0.034012630581855774,9.790366172790527,0.0019429840746729666,0.0021984436410496144,0.001528894514307645,3.4900407791137695,2019-06-18 14:51:16:214
-0.04230325296521187,-0.029223131015896797,9.792760848999023,0.0004778877754043595,0.005661398299709534,-0.003399156606167335,3.4941234588623047,2019-06-18 14:51:16:218
-0.07343500107526779,-0.029223131015896797,9.790366172790527,0.00154341238328913,0.0032639681514065122,-0.0016676791468002124,3.5000243186950684,2019-06-18 14:51:16:224
-0.06385599821805954,-0.04598637670278549,9.761629104614258,-0.0035178293009804624,0.003397158715201125,0.00166208520813942,3.504117012023926,2019-06-18 14:51:16:228
-0.03511900454759598,-0.04359162971377373,9.787971496582031,0.0023425557660568036,0.005661398299709534,-0.000735345135219345,3.5099997520446777,2019-06-18 14:51:16:234
-0.07582975178956985,-0.04598637670278549,9.747261047363281,0.005805510684791048,0.003397158715201125,0.00326037210371193,3.5141119956970215,2019-06-18 14:51:16:238
-0.03511900454759598,-0.055565375834703445,9.795156478881836,-0.002452304790623564,0.008058828968161205,-0.0014012980192109879,3.520008087158203,2019-06-18 14:51:16:244
-0.06385599821805954,-0.026828380301594734,9.86220932006836,-0.00018806509233263786,0.0031307775876119005,0.0007297511315399715,3.5241189002990723,2019-06-18 14:51:16:248
