ACCELEROMETER X (m/s²),ACCELEROMETER Y (m/s²),ACCELEROMETER Z (m/s²),GYROSCOPE X (rad/s),GYROSCOPE Y (rad/s),GYROSCOPE Z (rad/s),Time since start in ms ,YYYY-MO-DD HH-MI-SS_SSS
2.2864276123046876,-9.674820922851563,1.1216663208007813,0.03357449266857497,0.03943161614349987,0.011723690768746563,0.0,2019-06-20 16:21:39:555
2.2780480346679686,-9.658061767578126,1.1288488159179688,0.03330817655956705,0.03916530003449194,0.010525268278210905,0.005120038986206055,2019-06-20 16:21:39:560
2.282836364746094,-9.697565490722656,1.1132867431640625,0.03197659601452743,0.03823319365296421,0.01145737465973864,0.009984016418457031,2019-06-20 16:21:39:565
2.28882177734375,-9.683200500488281,1.1132867431640625,0.032242912123535354,0.037966877543956286,0.010658426332714866,0.015104055404663086,2019-06-20 16:21:39:570
2.2636830444335936,-9.665244262695312,1.0977246704101562,0.0327755443415512,0.038100035598460244,0.010258952169202981,0.019968032836914062,2019-06-20 16:21:39:575
2.2768509521484375,-9.6724267578125,1.1408196411132812,0.032642386287047236,0.03783371948945232,0.009060529678667323,0.025088071823120117,2019-06-20 16:21:39:580
2.3043838500976563,-9.670032592773437,1.125257568359375,0.03237607017803931,0.037301087271436474,0.008661055515155438,0.030208110809326172,2019-06-20 16:21:39:585
2.297201354980469,-9.664047180175782,1.0905421752929687,0.0327755443415512,0.03557003256288497,0.00946000384217921,0.03507208824157715,2019-06-20 16:21:39:590
2.285230529785156,-9.661653015136718,1.0917392578125,0.03250922823254328,0.03583634867189289,0.008527897460651477,0.0401921272277832,2019-06-20 16:21:39:595
2.2983984375,-9.641302612304687,1.1096954956054688,0.03357449266857497,0.036368980889908746,0.009060529678667323,0.04505610466003418,2019-06-20 16:21:39:600
2.3055809326171874,-9.674820922851563,1.12046923828125,0.03171027990551951,0.03663529699891667,0.007862107188131667,0.050176143646240234,2019-06-20 16:21:39:605
2.309172180175781,-9.6724267578125,1.0618121948242187,0.03197659601452743,0.03517055839937308,0.007329474970115818,0.05504012107849121,2019-06-20 16:21:39:610
2.303186767578125,-9.66285009765625,1.08216259765625,0.03197659601452743,0.03490424229036516,0.008261581351643552,0.060160160064697266,2019-06-20 16:21:39:615
2.3199459228515624,-9.67362384033203,1.110892578125,0.032642386287047236,0.03557003256288497,0.007862107188131667,0.06502413749694824,2019-06-20 16:21:39:620
2.325931335449219,-9.690382995605468,1.0989217529296875,0.03317501850506309,0.03570319061738893,0.0087942135696594,0.0701441764831543,2019-06-20 16:21:39:625
2.337902160644531,-9.658061767578126,1.08216259765625,0.03290870239605516,0.036102664780900816,0.01012579411469902,0.07500815391540527,2019-06-20 16:21:39:630
2.342690490722656,-9.679609252929687,1.1084984130859374,0.033041860450559124,0.03663529699891667,0.009593161896683172,0.08012795448303223,2019-06-20 16:21:39:635
2.3247342529296873,-9.6724267578125,1.0809655151367188,0.03397396683208686,0.037301087271436474,0.010258952169202981,0.0849921703338623,2019-06-20 16:21:39:640
2.3199459228515624,-9.679609252929687,1.0785713500976561,0.03290870239605516,0.038100035598460244,0.009992636060195056,0.09011197090148926,2019-06-20 16:21:39:645
2.3498729858398435,-9.687988830566406,1.0977246704101562,0.033041860450559124,0.0392984580889959,0.011191058550730713,0.09497594833374023,2019-06-20 16:21:39:650
2.3211430053710935,-9.671229675292969,1.10131591796875,0.033707650723078936,0.03863266781647609,0.011723690768746563,0.10009598731994629,2019-06-20 16:21:39:655
2.3450846557617187,-9.678412170410157,1.0893450927734374,0.03357449266857497,0.03969793225250779,0.012389481041266371,0.10495996475219727,2019-06-20 16:21:39:660
2.328325500488281,-9.668835510253906,1.0977246704101562,0.03250922823254328,0.040630038634035526,0.012655797150274295,0.11008000373840332,2019-06-20 16:21:39:665
2.3043838500976563,-9.649682189941405,1.0666005249023438,0.03210975406903139,0.041562145015563254,0.013321587422794106,0.11520004272460938,2019-06-20 16:21:39:670
2.3163546752929687,-9.64489385986328,1.0654034423828125,0.032242912123535354,0.04196161917907514,0.013188429368290141,0.12006402015686035,2019-06-20 16:21:39:675
2.2900188598632814,-9.629331787109376,1.0809655151367188,0.03237607017803931,0.04196161917907514,0.011856848823250525,0.1251840591430664,2019-06-20 16:21:39:680
2.2732597045898437,-9.646090942382813,1.1025130004882813,0.031443963796511584,0.04102951279754741,0.011590532714242601,0.13004803657531738,2019-06-20 16:21:39:685
2.2768509521484375,-9.650879272460937,1.1384254760742187,0.03171027990551951,0.041428986961059296,0.009992636060195056,0.13516807556152344,2019-06-20 16:21:39:690
2.284033447265625,-9.665244262695312,1.1551846313476561,0.03171027990551951,0.042227935288083066,0.011191058550730713,0.14003205299377441,2019-06-20 16:21:39:695
2.264880126953125,-9.654470520019531,1.1551846313476561,0.03210975406903139,0.0420947772335791,0.011723690768746563,0.14515209197998047,2019-06-20 16:21:39:700
2.255303466796875,-9.636514282226562,1.1276517333984375,0.031044489632999692,0.04196161917907514,0.010658426332714866,0.15001606941223145,2019-06-20 16:21:39:705
2.2385443115234374,-9.668835510253906,1.1336371459960937,0.03091133157849573,0.04116267085205137,0.008661055515155438,0.1551361083984375,2019-06-20 16:21:39:710
2.2373472290039063,-9.660455932617188,1.1312429809570312,0.030511857414983846,0.04089635474304345,0.007462633024619782,0.16000008583068848,2019-06-20 16:21:39:715
2.239741394042969,-9.67362384033203,1.1120896606445312,0.03131080574200762,0.0403637225250276,0.007196316915611857,0.16512012481689453,2019-06-20 16:21:39:720
2.203828918457031,-9.676018005371093,1.14919921875,0.030645015469487807,0.04023056447052364,0.006530526643092048,0.1699841022491455,2019-06-20 16:21:39:725
2.22178515625,-9.666441345214844,1.1324400634765626,0.03131080574200762,0.03903214197998798,0.0051989460980524285,0.17510414123535156,2019-06-20 16:21:39:730
2.239741394042969,-9.659258850097656,1.1228634033203124,0.031177647687503654,0.03863266781647609,0.0028021011169811144,0.17996811866760254,2019-06-20 16:21:39:735
2.2624859619140625,-9.668835510253906,1.1168779907226563,0.03011238325147196,0.03863266781647609,0.0030684172259890377,0.1850881576538086,2019-06-20 16:21:39:740
2.2756538696289064,-9.676018005371093,1.1276517333984375,0.03077817352399177,0.03836635170746817,0.003334733334996962,0.19020795822143555,2019-06-20 16:21:39:745
2.3067780151367185,-9.677215087890625,1.0953305053710938,0.03077817352399177,0.03770056143494836,0.0024026269534692286,0.19507217407226562,2019-06-20 16:21:39:750
2.2960042724609373,-9.659258850097656,1.1025130004882813,0.030511857414983846,0.03849950976197213,0.0026689430624771524,0.20019197463989258,2019-06-20 16:21:39:755
2.3319167480468748,-9.683200500488281,1.08216259765625,0.031044489632999692,0.038898983925484014,0.001869994735453381,0.20505595207214355,2019-06-20 16:21:39:760
2.36543505859375,-9.674820922851563,1.06300927734375,0.031443963796511584,0.03823319365296421,0.0022694688989652666,0.2101759910583496,2019-06-20 16:21:39:765
2.3630408935546874,-9.660455932617188,1.0989217529296875,0.030511857414983846,0.037301087271436474,0.0038673655530128094,0.21503996849060059,2019-06-20 16:21:39:770
2.36543505859375,-9.699959655761718,1.0977246704101562,0.031443963796511584,0.03663529699891667,0.005731578316068277,0.22016000747680664,2019-06-20 16:21:39:775
2.3606467285156247,-9.70235382080078,1.1037100830078124,0.03011238325147196,0.037167929216932516,0.006930000806603933,0.22502398490905762,2019-06-20 16:21:39:780
2.3690263061523438,-9.670032592773437,1.1276517333984375,0.03091133157849573,0.03703477116242855,0.007462633024619782,0.23014402389526367,2019-06-20 16:21:39:785
2.3869825439453125,-9.64369677734375,1.1468050537109375,0.03077817352399177,0.037167929216932516,0.007595791079123743,0.23500800132751465,2019-06-20 16:21:39:790
2.3726175537109375,-9.668835510253906,1.125257568359375,0.03011238325147196,0.03690161310792459,0.008527897460651477,0.2401280403137207,2019-06-20 16:21:39:795
2.3905737915039063,-9.687988830566406,1.1073013305664061,0.031177647687503654,0.038100035598460244,0.010392110223706943,0.24499201774597168,2019-06-20 16:21:39:800
2.3774058837890624,-9.66285009765625,1.1563817138671875,0.03157712185101554,0.03849950976197213,0.011057900496226753,0.25011205673217773,2019-06-20 16:21:39:805
2.366632141113281,-9.670032592773437,1.1563817138671875,0.03237607017803931,0.038765825870980056,0.011856848823250525,0.2549760341644287,2019-06-20 16:21:39:810
2.3438875732421875,-9.685594665527343,1.1168779907226563,0.03157712185101554,0.03770056143494836,0.011856848823250525,0.26009607315063477,2019-06-20 16:21:39:815
2.3750117187499997,-9.67362384033203,1.0845567626953125,0.03077817352399177,0.03943161614349987,0.012788955204778256,0.26496005058288574,2019-06-20 16:21:39:820
2.3498729858398435,-9.656864685058594,1.0977246704101562,0.03197659601452743,0.0392984580889959,0.013854219640809953,0.2700800895690918,2019-06-20 16:21:39:825
2.352267150878906,-9.67362384033203,1.0965275878906249,0.032642386287047236,0.03916530003449194,0.013987377695313915,0.27520012855529785,2019-06-20 16:21:39:830
2.3594496459960936,-9.687988830566406,1.1288488159179688,0.031044489632999692,0.03849950976197213,0.014253693804321838,0.28006410598754883,2019-06-20 16:21:39:835
2.3438875732421875,-9.686791748046875,1.1312429809570312,0.029979225196968,0.03863266781647609,0.01358790353180203,0.2851841449737549,2019-06-20 16:21:39:840
2.328325500488281,-9.690382995605468,1.1456079711914062,0.031044489632999692,0.037301087271436474,0.013854219640809953,0.29004812240600586,2019-06-20 16:21:39:845
2.3151575927734376,-9.705945068359375,1.1372283935546874,0.03210975406903139,0.0375674033804444,0.013188429368290141,0.2951681613922119,2019-06-20 16:21:39:850
2.2816392822265623,-9.695171325683594,1.1216663208007813,0.03237607017803931,0.03823319365296421,0.012922113259282218,0.3000321388244629,2019-06-20 16:21:39:855
2.282836364746094,-9.686791748046875,1.1312429809570312,0.032642386287047236,0.03783371948945232,0.010791584387218828,0.30515217781066895,2019-06-20 16:21:39:860
2.2900188598632814,-9.707142150878907,1.1216663208007813,0.031843437960023466,0.037301087271436474,0.012389481041266371,0.3100161552429199,2019-06-20 16:21:39:865
2.3067780151367185,-9.691580078125,1.0845567626953125,0.03197659601452743,0.037966877543956286,0.01145737465973864,0.3151359558105469,2019-06-20 16:21:39:870
2.3019896850585937,-9.685594665527343,1.0905421752929687,0.033041860450559124,0.038100035598460244,0.01145737465973864,0.32000017166137695,2019-06-20 16:21:39:875
2.2960042724609373,-9.674820922851563,1.1025130004882813,0.03437344099559874,0.03849950976197213,0.011057900496226753,0.3251199722290039,2019-06-20 16:21:39:880
2.312763427734375,-9.641302612304687,1.106104248046875,0.033041860450559124,0.03823319365296421,0.009593161896683172,0.3299839496612549,2019-06-20 16:21:39:885
2.2732597045898437,-9.640105529785156,1.12046923828125,0.03250922823254328,0.037966877543956286,0.009593161896683172,0.33510398864746094,2019-06-20 16:21:39:890
2.284033447265625,-9.655667602539062,1.1180750732421876,0.033041860450559124,0.037966877543956286,0.009593161896683172,0.3399679660797119,2019-06-20 16:21:39:895
2.270865539550781,-9.659258850097656,1.0989217529296875,0.0327755443415512,0.0392984580889959,0.00946000384217921,0.34508800506591797,2019-06-20 16:21:39:900
2.285230529785156,-9.638908447265624,1.1360313110351563,0.033707650723078936,0.03849950976197213,0.008661055515155438,0.350208044052124,2019-06-20 16:21:39:905
2.2900188598632814,-9.6532734375,1.1001188354492186,0.032642386287047236,0.038898983925484014,0.007862107188131667,0.355072021484375,2019-06-20 16:21:39:910
2.2493180541992186,-9.646090942382813,1.1276517333984375,0.03237607017803931,0.038898983925484014,0.006397368588588085,0.36019206047058105,2019-06-20 16:21:39:915
2.2672742919921873,-9.654470520019531,1.1360313110351563,0.033840808777582894,0.0375674033804444,0.005465262207060353,0.36505603790283203,2019-06-20 16:21:39:920
2.2481209716796875,-9.680806335449219,1.1073013305664061,0.033041860450559124,0.03823319365296421,0.004932629989044505,0.3701760768890381,2019-06-20 16:21:39:925
2.2337559814453125,-9.660455932617188,1.1096954956054688,0.03397396683208686,0.038765825870980056,0.0041336816620207335,0.37504005432128906,2019-06-20 16:21:39:930
2.255303466796875,-9.684397583007812,1.1132867431640625,0.03330817655956705,0.03849950976197213,0.0026689430624771524,0.3801600933074951,2019-06-20 16:21:39:935
2.268471374511719,-9.683200500488281,1.1228634033203124,0.03357449266857497,0.03836635170746817,0.002935259171485076,0.3850240707397461,2019-06-20 16:21:39:940
2.28882177734375,-9.677215087890625,1.1503963012695313,0.033840808777582894,0.038765825870980056,0.0026689430624771524,0.39014410972595215,2019-06-20 16:21:39:945
2.311566345214844,-9.67362384033203,1.1037100830078124,0.03317501850506309,0.038765825870980056,0.001736836680949419,0.3950080871582031,2019-06-20 16:21:39:950
2.325931335449219,-9.666441345214844,1.0618121948242187,0.033041860450559124,0.03903214197998798,0.001736836680949419,0.4001281261444092,2019-06-20 16:21:39:955
2.336705078125,-9.661653015136718,1.0701917724609376,0.032642386287047236,0.038898983925484014,0.0024026269534692286,0.40499210357666016,2019-06-20 16:21:39:960
2.3462817382812498,-9.636514282226562,1.0809655151367188,0.033041860450559124,0.03863266781647609,0.0013373625174375333,0.4101121425628662,2019-06-20 16:21:39:965
2.3678292236328122,-9.665244262695312,1.0833596801757812,0.033707650723078936,0.03943161614349987,0.002003152789957343,0.4149761199951172,2019-06-20 16:21:39:970
2.370223388671875,-9.683200500488281,1.1240604858398437,0.03357449266857497,0.038898983925484014,0.003334733334996962,0.42009615898132324,2019-06-20 16:21:39:975
2.3774058837890624,-9.684397583007812,1.0965275878906249,0.03344133461407101,0.04049688057953156,0.0038673655530128094,0.4252159595489502,2019-06-20 16:21:39:980
2.378602966308594,-9.6724267578125,1.1180750732421876,0.03290870239605516,0.0420947772335791,0.004932629989044505,0.4300801753997803,2019-06-20 16:21:39:985
2.3965592041015626,-9.666441345214844,1.1084984130859374,0.03171027990551951,0.041562145015563254,0.006131052479580162,0.4351999759674072,2019-06-20 16:21:39:990
2.4121212768554687,-9.668835510253906,1.1084984130859374,0.03197659601452743,0.042361093342587024,0.007329474970115818,0.4400639533996582,2019-06-20 16:21:39:995
2.3833912963867188,-9.658061767578126,1.1180750732421876,0.03344133461407101,0.04169530307006722,0.00812842329713959,0.44518399238586426,2019-06-20 16:21:40:000
2.3833912963867188,-9.686791748046875,1.1025130004882813,0.03290870239605516,0.04196161917907514,0.007728949133627705,0.45004796981811523,2019-06-20 16:21:40:005
2.4025446166992186,-9.6532734375,1.0941334228515625,0.033707650723078936,0.041562145015563254,0.009593161896683172,0.4551680088043213,2019-06-20 16:21:40:010
2.370223388671875,-9.668835510253906,1.1025130004882813,0.033041860450559124,0.04182846112457118,0.011057900496226753,0.46003198623657227,2019-06-20 16:21:40:015
2.3881796264648436,-9.664047180175782,1.0965275878906249,0.03171027990551951,0.04329319972411476,0.012123164932258448,0.4651520252227783,2019-06-20 16:21:40:020
2.3642379760742185,-9.660455932617188,1.0953305053710938,0.03157712185101554,0.04435846416014646,0.012922113259282218,0.4700160026550293,2019-06-20 16:21:40:025
2.3738146362304686,-9.671229675292969,1.08216259765625,0.032642386287047236,0.04555688665068212,0.014120535749817876,0.47513604164123535,2019-06-20 16:21:40:030
2.395362121582031,-9.656864685058594,1.0857538452148436,0.032642386287047236,0.044624780269154375,0.013854219640809953,0.48000001907348633,2019-06-20 16:21:40:035
2.395362121582031,-9.661653015136718,1.077374267578125,0.033707650723078936,0.04569004470518608,0.015052642131345608,0.4851200580596924,2019-06-20 16:21:40:040
2.3726175537109375,-9.661653015136718,1.1120896606445312,0.03397396683208686,0.04555688665068212,0.01651738073088919,0.48998403549194336,2019-06-20 16:21:40:045
2.36543505859375,-9.637711364746094,1.067797607421875,0.033041860450559124,0.044624780269154375,0.01638422267638523,0.4951040744781494,2019-06-20 16:21:40:050
2.3450846557617187,-9.648485107421875,1.0881480102539063,0.031443963796511584,0.0448910963781623,0.017050012948905038,0.4999680519104004,2019-06-20 16:21:40:055
2.3211430053710935,-9.664047180175782,1.1276517333984375,0.03237607017803931,0.0448910963781623,0.01638422267638523,0.5050880908966064,2019-06-20 16:21:40:060
2.2912159423828125,-9.671229675292969,1.1432138061523438,0.0327755443415512,0.04369267388762665,0.015984748512873345,0.5102081298828125,2019-06-20 16:21:40:065
2.303186767578125,-9.67362384033203,1.1180750732421876,0.03210975406903139,0.04262740945159495,0.015318958240353535,0.5150721073150635,2019-06-20 16:21:40:070
2.2912159423828125,-9.66285009765625,1.1336371459960937,0.032242912123535354,0.04276056750609891,0.015984748512873345,0.5201921463012695,2019-06-20 16:21:40:075
2.282836364746094,-9.64369677734375,1.1192721557617187,0.03290870239605516,0.044225306105642494,0.015984748512873345,0.5250561237335205,2019-06-20 16:21:40:080
2.284033447265625,-9.659258850097656,1.1480021362304687,0.03344133461407101,0.04329319972411476,0.014786326022337684,0.5301761627197266,2019-06-20 16:21:40:085
2.294807189941406,-9.676018005371093,1.1120896606445312,0.03237607017803931,0.04249425139709099,0.013721061586305991,0.5350401401519775,2019-06-20 16:21:40:090
2.2912159423828125,-9.668835510253906,1.1192721557617187,0.03210975406903139,0.041428986961059296,0.01358790353180203,0.5401601791381836,2019-06-20 16:21:40:095
2.2756538696289064,-9.677215087890625,1.1132867431640625,0.03197659601452743,0.04023056447052364,0.012522639095770333,0.5450241565704346,2019-06-20 16:21:40:100
2.285230529785156,-9.667638427734374,1.1264546508789062,0.031443963796511584,0.0403637225250276,0.01305527131378618,0.5501439571380615,2019-06-20 16:21:40:105
2.2768509521484375,-9.677215087890625,1.110892578125,0.03157712185101554,0.0403637225250276,0.012655797150274295,0.5550081729888916,2019-06-20 16:21:40:110
2.3007926025390626,-9.666441345214844,1.1240604858398437,0.03210975406903139,0.04023056447052364,0.01225632298676241,0.5601279735565186,2019-06-20 16:21:40:115
2.299595520019531,-9.670032592773437,1.1001188354492186,0.033041860450559124,0.04023056447052364,0.012655797150274295,0.5649919509887695,2019-06-20 16:21:40:120
2.3187488403320313,-9.647288024902343,1.110892578125,0.033041860450559124,0.04023056447052364,0.012655797150274295,0.5701119899749756,2019-06-20 16:21:40:125
2.323537170410156,-9.679609252929687,1.1336371459960937,0.032642386287047236,0.038765825870980056,0.011856848823250525,0.5749759674072266,2019-06-20 16:21:40:130
2.2780480346679686,-9.650879272460937,1.1408196411132812,0.033041860450559124,0.03903214197998798,0.010525268278210905,0.5800960063934326,2019-06-20 16:21:40:135
2.2876246948242187,-9.656864685058594,1.115680908203125,0.033707650723078936,0.03836635170746817,0.010658426332714866,0.5849599838256836,2019-06-20 16:21:40:140
2.3055809326171874,-9.654470520019531,1.125257568359375,0.034639757104606664,0.037301087271436474,0.010525268278210905,0.5900800228118896,2019-06-20 16:21:40:145
2.2864276123046876,-9.655667602539062,1.1180750732421876,0.03317501850506309,0.036368980889908746,0.010258952169202981,0.5952000617980957,2019-06-20 16:21:40:150
2.285230529785156,-9.648485107421875,1.0989217529296875,0.03410712488659082,0.03770056143494836,0.010392110223706943,0.6000640392303467,2019-06-20 16:21:40:155
2.2912159423828125,-9.677215087890625,1.048644287109375,0.03237607017803931,0.03690161310792459,0.010392110223706943,0.6051840782165527,2019-06-20 16:21:40:160
2.3019896850585937,-9.676018005371093,1.0881480102539063,0.03397396683208686,0.036368980889908746,0.0087942135696594,0.6100480556488037,2019-06-20 16:21:40:165
2.312763427734375,-9.658061767578126,1.0701917724609376,0.033707650723078936,0.03570319061738893,0.008527897460651477,0.6151680946350098,2019-06-20 16:21:40:170
2.3247342529296873,-9.674820922851563,1.1144838256835938,0.03424028294109478,0.036102664780900816,0.009193687733171287,0.6200320720672607,2019-06-20 16:21:40:175
2.3534642333984372,-9.648485107421875,1.1216663208007813,0.03437344099559874,0.036502138944412704,0.008527897460651477,0.6251521110534668,2019-06-20 16:21:40:180
2.3474788208007813,-9.68200341796875,1.115680908203125,0.03477291515911063,0.037301087271436474,0.009060529678667323,0.6300160884857178,2019-06-20 16:21:40:185
2.3438875732421875,-9.693974243164062,1.106104248046875,0.03490607321361459,0.03836635170746817,0.009193687733171287,0.6351361274719238,2019-06-20 16:21:40:190
2.325931335449219,-9.67362384033203,1.1228634033203124,0.03437344099559874,0.0375674033804444,0.009193687733171287,0.6400001049041748,2019-06-20 16:21:40:195
2.3319167480468748,-9.685594665527343,1.1791262817382813,0.034506599050102706,0.03903214197998798,0.010525268278210905,0.6451201438903809,2019-06-20 16:21:40:200
2.3594496459960936,-9.66285009765625,1.13962255859375,0.03317501850506309,0.03969793225250779,0.01092474244172279,0.6499841213226318,2019-06-20 16:21:40:205
2.3450846557617187,-9.632923034667968,1.153987548828125,0.0327755443415512,0.039964248361515714,0.01092474244172279,0.6551041603088379,2019-06-20 16:21:40:210
2.342690490722656,-9.6724267578125,1.1228634033203124,0.032242912123535354,0.03903214197998798,0.011057900496226753,0.6599681377410889,2019-06-20 16:21:40:215
2.313960510253906,-9.704747985839843,1.1515933837890624,0.03290870239605516,0.03823319365296421,0.009859478005691095,0.6650881767272949,2019-06-20 16:21:40:220
2.322340087890625,-9.680806335449219,1.15877587890625,0.03210975406903139,0.0375674033804444,0.00946000384217921,0.6702079772949219,2019-06-20 16:21:40:225
2.3450846557617187,-9.671229675292969,1.1623671264648436,0.033041860450559124,0.037301087271436474,0.010658426332714866,0.6750719547271729,2019-06-20 16:21:40:230
2.337902160644531,-9.648485107421875,1.12046923828125,0.03250922823254328,0.03676845505342063,0.011191058550730713,0.6801919937133789,2019-06-20 16:21:40:235
2.354661315917969,-9.656864685058594,1.1025130004882813,0.0327755443415512,0.036102664780900816,0.011590532714242601,0.6850559711456299,2019-06-20 16:21:40:240
2.354661315917969,-9.671229675292969,1.1049071655273437,0.03210975406903139,0.03623582283540478,0.011590532714242601,0.6901760101318359,2019-06-20 16:21:40:245
2.3175517578125,-9.659258850097656,1.0689946899414062,0.03157712185101554,0.036102664780900816,0.011057900496226753,0.6950399875640869,2019-06-20 16:21:40:250
2.312763427734375,-9.65207635498047,1.08216259765625,0.031843437960023466,0.0347710842358612,0.011057900496226753,0.700160026550293,2019-06-20 16:21:40:255
2.293610107421875,-9.689185913085938,1.0953305053710938,0.031843437960023466,0.033838977854333464,0.011191058550730713,0.705024003982544,2019-06-20 16:21:40:260
2.297201354980469,-9.659258850097656,1.0953305053710938,0.031443963796511584,0.03437161007234931,0.010525268278210905,0.71014404296875,2019-06-20 16:21:40:265
2.3103692626953123,-9.685594665527343,1.08216259765625,0.03091133157849573,0.03330634563631762,0.010791584387218828,0.715008020401001,2019-06-20 16:21:40:270
2.3151575927734376,-9.6724267578125,1.0366734619140625,0.031443963796511584,0.03330634563631762,0.011057900496226753,0.720128059387207,2019-06-20 16:21:40:275
2.323537170410156,-9.65207635498047,1.0725859375,0.03210975406903139,0.033705819799829506,0.011324216605234675,0.724992036819458,2019-06-20 16:21:40:280
2.3247342529296873,-9.677215087890625,1.1084984130859374,0.032642386287047236,0.03437161007234931,0.012123164932258448,0.7301120758056641,2019-06-20 16:21:40:285
2.3331138305664063,-9.685594665527343,1.06300927734375,0.0327755443415512,0.0347710842358612,0.011191058550730713,0.734976053237915,2019-06-20 16:21:40:290
2.3486759033203124,-9.67362384033203,1.1096954956054688,0.03330817655956705,0.033838977854333464,0.011590532714242601,0.7400960922241211,2019-06-20 16:21:40:295
2.351070068359375,-9.656864685058594,1.0737830200195313,0.03357449266857497,0.03410529396334139,0.011723690768746563,0.7449600696563721,2019-06-20 16:21:40:300
2.354661315917969,-9.685594665527343,1.0917392578125,0.034506599050102706,0.03517055839937308,0.011856848823250525,0.7500801086425781,2019-06-20 16:21:40:305
2.3977562866210937,-9.696368408203124,1.08216259765625,0.03410712488659082,0.03437161007234931,0.012922113259282218,0.7552001476287842,2019-06-20 16:21:40:310
2.3917708740234374,-9.68200341796875,1.086950927734375,0.03424028294109478,0.03490424229036516,0.01305527131378618,0.7600641250610352,2019-06-20 16:21:40:315
2.3917708740234374,-9.679609252929687,1.1276517333984375,0.033707650723078936,0.035436874508381004,0.012522639095770333,0.7651841640472412,2019-06-20 16:21:40:320
2.3917708740234374,-9.667638427734374,1.0845567626953125,0.032642386287047236,0.03663529699891667,0.013188429368290141,0.7700481414794922,2019-06-20 16:21:40:325
2.378602966308594,-9.693974243164062,1.0809655151367188,0.03250922823254328,0.0375674033804444,0.0143868518588258,0.7751681804656982,2019-06-20 16:21:40:330
2.3881796264648436,-9.659258850097656,1.0929363403320311,0.032242912123535354,0.0392984580889959,0.014786326022337684,0.7800321578979492,2019-06-20 16:21:40:335
2.3642379760742185,-9.650879272460937,1.1420167236328125,0.03210975406903139,0.038898983925484014,0.015851590458369383,0.7851519584655762,2019-06-20 16:21:40:340
2.342690490722656,-9.64489385986328,1.0917392578125,0.03330817655956705,0.040630038634035526,0.015452116294857496,0.7900161743164062,2019-06-20 16:21:40:345
2.3594496459960936,-9.667638427734374,1.1216663208007813,0.032642386287047236,0.0403637225250276,0.01651738073088919,0.7951359748840332,2019-06-20 16:21:40:350
2.352267150878906,-9.648485107421875,1.1037100830078124,0.032642386287047236,0.0403637225250276,0.017982119330432773,0.7999999523162842,2019-06-20 16:21:40:355
2.3355079956054685,-9.661653015136718,1.0917392578125,0.03330817655956705,0.04102951279754741,0.01638422267638523,0.8051199913024902,2019-06-20 16:21:40:360
2.32712841796875,-9.63531719970703,1.1456079711914062,0.03410712488659082,0.040763196688539484,0.01638422267638523,0.8099839687347412,2019-06-20 16:21:40:365
2.378602966308594,-9.649682189941405,1.1336371459960937,0.033840808777582894,0.04249425139709099,0.01771580322142485,0.8151040077209473,2019-06-20 16:21:40:370
2.3594496459960936,-9.641302612304687,1.1084984130859374,0.033041860450559124,0.04276056750609891,0.017183171003409,0.8199679851531982,2019-06-20 16:21:40:375
2.36543505859375,-9.666441345214844,1.0797684326171875,0.033840808777582894,0.04329319972411476,0.017316329057912964,0.8250880241394043,2019-06-20 16:21:40:380
2.379800048828125,-9.665244262695312,1.1025130004882813,0.03344133461407101,0.04449162221465042,0.017582645166920888,0.8302080631256104,2019-06-20 16:21:40:385
2.378602966308594,-9.65207635498047,1.0893450927734374,0.03344133461407101,0.0448910963781623,0.016650538785393153,0.8350720405578613,2019-06-20 16:21:40:390
2.3738146362304686,-9.631725952148438,1.1264546508789062,0.03344133461407101,0.046089518868697964,0.018115277384936734,0.8401920795440674,2019-06-20 16:21:40:395
2.392967956542969,-9.636514282226562,1.077374267578125,0.03317501850506309,0.04582320275969004,0.0199794901479922,0.8450560569763184,2019-06-20 16:21:40:400
2.395362121582031,-9.656864685058594,1.1228634033203124,0.0327755443415512,0.047554257468241545,0.020112648202496163,0.8501760959625244,2019-06-20 16:21:40:405
2.3762088012695313,-9.661653015136718,1.1049071655273437,0.03210975406903139,0.04795373163175343,0.020911596529519936,0.8550400733947754,2019-06-20 16:21:40:410
2.4205008544921873,-9.667638427734374,1.0965275878906249,0.03171027990551951,0.04822004774076135,0.021044754584023898,0.8601601123809814,2019-06-20 16:21:40:415
2.3905737915039063,-9.659258850097656,1.1312429809570312,0.03210975406903139,0.04888583801328116,0.021044754584023898,0.8650240898132324,2019-06-20 16:21:40:420
2.40374169921875,-9.640105529785156,1.1324400634765626,0.031843437960023466,0.050750050776336625,0.022376335129063514,0.8701441287994385,2019-06-20 16:21:40:425
2.395362121582031,-9.667638427734374,1.15877587890625,0.03290870239605516,0.05061689272183267,0.0255721284371586,0.8750081062316895,2019-06-20 16:21:40:430
2.3977562866210937,-9.649682189941405,1.1551846313476561,0.031443963796511584,0.05021741855832078,0.025838444546166524,0.8801281452178955,2019-06-20 16:21:40:435
2.3917708740234374,-9.648485107421875,1.1743379516601562,0.031843437960023466,0.05141584104885644,0.025705286491662562,0.8849921226501465,2019-06-20 16:21:40:440
2.3618438110351563,-9.63531719970703,1.13962255859375,0.031044489632999692,0.05181531521236832,0.027036867036702182,0.8901121616363525,2019-06-20 16:21:40:445
2.357055480957031,-9.661653015136718,1.1120896606445312,0.030645015469487807,0.052214789375880206,0.028368447581741802,0.8949761390686035,2019-06-20 16:21:40:450
2.3881796264648436,-9.656864685058594,1.1456079711914062,0.03011238325147196,0.05181531521236832,0.029566870072277457,0.9000961780548096,2019-06-20 16:21:40:455
2.379800048828125,-9.625740539550781,1.1480021362304687,0.030511857414983846,0.05328005381191191,0.030365818399301227,0.9049601554870605,2019-06-20 16:21:40:460
2.3833912963867188,-9.636514282226562,1.1420167236328125,0.03011238325147196,0.05421216019343964,0.03129792478082896,0.9100799560546875,2019-06-20 16:21:40:465
2.3438875732421875,-9.646090942382813,1.1228634033203124,0.02931343492444819,0.0526142635393921,0.03249634727136462,0.9151999950408936,2019-06-20 16:21:40:470
2.3319167480468748,-9.646090942382813,1.1623671264648436,0.02918027686994423,0.05194847326687228,0.0328958214348765,0.9200639724731445,2019-06-20 16:21:40:475
2.284033447265625,-9.670032592773437,1.134834228515625,0.02931343492444819,0.05208163132137624,0.03369476976190027,0.9251840114593506,2019-06-20 16:21:40:480
2.2983984375,-9.6724267578125,1.1025130004882813,0.028913960760936306,0.052880579648400025,0.03409424392541217,0.9300479888916016,2019-06-20 16:21:40:485
2.3043838500976563,-9.679609252929687,1.1120896606445312,0.029579751033456114,0.05354636992091983,0.03329529559838839,0.9351680278778076,2019-06-20 16:21:40:490
2.2756538696289064,-9.696368408203124,1.1073013305664061,0.029579751033456114,0.05341321186641587,0.032363189216860655,0.9400320053100586,2019-06-20 16:21:40:495
2.268471374511719,-9.668835510253906,1.0977246704101562,0.029446592978952153,0.05248110548488813,0.03262950532586858,0.9451520442962646,2019-06-20 16:21:40:500
2.2481209716796875,-9.667638427734374,1.153987548828125,0.028913960760936306,0.05088320883084059,0.03262950532586858,0.9500160217285156,2019-06-20 16:21:40:505
2.216996826171875,-9.692777160644532,1.1096954956054688,0.02931343492444819,0.05101636688534455,0.03209687310785273,0.9551360607147217,2019-06-20 16:21:40:510
2.201434753417969,-9.684397583007812,1.1312429809570312,0.02931343492444819,0.0504837346673287,0.030099502290293303,0.9600000381469727,2019-06-20 16:21:40:515
2.2146026611328122,-9.667638427734374,1.1563817138671875,0.028248170488416498,0.050750050776336625,0.027835815363725955,0.9651200771331787,2019-06-20 16:21:40:520
2.2205880737304686,-9.67362384033203,1.12046923828125,0.02918027686994423,0.050750050776336625,0.025705286491662562,0.9699840545654297,2019-06-20 16:21:40:525
2.188266845703125,-9.678412170410157,1.13962255859375,0.029446592978952153,0.04941847023129701,0.023974231783111057,0.9751040935516357,2019-06-20 16:21:40:530
2.1822814331054685,-9.678412170410157,1.134834228515625,0.029712909087960076,0.04795373163175343,0.02344159956509521,0.9799680709838867,2019-06-20 16:21:40:535
2.1858726806640623,-9.654470520019531,1.1384254760742187,0.029446592978952153,0.04822004774076135,0.021044754584023898,0.9850881099700928,2019-06-20 16:21:40:540
2.1427777099609373,-9.661653015136718,1.1420167236328125,0.030245541305975922,0.04582320275969004,0.020245806257000124,0.9902081489562988,2019-06-20 16:21:40:545
2.15474853515625,-9.650879272460937,1.1288488159179688,0.02918027686994423,0.043026883615106835,0.01864790960295258,0.9950721263885498,2019-06-20 16:21:40:550
2.1260185546875,-9.684397583007812,1.1168779907226563,0.029712909087960076,0.043026883615106835,0.017982119330432773,1.0001921653747559,2019-06-20 16:21:40:555
2.1487631225585937,-9.698762573242186,1.1192721557617187,0.02931343492444819,0.04089635474304345,0.015851590458369383,1.0050561428070068,2019-06-20 16:21:40:560
2.1427777099609373,-9.707142150878907,1.1288488159179688,0.028780802706432344,0.040630038634035526,0.012655797150274295,1.010176181793213,2019-06-20 16:21:40:565
2.175098937988281,-9.691580078125,1.1420167236328125,0.02918027686994423,0.03863266781647609,0.010258952169202981,1.0150401592254639,2019-06-20 16:21:40:570
2.1798872680664063,-9.687988830566406,1.1420167236328125,0.029579751033456114,0.03676845505342063,0.007728949133627705,1.0201599597930908,2019-06-20 16:21:40:575
2.187069763183594,-9.691580078125,1.0785713500976561,0.02918027686994423,0.03583634867189289,0.005465262207060353,1.025024175643921,2019-06-20 16:21:40:580
2.1667193603515624,-9.698762573242186,1.0893450927734374,0.030245541305975922,0.03410529396334139,0.0034678913895009236,1.0301439762115479,2019-06-20 16:21:40:585
2.197843505859375,-9.665244262695312,1.086950927734375,0.030511857414983846,0.034504768126853276,0.001736836680949419,1.0350079536437988,2019-06-20 16:21:40:590
2.226573486328125,-9.674820922851563,1.106104248046875,0.03077817352399177,0.03410529396334139,0.00027209808140583804,1.0401279926300049,2019-06-20 16:21:40:595
2.2205880737304686,-9.697565490722656,1.0833596801757812,0.030511857414983846,0.03397213590883743,-0.0005268502456179334,1.0449919700622559,2019-06-20 16:21:40:600
2.2146026611328122,-9.676018005371093,1.06300927734375,0.031044489632999692,0.03237423925478988,-0.0005268502456179334,1.050112009048462,2019-06-20 16:21:40:605
2.239741394042969,-9.689185913085938,1.0737830200195313,0.031044489632999692,0.03157529092776611,-0.002657379117681324,1.054975986480713,2019-06-20 16:21:40:610
2.2289676513671877,-9.670032592773437,1.0809655151367188,0.03131080574200762,0.03170844898227007,-0.004388433826232828,1.060096025466919,2019-06-20 16:21:40:615
2.2301647338867188,-9.6724267578125,1.1240604858398437,0.031843437960023466,0.030776342600742343,-0.0057200143712724475,1.065216064453125,2019-06-20 16:21:40:620
2.242135559082031,-9.667638427734374,1.1192721557617187,0.03091133157849573,0.02984423621921461,-0.005453698262264523,1.070080041885376,2019-06-20 16:21:40:625
2.2193909912109375,-9.6532734375,1.1192721557617187,0.03157712185101554,0.030243710382726496,-0.007051594916312067,1.075200080871582,2019-06-20 16:21:40:630
2.2445297241210938,-9.692777160644532,1.0893450927734374,0.032242912123535354,0.02931160400119876,-0.007317911025319991,1.080064058303833,2019-06-20 16:21:40:635
2.2768509521484375,-9.676018005371093,1.0725859375,0.0327755443415512,0.029045287892190838,-0.00878264962486357,1.085184097290039,2019-06-20 16:21:40:640
2.2768509521484375,-9.678412170410157,1.0737830200195313,0.0327755443415512,0.029577920110206688,-0.008516333515855647,1.09004807472229,2019-06-20 16:21:40:645
2.294807189941406,-9.660455932617188,1.1240604858398437,0.033707650723078936,0.02931160400119876,-0.009581597951887342,1.095168113708496,2019-06-20 16:21:40:650
2.3151575927734376,-9.679609252929687,1.0833596801757812,0.03330817655956705,0.028379497619671026,-0.009714756006391304,1.100032091140747,2019-06-20 16:21:40:655
2.3307196655273437,-9.677215087890625,1.0929363403320311,0.03330817655956705,0.02864581372867895,-0.010913178496926962,1.1051521301269531,2019-06-20 16:21:40:660
2.30797509765625,-9.695171325683594,1.0570238647460937,0.033707650723078936,0.029444762055702726,-0.01157896876944677,1.110016107559204,2019-06-20 16:21:40:665
2.323537170410156,-9.693974243164062,1.0989217529296875,0.03357449266857497,0.0291784459466948,-0.012644233205478467,1.1151361465454102,2019-06-20 16:21:40:670
2.3247342529296873,-9.686791748046875,1.0977246704101562,0.03344133461407101,0.029444762055702726,-0.011312652660438847,1.1200001239776611,2019-06-20 16:21:40:675
2.341493408203125,-9.680806335449219,1.1132867431640625,0.033840808777582894,0.02984423621921461,-0.011845284878454694,1.1251201629638672,2019-06-20 16:21:40:680
2.354661315917969,-9.689185913085938,1.0929363403320311,0.03330817655956705,0.03064318454623838,-0.011445810714942809,1.1299841403961182,2019-06-20 16:21:40:685
2.3247342529296873,-9.668835510253906,1.106104248046875,0.03290870239605516,0.030909500655246305,-0.01157896876944677,1.1351041793823242,2019-06-20 16:21:40:690
2.3450846557617187,-9.671229675292969,1.1228634033203124,0.034506599050102706,0.030376868437230458,-0.011312652660438847,1.1399681568145752,2019-06-20 16:21:40:695
2.3558583984375,-9.671229675292969,1.10131591796875,0.03437344099559874,0.029577920110206688,-0.010780020442423,1.1450879573822021,2019-06-20 16:21:40:700
2.3450846557617187,-9.6532734375,1.1025130004882813,0.03424028294109478,0.029977394273718573,-0.010913178496926962,1.1502079963684082,2019-06-20 16:21:40:705
2.3726175537109375,-9.67362384033203,1.1228634033203124,0.035305547377126476,0.029577920110206688,-0.009581597951887342,1.1550719738006592,2019-06-20 16:21:40:710
2.3750117187499997,-9.667638427734374,1.0977246704101562,0.03490607321361459,0.03064318454623838,-0.01011423016990319,1.1601920127868652,2019-06-20 16:21:40:715
2.40374169921875,-9.666441345214844,1.0989217529296875,0.03490607321361459,0.03064318454623838,-0.009315281842879419,1.1650559902191162,2019-06-20 16:21:40:720
2.4025446166992186,-9.665244262695312,1.0857538452148436,0.03490607321361459,0.030776342600742343,-0.007451069079823952,1.1701760292053223,2019-06-20 16:21:40:725
2.4396541748046876,-9.677215087890625,1.0761771850585937,0.03503923126811855,0.030776342600742343,-0.005586856316768486,1.1750400066375732,2019-06-20 16:21:40:730
2.4396541748046876,-9.648485107421875,1.0642063598632812,0.033840808777582894,0.031974765091277994,-0.004654749935240753,1.1801600456237793,2019-06-20 16:21:40:735
2.4348658447265623,-9.659258850097656,1.0761771850585937,0.03357449266857497,0.03157529092776611,-0.002790537172185286,1.1850240230560303,2019-06-20 16:21:40:740
2.4252891845703126,-9.661653015136718,1.1132867431640625,0.03410712488659082,0.03237423925478988,-0.0018584307906575526,1.1901440620422363,2019-06-20 16:21:40:745
2.4492308349609373,-9.660455932617188,1.1180750732421876,0.03437344099559874,0.03224108120028592,-0.0001273760821060477,1.1950080394744873,2019-06-20 16:21:40:750
2.44204833984375,-9.686791748046875,1.1503963012695313,0.035305547377126476,0.03330634563631762,0.0008047302994216857,1.2001280784606934,2019-06-20 16:21:40:755
2.44204833984375,-9.655667602539062,1.1216663208007813,0.034639757104606664,0.03410529396334139,0.0026689430624771524,1.2049920558929443,2019-06-20 16:21:40:760
2.4492308349609373,-9.6532734375,1.1360313110351563,0.03424028294109478,0.03357266174532554,0.003334733334996962,1.2101120948791504,2019-06-20 16:21:40:765
2.437260009765625,-9.636514282226562,1.1073013305664061,0.03410712488659082,0.033040029527309694,0.005065788043548467,1.2149760723114014,2019-06-20 16:21:40:770
2.46120166015625,-9.637711364746094,1.1288488159179688,0.03317501850506309,0.03676845505342063,0.0059978944250762,1.2200961112976074,2019-06-20 16:21:40:775
2.46120166015625,-9.636514282226562,1.1360313110351563,0.03357449266857497,0.036502138944412704,0.007862107188131667,1.2249600887298584,2019-06-20 16:21:40:780
2.446836669921875,-9.625740539550781,1.0654034423828125,0.03330817655956705,0.037167929216932516,0.009193687733171287,1.2300801277160645,2019-06-20 16:21:40:785
2.409727111816406,-9.636514282226562,1.115680908203125,0.033840808777582894,0.037167929216932516,0.009859478005691095,1.2352001667022705,2019-06-20 16:21:40:790
2.4121212768554687,-9.628134704589844,1.1228634033203124,0.03424028294109478,0.036368980889908746,0.011324216605234675,1.2400641441345215,2019-06-20 16:21:40:795
2.3965592041015626,-9.636514282226562,1.077374267578125,0.03357449266857497,0.03783371948945232,0.012389481041266371,1.2451841831207275,2019-06-20 16:21:40:800
2.40374169921875,-9.64489385986328,1.0917392578125,0.03344133461407101,0.03903214197998798,0.013721061586305991,1.2500481605529785,2019-06-20 16:21:40:805
2.3857854614257814,-9.664047180175782,1.08216259765625,0.03437344099559874,0.03916530003449194,0.014253693804321838,1.2551679611206055,2019-06-20 16:21:40:810
2.3642379760742185,-9.668835510253906,1.0857538452148436,0.03397396683208686,0.03983109030701175,0.014653167967833723,1.2600321769714355,2019-06-20 16:21:40:815
2.3726175537109375,-9.6532734375,1.106104248046875,0.03397396683208686,0.03903214197998798,0.01571843240386542,1.2651519775390625,2019-06-20 16:21:40:820
2.3738146362304686,-9.646090942382813,1.1468050537109375,0.03210975406903139,0.03969793225250779,0.015052642131345608,1.2700159549713135,2019-06-20 16:21:40:825
2.3630408935546874,-9.67362384033203,1.110892578125,0.032242912123535354,0.04009740641601968,0.015851590458369383,1.2751359939575195,2019-06-20 16:21:40:830
2.380997131347656,-9.659258850097656,1.1096954956054688,0.033041860450559124,0.04116267085205137,0.017582645166920888,1.2799999713897705,2019-06-20 16:21:40:835
2.3642379760742185,-9.650879272460937,1.1276517333984375,0.032242912123535354,0.04089635474304345,0.019313699875472393,1.2851200103759766,2019-06-20 16:21:40:840
2.3833912963867188,-9.654470520019531,1.1096954956054688,0.03330817655956705,0.04169530307006722,0.019446857929976354,1.2899839878082275,2019-06-20 16:21:40:845
2.380997131347656,-9.660455932617188,1.0797684326171875,0.03410712488659082,0.042361093342587024,0.019313699875472393,1.2951040267944336,2019-06-20 16:21:40:850
2.3582525634765625,-9.66285009765625,1.0905421752929687,0.03237607017803931,0.041428986961059296,0.018781067657456543,1.2999680042266846,2019-06-20 16:21:40:855
2.3678292236328122,-9.618558044433593,1.144410888671875,0.033041860450559124,0.0420947772335791,0.018381593493944658,1.3050880432128906,2019-06-20 16:21:40:860
2.3558583984375,-9.64489385986328,1.17792919921875,0.03250922823254328,0.0431600416696108,0.018115277384936734,1.3102080821990967,2019-06-20 16:21:40:865
2.340296325683594,-9.640105529785156,1.1420167236328125,0.03330817655956705,0.041428986961059296,0.01918054182096843,1.3150720596313477,2019-06-20 16:21:40:870
2.3474788208007813,-9.6341201171875,1.1420167236328125,0.032642386287047236,0.04182846112457118,0.019580015984480316,1.3201920986175537,2019-06-20 16:21:40:875
2.3474788208007813,-9.655667602539062,1.0989217529296875,0.031843437960023466,0.04102951279754741,0.01851475154844862,1.3250560760498047,2019-06-20 16:21:40:880
2.3498729858398435,-9.646090942382813,1.1515933837890624,0.03210975406903139,0.04102951279754741,0.02064528042051201,1.3301761150360107,2019-06-20 16:21:40:885
2.3295225830078126,-9.637711364746094,1.134834228515625,0.03157712185101554,0.04249425139709099,0.020245806257000124,1.3350400924682617,2019-06-20 16:21:40:890
2.354661315917969,-9.667638427734374,1.1312429809570312,0.03290870239605516,0.04182846112457118,0.019713174038984278,1.3401601314544678,2019-06-20 16:21:40:895
2.337902160644531,-9.656864685058594,1.0833596801757812,0.032242912123535354,0.04196161917907514,0.01784896127592881,1.3450241088867188,2019-06-20 16:21:40:900
2.309172180175781,-9.666441345214844,1.1563817138671875,0.031177647687503654,0.04049688057953156,0.01864790960295258,1.3501441478729248,2019-06-20 16:21:40:905
2.3055809326171874,-9.664047180175782,1.12046923828125,0.03157712185101554,0.041562145015563254,0.01864790960295258,1.3550081253051758,2019-06-20 16:21:40:910
2.323537170410156,-9.654470520019531,1.0809655151367188,0.031843437960023466,0.04089635474304345,0.018248435439440696,1.3601281642913818,2019-06-20 16:21:40:915
2.325931335449219,-9.66285009765625,1.0965275878906249,0.03157712185101554,0.040763196688539484,0.01904738376646447,1.3649921417236328,2019-06-20 16:21:40:920
2.3390992431640623,-9.660455932617188,1.0785713500976561,0.031843437960023466,0.040630038634035526,0.01864790960295258,1.3701121807098389,2019-06-20 16:21:40:925
2.354661315917969,-9.667638427734374,1.077374267578125,0.031443963796511584,0.040763196688539484,0.017582645166920888,1.3749761581420898,2019-06-20 16:21:40:930
2.3498729858398435,-9.685594665527343,1.0893450927734374,0.031843437960023466,0.04169530307006722,0.017982119330432773,1.3800959587097168,2019-06-20 16:21:40:935
2.3438875732421875,-9.670032592773437,1.067797607421875,0.03171027990551951,0.0420947772335791,0.01851475154844862,1.3849601745605469,2019-06-20 16:21:40:940
2.3211430053710935,-9.685594665527343,1.10131591796875,0.032242912123535354,0.04182846112457118,0.018381593493944658,1.3900799751281738,2019-06-20 16:21:40:945
2.3594496459960936,-9.68200341796875,1.0642063598632812,0.03197659601452743,0.04023056447052364,0.018115277384936734,1.3952000141143799,2019-06-20 16:21:40:950
2.3438875732421875,-9.691580078125,1.06300927734375,0.03250922823254328,0.04249425139709099,0.01784896127592881,1.4000639915466309,2019-06-20 16:21:40:955
2.3295225830078126,-9.695171325683594,1.1192721557617187,0.03237607017803931,0.04289372556060288,0.017449487112416926,1.405184030532837,2019-06-20 16:21:40:960
2.328325500488281,-9.668835510253906,1.110892578125,0.032642386287047236,0.0431600416696108,0.01918054182096843,1.410048007965088,2019-06-20 16:21:40:965
2.3187488403320313,-9.655667602539062,1.106104248046875,0.033707650723078936,0.0420947772335791,0.01918054182096843,1.415168046951294,2019-06-20 16:21:40:970
2.325931335449219,-9.660455932617188,1.1144838256835938,0.03290870239605516,0.04182846112457118,0.019446857929976354,1.420032024383545,2019-06-20 16:21:40:975
2.3007926025390626,-9.70115673828125,1.1300458984375,0.033041860450559124,0.04089635474304345,0.01984633209348824,1.425152063369751,2019-06-20 16:21:40:980
2.2983984375,-9.67362384033203,1.0953305053710938,0.03250922823254328,0.04009740641601968,0.019580015984480316,1.430016040802002,2019-06-20 16:21:40:985
2.3019896850585937,-9.659258850097656,1.1120896606445312,0.03091133157849573,0.0392984580889959,0.017982119330432773,1.435136079788208,2019-06-20 16:21:40:990
2.3151575927734376,-9.674820922851563,1.1132867431640625,0.030378699360479884,0.03783371948945232,0.01784896127592881,1.440000057220459,2019-06-20 16:21:40:995
2.303186767578125,-9.676018005371093,1.1515933837890624,0.03077817352399177,0.038765825870980056,0.017449487112416926,1.445120096206665,2019-06-20 16:21:41:000
2.3163546752929687,-9.670032592773437,1.1144838256835938,0.03131080574200762,0.037966877543956286,0.017050012948905038,1.449984073638916,2019-06-20 16:21:41:005
2.297201354980469,-9.678412170410157,1.10131591796875,0.032242912123535354,0.0375674033804444,0.017050012948905038,1.455104112625122,2019-06-20 16:21:41:010
2.3151575927734376,-9.683200500488281,1.1192721557617187,0.03131080574200762,0.03823319365296421,0.01784896127592881,1.459968090057373,2019-06-20 16:21:41:015
2.3343109130859374,-9.671229675292969,1.115680908203125,0.03210975406903139,0.03836635170746817,0.01784896127592881,1.465088129043579,2019-06-20 16:21:41:020
2.3319167480468748,-9.665244262695312,1.0845567626953125,0.032242912123535354,0.03783371948945232,0.01984633209348824,1.4702081680297852,2019-06-20 16:21:41:025
2.3043838500976563,-9.674820922851563,1.1144838256835938,0.03237607017803931,0.03743424532594044,0.01864790960295258,1.4750721454620361,2019-06-20 16:21:41:030
2.342690490722656,-9.654470520019531,1.1300458984375,0.032242912123535354,0.03596950672639686,0.01771580322142485,1.4801921844482422,2019-06-20 16:21:41:035
2.303186767578125,-9.666441345214844,1.0965275878906249,0.03157712185101554,0.035303716453877046,0.01784896127592881,1.4850561618804932,2019-06-20 16:21:41:040
2.325931335449219,-9.68200341796875,1.1336371459960937,0.031843437960023466,0.03596950672639686,0.01784896127592881,1.4901759624481201,2019-06-20 16:21:41:045
2.309172180175781,-9.64369677734375,1.1276517333984375,0.031843437960023466,0.036102664780900816,0.017582645166920888,1.4950401782989502,2019-06-20 16:21:41:050
2.3067780151367185,-9.664047180175782,1.1120896606445312,0.03290870239605516,0.03596950672639686,0.016916854894401076,1.5001599788665771,2019-06-20 16:21:41:055
2.3007926025390626,-9.668835510253906,1.0977246704101562,0.0327755443415512,0.03770056143494836,0.01651738073088919,1.5050239562988281,2019-06-20 16:21:41:060
2.3043838500976563,-9.641302612304687,1.0965275878906249,0.032242912123535354,0.03676845505342063,0.01638422267638523,1.5101439952850342,2019-06-20 16:21:41:065
2.303186767578125,-9.656864685058594,1.0893450927734374,0.0327755443415512,0.03676845505342063,0.01651738073088919,1.5150079727172852,2019-06-20 16:21:41:070
2.3474788208007813,-9.66285009765625,1.0989217529296875,0.033707650723078936,0.0375674033804444,0.014653167967833723,1.5201280117034912,2019-06-20 16:21:41:075
2.370223388671875,-9.678412170410157,1.110892578125,0.03290870239605516,0.038100035598460244,0.015185800185849573,1.5249919891357422,2019-06-20 16:21:41:080
2.3450846557617187,-9.666441345214844,1.1096954956054688,0.032642386287047236,0.038100035598460244,0.015318958240353535,1.5301120281219482,2019-06-20 16:21:41:085
2.341493408203125,-9.638908447265624,1.10131591796875,0.03237607017803931,0.037966877543956286,0.015052642131345608,1.5349760055541992,2019-06-20 16:21:41:090
2.341493408203125,-9.658061767578126,1.1132867431640625,0.032642386287047236,0.03823319365296421,0.014253693804321838,1.5400960445404053,2019-06-20 16:21:41:095
2.312763427734375,-9.658061767578126,1.0941334228515625,0.03171027990551951,0.03863266781647609,0.014253693804321838,1.5452160835266113,2019-06-20 16:21:41:100
2.3331138305664063,-9.655667602539062,1.1120896606445312,0.03197659601452743,0.03849950976197213,0.014653167967833723,1.5500800609588623,2019-06-20 16:21:41:105
2.323537170410156,-9.683200500488281,1.1025130004882813,0.03210975406903139,0.03836635170746817,0.015185800185849573,1.5552000999450684,2019-06-20 16:21:41:110
2.342690490722656,-9.667638427734374,1.1168779907226563,0.03131080574200762,0.039564774198003826,0.014120535749817876,1.5600640773773193,2019-06-20 16:21:41:115
2.328325500488281,-9.67362384033203,1.1084984130859374,0.03171027990551951,0.03969793225250779,0.01358790353180203,1.5651841163635254,2019-06-20 16:21:41:120
2.323537170410156,-9.648485107421875,1.0749801025390624,0.031843437960023466,0.040630038634035526,0.014653167967833723,1.5700480937957764,2019-06-20 16:21:41:125
2.3355079956054685,-9.666441345214844,1.0845567626953125,0.031443963796511584,0.0420947772335791,0.015452116294857496,1.5751681327819824,2019-06-20 16:21:41:130
2.3343109130859374,-9.66285009765625,1.0701917724609376,0.03250922823254328,0.0420947772335791,0.015185800185849573,1.5800321102142334,2019-06-20 16:21:41:135
2.3450846557617187,-9.659258850097656,1.1264546508789062,0.0327755443415512,0.04249425139709099,0.013188429368290141,1.5851521492004395,2019-06-20 16:21:41:140
2.325931335449219,-9.654470520019531,1.1168779907226563,0.033041860450559124,0.0431600416696108,0.0143868518588258,1.5900161266326904,2019-06-20 16:21:41:145
2.3055809326171874,-9.646090942382813,1.086950927734375,0.032242912123535354,0.043426357778618724,0.014520009913329761,1.5951361656188965,2019-06-20 16:21:41:150
2.3163546752929687,-9.6341201171875,1.0989217529296875,0.032242912123535354,0.043426357778618724,0.014786326022337684,1.6000001430511475,2019-06-20 16:21:41:155
2.341493408203125,-9.658061767578126,1.0905421752929687,0.03250922823254328,0.04355951583312269,0.014120535749817876,1.6051201820373535,2019-06-20 16:21:41:160
2.3331138305664063,-9.649682189941405,1.0749801025390624,0.03250922823254328,0.04369267388762665,0.014120535749817876,1.6099841594696045,2019-06-20 16:21:41:165
2.328325500488281,-9.65207635498047,1.0977246704101562,0.0327755443415512,0.04262740945159495,0.014520009913329761,1.6151039600372314,2019-06-20 16:21:41:170
2.3043838500976563,-9.648485107421875,1.0701917724609376,0.0327755443415512,0.04355951583312269,0.013854219640809953,1.6199681758880615,2019-06-20 16:21:41:175
2.293610107421875,-9.648485107421875,1.0929363403320311,0.03237607017803931,0.04289372556060288,0.014120535749817876,1.6250879764556885,2019-06-20 16:21:41:180
2.309172180175781,-9.6341201171875,1.1084984130859374,0.033041860450559124,0.04289372556060288,0.013454745477298068,1.6302080154418945,2019-06-20 16:21:41:185
2.3295225830078126,-9.638908447265624,1.1372283935546874,0.03210975406903139,0.04369267388762665,0.014253693804321838,1.6350719928741455,2019-06-20 16:21:41:190
2.3534642333984372,-9.648485107421875,1.1468050537109375,0.031177647687503654,0.04329319972411476,0.015052642131345608,1.6401920318603516,2019-06-20 16:21:41:195
2.357055480957031,-9.67362384033203,1.1336371459960937,0.031843437960023466,0.04369267388762665,0.014120535749817876,1.6450560092926025,2019-06-20 16:21:41:200
2.3582525634765625,-9.680806335449219,1.14919921875,0.03210975406903139,0.044092148051138536,0.014120535749817876,1.6501760482788086,2019-06-20 16:21:41:205
2.328325500488281,-9.680806335449219,1.134834228515625,0.031843437960023466,0.0448910963781623,0.013854219640809953,1.6550400257110596,2019-06-20 16:21:41:210
2.337902160644531,-9.647288024902343,1.1096954956054688,0.03197659601452743,0.04289372556060288,0.0143868518588258,1.6601600646972656,2019-06-20 16:21:41:215
2.341493408203125,-9.658061767578126,1.0989217529296875,0.030645015469487807,0.044225306105642494,0.01638422267638523,1.6650240421295166,2019-06-20 16:21:41:220
2.3163546752929687,-9.678412170410157,1.1096954956054688,0.031843437960023466,0.04289372556060288,0.01638422267638523,1.6701440811157227,2019-06-20 16:21:41:225
2.3175517578125,-9.685594665527343,1.1037100830078124,0.03171027990551951,0.04449162221465042,0.015052642131345608,1.6750080585479736,2019-06-20 16:21:41:230
2.3295225830078126,-9.667638427734374,1.1192721557617187,0.030645015469487807,0.04355951583312269,0.014253693804321838,1.6801280975341797,2019-06-20 16:21:41:235
2.3319167480468748,-9.678412170410157,1.1360313110351563,0.032242912123535354,0.042227935288083066,0.013454745477298068,1.6849920749664307,2019-06-20 16:21:41:240
2.32712841796875,-9.687988830566406,1.1288488159179688,0.03197659601452743,0.042227935288083066,0.01638422267638523,1.6901121139526367,2019-06-20 16:21:41:245
2.3199459228515624,-9.690382995605468,1.1360313110351563,0.03197659601452743,0.04116267085205137,0.015452116294857496,1.6949760913848877,2019-06-20 16:21:41:250
2.297201354980469,-9.687988830566406,1.1096954956054688,0.03197659601452743,0.04262740945159495,0.015185800185849573,1.7000961303710938,2019-06-20 16:21:41:255
2.2924130249023436,-9.664047180175782,1.0941334228515625,0.03091133157849573,0.041428986961059296,0.015585274349361458,1.7049601078033447,2019-06-20 16:21:41:260
2.3175517578125,-9.656864685058594,1.0905421752929687,0.031443963796511584,0.04089635474304345,0.01571843240386542,1.7100801467895508,2019-06-20 16:21:41:265
2.3199459228515624,-9.691580078125,1.077374267578125,0.030645015469487807,0.040630038634035526,0.015185800185849573,1.7152001857757568,2019-06-20 16:21:41:270
2.3043838500976563,-9.697565490722656,1.110892578125,0.029579751033456114,0.04049688057953156,0.014120535749817876,1.7200641632080078,2019-06-20 16:21:41:275
2.285230529785156,-9.684397583007812,1.1144838256835938,0.029979225196968,0.03969793225250779,0.014120535749817876,1.7251839637756348,2019-06-20 16:21:41:280
2.294807189941406,-9.687988830566406,1.1180750732421876,0.03011238325147196,0.039564774198003826,0.013854219640809953,1.7300481796264648,2019-06-20 16:21:41:285
2.3175517578125,-9.687988830566406,1.1144838256835938,0.031843437960023466,0.03969793225250779,0.014120535749817876,1.7351679801940918,2019-06-20 16:21:41:290
2.293610107421875,-9.687988830566406,1.1073013305664061,0.031843437960023466,0.0392984580889959,0.014120535749817876,1.7400319576263428,2019-06-20 16:21:41:295
2.3043838500976563,-9.697565490722656,1.1228634033203124,0.03011238325147196,0.0392984580889959,0.012922113259282218,1.7451519966125488,2019-06-20 16:21:41:300
2.3103692626953123,-9.665244262695312,1.0713888549804687,0.031843437960023466,0.037966877543956286,0.013454745477298068,1.7500159740447998,2019-06-20 16:21:41:305
2.3187488403320313,-9.664047180175782,1.110892578125,0.03197659601452743,0.03743424532594044,0.014520009913329761,1.7551360130310059,2019-06-20 16:21:41:310
2.328325500488281,-9.647288024902343,1.1240604858398437,0.0327755443415512,0.037966877543956286,0.01305527131378618,1.7599999904632568,2019-06-20 16:21:41:315
2.336705078125,-9.642499694824219,1.1216663208007813,0.03250922823254328,0.038765825870980056,0.012522639095770333,1.765120029449463,2019-06-20 16:21:41:320
2.341493408203125,-9.664047180175782,1.0737830200195313,0.03171027990551951,0.0375674033804444,0.012788955204778256,1.7699840068817139,2019-06-20 16:21:41:325
2.3103692626953123,-9.655667602539062,1.1049071655273437,0.031044489632999692,0.03783371948945232,0.01305527131378618,1.77510404586792,2019-06-20 16:21:41:330
2.3355079956054685,-9.68200341796875,1.1240604858398437,0.03091133157849573,0.03849950976197213,0.012123164932258448,1.779968023300171,2019-06-20 16:21:41:335
2.3534642333984372,-9.668835510253906,1.1084984130859374,0.03171027990551951,0.03849950976197213,0.013721061586305991,1.785088062286377,2019-06-20 16:21:41:340
2.3390992431640623,-9.655667602539062,1.0977246704101562,0.03197659601452743,0.0375674033804444,0.01305527131378618,1.790208101272583,2019-06-20 16:21:41:345
2.3055809326171874,-9.667638427734374,1.1312429809570312,0.032242912123535354,0.038100035598460244,0.011856848823250525,1.795072078704834,2019-06-20 16:21:41:350
2.3187488403320313,-9.691580078125,1.1372283935546874,0.0327755443415512,0.03783371948945232,0.012123164932258448,1.80019211769104,2019-06-20 16:21:41:355
2.3055809326171874,-9.660455932617188,1.0989217529296875,0.03397396683208686,0.038898983925484014,0.012389481041266371,1.805056095123291,2019-06-20 16:21:41:360
2.3199459228515624,-9.659258850097656,1.1001188354492186,0.03330817655956705,0.0375674033804444,0.01305527131378618,1.810176134109497,2019-06-20 16:21:41:365
2.3043838500976563,-9.650879272460937,1.0689946899414062,0.03330817655956705,0.03916530003449194,0.013188429368290141,1.815040111541748,2019-06-20 16:21:41:370
2.3450846557617187,-9.661653015136718,1.0797684326171875,0.03290870239605516,0.03916530003449194,0.012522639095770333,1.820160150527954,2019-06-20 16:21:41:375
2.3247342529296873,-9.668835510253906,1.1084984130859374,0.03344133461407101,0.03903214197998798,0.011990006877754486,1.825024127960205,2019-06-20 16:21:41:380
2.3211430053710935,-9.650879272460937,1.0977246704101562,0.03357449266857497,0.03916530003449194,0.01305527131378618,1.8301441669464111,2019-06-20 16:21:41:385
2.323537170410156,-9.687988830566406,1.1037100830078124,0.03344133461407101,0.03770056143494836,0.011856848823250525,1.835008144378662,2019-06-20 16:21:41:390
2.30797509765625,-9.6532734375,1.1049071655273437,0.03317501850506309,0.037966877543956286,0.01145737465973864,1.8401281833648682,2019-06-20 16:21:41:395
2.328325500488281,-9.674820922851563,1.0905421752929687,0.03357449266857497,0.03823319365296421,0.011191058550730713,1.8449921607971191,2019-06-20 16:21:41:400
2.313960510253906,-9.693974243164062,1.1073013305664061,0.03317501850506309,0.03770056143494836,0.010525268278210905,1.850111961364746,2019-06-20 16:21:41:405
2.2960042724609373,-9.677215087890625,1.0977246704101562,0.03490607321361459,0.03570319061738893,0.008661055515155438,1.8549761772155762,2019-06-20 16:21:41:410
2.299595520019531,-9.65207635498047,1.1037100830078124,0.03397396683208686,0.03557003256288497,0.01012579411469902,1.8600959777832031,2019-06-20 16:21:41:415
2.311566345214844,-9.655667602539062,1.1312429809570312,0.03330817655956705,0.03503740034486912,0.009326845787675248,1.864959955215454,2019-06-20 16:21:41:420
2.313960510253906,-9.679609252929687,1.1049071655273437,0.03357449266857497,0.03596950672639686,0.009859478005691095,1.8700799942016602,2019-06-20 16:21:41:425
2.3199459228515624,-9.656864685058594,1.0905421752929687,0.033707650723078936,0.03770056143494836,0.01012579411469902,1.8752000331878662,2019-06-20 16:21:41:430
2.311566345214844,-9.65207635498047,1.0977246704101562,0.03437344099559874,0.03863266781647609,0.009593161896683172,1.8800640106201172,2019-06-20 16:21:41:435
2.3390992431640623,-9.66285009765625,1.1120896606445312,0.034639757104606664,0.03823319365296421,0.00946000384217921,1.8851840496063232,2019-06-20 16:21:41:440
2.3355079956054685,-9.650879272460937,1.115680908203125,0.033707650723078936,0.03703477116242855,0.008661055515155438,1.8900480270385742,2019-06-20 16:21:41:445
2.371420471191406,-9.674820922851563,1.1228634033203124,0.032642386287047236,0.03690161310792459,0.008261581351643552,1.8951680660247803,2019-06-20 16:21:41:450
2.366632141113281,-9.692777160644532,1.0905421752929687,0.0327755443415512,0.03676845505342063,0.008661055515155438,1.9000320434570312,2019-06-20 16:21:41:455
2.3642379760742185,-9.656864685058594,1.1037100830078124,0.03357449266857497,0.037167929216932516,0.009726319951187133,1.9051520824432373,2019-06-20 16:21:41:460
2.4025446166992186,-9.670032592773437,1.1228634033203124,0.03397396683208686,0.038765825870980056,0.01012579411469902,1.9100160598754883,2019-06-20 16:21:41:465
2.409727111816406,-9.671229675292969,1.1168779907226563,0.03357449266857497,0.04009740641601968,0.010658426332714866,1.9151360988616943,2019-06-20 16:21:41:470
2.3833912963867188,-9.677215087890625,1.0929363403320311,0.03290870239605516,0.0392984580889959,0.011191058550730713,1.9200000762939453,2019-06-20 16:21:41:475
2.3869825439453125,-9.660455932617188,1.0917392578125,0.03330817655956705,0.04009740641601968,0.011324216605234675,1.9251201152801514,2019-06-20 16:21:41:480
2.3869825439453125,-9.678412170410157,1.0785713500976561,0.03424028294109478,0.040630038634035526,0.012655797150274295,1.9299840927124023,2019-06-20 16:21:41:485
2.4025446166992186,-9.674820922851563,1.0689946899414062,0.0327755443415512,0.040630038634035526,0.013454745477298068,1.9351041316986084,2019-06-20 16:21:41:490
2.4013475341796875,-9.68200341796875,1.0354763793945312,0.032642386287047236,0.04102951279754741,0.01305527131378618,1.9399681091308594,2019-06-20 16:21:41:495
2.3582525634765625,-9.66285009765625,1.0809655151367188,0.03330817655956705,0.04262740945159495,0.015052642131345608,1.9450881481170654,2019-06-20 16:21:41:500
2.379800048828125,-9.670032592773437,1.0965275878906249,0.032242912123535354,0.043026883615106835,0.015452116294857496,1.9502079486846924,2019-06-20 16:21:41:505
2.3750117187499997,-9.648485107421875,1.0893450927734374,0.033707650723078936,0.0448910963781623,0.016916854894401076,1.9550721645355225,2019-06-20 16:21:41:510
2.3582525634765625,-9.683200500488281,1.1120896606445312,0.03330817655956705,0.04582320275969004,0.016650538785393153,1.9601919651031494,2019-06-20 16:21:41:515
2.3774058837890624,-9.677215087890625,1.0917392578125,0.03157712185101554,0.046089518868697964,0.017982119330432773,1.9650561809539795,2019-06-20 16:21:41:520
2.3307196655273437,-9.679609252929687,1.110892578125,0.03290870239605516,0.045956360814194006,0.017982119330432773,1.9701759815216064,2019-06-20 16:21:41:525
2.3295225830078126,-9.680806335449219,1.1276517333984375,0.03344133461407101,0.04569004470518608,0.01864790960295258,1.9750399589538574,2019-06-20 16:21:41:530
2.3450846557617187,-9.686791748046875,1.1049071655273437,0.03330817655956705,0.04582320275969004,0.017982119330432773,1.9801599979400635,2019-06-20 16:21:41:535
2.341493408203125,-9.661653015136718,1.0881480102539063,0.03197659601452743,0.04515741248717022,0.018914225711960504,1.9850239753723145,2019-06-20 16:21:41:540
2.3163546752929687,-9.664047180175782,1.1360313110351563,0.031443963796511584,0.04582320275969004,0.01918054182096843,1.9901440143585205,2019-06-20 16:21:41:545
2.294807189941406,-9.650879272460937,1.1240604858398437,0.03210975406903139,0.04569004470518608,0.019313699875472393,1.9950079917907715,2019-06-20 16:21:41:550
2.3019896850585937,-9.66285009765625,1.1300458984375,0.032242912123535354,0.04382583194213061,0.01904738376646447,2.0001280307769775,2019-06-20 16:21:41:555
2.322340087890625,-9.659258850097656,1.1599729614257812,0.03250922823254328,0.044092148051138536,0.018781067657456543,2.0049920082092285,2019-06-20 16:21:41:560
2.2900188598632814,-9.661653015136718,1.134834228515625,0.032242912123535354,0.04475793832365834,0.019580015984480316,2.0101120471954346,2019-06-20 16:21:41:565
2.3007926025390626,-9.66285009765625,1.1468050537109375,0.03210975406903139,0.04369267388762665,0.01771580322142485,2.0149760246276855,2019-06-20 16:21:41:570
2.2720626220703126,-9.697565490722656,1.1384254760742187,0.031177647687503654,0.04395898999663457,0.016117906567377306,2.0200960636138916,2019-06-20 16:21:41:575
2.293610107421875,-9.655667602539062,1.125257568359375,0.031044489632999692,0.043026883615106835,0.016117906567377306,2.0252161026000977,2019-06-20 16:21:41:580
2.3043838500976563,-9.667638427734374,1.1288488159179688,0.03091133157849573,0.043426357778618724,0.017050012948905038,2.0300800800323486,2019-06-20 16:21:41:585
2.282836364746094,-9.659258850097656,1.1480021362304687,0.03171027990551951,0.04355951583312269,0.017316329057912964,2.0352001190185547,2019-06-20 16:21:41:590
2.2864276123046876,-9.659258850097656,1.0941334228515625,0.03210975406903139,0.041562145015563254,0.015452116294857496,2.0400640964508057,2019-06-20 16:21:41:595
2.268471374511719,-9.678412170410157,1.1240604858398437,0.03077817352399177,0.04102951279754741,0.015452116294857496,2.0451841354370117,2019-06-20 16:21:41:600
2.2792451171875,-9.690382995605468,1.1168779907226563,0.030511857414983846,0.04023056447052364,0.014120535749817876,2.0500481128692627,2019-06-20 16:21:41:605
2.284033447265625,-9.67362384033203,1.106104248046875,0.03210975406903139,0.039964248361515714,0.013987377695313915,2.0551681518554688,2019-06-20 16:21:41:610
2.274456787109375,-9.670032592773437,1.1073013305664061,0.031177647687503654,0.039564774198003826,0.013454745477298068,2.0600321292877197,2019-06-20 16:21:41:615
2.294807189941406,-9.674820922851563,1.1132867431640625,0.03091133157849573,0.0403637225250276,0.01145737465973864,2.065152168273926,2019-06-20 16:21:41:620
2.285230529785156,-9.665244262695312,1.1288488159179688,0.030645015469487807,0.0375674033804444,0.012922113259282218,2.0700161457061768,2019-06-20 16:21:41:625
2.2792451171875,-9.676018005371093,1.0929363403320311,0.030245541305975922,0.03690161310792459,0.01225632298676241,2.075136184692383,2019-06-20 16:21:41:630
2.285230529785156,-9.666441345214844,1.0917392578125,0.031843437960023466,0.036102664780900816,0.010392110223706943,2.080000162124634,2019-06-20 16:21:41:635
2.3007926025390626,-9.671229675292969,1.0797684326171875,0.031443963796511584,0.03663529699891667,0.011590532714242601,2.0851199626922607,2019-06-20 16:21:41:640
2.293610107421875,-9.695171325683594,1.0965275878906249,0.031843437960023466,0.03690161310792459,0.010658426332714866,2.089984178543091,2019-06-20 16:21:41:645
2.293610107421875,-9.67362384033203,1.1049071655273437,0.031443963796511584,0.035303716453877046,0.008927371624163362,2.0951039791107178,2019-06-20 16:21:41:650
2.2876246948242187,-9.690382995605468,1.1180750732421876,0.030511857414983846,0.03583634867189289,0.007728949133627705,2.0999679565429688,2019-06-20 16:21:41:655
2.3055809326171874,-9.695171325683594,1.1599729614257812,0.029846067142464038,0.03437161007234931,0.007862107188131667,2.105087995529175,2019-06-20 16:21:41:660
2.3019896850585937,-9.65207635498047,1.153987548828125,0.030378699360479884,0.033838977854333464,0.007595791079123743,2.110208034515381,2019-06-20 16:21:41:665
2.294807189941406,-9.66285009765625,1.15877587890625,0.031044489632999692,0.03343950369082158,0.007329474970115818,2.115072011947632,2019-06-20 16:21:41:670
2.309172180175781,-9.70235382080078,1.125257568359375,0.03171027990551951,0.03423845201784535,0.006796842752099972,2.120192050933838,2019-06-20 16:21:41:675
2.312763427734375,-9.664047180175782,1.086950927734375,0.031443963796511584,0.03397213590883743,0.008394739406147515,2.125056028366089,2019-06-20 16:21:41:680
2.3199459228515624,-9.665244262695312,1.0929363403320311,0.03237607017803931,0.03317318758181366,0.006397368588588085,2.130176067352295,2019-06-20 16:21:41:685
2.32712841796875,-9.666441345214844,1.0809655151367188,0.0327755443415512,0.03237423925478988,0.0059978944250762,2.135040044784546,2019-06-20 16:21:41:690
2.322340087890625,-9.680806335449219,1.0857538452148436,0.032242912123535354,0.03210792314578196,0.006930000806603933,2.140160083770752,2019-06-20 16:21:41:695
2.3355079956054685,-9.67362384033203,1.0725859375,0.032242912123535354,0.03130897481875819,0.007728949133627705,2.145024061203003,2019-06-20 16:21:41:700
2.354661315917969,-9.684397583007812,1.0749801025390624,0.03317501850506309,0.03250739730929385,0.006530526643092048,2.150144100189209,2019-06-20 16:21:41:705
2.3558583984375,-9.658061767578126,1.0558267822265626,0.03357449266857497,0.03330634563631762,0.005465262207060353,2.15500807762146,2019-06-20 16:21:41:710
2.3498729858398435,-9.666441345214844,1.0701917724609376,0.03237607017803931,0.03357266174532554,0.00666368469759601,2.160128116607666,2019-06-20 16:21:41:715
2.3462817382812498,-9.668835510253906,1.0749801025390624,0.03250922823254328,0.03264055536379781,0.00812842329713959,2.164992094039917,2019-06-20 16:21:41:720
2.3450846557617187,-9.678412170410157,1.0977246704101562,0.03250922823254328,0.033040029527309694,0.00666368469759601,2.170112133026123,2019-06-20 16:21:41:725
2.32712841796875,-9.660455932617188,1.0953305053710938,0.0327755443415512,0.03490424229036516,0.007196316915611857,2.174976110458374,2019-06-20 16:21:41:730
2.3247342529296873,-9.637711364746094,1.0857538452148436,0.03237607017803931,0.03410529396334139,0.006397368588588085,2.18009614944458,2019-06-20 16:21:41:735
2.3319167480468748,-9.656864685058594,1.0965275878906249,0.033707650723078936,0.034504768126853276,0.006930000806603933,2.184960126876831,2019-06-20 16:21:41:740
2.3247342529296873,-9.632923034667968,1.1025130004882813,0.03344133461407101,0.0347710842358612,0.007196316915611857,2.190080165863037,2019-06-20 16:21:41:745
2.322340087890625,-9.666441345214844,1.1192721557617187,0.03237607017803931,0.033705819799829506,0.007595791079123743,2.195199966430664,2019-06-20 16:21:41:750
2.336705078125,-9.693974243164062,1.0857538452148436,0.03290870239605516,0.03557003256288497,0.006930000806603933,2.200064182281494,2019-06-20 16:21:41:755
2.3319167480468748,-9.665244262695312,1.1084984130859374,0.033041860450559124,0.0347710842358612,0.007196316915611857,2.205183982849121,2019-06-20 16:21:41:760
2.3690263061523438,-9.68200341796875,1.08216259765625,0.03317501850506309,0.03330634563631762,0.007995265242635628,2.210047960281372,2019-06-20 16:21:41:765
2.354661315917969,-9.656864685058594,1.1228634033203124,0.03424028294109478,0.03437161007234931,0.007728949133627705,2.215167999267578,2019-06-20 16:21:41:770
2.3534642333984372,-9.671229675292969,1.12046923828125,0.03410712488659082,0.035436874508381004,0.007462633024619782,2.220031976699829,2019-06-20 16:21:41:775
2.3390992431640623,-9.670032592773437,1.1264546508789062,0.03397396683208686,0.03397213590883743,0.007862107188131667,2.225152015686035,2019-06-20 16:21:41:780
2.352267150878906,-9.667638427734374,1.1001188354492186,0.03344133461407101,0.03423845201784535,0.007329474970115818,2.230015993118286,2019-06-20 16:21:41:785
2.3390992431640623,-9.685594665527343,1.0917392578125,0.03250922823254328,0.03503740034486912,0.007862107188131667,2.235136032104492,2019-06-20 16:21:41:790
2.3199459228515624,-9.691580078125,1.0881480102539063,0.03317501850506309,0.03490424229036516,0.009060529678667323,2.240000009536743,2019-06-20 16:21:41:795
2.30797509765625,-9.667638427734374,1.1180750732421876,0.03317501850506309,0.03583634867189289,0.010258952169202981,2.245120048522949,2019-06-20 16:21:41:800
2.322340087890625,-9.687988830566406,1.1240604858398437,0.03210975406903139,0.03596950672639686,0.01012579411469902,2.2499840259552,2019-06-20 16:21:41:805
2.352267150878906,-9.668835510253906,1.1096954956054688,0.03317501850506309,0.03663529699891667,0.009726319951187133,2.2551040649414062,2019-06-20 16:21:41:810
2.3474788208007813,-9.689185913085938,1.0929363403320311,0.03290870239605516,0.037301087271436474,0.010658426332714866,2.2599680423736572,2019-06-20 16:21:41:815
2.3618438110351563,-9.687988830566406,1.110892578125,0.03237607017803931,0.03823319365296421,0.009726319951187133,2.2650880813598633,2019-06-20 16:21:41:820
2.354661315917969,-9.658061767578126,1.106104248046875,0.033707650723078936,0.03770056143494836,0.010258952169202981,2.2702081203460693,2019-06-20 16:21:41:825
2.3774058837890624,-9.638908447265624,1.0929363403320311,0.032642386287047236,0.039964248361515714,0.011723690768746563,2.2750720977783203,2019-06-20 16:21:41:830
2.336705078125,-9.6532734375,1.0618121948242187,0.03290870239605516,0.0392984580889959,0.011856848823250525,2.2801921367645264,2019-06-20 16:21:41:835
2.3343109130859374,-9.6532734375,1.0941334228515625,0.033840808777582894,0.03983109030701175,0.01225632298676241,2.2850561141967773,2019-06-20 16:21:41:840
2.337902160644531,-9.630528869628906,1.1180750732421876,0.033840808777582894,0.039564774198003826,0.011990006877754486,2.2901761531829834,2019-06-20 16:21:41:845
2.3319167480468748,-9.625740539550781,1.1264546508789062,0.03290870239605516,0.03969793225250779,0.011990006877754486,2.2950401306152344,2019-06-20 16:21:41:850
2.3498729858398435,-9.654470520019531,1.0857538452148436,0.0327755443415512,0.04023056447052364,0.012123164932258448,2.3001601696014404,2019-06-20 16:21:41:855
2.366632141113281,-9.666441345214844,1.1360313110351563,0.03197659601452743,0.040763196688539484,0.013721061586305991,2.3050241470336914,2019-06-20 16:21:41:860
2.354661315917969,-9.640105529785156,1.144410888671875,0.03330817655956705,0.04102951279754741,0.013721061586305991,2.3101441860198975,2019-06-20 16:21:41:865
2.337902160644531,-9.670032592773437,1.1360313110351563,0.03344133461407101,0.0403637225250276,0.01358790353180203,2.3150081634521484,2019-06-20 16:21:41:870
2.3498729858398435,-9.661653015136718,1.1228634033203124,0.03330817655956705,0.04102951279754741,0.014520009913329761,2.3201279640197754,2019-06-20 16:21:41:875
2.342690490722656,-9.655667602539062,1.1144838256835938,0.03344133461407101,0.04169530307006722,0.013454745477298068,2.3249921798706055,2019-06-20 16:21:41:880
2.322340087890625,-9.655667602539062,1.1180750732421876,0.03344133461407101,0.041428986961059296,0.01305527131378618,2.3301119804382324,2019-06-20 16:21:41:885
2.3019896850585937,-9.666441345214844,1.134834228515625,0.0327755443415512,0.04129582890655533,0.0143868518588258,2.3349759578704834,2019-06-20 16:21:41:890
2.299595520019531,-9.647288024902343,1.1456079711914062,0.03131080574200762,0.04129582890655533,0.014120535749817876,2.3400959968566895,2019-06-20 16:21:41:895
2.309172180175781,-9.656864685058594,1.15877587890625,0.03131080574200762,0.042361093342587024,0.013454745477298068,2.3452160358428955,2019-06-20 16:21:41:900
2.336705078125,-9.63531719970703,1.12046923828125,0.03237607017803931,0.04102951279754741,0.012922113259282218,2.3500800132751465,2019-06-20 16:21:41:905
2.2912159423828125,-9.654470520019531,1.08216259765625,0.0327755443415512,0.041562145015563254,0.014653167967833723,2.3552000522613525,2019-06-20 16:21:41:910
2.322340087890625,-9.664047180175782,1.1001188354492186,0.03330817655956705,0.04009740641601968,0.01305527131378618,2.3600640296936035,2019-06-20 16:21:41:915
2.337902160644531,-9.665244262695312,1.1336371459960937,0.032642386287047236,0.04023056447052364,0.01305527131378618,2.3651840686798096,2019-06-20 16:21:41:920
2.3199459228515624,-9.647288024902343,1.1276517333984375,0.03250922823254328,0.04116267085205137,0.01305527131378618,2.3700480461120605,2019-06-20 16:21:41:925
2.3319167480468748,-9.670032592773437,1.1120896606445312,0.03197659601452743,0.0403637225250276,0.012389481041266371,2.3751680850982666,2019-06-20 16:21:41:930
2.323537170410156,-9.705945068359375,1.0761771850585937,0.03250922823254328,0.040630038634035526,0.012922113259282218,2.3800320625305176,2019-06-20 16:21:41:935
2.3199459228515624,-9.685594665527343,1.0965275878906249,0.03330817655956705,0.039964248361515714,0.01225632298676241,2.3851521015167236,2019-06-20 16:21:41:940
2.3103692626953123,-9.679609252929687,1.0857538452148436,0.03357449266857497,0.04009740641601968,0.013321587422794106,2.3900160789489746,2019-06-20 16:21:41:945
2.3019896850585937,-9.670032592773437,1.0857538452148436,0.03290870239605516,0.040763196688539484,0.011723690768746563,2.3951361179351807,2019-06-20 16:21:41:950
2.328325500488281,-9.671229675292969,1.125257568359375,0.03250922823254328,0.04116267085205137,0.011590532714242601,2.4000000953674316,2019-06-20 16:21:41:955
2.337902160644531,-9.666441345214844,1.1300458984375,0.031177647687503654,0.04009740641601968,0.011990006877754486,2.4051201343536377,2019-06-20 16:21:41:960
2.3187488403320313,-9.654470520019531,1.110892578125,0.03250922823254328,0.04129582890655533,0.012922113259282218,2.4099841117858887,2019-06-20 16:21:41:965
2.325931335449219,-9.679609252929687,1.1073013305664061,0.03290870239605516,0.0403637225250276,0.012522639095770333,2.4151041507720947,2019-06-20 16:21:41:970
2.3438875732421875,-9.637711364746094,1.1144838256835938,0.033707650723078936,0.040630038634035526,0.011990006877754486,2.4199681282043457,2019-06-20 16:21:41:975
2.3343109130859374,-9.654470520019531,1.106104248046875,0.032642386287047236,0.03863266781647609,0.010658426332714866,2.4250881671905518,2019-06-20 16:21:41:980
2.3343109130859374,-9.64489385986328,1.0893450927734374,0.031843437960023466,0.03969793225250779,0.012788955204778256,2.4302079677581787,2019-06-20 16:21:41:985
2.3438875732421875,-9.679609252929687,1.1096954956054688,0.03237607017803931,0.03903214197998798,0.012655797150274295,2.435072183609009,2019-06-20 16:21:41:990
2.3319167480468748,-9.667638427734374,1.1384254760742187,0.03344133461407101,0.03943161614349987,0.011590532714242601,2.4401919841766357,2019-06-20 16:21:41:995
2.3343109130859374,-9.6532734375,1.1073013305664061,0.0327755443415512,0.040763196688539484,0.011057900496226753,2.4450559616088867,2019-06-20 16:21:42:000
2.341493408203125,-9.661653015136718,1.058220947265625,0.032242912123535354,0.039564774198003826,0.01145737465973864,2.4501760005950928,2019-06-20 16:21:42:005
2.342690490722656,-9.655667602539062,1.1144838256835938,0.03171027990551951,0.03863266781647609,0.012123164932258448,2.4550399780273438,2019-06-20 16:21:42:010
2.3474788208007813,-9.636514282226562,1.1025130004882813,0.03171027990551951,0.03969793225250779,0.012522639095770333,2.46016001701355,2019-06-20 16:21:42:015
2.3582525634765625,-9.656864685058594,1.0965275878906249,0.03317501850506309,0.040630038634035526,0.012788955204778256,2.465023994445801,2019-06-20 16:21:42:020
2.3750117187499997,-9.64369677734375,1.0989217529296875,0.03290870239605516,0.04089635474304345,0.013987377695313915,2.470144033432007,2019-06-20 16:21:42:025
2.3534642333984372,-9.637711364746094,1.0965275878906249,0.03290870239605516,0.03969793225250779,0.013721061586305991,2.475008010864258,2019-06-20 16:21:42:030
2.3498729858398435,-9.685594665527343,1.0725859375,0.03250922823254328,0.039964248361515714,0.0143868518588258,2.480128049850464,2019-06-20 16:21:42:035
2.340296325683594,-9.698762573242186,1.0965275878906249,0.03250922823254328,0.04049688057953156,0.015052642131345608,2.484992027282715,2019-06-20 16:21:42:040
2.357055480957031,-9.691580078125,1.1037100830078124,0.03290870239605516,0.040630038634035526,0.015185800185849573,2.490112066268921,2019-06-20 16:21:42:045
2.3438875732421875,-9.6724267578125,1.0965275878906249,0.03210975406903139,0.041428986961059296,0.016117906567377306,2.494976043701172,2019-06-20 16:21:42:050
2.3307196655273437,-9.654470520019531,1.0917392578125,0.03157712185101554,0.04102951279754741,0.016251064621881268,2.500096082687378,2019-06-20 16:21:42:055
2.3247342529296873,-9.659258850097656,1.1192721557617187,0.031843437960023466,0.040763196688539484,0.015052642131345608,2.504960060119629,2019-06-20 16:21:42:060
2.3247342529296873,-9.661653015136718,1.0833596801757812,0.031843437960023466,0.039564774198003826,0.014120535749817876,2.510080099105835,2019-06-20 16:21:42:065
2.3331138305664063,-9.656864685058594,1.125257568359375,0.03197659601452743,0.03983109030701175,0.013987377695313915,2.515200138092041,2019-06-20 16:21:42:070
2.30797509765625,-9.6724267578125,1.1168779907226563,0.03131080574200762,0.040763196688539484,0.015052642131345608,2.520064115524292,2019-06-20 16:21:42:075
2.3163546752929687,-9.679609252929687,1.1168779907226563,0.03157712185101554,0.040630038634035526,0.013987377695313915,2.525184154510498,2019-06-20 16:21:42:080
2.312763427734375,-9.648485107421875,1.1180750732421876,0.031843437960023466,0.0403637225250276,0.014786326022337684,2.530048131942749,2019-06-20 16:21:42:085
2.2900188598632814,-9.641302612304687,1.0977246704101562,0.032642386287047236,0.039564774198003826,0.015318958240353535,2.535168170928955,2019-06-20 16:21:42:090
2.3007926025390626,-9.6724267578125,1.0965275878906249,0.03237607017803931,0.03849950976197213,0.014653167967833723,2.540032148361206,2019-06-20 16:21:42:095
2.297201354980469,-9.646090942382813,1.1312429809570312,0.03210975406903139,0.03836635170746817,0.013854219640809953,2.545151948928833,2019-06-20 16:21:42:100
2.270865539550781,-9.64489385986328,1.1120896606445312,0.0327755443415512,0.03849950976197213,0.013454745477298068,2.550016164779663,2019-06-20 16:21:42:105
2.293610107421875,-9.677215087890625,1.1120896606445312,0.0327755443415512,0.03849950976197213,0.011990006877754486,2.55513596534729,2019-06-20 16:21:42:110
2.294807189941406,-9.693974243164062,1.1420167236328125,0.03131080574200762,0.03849950976197213,0.011590532714242601,2.56000018119812,2019-06-20 16:21:42:115
2.309172180175781,-9.692777160644532,1.0761771850585937,0.031843437960023466,0.0392984580889959,0.011324216605234675,2.565119981765747,2019-06-20 16:21:42:120
2.297201354980469,-9.664047180175782,1.1216663208007813,0.033840808777582894,0.038765825870980056,0.011990006877754486,2.569983959197998,2019-06-20 16:21:42:125
2.299595520019531,-9.677215087890625,1.110892578125,0.032642386287047236,0.03903214197998798,0.009859478005691095,2.575103998184204,2019-06-20 16:21:42:130
2.2912159423828125,-9.689185913085938,1.1180750732421876,0.033707650723078936,0.03903214197998798,0.01092474244172279,2.579967975616455,2019-06-20 16:21:42:135
2.311566345214844,-9.6532734375,1.1096954956054688,0.03437344099559874,0.038765825870980056,0.011590532714242601,2.585088014602661,2019-06-20 16:21:42:140
2.30797509765625,-9.665244262695312,1.115680908203125,0.03330817655956705,0.03916530003449194,0.010791584387218828,2.590208053588867,2019-06-20 16:21:42:145
2.323537170410156,-9.676018005371093,1.1240604858398437,0.03250922823254328,0.040763196688539484,0.009326845787675248,2.595072031021118,2019-06-20 16:21:42:150
2.3247342529296873,-9.654470520019531,1.1264546508789062,0.03250922823254328,0.04116267085205137,0.009326845787675248,2.600192070007324,2019-06-20 16:21:42:155
2.3247342529296873,-9.674820922851563,1.1120896606445312,0.03197659601452743,0.03863266781647609,0.007728949133627705,2.605056047439575,2019-06-20 16:21:42:160
2.3163546752929687,-9.654470520019531,1.0917392578125,0.031843437960023466,0.0403637225250276,0.007063158861107895,2.6101760864257812,2019-06-20 16:21:42:165
2.3462817382812498,-9.671229675292969,1.1216663208007813,0.032242912123535354,0.03969793225250779,0.007595791079123743,2.6150400638580322,2019-06-20 16:21:42:170
2.3462817382812498,-9.666441345214844,1.1240604858398437,0.03250922823254328,0.0403637225250276,0.005864736370572238,2.6201601028442383,2019-06-20 16:21:42:175
2.3450846557617187,-9.680806335449219,1.1480021362304687,0.03250922823254328,0.041428986961059296,0.006930000806603933,2.6250240802764893,2019-06-20 16:21:42:180
2.325931335449219,-9.676018005371093,1.1300458984375,0.03250922823254328,0.041428986961059296,0.005731578316068277,2.6301441192626953,2019-06-20 16:21:42:185
2.3175517578125,-9.659258850097656,1.1096954956054688,0.03290870239605516,0.042227935288083066,0.0051989460980524285,2.6350080966949463,2019-06-20 16:21:42:190
2.312763427734375,-9.68200341796875,1.1120896606445312,0.03210975406903139,0.04102951279754741,0.0051989460980524285,2.6401281356811523,2019-06-20 16:21:42:195
2.3211430053710935,-9.67362384033203,1.1300458984375,0.03250922823254328,0.04196161917907514,0.0041336816620207335,2.6449921131134033,2019-06-20 16:21:42:200
2.3498729858398435,-9.666441345214844,1.1120896606445312,0.032642386287047236,0.0420947772335791,0.005065788043548467,2.6501121520996094,2019-06-20 16:21:42:205
2.3211430053710935,-9.684397583007812,1.134834228515625,0.03317501850506309,0.04196161917907514,0.004533155825532619,2.6549761295318604,2019-06-20 16:21:42:210
2.3486759033203124,-9.68200341796875,1.1084984130859374,0.03237607017803931,0.041562145015563254,0.005598420261564315,2.6600961685180664,2019-06-20 16:21:42:215
2.3474788208007813,-9.668835510253906,1.1144838256835938,0.03091133157849573,0.042361093342587024,0.004666313880036581,2.6649601459503174,2019-06-20 16:21:42:220
2.366632141113281,-9.679609252929687,1.0857538452148436,0.03210975406903139,0.04182846112457118,0.004533155825532619,2.6700801849365234,2019-06-20 16:21:42:225
2.340296325683594,-9.67362384033203,1.1216663208007813,0.0327755443415512,0.041562145015563254,0.004666313880036581,2.6751999855041504,2019-06-20 16:21:42:230
2.3594496459960936,-9.678412170410157,1.0689946899414062,0.03357449266857497,0.04129582890655533,0.00533210415255639,2.6800639629364014,2019-06-20 16:21:42:235
2.357055480957031,-9.660455932617188,1.0570238647460937,0.03210975406903139,0.04196161917907514,0.005465262207060353,2.6851840019226074,2019-06-20 16:21:42:240
2.3474788208007813,-9.680806335449219,1.0881480102539063,0.03237607017803931,0.04276056750609891,0.004932629989044505,2.6900479793548584,2019-06-20 16:21:42:245
2.3474788208007813,-9.678412170410157,1.1276517333984375,0.03210975406903139,0.04262740945159495,0.0051989460980524285,2.6951680183410645,2019-06-20 16:21:42:250
2.3295225830078126,-9.674820922851563,1.1240604858398437,0.032242912123535354,0.04129582890655533,0.005598420261564315,2.7000319957733154,2019-06-20 16:21:42:255
2.3247342529296873,-9.661653015136718,1.1132867431640625,0.03290870239605516,0.042227935288083066,0.00533210415255639,2.7051520347595215,2019-06-20 16:21:42:260
2.3486759033203124,-9.661653015136718,1.0689946899414062,0.032642386287047236,0.040763196688539484,0.004932629989044505,2.7100160121917725,2019-06-20 16:21:42:265
2.3474788208007813,-9.649682189941405,1.0797684326171875,0.03197659601452743,0.04129582890655533,0.0051989460980524285,2.7151360511779785,2019-06-20 16:21:42:270
2.3618438110351563,-9.67362384033203,1.0857538452148436,0.031443963796511584,0.04102951279754741,0.005465262207060353,2.7200000286102295,2019-06-20 16:21:42:275
2.354661315917969,-9.64369677734375,1.0929363403320311,0.03210975406903139,0.03969793225250779,0.004666313880036581,2.7251200675964355,2019-06-20 16:21:42:280
2.3474788208007813,-9.637711364746094,1.1084984130859374,0.03330817655956705,0.041428986961059296,0.005731578316068277,2.7299840450286865,2019-06-20 16:21:42:285
2.3558583984375,-9.664047180175782,1.110892578125,0.03250922823254328,0.039964248361515714,0.00666368469759601,2.7351040840148926,2019-06-20 16:21:42:290
2.3618438110351563,-9.664047180175782,1.10131591796875,0.0327755443415512,0.040630038634035526,0.00666368469759601,2.7399680614471436,2019-06-20 16:21:42:295
2.357055480957031,-9.631725952148438,1.125257568359375,0.0327755443415512,0.03969793225250779,0.004799471934540543,2.7450881004333496,2019-06-20 16:21:42:300
2.3355079956054685,-9.640105529785156,1.115680908203125,0.031843437960023466,0.03903214197998798,0.004799471934540543,2.7502081394195557,2019-06-20 16:21:42:305
2.340296325683594,-9.650879272460937,1.110892578125,0.031044489632999692,0.0403637225250276,0.005465262207060353,2.7550721168518066,2019-06-20 16:21:42:310
2.3247342529296873,-9.64489385986328,1.1240604858398437,0.03250922823254328,0.03943161614349987,0.0059978944250762,2.7601921558380127,2019-06-20 16:21:42:315
2.3355079956054685,-9.659258850097656,1.0857538452148436,0.0327755443415512,0.03943161614349987,0.0051989460980524285,2.7650561332702637,2019-06-20 16:21:42:320
2.3390992431640623,-9.668835510253906,1.0917392578125,0.03317501850506309,0.038765825870980056,0.0038673655530128094,2.7701761722564697,2019-06-20 16:21:42:325
2.351070068359375,-9.65207635498047,1.08216259765625,0.03210975406903139,0.04023056447052364,0.0051989460980524285,2.7750401496887207,2019-06-20 16:21:42:330
2.32712841796875,-9.674820922851563,1.115680908203125,0.032642386287047236,0.03943161614349987,0.006397368588588085,2.7801599502563477,2019-06-20 16:21:42:335
2.3462817382812498,-9.656864685058594,1.0797684326171875,0.032642386287047236,0.04009740641601968,0.005598420261564315,2.7850241661071777,2019-06-20 16:21:42:340
2.3390992431640623,-9.661653015136718,1.1084984130859374,0.03237607017803931,0.040763196688539484,0.005465262207060353,2.7901439666748047,2019-06-20 16:21:42:345
2.3331138305664063,-9.683200500488281,1.12046923828125,0.032242912123535354,0.04049688057953156,0.005598420261564315,2.7950081825256348,2019-06-20 16:21:42:350
2.337902160644531,-9.655667602539062,1.0594180297851563,0.031843437960023466,0.0403637225250276,0.005065788043548467,2.8001279830932617,2019-06-20 16:21:42:355
2.3486759033203124,-9.66285009765625,1.0737830200195313,0.03171027990551951,0.03916530003449194,0.0059978944250762,2.8049919605255127,2019-06-20 16:21:42:360
2.328325500488281,-9.679609252929687,1.0893450927734374,0.03210975406903139,0.039964248361515714,0.005065788043548467,2.8101119995117188,2019-06-20 16:21:42:365
2.366632141113281,-9.649682189941405,1.0594180297851563,0.03197659601452743,0.03969793225250779,0.005731578316068277,2.8149759769439697,2019-06-20 16:21:42:370
2.36543505859375,-9.677215087890625,1.0881480102539063,0.031843437960023466,0.03943161614349987,0.006131052479580162,2.820096015930176,2019-06-20 16:21:42:375
2.3762088012695313,-9.692777160644532,1.0977246704101562,0.031443963796511584,0.0403637225250276,0.005598420261564315,2.8249599933624268,2019-06-20 16:21:42:380
2.3534642333984372,-9.676018005371093,1.1120896606445312,0.031843437960023466,0.040763196688539484,0.004932629989044505,2.830080032348633,2019-06-20 16:21:42:385
2.342690490722656,-9.647288024902343,1.106104248046875,0.03197659601452743,0.03983109030701175,0.005731578316068277,2.835200071334839,2019-06-20 16:21:42:390
2.354661315917969,-9.660455932617188,1.1240604858398437,0.032242912123535354,0.04049688057953156,0.00533210415255639,2.84006404876709,2019-06-20 16:21:42:395
2.3558583984375,-9.64369677734375,1.106104248046875,0.032242912123535354,0.03903214197998798,0.004932629989044505,2.845184087753296,2019-06-20 16:21:42:400
2.357055480957031,-9.668835510253906,1.0941334228515625,0.03317501850506309,0.03849950976197213,0.004932629989044505,2.850048065185547,2019-06-20 16:21:42:405
2.3582525634765625,-9.670032592773437,1.0881480102539063,0.032242912123535354,0.03969793225250779,0.006930000806603933,2.855168104171753,2019-06-20 16:21:42:410
2.366632141113281,-9.676018005371093,1.0929363403320311,0.03157712185101554,0.038898983925484014,0.004932629989044505,2.860032081604004,2019-06-20 16:21:42:415
2.342690490722656,-9.64489385986328,1.1084984130859374,0.03210975406903139,0.03863266781647609,0.004533155825532619,2.86515212059021,2019-06-20 16:21:42:420
2.351070068359375,-9.684397583007812,1.0917392578125,0.03317501850506309,0.038100035598460244,0.00533210415255639,2.870016098022461,2019-06-20 16:21:42:425
2.354661315917969,-9.678412170410157,1.0917392578125,0.03171027990551951,0.03849950976197213,0.005598420261564315,2.875136137008667,2019-06-20 16:21:42:430
2.3738146362304686,-9.660455932617188,1.0618121948242187,0.03237607017803931,0.03823319365296421,0.005065788043548467,2.880000114440918,2019-06-20 16:21:42:435
2.370223388671875,-9.664047180175782,1.1288488159179688,0.032242912123535354,0.038100035598460244,0.0059978944250762,2.885120153427124,2019-06-20 16:21:42:440
2.3606467285156247,-9.68200341796875,1.1073013305664061,0.03210975406903139,0.03943161614349987,0.006530526643092048,2.889984130859375,2019-06-20 16:21:42:445
2.38458837890625,-9.695171325683594,1.115680908203125,0.03197659601452743,0.0392984580889959,0.006530526643092048,2.895104169845581,2019-06-20 16:21:42:450
2.370223388671875,-9.661653015136718,1.12046923828125,0.03210975406903139,0.038898983925484014,0.007995265242635628,2.899968147277832,2019-06-20 16:21:42:455
2.3582525634765625,-9.632923034667968,1.0917392578125,0.03237607017803931,0.038898983925484014,0.007063158861107895,2.905088186264038,2019-06-20 16:21:42:460
2.3678292236328122,-9.61616387939453,1.1132867431640625,0.032242912123535354,0.038765825870980056,0.006397368588588085,2.910207986831665,2019-06-20 16:21:42:465
2.351070068359375,-9.640105529785156,1.0905421752929687,0.03410712488659082,0.03903214197998798,0.0059978944250762,2.915071964263916,2019-06-20 16:21:42:470
2.354661315917969,-9.665244262695312,1.1360313110351563,0.03317501850506309,0.03849950976197213,0.005598420261564315,2.920192003250122,2019-06-20 16:21:42:475
2.3750117187499997,-9.661653015136718,1.1001188354492186,0.032642386287047236,0.03969793225250779,0.00666368469759601,2.925055980682373,2019-06-20 16:21:42:480
2.3498729858398435,-9.678412170410157,1.08216259765625,0.032642386287047236,0.040630038634035526,0.007595791079123743,2.930176019668579,2019-06-20 16:21:42:485
2.3642379760742185,-9.671229675292969,1.0929363403320311,0.03290870239605516,0.03863266781647609,0.007595791079123743,2.93503999710083,2019-06-20 16:21:42:490
2.371420471191406,-9.678412170410157,1.1120896606445312,0.033041860450559124,0.03770056143494836,0.00812842329713959,2.940160036087036,2019-06-20 16:21:42:495
2.3738146362304686,-9.667638427734374,1.1025130004882813,0.03131080574200762,0.03770056143494836,0.007196316915611857,2.945024013519287,2019-06-20 16:21:42:500
2.3594496459960936,-9.667638427734374,1.1144838256835938,0.03091133157849573,0.03863266781647609,0.006796842752099972,2.950144052505493,2019-06-20 16:21:42:505
2.371420471191406,-9.671229675292969,1.0965275878906249,0.031443963796511584,0.03943161614349987,0.008661055515155438,2.955008029937744,2019-06-20 16:21:42:510
2.3762088012695313,-9.689185913085938,1.1001188354492186,0.031177647687503654,0.04023056447052364,0.00946000384217921,2.96012806892395,2019-06-20 16:21:42:515
2.3869825439453125,-9.664047180175782,1.12046923828125,0.03250922823254328,0.039564774198003826,0.009726319951187133,2.964992046356201,2019-06-20 16:21:42:520
2.3881796264648436,-9.683200500488281,1.1180750732421876,0.03197659601452743,0.03916530003449194,0.010258952169202981,2.9701120853424072,2019-06-20 16:21:42:525
2.370223388671875,-9.691580078125,1.086950927734375,0.033707650723078936,0.0392984580889959,0.010258952169202981,2.974976062774658,2019-06-20 16:21:42:530
2.38458837890625,-9.6532734375,1.1144838256835938,0.033041860450559124,0.0403637225250276,0.010258952169202981,2.9800961017608643,2019-06-20 16:21:42:535
2.3606467285156247,-9.6532734375,1.0917392578125,0.0327755443415512,0.04116267085205137,0.009593161896683172,2.9849600791931152,2019-06-20 16:21:42:540
2.3869825439453125,-9.661653015136718,1.1216663208007813,0.03131080574200762,0.04009740641601968,0.011324216605234675,2.9900801181793213,2019-06-20 16:21:42:545
2.3690263061523438,-9.622149291992187,1.1049071655273437,0.03210975406903139,0.03916530003449194,0.01145737465973864,2.9952001571655273,2019-06-20 16:21:42:550
2.3869825439453125,-9.62334637451172,1.1037100830078124,0.031843437960023466,0.03943161614349987,0.010791584387218828,3.0000641345977783,2019-06-20 16:21:42:555
2.398953369140625,-9.649682189941405,1.1240604858398437,0.032642386287047236,0.03836635170746817,0.009326845787675248,3.0051841735839844,2019-06-20 16:21:42:560
2.3582525634765625,-9.661653015136718,1.134834228515625,0.032642386287047236,0.03823319365296421,0.010258952169202981,3.0100481510162354,2019-06-20 16:21:42:565
2.3618438110351563,-9.6724267578125,1.10131591796875,0.03330817655956705,0.039564774198003826,0.01092474244172279,3.0151679515838623,2019-06-20 16:21:42:570
2.3738146362304686,-9.6724267578125,1.1025130004882813,0.033707650723078936,0.03916530003449194,0.012922113259282218,3.0200321674346924,2019-06-20 16:21:42:575
2.3833912963867188,-9.656864685058594,1.115680908203125,0.03317501850506309,0.03983109030701175,0.01358790353180203,3.0251519680023193,2019-06-20 16:21:42:580
2.36543505859375,-9.664047180175782,1.110892578125,0.03317501850506309,0.03916530003449194,0.014120535749817876,3.0300161838531494,2019-06-20 16:21:42:585
2.3905737915039063,-9.664047180175782,1.1240604858398437,0.032642386287047236,0.04023056447052364,0.013987377695313915,3.0351359844207764,2019-06-20 16:21:42:590
2.4109241943359376,-9.687988830566406,1.13962255859375,0.03237607017803931,0.03983109030701175,0.013454745477298068,3.0399999618530273,2019-06-20 16:21:42:595
2.4145154418945314,-9.658061767578126,1.1276517333984375,0.03197659601452743,0.039964248361515714,0.012389481041266371,3.0451200008392334,2019-06-20 16:21:42:600
2.4300775146484375,-9.6341201171875,1.1144838256835938,0.031443963796511584,0.04129582890655533,0.013987377695313915,3.0499839782714844,2019-06-20 16:21:42:605
2.4049387817382812,-9.661653015136718,1.1096954956054688,0.03197659601452743,0.03969793225250779,0.014120535749817876,3.0551040172576904,2019-06-20 16:21:42:610
2.42289501953125,-9.6724267578125,1.12046923828125,0.03171027990551951,0.03943161614349987,0.013987377695313915,3.0602240562438965,2019-06-20 16:21:42:615
2.40374169921875,-9.659258850097656,1.0989217529296875,0.0327755443415512,0.03943161614349987,0.015452116294857496,3.0650880336761475,2019-06-20 16:21:42:620
2.395362121582031,-9.660455932617188,1.1240604858398437,0.0327755443415512,0.04089635474304345,0.016117906567377306,3.0702080726623535,2019-06-20 16:21:42:625
2.3881796264648436,-9.648485107421875,1.1049071655273437,0.0327755443415512,0.04049688057953156,0.016783696839897114,3.0750720500946045,2019-06-20 16:21:42:630
2.3857854614257814,-9.665244262695312,1.1228634033203124,0.03290870239605516,0.039964248361515714,0.017050012948905038,3.0801920890808105,2019-06-20 16:21:42:635
2.380997131347656,-9.67362384033203,1.0989217529296875,0.0327755443415512,0.0392984580889959,0.016783696839897114,3.0850560665130615,2019-06-20 16:21:42:640
2.3618438110351563,-9.665244262695312,1.1144838256835938,0.032242912123535354,0.040630038634035526,0.016783696839897114,3.0901761054992676,2019-06-20 16:21:42:645
2.3726175537109375,-9.656864685058594,1.1180750732421876,0.031177647687503654,0.041562145015563254,0.016783696839897114,3.0950400829315186,2019-06-20 16:21:42:650
2.3774058837890624,-9.667638427734374,1.110892578125,0.029979225196968,0.04102951279754741,0.017183171003409,3.1001601219177246,2019-06-20 16:21:42:655
2.389376708984375,-9.654470520019531,1.0905421752929687,0.03011238325147196,0.04102951279754741,0.017449487112416926,3.1050240993499756,2019-06-20 16:21:42:660
2.3738146362304686,-9.664047180175782,1.1480021362304687,0.03157712185101554,0.039964248361515714,0.019446857929976354,3.1101441383361816,2019-06-20 16:21:42:665
2.380997131347656,-9.647288024902343,1.1336371459960937,0.03157712185101554,0.0403637225250276,0.01851475154844862,3.1150081157684326,2019-06-20 16:21:42:670
2.3678292236328122,-9.664047180175782,1.1168779907226563,0.03157712185101554,0.03983109030701175,0.018914225711960504,3.1201281547546387,2019-06-20 16:21:42:675
2.371420471191406,-9.667638427734374,1.1240604858398437,0.03171027990551951,0.0403637225250276,0.019446857929976354,3.1249921321868896,2019-06-20 16:21:42:680
2.352267150878906,-9.646090942382813,1.1228634033203124,0.031843437960023466,0.040763196688539484,0.019713174038984278,3.1301121711730957,2019-06-20 16:21:42:685
2.3750117187499997,-9.677215087890625,1.1336371459960937,0.031443963796511584,0.0403637225250276,0.019313699875472393,3.1349761486053467,2019-06-20 16:21:42:690
2.371420471191406,-9.656864685058594,1.1240604858398437,0.03091133157849573,0.04049688057953156,0.01984633209348824,3.1400959491729736,2019-06-20 16:21:42:695
2.3390992431640623,-9.637711364746094,1.1480021362304687,0.031443963796511584,0.040630038634035526,0.02064528042051201,3.1449601650238037,2019-06-20 16:21:42:700
2.3438875732421875,-9.6532734375,1.1384254760742187,0.03171027990551951,0.04009740641601968,0.01984633209348824,3.1500799655914307,2019-06-20 16:21:42:705
2.3355079956054685,-9.648485107421875,1.1084984130859374,0.03210975406903139,0.04023056447052364,0.021577386802039744,3.1552000045776367,2019-06-20 16:21:42:710
2.3486759033203124,-9.674820922851563,1.1084984130859374,0.03197659601452743,0.0392984580889959,0.020512122366008047,3.1600639820098877,2019-06-20 16:21:42:715
2.3331138305664063,-9.67362384033203,1.0965275878906249,0.03210975406903139,0.039564774198003826,0.01918054182096843,3.1651840209960938,2019-06-20 16:21:42:720
2.341493408203125,-9.637711364746094,1.1300458984375,0.03171027990551951,0.04023056447052364,0.01984633209348824,3.1700479984283447,2019-06-20 16:21:42:725
2.3738146362304686,-9.66285009765625,1.1144838256835938,0.03131080574200762,0.04023056447052364,0.020378964311504086,3.175168037414551,2019-06-20 16:21:42:730
2.3498729858398435,-9.659258850097656,1.1001188354492186,0.030645015469487807,0.03903214197998798,0.018248435439440696,3.1800320148468018,2019-06-20 16:21:42:735
2.3558583984375,-9.64369677734375,1.1001188354492186,0.03077817352399177,0.0392984580889959,0.01851475154844862,3.185152053833008,2019-06-20 16:21:42:740
2.3343109130859374,-9.6341201171875,1.0941334228515625,0.03171027990551951,0.0392984580889959,0.018381593493944658,3.190016031265259,2019-06-20 16:21:42:745
2.3175517578125,-9.658061767578126,1.1049071655273437,0.03237607017803931,0.03849950976197213,0.0199794901479922,3.195136070251465,2019-06-20 16:21:42:750
2.328325500488281,-9.684397583007812,1.1420167236328125,0.032242912123535354,0.03849950976197213,0.019313699875472393,3.200000047683716,2019-06-20 16:21:42:755
2.3450846557617187,-9.674820922851563,1.1025130004882813,0.032242912123535354,0.03903214197998798,0.018781067657456543,3.205120086669922,2019-06-20 16:21:42:760
2.3438875732421875,-9.650879272460937,1.1312429809570312,0.031044489632999692,0.03836635170746817,0.01904738376646447,3.209984064102173,2019-06-20 16:21:42:765
2.3211430053710935,-9.658061767578126,1.1456079711914062,0.0327755443415512,0.03743424532594044,0.01851475154844862,3.215104103088379,2019-06-20 16:21:42:770
2.3390992431640623,-9.671229675292969,1.1408196411132812,0.032642386287047236,0.03969793225250779,0.01918054182096843,3.21996808052063,2019-06-20 16:21:42:775
2.3630408935546874,-9.667638427734374,1.12046923828125,0.03237607017803931,0.03849950976197213,0.018248435439440696,3.225088119506836,2019-06-20 16:21:42:780
2.3857854614257814,-9.654470520019531,1.125257568359375,0.03131080574200762,0.03676845505342063,0.01918054182096843,3.230208158493042,2019-06-20 16:21:42:785
2.354661315917969,-9.655667602539062,1.0749801025390624,0.032242912123535354,0.03770056143494836,0.017582645166920888,3.235072135925293,2019-06-20 16:21:42:790
2.3833912963867188,-9.66285009765625,1.0977246704101562,0.03210975406903139,0.037301087271436474,0.01864790960295258,3.240192174911499,2019-06-20 16:21:42:795
2.3630408935546874,-9.659258850097656,1.1192721557617187,0.032242912123535354,0.037301087271436474,0.018381593493944658,3.24505615234375,2019-06-20 16:21:42:800
2.3642379760742185,-9.654470520019531,1.0785713500976561,0.03210975406903139,0.03823319365296421,0.018914225711960504,3.250175952911377,2019-06-20 16:21:42:805
2.3390992431640623,-9.6341201171875,1.10131591796875,0.0327755443415512,0.037966877543956286,0.01984633209348824,3.255040168762207,2019-06-20 16:21:42:810
2.352267150878906,-9.649682189941405,1.0989217529296875,0.032642386287047236,0.037966877543956286,0.019313699875472393,3.260159969329834,2019-06-20 16:21:42:815
2.3498729858398435,-9.6532734375,1.1456079711914062,0.032642386287047236,0.03849950976197213,0.018781067657456543,3.265024185180664,2019-06-20 16:21:42:820
2.354661315917969,-9.664047180175782,1.125257568359375,0.03344133461407101,0.03863266781647609,0.01784896127592881,3.270143985748291,2019-06-20 16:21:42:825
2.352267150878906,-9.680806335449219,1.1001188354492186,0.03197659601452743,0.038898983925484014,0.017582645166920888,3.275007963180542,2019-06-20 16:21:42:830
2.357055480957031,-9.661653015136718,1.0809655151367188,0.03290870239605516,0.039564774198003826,0.01771580322142485,3.280128002166748,2019-06-20 16:21:42:835
2.3199459228515624,-9.689185913085938,1.0725859375,0.03317501850506309,0.037301087271436474,0.018248435439440696,3.284991979598999,2019-06-20 16:21:42:840
2.3355079956054685,-9.684397583007812,1.0737830200195313,0.033707650723078936,0.03770056143494836,0.018115277384936734,3.290112018585205,2019-06-20 16:21:42:845
2.325931335449219,-9.65207635498047,1.0953305053710938,0.031443963796511584,0.0392984580889959,0.018115277384936734,3.294975996017456,2019-06-20 16:21:42:850
2.3630408935546874,-9.650879272460937,1.12046923828125,0.032242912123535354,0.03849950976197213,0.018248435439440696,3.300096035003662,2019-06-20 16:21:42:855
2.354661315917969,-9.648485107421875,1.0917392578125,0.03250922823254328,0.03903214197998798,0.018381593493944658,3.304960012435913,2019-06-20 16:21:42:860
2.3534642333984372,-9.658061767578126,1.0941334228515625,0.03210975406903139,0.03903214197998798,0.01784896127592881,3.310080051422119,2019-06-20 16:21:42:865
2.3462817382812498,-9.67362384033203,1.0845567626953125,0.03210975406903139,0.03903214197998798,0.017582645166920888,3.315200090408325,2019-06-20 16:21:42:870
2.3594496459960936,-9.674820922851563,1.0785713500976561,0.033707650723078936,0.03903214197998798,0.018248435439440696,3.320064067840576,2019-06-20 16:21:42:875
2.341493408203125,-9.664047180175782,1.1037100830078124,0.03210975406903139,0.038898983925484014,0.017982119330432773,3.3251841068267822,2019-06-20 16:21:42:880
2.371420471191406,-9.656864685058594,1.1144838256835938,0.03250922823254328,0.03916530003449194,0.019580015984480316,3.330048084259033,2019-06-20 16:21:42:885
2.3390992431640623,-9.654470520019531,1.1216663208007813,0.032642386287047236,0.04023056447052364,0.018781067657456543,3.3351681232452393,2019-06-20 16:21:42:890
2.3642379760742185,-9.656864685058594,1.106104248046875,0.032242912123535354,0.04009740641601968,0.017982119330432773,3.3400321006774902,2019-06-20 16:21:42:895
2.340296325683594,-9.665244262695312,1.1216663208007813,0.033840808777582894,0.03969793225250779,0.01851475154844862,3.3451521396636963,2019-06-20 16:21:42:900
2.351070068359375,-9.68200341796875,1.1132867431640625,0.033840808777582894,0.04089635474304345,0.017449487112416926,3.3500161170959473,2019-06-20 16:21:42:905
2.313960510253906,-9.667638427734374,1.0929363403320311,0.03290870239605516,0.04116267085205137,0.016783696839897114,3.3551361560821533,2019-06-20 16:21:42:910
2.311566345214844,-9.68200341796875,1.0905421752929687,0.03330817655956705,0.04182846112457118,0.017183171003409,3.3600001335144043,2019-06-20 16:21:42:915
2.323537170410156,-9.686791748046875,1.0749801025390624,0.03344133461407101,0.04129582890655533,0.01784896127592881,3.3651201725006104,2019-06-20 16:21:42:920
2.3642379760742185,-9.690382995605468,1.0857538452148436,0.033041860450559124,0.04089635474304345,0.01784896127592881,3.3699841499328613,2019-06-20 16:21:42:925
2.3474788208007813,-9.686791748046875,1.0689946899414062,0.033041860450559124,0.04116267085205137,0.01784896127592881,3.3751039505004883,2019-06-20 16:21:42:930
2.322340087890625,-9.66285009765625,1.0989217529296875,0.03330817655956705,0.04116267085205137,0.016916854894401076,3.3799681663513184,2019-06-20 16:21:42:935
2.352267150878906,-9.649682189941405,1.0797684326171875,0.033041860450559124,0.0403637225250276,0.017050012948905038,3.3850879669189453,2019-06-20 16:21:42:940
2.3163546752929687,-9.649682189941405,1.0965275878906249,0.03210975406903139,0.04102951279754741,0.015984748512873345,3.3902080059051514,2019-06-20 16:21:42:945
2.3163546752929687,-9.637711364746094,1.1037100830078124,0.033041860450559124,0.040763196688539484,0.017316329057912964,3.3950719833374023,2019-06-20 16:21:42:950
2.3067780151367185,-9.656864685058594,1.0977246704101562,0.03197659601452743,0.0392984580889959,0.01651738073088919,3.4001920223236084,2019-06-20 16:21:42:955
2.3307196655273437,-9.650879272460937,1.1037100830078124,0.03237607017803931,0.04009740641601968,0.01638422267638523,3.4050559997558594,2019-06-20 16:21:42:960
2.337902160644531,-9.666441345214844,1.12046923828125,0.032642386287047236,0.0392984580889959,0.016251064621881268,3.4101760387420654,2019-06-20 16:21:42:965
2.3331138305664063,-9.6724267578125,1.110892578125,0.031843437960023466,0.03863266781647609,0.016783696839897114,3.4150400161743164,2019-06-20 16:21:42:970
2.32712841796875,-9.647288024902343,1.1132867431640625,0.03171027990551951,0.03969793225250779,0.015851590458369383,3.4201600551605225,2019-06-20 16:21:42:975
2.32712841796875,-9.661653015136718,1.1025130004882813,0.032242912123535354,0.039564774198003826,0.013987377695313915,3.4250240325927734,2019-06-20 16:21:42:980
2.3486759033203124,-9.671229675292969,1.0941334228515625,0.031843437960023466,0.039964248361515714,0.014653167967833723,3.4301440715789795,2019-06-20 16:21:42:985
2.352267150878906,-9.671229675292969,1.086950927734375,0.033041860450559124,0.039964248361515714,0.014786326022337684,3.4350080490112305,2019-06-20 16:21:42:990
2.341493408203125,-9.650879272460937,1.0845567626953125,0.03210975406903139,0.039964248361515714,0.0143868518588258,3.4401280879974365,2019-06-20 16:21:42:995
2.3247342529296873,-9.625740539550781,1.1073013305664061,0.03210975406903139,0.03983109030701175,0.014919484076841646,3.4449920654296875,2019-06-20 16:21:43:000
2.3175517578125,-9.680806335449219,1.1168779907226563,0.03237607017803931,0.038898983925484014,0.014253693804321838,3.4501121044158936,2019-06-20 16:21:43:005
2.340296325683594,-9.683200500488281,1.0953305053710938,0.03197659601452743,0.03969793225250779,0.013454745477298068,3.4549760818481445,2019-06-20 16:21:43:010
2.325931335449219,-9.661653015136718,1.106104248046875,0.03290870239605516,0.0392984580889959,0.014786326022337684,3.4600961208343506,2019-06-20 16:21:43:015
2.3343109130859374,-9.677215087890625,1.1132867431640625,0.03317501850506309,0.038100035598460244,0.014120535749817876,3.4649600982666016,2019-06-20 16:21:43:020
2.351070068359375,-9.686791748046875,1.12046923828125,0.03317501850506309,0.03943161614349987,0.015452116294857496,3.4700801372528076,2019-06-20 16:21:43:025
2.328325500488281,-9.696368408203124,1.1468050537109375,0.03344133461407101,0.038898983925484014,0.013854219640809953,3.4752001762390137,2019-06-20 16:21:43:030
2.337902160644531,-9.685594665527343,1.0845567626953125,0.03357449266857497,0.038765825870980056,0.015452116294857496,3.4800641536712646,2019-06-20 16:21:43:035
2.3390992431640623,-9.678412170410157,1.1192721557617187,0.03250922823254328,0.038100035598460244,0.01358790353180203,3.4851839542388916,2019-06-20 16:21:43:040
2.3462817382812498,-9.668835510253906,1.0953305053710938,0.0327755443415512,0.0392984580889959,0.0143868518588258,3.4900481700897217,2019-06-20 16:21:43:045
2.336705078125,-9.646090942382813,1.0749801025390624,0.032242912123535354,0.03903214197998798,0.014786326022337684,3.4951679706573486,2019-06-20 16:21:43:050
2.336705078125,-9.646090942382813,1.0749801025390624,0.032242912123535354,0.03903214197998798,0.014786326022337684,3.4979841709136963,2019-06-20 16:21:43:053
2.3390992431640623,-9.666441345214844,1.1360313110351563,0.0327755443415512,0.03916530003449194,0.0143868518588258,3.5051519870758057,2019-06-20 16:21:43:060
2.3390992431640623,-9.666441345214844,1.1360313110351563,0.0327755443415512,0.03916530003449194,0.0143868518588258,3.507967948913574,2019-06-20 16:21:43:063
2.3151575927734376,-9.678412170410157,1.1049071655273437,0.03344133461407101,0.040763196688539484,0.014786326022337684,3.5151360034942627,2019-06-20 16:21:43:070
2.3151575927734376,-9.678412170410157,1.1049071655273437,0.03344133461407101,0.040763196688539484,0.014786326022337684,3.5179519653320312,2019-06-20 16:21:43:073
2.3498729858398435,-9.664047180175782,1.106104248046875,0.03344133461407101,0.04023056447052364,0.013188429368290141,3.5251200199127197,2019-06-20 16:21:43:080
2.3319167480468748,-9.671229675292969,1.0989217529296875,0.032642386287047236,0.040763196688539484,0.013321587422794106,3.5299839973449707,2019-06-20 16:21:43:085
2.3343109130859374,-9.68200341796875,1.106104248046875,0.033041860450559124,0.03903214197998798,0.012655797150274295,3.5351040363311768,2019-06-20 16:21:43:090
2.3355079956054685,-9.680806335449219,1.1168779907226563,0.032242912123535354,0.03916530003449194,0.014120535749817876,3.5399680137634277,2019-06-20 16:21:43:095
2.340296325683594,-9.664047180175782,1.1168779907226563,0.0327755443415512,0.037966877543956286,0.01358790353180203,3.545088052749634,2019-06-20 16:21:43:100
2.3498729858398435,-9.659258850097656,1.0905421752929687,0.032242912123535354,0.03863266781647609,0.01305527131378618,3.55020809173584,2019-06-20 16:21:43:105
2.328325500488281,-9.64489385986328,1.08216259765625,0.03250922823254328,0.0392984580889959,0.013321587422794106,3.555072069168091,2019-06-20 16:21:43:110
2.3582525634765625,-9.649682189941405,1.1132867431640625,0.03290870239605516,0.038100035598460244,0.01305527131378618,3.560192108154297,2019-06-20 16:21:43:115
2.3295225830078126,-9.66285009765625,1.1120896606445312,0.030645015469487807,0.037966877543956286,0.012922113259282218,3.565056085586548,2019-06-20 16:21:43:120
2.3295225830078126,-9.66285009765625,1.1120896606445312,0.03131080574200762,0.03783371948945232,0.01358790353180203,3.570176124572754,2019-06-20 16:21:43:125
2.3343109130859374,-9.666441345214844,1.1001188354492186,0.03250922823254328,0.037966877543956286,0.012655797150274295,3.575040102005005,2019-06-20 16:21:43:130
2.3438875732421875,-9.665244262695312,1.0977246704101562,0.0327755443415512,0.03916530003449194,0.013454745477298068,3.580160140991211,2019-06-20 16:21:43:135
2.352267150878906,-9.655667602539062,1.1168779907226563,0.032642386287047236,0.0392984580889959,0.013188429368290141,3.585024118423462,2019-06-20 16:21:43:140
2.352267150878906,-9.668835510253906,1.1216663208007813,0.03250922823254328,0.03703477116242855,0.013188429368290141,3.590144157409668,2019-06-20 16:21:43:145
2.4013475341796875,-9.648485107421875,1.1096954956054688,0.03237607017803931,0.03663529699891667,0.012788955204778256,3.595008134841919,2019-06-20 16:21:43:150
2.352267150878906,-9.655667602539062,1.1420167236328125,0.03131080574200762,0.0375674033804444,0.01225632298676241,3.600128173828125,2019-06-20 16:21:43:155
2.36543505859375,-9.674820922851563,1.1372283935546874,0.031443963796511584,0.03849950976197213,0.0143868518588258,3.604992151260376,2019-06-20 16:21:43:160
2.3390992431640623,-9.648485107421875,1.1096954956054688,0.03210975406903139,0.03836635170746817,0.013854219640809953,3.610111951828003,2019-06-20 16:21:43:165
2.325931335449219,-9.692777160644532,1.0785713500976561,0.03171027990551951,0.038765825870980056,0.013188429368290141,3.614976167678833,2019-06-20 16:21:43:170
2.3462817382812498,-9.692777160644532,1.0450530395507813,0.033707650723078936,0.038765825870980056,0.012788955204778256,3.62009596824646,2019-06-20 16:21:43:175
2.340296325683594,-9.698762573242186,1.1025130004882813,0.032242912123535354,0.039564774198003826,0.012788955204778256,3.62496018409729,2019-06-20 16:21:43:180
2.3390992431640623,-9.687988830566406,1.1025130004882813,0.032642386287047236,0.03943161614349987,0.011324216605234675,3.630079984664917,2019-06-20 16:21:43:185
2.3355079956054685,-9.668835510253906,1.0989217529296875,0.03197659601452743,0.039964248361515714,0.012123164932258448,3.635200023651123,2019-06-20 16:21:43:190
2.336705078125,-9.65207635498047,1.1073013305664061,0.030245541305975922,0.038765825870980056,0.011856848823250525,3.640064001083374,2019-06-20 16:21:43:195
2.3307196655273437,-9.671229675292969,1.0977246704101562,0.03131080574200762,0.03903214197998798,0.01225632298676241,3.64518404006958,2019-06-20 16:21:43:200
2.3438875732421875,-9.6724267578125,1.1132867431640625,0.03131080574200762,0.0392984580889959,0.012522639095770333,3.650048017501831,2019-06-20 16:21:43:205
2.3187488403320313,-9.678412170410157,1.0546296997070312,0.033041860450559124,0.0403637225250276,0.012389481041266371,3.655168056488037,2019-06-20 16:21:43:210
2.3163546752929687,-9.68200341796875,1.10131591796875,0.03250922823254328,0.04102951279754741,0.010392110223706943,3.660032033920288,2019-06-20 16:21:43:215
2.311566345214844,-9.699959655761718,1.1084984130859374,0.033840808777582894,0.04102951279754741,0.010525268278210905,3.665152072906494,2019-06-20 16:21:43:220
2.3355079956054685,-9.67362384033203,1.086950927734375,0.03290870239605516,0.04116267085205137,0.011191058550730713,3.670016050338745,2019-06-20 16:21:43:225
2.3019896850585937,-9.637711364746094,1.106104248046875,0.03250922823254328,0.040763196688539484,0.010525268278210905,3.675136089324951,2019-06-20 16:21:43:230
2.3307196655273437,-9.6532734375,1.1144838256835938,0.03250922823254328,0.04049688057953156,0.01012579411469902,3.680000066757202,2019-06-20 16:21:43:235
2.312763427734375,-9.674820922851563,1.1049071655273437,0.03237607017803931,0.0403637225250276,0.009859478005691095,3.685120105743408,2019-06-20 16:21:43:240
2.3055809326171874,-9.660455932617188,1.1144838256835938,0.031843437960023466,0.04009740641601968,0.008661055515155438,3.689984083175659,2019-06-20 16:21:43:245
2.3019896850585937,-9.664047180175782,1.1276517333984375,0.033041860450559124,0.040630038634035526,0.008394739406147515,3.6951041221618652,2019-06-20 16:21:43:250
2.3151575927734376,-9.656864685058594,1.1120896606445312,0.032242912123535354,0.04049688057953156,0.007595791079123743,3.699968099594116,2019-06-20 16:21:43:255
2.30797509765625,-9.67362384033203,1.1025130004882813,0.03237607017803931,0.03943161614349987,0.007995265242635628,3.7050881385803223,2019-06-20 16:21:43:260
2.312763427734375,-9.666441345214844,1.0857538452148436,0.03250922823254328,0.0392984580889959,0.0087942135696594,3.7102081775665283,2019-06-20 16:21:43:265
2.313960510253906,-9.658061767578126,1.106104248046875,0.03171027990551951,0.03983109030701175,0.007595791079123743,3.7150721549987793,2019-06-20 16:21:43:270
2.3247342529296873,-9.661653015136718,1.1132867431640625,0.032642386287047236,0.039964248361515714,0.008261581351643552,3.7201919555664062,2019-06-20 16:21:43:275
