ACCELEROMETER X (m/s²),ACCELEROMETER Y (m/s²),ACCELEROMETER Z (m/s²),GYROSCOPE X (rad/s),GYROSCOPE Y (rad/s),GYROSCOPE Z (rad/s),Time since start in ms ,YYYY-MO-DD HH-MI-SS_SSS
-6.350522766113281,-6.7359833374023435,1.2270095825195313,0.0327755443415512,0.03823319365296421,0.017449487112416926,0.0,2019-06-20 16:14:10:450
-6.364887756347656,-6.731195007324218,1.2365862426757812,0.03290870239605516,0.038100035598460244,0.01851475154844862,0.0048639774322509766,2019-06-20 16:14:10:454
-6.366084838867187,-6.743165832519531,1.2533453979492186,0.03290870239605516,0.0375674033804444,0.016916854894401076,0.009984016418457031,2019-06-20 16:14:10:460
-6.369676086425781,-6.724012512207031,1.278484130859375,0.03157712185101554,0.03770056143494836,0.01784896127592881,0.014847993850708008,2019-06-20 16:14:10:464
-6.385238159179687,-6.725209594726563,1.2713016357421876,0.03091133157849573,0.038765825870980056,0.01851475154844862,0.019968032836914062,2019-06-20 16:14:10:469
-6.36847900390625,-6.7371804199218746,1.3048199462890624,0.03197659601452743,0.038100035598460244,0.018248435439440696,0.02483201026916504,2019-06-20 16:14:10:474
-6.364887756347656,-6.728800842285156,1.3108053588867188,0.03171027990551951,0.038765825870980056,0.01851475154844862,0.029952049255371094,2019-06-20 16:14:10:479
-6.334960693359375,-6.743165832519531,1.2760899658203124,0.03171027990551951,0.03823319365296421,0.01904738376646447,0.03481602668762207,2019-06-20 16:14:10:484
-6.332566528320313,-6.756333740234375,1.268907470703125,0.03237607017803931,0.03849950976197213,0.01864790960295258,0.039936065673828125,2019-06-20 16:14:10:489
-6.35890234375,-6.7527424926757815,1.268907470703125,0.032242912123535354,0.03783371948945232,0.01771580322142485,0.0448000431060791,2019-06-20 16:14:10:494
-6.3720702514648435,-6.775487060546875,1.2629220581054688,0.031843437960023466,0.03836635170746817,0.017582645166920888,0.049920082092285156,2019-06-20 16:14:10:499
-6.373267333984375,-6.7359833374023435,1.297637451171875,0.030378699360479884,0.038898983925484014,0.0199794901479922,0.05478405952453613,2019-06-20 16:14:10:504
-6.348128601074219,-6.749151245117187,1.2665133056640625,0.030378699360479884,0.038898983925484014,0.0199794901479922,0.05990409851074219,2019-06-20 16:14:10:509
-6.361296508789063,-6.764713317871093,1.2832724609375,0.031044489632999692,0.03983109030701175,0.01984633209348824,0.06476807594299316,2019-06-20 16:14:10:514
-6.35890234375,-6.746757080078125,1.2629220581054688,0.031843437960023466,0.03969793225250779,0.018781067657456543,0.06988811492919922,2019-06-20 16:14:10:519
-6.3433402709960935,-6.764713317871093,1.278484130859375,0.032242912123535354,0.038765825870980056,0.01918054182096843,0.0747520923614502,2019-06-20 16:14:10:524
-6.337354858398437,-6.762319152832031,1.2413745727539063,0.03197659601452743,0.03903214197998798,0.020512122366008047,0.07987213134765625,2019-06-20 16:14:10:529
-6.324186950683593,-6.734786254882812,1.2329949951171875,0.032642386287047236,0.04089635474304345,0.020778438475015974,0.0849921703338623,2019-06-20 16:14:10:535
-6.345734436035156,-6.785063720703125,1.2521483154296875,0.03197659601452743,0.04102951279754741,0.0199794901479922,0.08985614776611328,2019-06-20 16:14:10:539
-6.3397490234375,-6.727603759765625,1.2413745727539063,0.033041860450559124,0.04089635474304345,0.020378964311504086,0.09497618675231934,2019-06-20 16:14:10:544
-6.332566528320313,-6.718027099609375,1.240177490234375,0.031843437960023466,0.04089635474304345,0.019580015984480316,0.09984016418457031,2019-06-20 16:14:10:549
-6.352916931152343,-6.725209594726563,1.2605278930664061,0.033707650723078936,0.040630038634035526,0.020911596529519936,0.10495996475219727,2019-06-20 16:14:10:554
-6.362493591308594,-6.715632934570312,1.2377833251953125,0.034639757104606664,0.0403637225250276,0.020911596529519936,0.10982418060302734,2019-06-20 16:14:10:559
-6.370873168945312,-6.745559997558594,1.2617249755859374,0.03290870239605516,0.04049688057953156,0.020911596529519936,0.1149439811706543,2019-06-20 16:14:10:564
-6.367281921386718,-6.7659104003906245,1.2629220581054688,0.03197659601452743,0.04089635474304345,0.02064528042051201,0.11980819702148438,2019-06-20 16:14:10:569
-6.350522766113281,-6.733589172363281,1.2892578735351563,0.03344133461407101,0.03943161614349987,0.020245806257000124,0.12492799758911133,2019-06-20 16:14:10:574
-6.348128601074219,-6.71323876953125,1.2389804077148436,0.033707650723078936,0.03916530003449194,0.019446857929976354,0.1297919750213623,2019-06-20 16:14:10:579
-6.33017236328125,-6.758727905273437,1.2186300048828125,0.03424028294109478,0.04009740641601968,0.019313699875472393,0.13491201400756836,2019-06-20 16:14:10:584
-6.352916931152343,-6.740771667480469,1.2449658203125,0.033707650723078936,0.040630038634035526,0.020112648202496163,0.13977599143981934,2019-06-20 16:14:10:589
-6.362493591308594,-6.7527424926757815,1.2317979125976561,0.03424028294109478,0.040630038634035526,0.021044754584023898,0.1448960304260254,2019-06-20 16:14:10:594
-6.3780556640625,-6.743165832519531,1.2317979125976561,0.03330817655956705,0.040763196688539484,0.021044754584023898,0.14976000785827637,2019-06-20 16:14:10:599
-6.369676086425781,-6.739574584960938,1.2521483154296875,0.03344133461407101,0.039964248361515714,0.020911596529519936,0.15488004684448242,2019-06-20 16:14:10:604
-6.381646911621093,-6.731195007324218,1.2341920776367188,0.034506599050102706,0.04009740641601968,0.020378964311504086,0.16000008583068848,2019-06-20 16:14:10:610
-6.392420654296875,-6.739574584960938,1.264119140625,0.03424028294109478,0.040763196688539484,0.021577386802039744,0.16486406326293945,2019-06-20 16:14:10:614
-6.374464416503906,-6.733589172363281,1.2832724609375,0.03344133461407101,0.04089635474304345,0.020778438475015974,0.1699841022491455,2019-06-20 16:14:10:620
-6.3864352416992185,-6.7527424926757815,1.2317979125976561,0.0327755443415512,0.04009740641601968,0.019713174038984278,0.17484807968139648,2019-06-20 16:14:10:624
-6.4008002319335935,-6.7371804199218746,1.2629220581054688,0.033707650723078936,0.04049688057953156,0.02064528042051201,0.17996811866760254,2019-06-20 16:14:10:629
-6.3720702514648435,-6.738377502441406,1.2760899658203124,0.033041860450559124,0.04049688057953156,0.01984633209348824,0.18483209609985352,2019-06-20 16:14:10:634
-6.367281921386718,-6.704859191894531,1.2461629028320311,0.033041860450559124,0.04009740641601968,0.019580015984480316,0.18995213508605957,2019-06-20 16:14:10:639
-6.396011901855468,-6.685705871582031,1.2353891601562499,0.03344133461407101,0.04116267085205137,0.020112648202496163,0.19481611251831055,2019-06-20 16:14:10:644
-6.382843994140625,-6.743165832519531,1.2365862426757812,0.033041860450559124,0.04049688057953156,0.019313699875472393,0.1999361515045166,2019-06-20 16:14:10:649
-6.370873168945312,-6.734786254882812,1.2629220581054688,0.033707650723078936,0.03943161614349987,0.019446857929976354,0.20480012893676758,2019-06-20 16:14:10:654
-6.390026489257813,-6.714435852050781,1.2509512329101562,0.033840808777582894,0.04089635474304345,0.018914225711960504,0.20992016792297363,2019-06-20 16:14:10:659
-6.403194396972656,-6.691691284179687,1.2282066650390624,0.03490607321361459,0.04089635474304345,0.017982119330432773,0.2147841453552246,2019-06-20 16:14:10:664
-6.422347717285156,-6.683311706542969,1.2808782958984375,0.03397396683208686,0.0403637225250276,0.017183171003409,0.21990418434143066,2019-06-20 16:14:10:669
-6.413968139648437,-6.701267944335937,1.2437687377929687,0.03330817655956705,0.03983109030701175,0.017050012948905038,0.22502398490905762,2019-06-20 16:14:10:675
-6.4008002319335935,-6.71323876953125,1.2353891601562499,0.03290870239605516,0.039964248361515714,0.016916854894401076,0.2298879623413086,2019-06-20 16:14:10:679
-6.374464416503906,-6.731195007324218,1.2425716552734374,0.03197659601452743,0.03903214197998798,0.01651738073088919,0.23500800132751465,2019-06-20 16:14:10:685
-6.380449829101562,-6.7216183471679685,1.2653162231445312,0.03210975406903139,0.03916530003449194,0.01851475154844862,0.23987197875976562,2019-06-20 16:14:10:689
-6.384041076660156,-6.733589172363281,1.25454248046875,0.03357449266857497,0.038898983925484014,0.016251064621881268,0.24499201774597168,2019-06-20 16:14:10:695
-6.407982727050781,-6.69408544921875,1.2557395629882813,0.03330817655956705,0.03916530003449194,0.016650538785393153,0.24985599517822266,2019-06-20 16:14:10:699
-6.381646911621093,-6.715632934570312,1.2724987182617187,0.033840808777582894,0.03836635170746817,0.016251064621881268,0.2549760341644287,2019-06-20 16:14:10:704
-6.399603149414062,-6.729997924804687,1.2772870483398437,0.033707650723078936,0.03849950976197213,0.015984748512873345,0.2598400115966797,2019-06-20 16:14:10:709
-6.355311096191406,-6.697676696777344,1.2868637084960937,0.03330817655956705,0.038898983925484014,0.01571843240386542,0.26496005058288574,2019-06-20 16:14:10:714
-6.379252746582031,-6.697676696777344,1.2772870483398437,0.033041860450559124,0.03770056143494836,0.014919484076841646,0.2698240280151367,2019-06-20 16:14:10:719
-6.391223571777344,-6.724012512207031,1.2509512329101562,0.03197659601452743,0.0375674033804444,0.01358790353180203,0.2749440670013428,2019-06-20 16:14:10:724
-6.369676086425781,-6.710844604492188,1.2485570678710938,0.03290870239605516,0.03903214197998798,0.014653167967833723,0.27980804443359375,2019-06-20 16:14:10:729
-6.373267333984375,-6.71323876953125,1.2605278930664061,0.03357449266857497,0.038898983925484014,0.014919484076841646,0.2849280834197998,2019-06-20 16:14:10:734
-6.374464416503906,-6.718027099609375,1.2677103881835938,0.033840808777582894,0.038898983925484014,0.0143868518588258,0.2897920608520508,2019-06-20 16:14:10:739
-6.380449829101562,-6.7371804199218746,1.240177490234375,0.032642386287047236,0.03836635170746817,0.012922113259282218,0.29491209983825684,2019-06-20 16:14:10:744
-6.392420654296875,-6.715632934570312,1.221024169921875,0.033707650723078936,0.03783371948945232,0.012922113259282218,0.2997760772705078,2019-06-20 16:14:10:749
-6.384041076660156,-6.74196875,1.2557395629882813,0.034506599050102706,0.03849950976197213,0.012788955204778256,0.30489611625671387,2019-06-20 16:14:10:754
-6.385238159179687,-6.718027099609375,1.2581337280273437,0.03410712488659082,0.039564774198003826,0.012788955204778256,0.30976009368896484,2019-06-20 16:14:10:759
-6.364887756347656,-6.729997924804687,1.2138416748046874,0.03210975406903139,0.038898983925484014,0.01225632298676241,0.3148801326751709,2019-06-20 16:14:10:764
-6.376858581542969,-6.718027099609375,1.2234183349609375,0.03410712488659082,0.03849950976197213,0.01305527131378618,0.32000017166137695,2019-06-20 16:14:10:770
-6.35890234375,-6.740771667480469,1.2569366455078124,0.03237607017803931,0.0392984580889959,0.012389481041266371,0.32486414909362793,2019-06-20 16:14:10:774
-6.3720702514648435,-6.719224182128906,1.2437687377929687,0.032642386287047236,0.03823319365296421,0.013188429368290141,0.329984188079834,2019-06-20 16:14:10:780
-6.391223571777344,-6.720421264648437,1.278484130859375,0.0327755443415512,0.038765825870980056,0.01358790353180203,0.33484816551208496,2019-06-20 16:14:10:784
-6.392420654296875,-6.708450439453125,1.2701045532226563,0.031843437960023466,0.03916530003449194,0.012389481041266371,0.3399679660797119,2019-06-20 16:14:10:789
-6.390026489257813,-6.701267944335937,1.2724987182617187,0.031443963796511584,0.038100035598460244,0.011191058550730713,0.344832181930542,2019-06-20 16:14:10:794
-6.364887756347656,-6.716830017089843,1.21623583984375,0.03131080574200762,0.038100035598460244,0.011723690768746563,0.34995198249816895,2019-06-20 16:14:10:799
-6.362493591308594,-6.7072533569335935,1.2533453979492186,0.031177647687503654,0.037966877543956286,0.011324216605234675,0.354816198348999,2019-06-20 16:14:10:804
-6.354114013671875,-6.714435852050781,1.2748928833007813,0.03197659601452743,0.038100035598460244,0.011723690768746563,0.359935998916626,2019-06-20 16:14:10:809
-6.356508178710937,-6.729997924804687,1.2629220581054688,0.032242912123535354,0.038765825870980056,0.011723690768746563,0.36479997634887695,2019-06-20 16:14:10:814
-6.396011901855468,-6.726406677246094,1.264119140625,0.03250922823254328,0.03849950976197213,0.011324216605234675,0.369920015335083,2019-06-20 16:14:10:819
-6.380449829101562,-6.7072533569335935,1.2629220581054688,0.03344133461407101,0.03849950976197213,0.012123164932258448,0.374783992767334,2019-06-20 16:14:10:824
-6.381646911621093,-6.715632934570312,1.2677103881835938,0.0327755443415512,0.03903214197998798,0.01145737465973864,0.37990403175354004,2019-06-20 16:14:10:829
-6.376858581542969,-6.7072533569335935,1.2150387573242187,0.03131080574200762,0.03863266781647609,0.011057900496226753,0.384768009185791,2019-06-20 16:14:10:834
-6.362493591308594,-6.733589172363281,1.2581337280273437,0.03197659601452743,0.03943161614349987,0.011590532714242601,0.38988804817199707,2019-06-20 16:14:10:839
-6.369676086425781,-6.743165832519531,1.2760899658203124,0.03197659601452743,0.03863266781647609,0.011856848823250525,0.39475202560424805,2019-06-20 16:14:10:844
-6.35890234375,-6.706056274414062,1.2557395629882813,0.03157712185101554,0.037966877543956286,0.01145737465973864,0.3998720645904541,2019-06-20 16:14:10:849
-6.3864352416992185,-6.701267944335937,1.2473599853515625,0.0327755443415512,0.03676845505342063,0.010525268278210905,0.40499210357666016,2019-06-20 16:14:10:855
-6.363690673828125,-6.6928883666992185,1.2772870483398437,0.031843437960023466,0.03823319365296421,0.010258952169202981,0.40985608100891113,2019-06-20 16:14:10:859
-6.366084838867187,-6.688100036621093,1.2413745727539063,0.031443963796511584,0.03770056143494836,0.010525268278210905,0.4149761199951172,2019-06-20 16:14:10:864
-6.360099426269531,-6.727603759765625,1.278484130859375,0.032642386287047236,0.038100035598460244,0.010791584387218828,0.41984009742736816,2019-06-20 16:14:10:869
-6.3577052612304685,-6.740771667480469,1.2521483154296875,0.0327755443415512,0.03849950976197213,0.011191058550730713,0.4249601364135742,2019-06-20 16:14:10:874
-6.364887756347656,-6.758727905273437,1.2449658203125,0.03131080574200762,0.04009740641601968,0.011590532714242601,0.4298241138458252,2019-06-20 16:14:10:879
-6.376858581542969,-6.728800842285156,1.27369580078125,0.031044489632999692,0.039564774198003826,0.011191058550730713,0.43494415283203125,2019-06-20 16:14:10:884
-6.382843994140625,-6.738377502441406,1.3012286987304686,0.03210975406903139,0.03863266781647609,0.011723690768746563,0.4398081302642822,2019-06-20 16:14:10:889
-6.382843994140625,-6.734786254882812,1.2437687377929687,0.031443963796511584,0.03849950976197213,0.011590532714242601,0.4449281692504883,2019-06-20 16:14:10:894
-6.3780556640625,-6.743165832519531,1.2497541503906249,0.03197659601452743,0.039564774198003826,0.011590532714242601,0.44979214668273926,2019-06-20 16:14:10:899
-6.370873168945312,-6.7228154296875,1.2425716552734374,0.03171027990551951,0.039564774198003826,0.011856848823250525,0.4549121856689453,2019-06-20 16:14:10:904
-6.3780556640625,-6.714435852050781,1.2713016357421876,0.03157712185101554,0.03770056143494836,0.011057900496226753,0.4597761631011963,2019-06-20 16:14:10:909
-6.367281921386718,-6.697676696777344,1.2425716552734374,0.03091133157849573,0.038100035598460244,0.01225632298676241,0.46489596366882324,2019-06-20 16:14:10:914
-6.366084838867187,-6.706056274414062,1.2617249755859374,0.031044489632999692,0.03863266781647609,0.013321587422794106,0.4697601795196533,2019-06-20 16:14:10:919
-6.381646911621093,-6.738377502441406,1.27369580078125,0.03157712185101554,0.03770056143494836,0.01145737465973864,0.4748799800872803,2019-06-20 16:14:10:924
-6.384041076660156,-6.724012512207031,1.2665133056640625,0.031177647687503654,0.03836635170746817,0.010392110223706943,0.48000001907348633,2019-06-20 16:14:10:930
-6.374464416503906,-6.726406677246094,1.2605278930664061,0.03091133157849573,0.03863266781647609,0.011590532714242601,0.4848639965057373,2019-06-20 16:14:10:934
-6.328975280761719,-6.755136657714844,1.2677103881835938,0.031843437960023466,0.0375674033804444,0.012522639095770333,0.48998403549194336,2019-06-20 16:14:10:940
-6.328975280761719,-6.764713317871093,1.27369580078125,0.032642386287047236,0.038765825870980056,0.012123164932258448,0.49484801292419434,2019-06-20 16:14:10:944
-6.355311096191406,-6.733589172363281,1.2665133056640625,0.0327755443415512,0.038765825870980056,0.011590532714242601,0.4999680519104004,2019-06-20 16:14:10:949
-6.336157775878906,-6.73239208984375,1.2760899658203124,0.031443963796511584,0.039564774198003826,0.011723690768746563,0.5048320293426514,2019-06-20 16:14:10:954
-6.366084838867187,-6.724012512207031,1.2772870483398437,0.029979225196968,0.03916530003449194,0.012389481041266371,0.5099520683288574,2019-06-20 16:14:10:959
-6.373267333984375,-6.726406677246094,1.2413745727539063,0.031044489632999692,0.03943161614349987,0.011723690768746563,0.5148160457611084,2019-06-20 16:14:10:964
-6.379252746582031,-6.734786254882812,1.240177490234375,0.03157712185101554,0.03916530003449194,0.012123164932258448,0.5199360847473145,2019-06-20 16:14:10:969
-6.407982727050781,-6.718027099609375,1.2365862426757812,0.03171027990551951,0.038100035598460244,0.012123164932258448,0.5248000621795654,2019-06-20 16:14:10:974
-6.418756469726563,-6.726406677246094,1.2485570678710938,0.03131080574200762,0.03823319365296421,0.012655797150274295,0.5299201011657715,2019-06-20 16:14:10:979
-6.3864352416992185,-6.726406677246094,1.2533453979492186,0.03171027990551951,0.038765825870980056,0.012123164932258448,0.5347840785980225,2019-06-20 16:14:10:984
-6.396011901855468,-6.749151245117187,1.2329949951171875,0.03171027990551951,0.038765825870980056,0.01145737465973864,0.5399041175842285,2019-06-20 16:14:10:989
-6.374464416503906,-6.745559997558594,1.2713016357421876,0.03131080574200762,0.03783371948945232,0.01092474244172279,0.5447680950164795,2019-06-20 16:14:10:994
-6.379252746582031,-6.714435852050781,1.2952432861328125,0.031177647687503654,0.0375674033804444,0.012389481041266371,0.5498881340026855,2019-06-20 16:14:10:999
-6.376858581542969,-6.71323876953125,1.2653162231445312,0.031843437960023466,0.03836635170746817,0.011191058550730713,0.5547521114349365,2019-06-20 16:14:11:004
-6.366084838867187,-6.716830017089843,1.2760899658203124,0.030645015469487807,0.03849950976197213,0.012389481041266371,0.5598721504211426,2019-06-20 16:14:11:009
-6.338551940917968,-6.749151245117187,1.2473599853515625,0.03077817352399177,0.037167929216932516,0.012522639095770333,0.5649921894073486,2019-06-20 16:14:11:015
-6.369676086425781,-6.755136657714844,1.2713016357421876,0.032642386287047236,0.03676845505342063,0.012788955204778256,0.5698561668395996,2019-06-20 16:14:11:019
-6.3720702514648435,-6.729997924804687,1.2425716552734374,0.03317501850506309,0.03863266781647609,0.013721061586305991,0.5749759674072266,2019-06-20 16:14:11:024
-6.348128601074219,-6.725209594726563,1.2198270874023438,0.03344133461407101,0.03823319365296421,0.012389481041266371,0.5798401832580566,2019-06-20 16:14:11:029
-6.369676086425781,-6.720421264648437,1.230600830078125,0.03290870239605516,0.03916530003449194,0.013188429368290141,0.5849599838256836,2019-06-20 16:14:11:034
-6.366084838867187,-6.746757080078125,1.2413745727539063,0.033840808777582894,0.038765825870980056,0.01305527131378618,0.5898239612579346,2019-06-20 16:14:11:039
-6.360099426269531,-6.747954162597656,1.259330810546875,0.033707650723078936,0.038100035598460244,0.013454745477298068,0.5949440002441406,2019-06-20 16:14:11:044
-6.374464416503906,-6.704859191894531,1.2509512329101562,0.03437344099559874,0.038898983925484014,0.012655797150274295,0.5998079776763916,2019-06-20 16:14:11:049
-6.35890234375,-6.724012512207031,1.2557395629882813,0.034639757104606664,0.038898983925484014,0.012389481041266371,0.6049280166625977,2019-06-20 16:14:11:054
-6.350522766113281,-6.73239208984375,1.2497541503906249,0.034506599050102706,0.04023056447052364,0.012788955204778256,0.6097919940948486,2019-06-20 16:14:11:059
-6.34932568359375,-6.7228154296875,1.2437687377929687,0.03357449266857497,0.03969793225250779,0.012655797150274295,0.6149120330810547,2019-06-20 16:14:11:064
-6.364887756347656,-6.740771667480469,1.2677103881835938,0.03357449266857497,0.04023056447052364,0.012788955204778256,0.6197760105133057,2019-06-20 16:14:11:069
-6.352916931152343,-6.738377502441406,1.2724987182617187,0.03357449266857497,0.03916530003449194,0.012655797150274295,0.6248960494995117,2019-06-20 16:14:11:074
-6.36847900390625,-6.744362915039062,1.2629220581054688,0.033840808777582894,0.03863266781647609,0.013454745477298068,0.6297600269317627,2019-06-20 16:14:11:079
-6.362493591308594,-6.7371804199218746,1.2629220581054688,0.03317501850506309,0.03983109030701175,0.01358790353180203,0.6348800659179688,2019-06-20 16:14:11:084
-6.3577052612304685,-6.71323876953125,1.2796812133789062,0.033707650723078936,0.039564774198003826,0.013454745477298068,0.6400001049041748,2019-06-20 16:14:11:090
-6.346931518554688,-6.710844604492188,1.2485570678710938,0.03490607321361459,0.038765825870980056,0.01305527131378618,0.6448640823364258,2019-06-20 16:14:11:094
-6.348128601074219,-6.7228154296875,1.2353891601562499,0.03477291515911063,0.0392984580889959,0.013454745477298068,0.6499841213226318,2019-06-20 16:14:11:100
-6.369676086425781,-6.734786254882812,1.1994766845703124,0.033840808777582894,0.038765825870980056,0.013321587422794106,0.6548480987548828,2019-06-20 16:14:11:104
-6.3433402709960935,-6.71323876953125,1.25454248046875,0.033840808777582894,0.04009740641601968,0.013721061586305991,0.6599681377410889,2019-06-20 16:14:11:109
-6.35890234375,-6.7228154296875,1.2317979125976561,0.03410712488659082,0.04009740641601968,0.012788955204778256,0.6648321151733398,2019-06-20 16:14:11:114
-6.33017236328125,-6.720421264648437,1.27369580078125,0.03503923126811855,0.03969793225250779,0.012522639095770333,0.6699521541595459,2019-06-20 16:14:11:119
-6.373267333984375,-6.727603759765625,1.268907470703125,0.034639757104606664,0.03943161614349987,0.012522639095770333,0.6748161315917969,2019-06-20 16:14:11:124
-6.376858581542969,-6.7527424926757815,1.2341920776367188,0.035705021540638364,0.038765825870980056,0.011723690768746563,0.6799361705780029,2019-06-20 16:14:11:129
-6.385238159179687,-6.758727905273437,1.2461629028320311,0.03397396683208686,0.03903214197998798,0.011191058550730713,0.6848001480102539,2019-06-20 16:14:11:134
-6.396011901855468,-6.724012512207031,1.278484130859375,0.03424028294109478,0.03836635170746817,0.011990006877754486,0.68992018699646,2019-06-20 16:14:11:139
-6.385238159179687,-6.715632934570312,1.259330810546875,0.034639757104606664,0.03943161614349987,0.011590532714242601,0.6947841644287109,2019-06-20 16:14:11:144
-6.374464416503906,-6.725209594726563,1.2461629028320311,0.034506599050102706,0.03836635170746817,0.012922113259282218,0.6999039649963379,2019-06-20 16:14:11:149
-6.385238159179687,-6.733589172363281,1.2724987182617187,0.03424028294109478,0.039564774198003826,0.012123164932258448,0.704768180847168,2019-06-20 16:14:11:154
-6.380449829101562,-6.720421264648437,1.288060791015625,0.03410712488659082,0.03943161614349987,0.011723690768746563,0.7098879814147949,2019-06-20 16:14:11:159
-6.379252746582031,-6.739574584960938,1.2820753784179688,0.03397396683208686,0.039564774198003826,0.01145737465973864,0.714752197265625,2019-06-20 16:14:11:164
-6.367281921386718,-6.738377502441406,1.2665133056640625,0.03317501850506309,0.03836635170746817,0.010658426332714866,0.719871997833252,2019-06-20 16:14:11:169
-6.356508178710937,-6.757530822753906,1.2665133056640625,0.032242912123535354,0.03916530003449194,0.011057900496226753,0.724992036819458,2019-06-20 16:14:11:175
-6.351719848632812,-6.7359833374023435,1.2677103881835938,0.03250922823254328,0.039564774198003826,0.011191058550730713,0.729856014251709,2019-06-20 16:14:11:179
-6.346931518554688,-6.745559997558594,1.264119140625,0.033041860450559124,0.03983109030701175,0.011590532714242601,0.734976053237915,2019-06-20 16:14:11:184
-6.36847900390625,-6.74196875,1.2186300048828125,0.03171027990551951,0.040630038634035526,0.013188429368290141,0.739840030670166,2019-06-20 16:14:11:189
-6.360099426269531,-6.726406677246094,1.2365862426757812,0.03171027990551951,0.03983109030701175,0.013188429368290141,0.7449600696563721,2019-06-20 16:14:11:194
-6.375661499023438,-6.740771667480469,1.2377833251953125,0.0327755443415512,0.03903214197998798,0.012655797150274295,0.749824047088623,2019-06-20 16:14:11:199
-6.35890234375,-6.750348327636718,1.230600830078125,0.03250922823254328,0.038898983925484014,0.012123164932258448,0.7549440860748291,2019-06-20 16:14:11:204
-6.3577052612304685,-6.734786254882812,1.2521483154296875,0.03210975406903139,0.03983109030701175,0.011856848823250525,0.7598080635070801,2019-06-20 16:14:11:209
-6.362493591308594,-6.764713317871093,1.2449658203125,0.03237607017803931,0.0403637225250276,0.011324216605234675,0.7649281024932861,2019-06-20 16:14:11:214
-6.354114013671875,-6.757530822753906,1.2521483154296875,0.03197659601452743,0.03969793225250779,0.011324216605234675,0.7697920799255371,2019-06-20 16:14:11:219
-6.376858581542969,-6.7611220703125,1.2425716552734374,0.03250922823254328,0.038765825870980056,0.010525268278210905,0.7749121189117432,2019-06-20 16:14:11:224
-6.363690673828125,-6.743165832519531,1.2138416748046874,0.031177647687503654,0.0392984580889959,0.011590532714242601,0.7797760963439941,2019-06-20 16:14:11:229
-6.3864352416992185,-6.740771667480469,1.2844695434570312,0.03237607017803931,0.03943161614349987,0.013321587422794106,0.7848961353302002,2019-06-20 16:14:11:234
-6.373267333984375,-6.720421264648437,1.2449658203125,0.031443963796511584,0.03983109030701175,0.012655797150274295,0.7897601127624512,2019-06-20 16:14:11:239
-6.370873168945312,-6.726406677246094,1.27369580078125,0.03131080574200762,0.038898983925484014,0.01145737465973864,0.7948801517486572,2019-06-20 16:14:11:244
-6.338551940917968,-6.750348327636718,1.2521483154296875,0.03197659601452743,0.03770056143494836,0.012123164932258448,0.8000001907348633,2019-06-20 16:14:11:250
-6.3397490234375,-6.756333740234375,1.2772870483398437,0.032642386287047236,0.03903214197998798,0.013721061586305991,0.8048641681671143,2019-06-20 16:14:11:254
-6.361296508789063,-6.745559997558594,1.2341920776367188,0.03197659601452743,0.03943161614349987,0.013454745477298068,0.8099839687347412,2019-06-20 16:14:11:260
-6.360099426269531,-6.745559997558594,1.268907470703125,0.03317501850506309,0.03903214197998798,0.013721061586305991,0.8148481845855713,2019-06-20 16:14:11:264
-6.360099426269531,-6.73239208984375,1.2425716552734374,0.03344133461407101,0.03863266781647609,0.013987377695313915,0.8199679851531982,2019-06-20 16:14:11:269
-6.373267333984375,-6.7515454101562495,1.2425716552734374,0.033041860450559124,0.03836635170746817,0.012922113259282218,0.8248319625854492,2019-06-20 16:14:11:274
-6.356508178710937,-6.740771667480469,1.259330810546875,0.03171027990551951,0.038100035598460244,0.013321587422794106,0.8299520015716553,2019-06-20 16:14:11:279
-6.375661499023438,-6.738377502441406,1.2509512329101562,0.03171027990551951,0.03969793225250779,0.013854219640809953,0.8348159790039062,2019-06-20 16:14:11:284
-6.35890234375,-6.710844604492188,1.2138416748046874,0.03210975406903139,0.03969793225250779,0.012655797150274295,0.8399360179901123,2019-06-20 16:14:11:289
-6.3720702514648435,-6.714435852050781,1.2461629028320311,0.031843437960023466,0.038765825870980056,0.013454745477298068,0.8447999954223633,2019-06-20 16:14:11:294
-6.3780556640625,-6.731195007324218,1.2413745727539063,0.03317501850506309,0.0392984580889959,0.013721061586305991,0.8499200344085693,2019-06-20 16:14:11:299
-6.382843994140625,-6.738377502441406,1.2557395629882813,0.03344133461407101,0.039564774198003826,0.014253693804321838,0.8547840118408203,2019-06-20 16:14:11:304
-6.382843994140625,-6.750348327636718,1.2521483154296875,0.033840808777582894,0.039564774198003826,0.013321587422794106,0.8599040508270264,2019-06-20 16:14:11:309
-6.396011901855468,-6.7228154296875,1.230600830078125,0.033707650723078936,0.039964248361515714,0.013188429368290141,0.8647680282592773,2019-06-20 16:14:11:314
-6.393617736816406,-6.7527424926757815,1.25454248046875,0.034506599050102706,0.03943161614349987,0.01358790353180203,0.8698880672454834,2019-06-20 16:14:11:319
-6.3720702514648435,-6.733589172363281,1.2713016357421876,0.033840808777582894,0.03916530003449194,0.01305527131378618,0.8747520446777344,2019-06-20 16:14:11:324
-6.388829406738281,-6.726406677246094,1.2581337280273437,0.033707650723078936,0.03836635170746817,0.012922113259282218,0.8798720836639404,2019-06-20 16:14:11:329
-6.390026489257813,-6.719224182128906,1.264119140625,0.03410712488659082,0.039964248361515714,0.013321587422794106,0.8849921226501465,2019-06-20 16:14:11:335
-6.381646911621093,-6.739574584960938,1.2509512329101562,0.03357449266857497,0.03983109030701175,0.013854219640809953,0.8898561000823975,2019-06-20 16:14:11:339
-6.394814819335937,-6.714435852050781,1.230600830078125,0.03250922823254328,0.04129582890655533,0.01305527131378618,0.8949761390686035,2019-06-20 16:14:11:344
-6.364887756347656,-6.706056274414062,1.2282066650390624,0.032242912123535354,0.03903214197998798,0.013321587422794106,0.8998401165008545,2019-06-20 16:14:11:349
-6.356508178710937,-6.710844604492188,1.2425716552734374,0.032642386287047236,0.038898983925484014,0.0143868518588258,0.9049601554870605,2019-06-20 16:14:11:354
-6.388829406738281,-6.7228154296875,1.2485570678710938,0.03237607017803931,0.03983109030701175,0.013188429368290141,0.9098241329193115,2019-06-20 16:14:11:359
-6.363690673828125,-6.718027099609375,1.2282066650390624,0.03317501850506309,0.03849950976197213,0.012922113259282218,0.9149441719055176,2019-06-20 16:14:11:364
-6.354114013671875,-6.6928883666992185,1.2150387573242187,0.03357449266857497,0.03849950976197213,0.011990006877754486,0.9198081493377686,2019-06-20 16:14:11:369
-6.345734436035156,-6.688100036621093,1.25454248046875,0.033707650723078936,0.03969793225250779,0.012522639095770333,0.9249281883239746,2019-06-20 16:14:11:374
-6.388829406738281,-6.7216183471679685,1.2234183349609375,0.033041860450559124,0.03916530003449194,0.013321587422794106,0.9297921657562256,2019-06-20 16:14:11:379
-6.374464416503906,-6.706056274414062,1.2353891601562499,0.032642386287047236,0.03903214197998798,0.013987377695313915,0.9349119663238525,2019-06-20 16:14:11:384
-6.364887756347656,-6.718027099609375,1.2389804077148436,0.03237607017803931,0.03823319365296421,0.011990006877754486,0.9397761821746826,2019-06-20 16:14:11:389
-6.379252746582031,-6.7216183471679685,1.2557395629882813,0.03210975406903139,0.03823319365296421,0.012123164932258448,0.9448959827423096,2019-06-20 16:14:11:394
-6.376858581542969,-6.724012512207031,1.2533453979492186,0.03317501850506309,0.03849950976197213,0.011990006877754486,0.9497601985931396,2019-06-20 16:14:11:399
-6.354114013671875,-6.714435852050781,1.27369580078125,0.0327755443415512,0.03836635170746817,0.010791584387218828,0.9548799991607666,2019-06-20 16:14:11:404
-6.369676086425781,-6.738377502441406,1.2677103881835938,0.033041860450559124,0.03770056143494836,0.01092474244172279,0.9600000381469727,2019-06-20 16:14:11:410
-6.352916931152343,-6.73239208984375,1.2449658203125,0.033041860450559124,0.03770056143494836,0.011057900496226753,0.9648640155792236,2019-06-20 16:14:11:414
-6.373267333984375,-6.733589172363281,1.2389804077148436,0.031843437960023466,0.0392984580889959,0.011324216605234675,0.9699840545654297,2019-06-20 16:14:11:420
-6.390026489257813,-6.73239208984375,1.2437687377929687,0.032642386287047236,0.03903214197998798,0.010791584387218828,0.9748480319976807,2019-06-20 16:14:11:424
-6.369676086425781,-6.738377502441406,1.2820753784179688,0.03317501850506309,0.03836635170746817,0.011324216605234675,0.9799680709838867,2019-06-20 16:14:11:429
-6.356508178710937,-6.747954162597656,1.2317979125976561,0.03157712185101554,0.03836635170746817,0.011990006877754486,0.9848320484161377,2019-06-20 16:14:11:434
-6.342143188476562,-6.724012512207031,1.2377833251953125,0.031843437960023466,0.038100035598460244,0.011324216605234675,0.9899520874023438,2019-06-20 16:14:11:439
-6.366084838867187,-6.720421264648437,1.2629220581054688,0.0327755443415512,0.03849950976197213,0.010658426332714866,0.9948160648345947,2019-06-20 16:14:11:444
-6.352916931152343,-6.719224182128906,1.240177490234375,0.032642386287047236,0.03943161614349987,0.011590532714242601,0.9999361038208008,2019-06-20 16:14:11:449
-6.350522766113281,-6.73239208984375,1.2270095825195313,0.03317501850506309,0.03916530003449194,0.010791584387218828,1.0048000812530518,2019-06-20 16:14:11:454
-6.376858581542969,-6.729997924804687,1.2437687377929687,0.033840808777582894,0.03943161614349987,0.01225632298676241,1.0099201202392578,2019-06-20 16:14:11:459
-6.382843994140625,-6.734786254882812,1.2557395629882813,0.032642386287047236,0.038765825870980056,0.01305527131378618,1.0147840976715088,2019-06-20 16:14:11:464
-6.356508178710937,-6.753939575195313,1.2677103881835938,0.03317501850506309,0.038765825870980056,0.01092474244172279,1.0199041366577148,2019-06-20 16:14:11:469
-6.355311096191406,-6.7359833374023435,1.2509512329101562,0.03357449266857497,0.03863266781647609,0.011990006877754486,1.0247681140899658,2019-06-20 16:14:11:474
-6.35890234375,-6.7216183471679685,1.2365862426757812,0.03357449266857497,0.03903214197998798,0.01225632298676241,1.0298881530761719,2019-06-20 16:14:11:479
-6.351719848632812,-6.710844604492188,1.2473599853515625,0.03424028294109478,0.038765825870980056,0.012522639095770333,1.0347521305084229,2019-06-20 16:14:11:484
-6.379252746582031,-6.71323876953125,1.2413745727539063,0.03290870239605516,0.038898983925484014,0.01225632298676241,1.039872169494629,2019-06-20 16:14:11:489
-6.376858581542969,-6.740771667480469,1.259330810546875,0.03344133461407101,0.03783371948945232,0.01225632298676241,1.0449919700622559,2019-06-20 16:14:11:495
-6.374464416503906,-6.726406677246094,1.2437687377929687,0.0327755443415512,0.038765825870980056,0.01225632298676241,1.049856185913086,2019-06-20 16:14:11:499
-6.35890234375,-6.708450439453125,1.288060791015625,0.03344133461407101,0.038100035598460244,0.01305527131378618,1.054975986480713,2019-06-20 16:14:11:504
-6.369676086425781,-6.738377502441406,1.2892578735351563,0.033840808777582894,0.03863266781647609,0.014253693804321838,1.0598399639129639,2019-06-20 16:14:11:509
-6.392420654296875,-6.728800842285156,1.2377833251953125,0.034506599050102706,0.03969793225250779,0.013721061586305991,1.06496000289917,2019-06-20 16:14:11:514
-6.363690673828125,-6.726406677246094,1.2677103881835938,0.03424028294109478,0.03916530003449194,0.012389481041266371,1.069823980331421,2019-06-20 16:14:11:519
-6.351719848632812,-6.7072533569335935,1.2497541503906249,0.03330817655956705,0.039564774198003826,0.012123164932258448,1.074944019317627,2019-06-20 16:14:11:524
-6.380449829101562,-6.7216183471679685,1.2533453979492186,0.03397396683208686,0.039564774198003826,0.013454745477298068,1.079807996749878,2019-06-20 16:14:11:529
-6.331369445800781,-6.7228154296875,1.2317979125976561,0.034639757104606664,0.039564774198003826,0.01305527131378618,1.084928035736084,2019-06-20 16:14:11:534
-6.364887756347656,-6.724012512207031,1.3012286987304686,0.03437344099559874,0.03916530003449194,0.013854219640809953,1.089792013168335,2019-06-20 16:14:11:539
-6.3720702514648435,-6.731195007324218,1.2713016357421876,0.033840808777582894,0.04089635474304345,0.013854219640809953,1.094912052154541,2019-06-20 16:14:11:544
-6.367281921386718,-6.729997924804687,1.2521483154296875,0.03424028294109478,0.039964248361515714,0.014253693804321838,1.099776029586792,2019-06-20 16:14:11:549
-6.360099426269531,-6.7359833374023435,1.268907470703125,0.034639757104606664,0.03969793225250779,0.013321587422794106,1.104896068572998,2019-06-20 16:14:11:554
-6.361296508789063,-6.750348327636718,1.2485570678710938,0.033840808777582894,0.0403637225250276,0.011856848823250525,1.109760046005249,2019-06-20 16:14:11:559
-6.380449829101562,-6.733589172363281,1.2665133056640625,0.03490607321361459,0.04023056447052364,0.01358790353180203,1.114880084991455,2019-06-20 16:14:11:564
-6.370873168945312,-6.734786254882812,1.259330810546875,0.034639757104606664,0.03823319365296421,0.014120535749817876,1.1200001239776611,2019-06-20 16:14:11:570
-6.379252746582031,-6.710844604492188,1.2282066650390624,0.033707650723078936,0.03983109030701175,0.013987377695313915,1.124864101409912,2019-06-20 16:14:11:574
-6.35890234375,-6.747954162597656,1.2329949951171875,0.033840808777582894,0.03916530003449194,0.013454745477298068,1.1299841403961182,2019-06-20 16:14:11:580
-6.367281921386718,-6.7216183471679685,1.2353891601562499,0.03330817655956705,0.038765825870980056,0.013854219640809953,1.1348481178283691,2019-06-20 16:14:11:584
-6.385238159179687,-6.725209594726563,1.2473599853515625,0.03330817655956705,0.037966877543956286,0.01358790353180203,1.1399681568145752,2019-06-20 16:14:11:589
-6.392420654296875,-6.719224182128906,1.2150387573242187,0.0327755443415512,0.03903214197998798,0.012123164932258448,1.1448321342468262,2019-06-20 16:14:11:594
-6.369676086425781,-6.743165832519531,1.2353891601562499,0.03317501850506309,0.03783371948945232,0.011057900496226753,1.1499521732330322,2019-06-20 16:14:11:599
-6.3577052612304685,-6.733589172363281,1.2653162231445312,0.03237607017803931,0.03983109030701175,0.012123164932258448,1.1548161506652832,2019-06-20 16:14:11:604
-6.382843994140625,-6.7371804199218746,1.278484130859375,0.03250922823254328,0.04009740641601968,0.011723690768746563,1.1599361896514893,2019-06-20 16:14:11:609
-6.379252746582031,-6.747954162597656,1.259330810546875,0.032642386287047236,0.039564774198003826,0.012922113259282218,1.1648001670837402,2019-06-20 16:14:11:614
-6.36847900390625,-6.743165832519531,1.259330810546875,0.03344133461407101,0.03983109030701175,0.012655797150274295,1.1699199676513672,2019-06-20 16:14:11:619
-6.391223571777344,-6.734786254882812,1.264119140625,0.03210975406903139,0.03903214197998798,0.013321587422794106,1.1747841835021973,2019-06-20 16:14:11:624
-6.380449829101562,-6.716830017089843,1.240177490234375,0.03131080574200762,0.03849950976197213,0.012389481041266371,1.1799039840698242,2019-06-20 16:14:11:629
-6.373267333984375,-6.725209594726563,1.3000316162109375,0.031177647687503654,0.03823319365296421,0.011590532714242601,1.1847679615020752,2019-06-20 16:14:11:634
-6.398406066894531,-6.690494201660156,1.2677103881835938,0.03171027990551951,0.03969793225250779,0.011590532714242601,1.1898880004882812,2019-06-20 16:14:11:639
-6.384041076660156,-6.698873779296875,1.2940462036132812,0.031843437960023466,0.0392984580889959,0.012522639095770333,1.1947519779205322,2019-06-20 16:14:11:644
-6.3864352416992185,-6.74196875,1.2868637084960937,0.03210975406903139,0.04023056447052364,0.01145737465973864,1.1998720169067383,2019-06-20 16:14:11:649
-6.367281921386718,-6.7216183471679685,1.2808782958984375,0.03171027990551951,0.039964248361515714,0.01145737465973864,1.2049920558929443,2019-06-20 16:14:11:655
-6.366084838867187,-6.726406677246094,1.2617249755859374,0.03157712185101554,0.03823319365296421,0.011723690768746563,1.2098560333251953,2019-06-20 16:14:11:659
-6.376858581542969,-6.709647521972656,1.2772870483398437,0.031843437960023466,0.03916530003449194,0.011723690768746563,1.2149760723114014,2019-06-20 16:14:11:664
-6.363690673828125,-6.729997924804687,1.2581337280273437,0.03237607017803931,0.0375674033804444,0.011324216605234675,1.2198400497436523,2019-06-20 16:14:11:669
-6.370873168945312,-6.733589172363281,1.2557395629882813,0.033041860450559124,0.038100035598460244,0.011324216605234675,1.2249600887298584,2019-06-20 16:14:11:674
-6.366084838867187,-6.740771667480469,1.2629220581054688,0.032242912123535354,0.039964248361515714,0.011057900496226753,1.2298240661621094,2019-06-20 16:14:11:679
-6.3577052612304685,-6.7527424926757815,1.2521483154296875,0.03210975406903139,0.0392984580889959,0.011057900496226753,1.2349441051483154,2019-06-20 16:14:11:684
-6.350522766113281,-6.726406677246094,1.2521483154296875,0.031843437960023466,0.03969793225250779,0.011324216605234675,1.2398080825805664,2019-06-20 16:14:11:689
-6.338551940917968,-6.744362915039062,1.2569366455078124,0.03250922823254328,0.038100035598460244,0.01145737465973864,1.2449281215667725,2019-06-20 16:14:11:694
-6.34932568359375,-6.7515454101562495,1.2461629028320311,0.03237607017803931,0.03770056143494836,0.011990006877754486,1.2497920989990234,2019-06-20 16:14:11:699
-6.354114013671875,-6.758727905273437,1.2916520385742187,0.03171027990551951,0.037301087271436474,0.011590532714242601,1.2549121379852295,2019-06-20 16:14:11:704
-6.376858581542969,-6.749151245117187,1.2892578735351563,0.03091133157849573,0.03849950976197213,0.011191058550730713,1.2597761154174805,2019-06-20 16:14:11:709
-6.388829406738281,-6.7527424926757815,1.2820753784179688,0.031044489632999692,0.03823319365296421,0.013188429368290141,1.2648961544036865,2019-06-20 16:14:11:714
-6.40678564453125,-6.759924987792969,1.259330810546875,0.03011238325147196,0.03849950976197213,0.01358790353180203,1.2697601318359375,2019-06-20 16:14:11:719
-6.374464416503906,-6.733589172363281,1.2605278930664061,0.03011238325147196,0.03903214197998798,0.011324216605234675,1.2748801708221436,2019-06-20 16:14:11:724
-6.367281921386718,-6.745559997558594,1.264119140625,0.031843437960023466,0.03903214197998798,0.01092474244172279,1.2799999713897705,2019-06-20 16:14:11:730
-6.352916931152343,-6.7527424926757815,1.2569366455078124,0.03210975406903139,0.03849950976197213,0.011990006877754486,1.2848641872406006,2019-06-20 16:14:11:734
-6.362493591308594,-6.756333740234375,1.2341920776367188,0.03157712185101554,0.03863266781647609,0.012922113259282218,1.2899839878082275,2019-06-20 16:14:11:740
-6.33017236328125,-6.77069873046875,1.2533453979492186,0.031443963796511584,0.03849950976197213,0.012655797150274295,1.2948479652404785,2019-06-20 16:14:11:744
-6.333763610839844,-6.750348327636718,1.2796812133789062,0.03091133157849573,0.03783371948945232,0.012655797150274295,1.2999680042266846,2019-06-20 16:14:11:749
-6.352916931152343,-6.747954162597656,1.2892578735351563,0.03344133461407101,0.03836635170746817,0.01305527131378618,1.3048319816589355,2019-06-20 16:14:11:754
-6.352916931152343,-6.7359833374023435,1.2377833251953125,0.03437344099559874,0.0392984580889959,0.013854219640809953,1.3099520206451416,2019-06-20 16:14:11:759
-6.336157775878906,-6.7515454101562495,1.2090533447265626,0.03357449266857497,0.038765825870980056,0.013321587422794106,1.3148159980773926,2019-06-20 16:14:11:764
-6.33017236328125,-6.7527424926757815,1.2317979125976561,0.03344133461407101,0.03916530003449194,0.014120535749817876,1.3199360370635986,2019-06-20 16:14:11:769
-6.366084838867187,-6.750348327636718,1.2521483154296875,0.03344133461407101,0.0392984580889959,0.014120535749817876,1.3248000144958496,2019-06-20 16:14:11:774
-6.361296508789063,-6.740771667480469,1.2605278930664061,0.03237607017803931,0.03943161614349987,0.015851590458369383,1.3299200534820557,2019-06-20 16:14:11:779
-6.336157775878906,-6.7671074829101565,1.2317979125976561,0.03330817655956705,0.03983109030701175,0.015318958240353535,1.3347840309143066,2019-06-20 16:14:11:784
-6.354114013671875,-6.762319152832031,1.230600830078125,0.03344133461407101,0.040763196688539484,0.015851590458369383,1.3399040699005127,2019-06-20 16:14:11:789
-6.351719848632812,-6.764713317871093,1.240177490234375,0.03357449266857497,0.04049688057953156,0.015851590458369383,1.3447680473327637,2019-06-20 16:14:11:794
-6.326581115722656,-6.740771667480469,1.2760899658203124,0.03317501850506309,0.03969793225250779,0.014919484076841646,1.3498880863189697,2019-06-20 16:14:11:799
-6.345734436035156,-6.725209594726563,1.2772870483398437,0.03357449266857497,0.03823319365296421,0.015851590458369383,1.3547520637512207,2019-06-20 16:14:11:804
-6.354114013671875,-6.739574584960938,1.2760899658203124,0.033840808777582894,0.038765825870980056,0.015984748512873345,1.3598721027374268,2019-06-20 16:14:11:809
-6.355311096191406,-6.7228154296875,1.2653162231445312,0.03357449266857497,0.03903214197998798,0.015984748512873345,1.3649921417236328,2019-06-20 16:14:11:815
-6.366084838867187,-6.718027099609375,1.2341920776367188,0.03237607017803931,0.0403637225250276,0.017449487112416926,1.3698561191558838,2019-06-20 16:14:11:819
-6.3720702514648435,-6.73239208984375,1.2569366455078124,0.033041860450559124,0.04049688057953156,0.017449487112416926,1.3749761581420898,2019-06-20 16:14:11:824
-6.337354858398437,-6.729997924804687,1.2617249755859374,0.03290870239605516,0.03983109030701175,0.01651738073088919,1.3798401355743408,2019-06-20 16:14:11:829
-6.337354858398437,-6.74196875,1.2258125,0.03344133461407101,0.03969793225250779,0.01571843240386542,1.3849601745605469,2019-06-20 16:14:11:834
-6.366084838867187,-6.746757080078125,1.2713016357421876,0.03317501850506309,0.03983109030701175,0.01651738073088919,1.3898241519927979,2019-06-20 16:14:11:839
-6.34932568359375,-6.745559997558594,1.2677103881835938,0.03357449266857497,0.040763196688539484,0.01571843240386542,1.394944190979004,2019-06-20 16:14:11:844
-6.344537353515625,-6.7228154296875,1.2581337280273437,0.033041860450559124,0.041562145015563254,0.016916854894401076,1.3998081684112549,2019-06-20 16:14:11:849
-6.361296508789063,-6.74196875,1.2533453979492186,0.033840808777582894,0.0392984580889959,0.017982119330432773,1.4049279689788818,2019-06-20 16:14:11:854
-6.363690673828125,-6.74196875,1.2581337280273437,0.03410712488659082,0.03836635170746817,0.018381593493944658,1.409792184829712,2019-06-20 16:14:11:859
-6.3433402709960935,-6.7072533569335935,1.2569366455078124,0.03357449266857497,0.038898983925484014,0.01851475154844862,1.4149119853973389,2019-06-20 16:14:11:864
-6.345734436035156,-6.715632934570312,1.2437687377929687,0.03437344099559874,0.0392984580889959,0.017316329057912964,1.4197759628295898,2019-06-20 16:14:11:869
-6.397208984375,-6.7527424926757815,1.2724987182617187,0.033041860450559124,0.0392984580889959,0.016783696839897114,1.424896001815796,2019-06-20 16:14:11:874
-6.396011901855468,-6.7216183471679685,1.2473599853515625,0.032642386287047236,0.03849950976197213,0.016251064621881268,1.4297599792480469,2019-06-20 16:14:11:879
-6.379252746582031,-6.703662109375,1.2497541503906249,0.03250922823254328,0.03849950976197213,0.017582645166920888,1.434880018234253,2019-06-20 16:14:11:884
-6.360099426269531,-6.718027099609375,1.201870849609375,0.03237607017803931,0.03863266781647609,0.018248435439440696,1.440000057220459,2019-06-20 16:14:11:890
-6.385238159179687,-6.7228154296875,1.2329949951171875,0.032642386287047236,0.03903214197998798,0.018115277384936734,1.44486403465271,2019-06-20 16:14:11:894
-6.381646911621093,-6.71323876953125,1.2437687377929687,0.03237607017803931,0.03903214197998798,0.018248435439440696,1.449984073638916,2019-06-20 16:14:11:900
-6.363690673828125,-6.727603759765625,1.25454248046875,0.03171027990551951,0.038898983925484014,0.01771580322142485,1.454848051071167,2019-06-20 16:14:11:904
-6.35890234375,-6.720421264648437,1.2748928833007813,0.033041860450559124,0.038765825870980056,0.017050012948905038,1.459968090057373,2019-06-20 16:14:11:909
-6.376858581542969,-6.708450439453125,1.2868637084960937,0.03330817655956705,0.03823319365296421,0.016650538785393153,1.464832067489624,2019-06-20 16:14:11:914
-6.366084838867187,-6.71323876953125,1.2820753784179688,0.03317501850506309,0.038765825870980056,0.015984748512873345,1.46995210647583,2019-06-20 16:14:11:919
-6.394814819335937,-6.728800842285156,1.2246154174804686,0.03237607017803931,0.03783371948945232,0.015851590458369383,1.474816083908081,2019-06-20 16:14:11:924
-6.36847900390625,-6.715632934570312,1.2389804077148436,0.03171027990551951,0.038100035598460244,0.015318958240353535,1.479936122894287,2019-06-20 16:14:11:929
-6.3864352416992185,-6.710844604492188,1.2665133056640625,0.031443963796511584,0.037966877543956286,0.01571843240386542,1.484800100326538,2019-06-20 16:14:11:934
-6.3577052612304685,-6.733589172363281,1.2701045532226563,0.0327755443415512,0.037966877543956286,0.015585274349361458,1.4899201393127441,2019-06-20 16:14:11:939
-6.344537353515625,-6.740771667480469,1.2629220581054688,0.032242912123535354,0.037966877543956286,0.01651738073088919,1.4947841167449951,2019-06-20 16:14:11:944
-6.363690673828125,-6.756333740234375,1.2856666259765626,0.03210975406903139,0.03849950976197213,0.016251064621881268,1.4999041557312012,2019-06-20 16:14:11:949
-6.370873168945312,-6.731195007324218,1.2701045532226563,0.03171027990551951,0.03836635170746817,0.015185800185849573,1.5047681331634521,2019-06-20 16:14:11:954
-6.36847900390625,-6.710844604492188,1.2282066650390624,0.03171027990551951,0.03943161614349987,0.015052642131345608,1.5098881721496582,2019-06-20 16:14:11:959
-6.390026489257813,-6.725209594726563,1.2030679321289062,0.033041860450559124,0.03903214197998798,0.014653167967833723,1.5147521495819092,2019-06-20 16:14:11:964
-6.388829406738281,-6.7228154296875,1.2294037475585937,0.03357449266857497,0.03783371948945232,0.014786326022337684,1.5198721885681152,2019-06-20 16:14:11:969
-6.369676086425781,-6.724012512207031,1.2701045532226563,0.03290870239605516,0.03676845505342063,0.01571843240386542,1.5249919891357422,2019-06-20 16:14:11:975
-6.382843994140625,-6.710844604492188,1.2653162231445312,0.032642386287047236,0.03849950976197213,0.016251064621881268,1.5298559665679932,2019-06-20 16:14:11:979
-6.369676086425781,-6.712041687011719,1.2653162231445312,0.03210975406903139,0.03916530003449194,0.015052642131345608,1.5349760055541992,2019-06-20 16:14:11:984
-6.382843994140625,-6.724012512207031,1.2617249755859374,0.03171027990551951,0.04009740641601968,0.013854219640809953,1.5398399829864502,2019-06-20 16:14:11:989
-6.3577052612304685,-6.73239208984375,1.2353891601562499,0.03237607017803931,0.03983109030701175,0.013854219640809953,1.5449600219726562,2019-06-20 16:14:11:994
-6.35890234375,-6.700070861816406,1.2497541503906249,0.03210975406903139,0.037966877543956286,0.015452116294857496,1.5498239994049072,2019-06-20 16:14:11:999
-6.361296508789063,-6.718027099609375,1.297637451171875,0.032242912123535354,0.03770056143494836,0.014653167967833723,1.5549440383911133,2019-06-20 16:14:12:004
-6.367281921386718,-6.73239208984375,1.3000316162109375,0.03237607017803931,0.03836635170746817,0.015052642131345608,1.5598080158233643,2019-06-20 16:14:12:009
-6.376858581542969,-6.702465026855468,1.27369580078125,0.03131080574200762,0.03903214197998798,0.014653167967833723,1.5649280548095703,2019-06-20 16:14:12:014
-6.385238159179687,-6.739574584960938,1.2198270874023438,0.030378699360479884,0.03836635170746817,0.013987377695313915,1.5697920322418213,2019-06-20 16:14:12:019
-6.379252746582031,-6.734786254882812,1.2042650146484375,0.031044489632999692,0.03703477116242855,0.013721061586305991,1.5749120712280273,2019-06-20 16:14:12:024
-6.369676086425781,-6.728800842285156,1.2353891601562499,0.031443963796511584,0.03703477116242855,0.012788955204778256,1.5797760486602783,2019-06-20 16:14:12:029
-6.340946105957031,-6.740771667480469,1.2677103881835938,0.030511857414983846,0.03836635170746817,0.012522639095770333,1.5848960876464844,2019-06-20 16:14:12:034
-6.373267333984375,-6.764713317871093,1.2329949951171875,0.03131080574200762,0.0392984580889959,0.012922113259282218,1.5897600650787354,2019-06-20 16:14:12:039
-6.381646911621093,-6.747954162597656,1.2760899658203124,0.03171027990551951,0.04009740641601968,0.013454745477298068,1.5948801040649414,2019-06-20 16:14:12:044
-6.374464416503906,-6.728800842285156,1.2964403686523438,0.03157712185101554,0.039564774198003826,0.013854219640809953,1.6000001430511475,2019-06-20 16:14:12:050
-6.384041076660156,-6.7371804199218746,1.2677103881835938,0.03197659601452743,0.03903214197998798,0.015585274349361458,1.6048641204833984,2019-06-20 16:14:12:054
-6.384041076660156,-6.731195007324218,1.2605278930664061,0.032242912123535354,0.03903214197998798,0.015185800185849573,1.6099841594696045,2019-06-20 16:14:12:060
-6.381646911621093,-6.714435852050781,1.264119140625,0.03171027990551951,0.038765825870980056,0.014520009913329761,1.6148481369018555,2019-06-20 16:14:12:064
-6.3720702514648435,-6.7359833374023435,1.2832724609375,0.03091133157849573,0.03849950976197213,0.014253693804321838,1.6199681758880615,2019-06-20 16:14:12:069
-6.379252746582031,-6.745559997558594,1.2724987182617187,0.03091133157849573,0.03836635170746817,0.014253693804321838,1.6248321533203125,2019-06-20 16:14:12:074
-6.352916931152343,-6.71323876953125,1.2234183349609375,0.030645015469487807,0.03983109030701175,0.013188429368290141,1.6299521923065186,2019-06-20 16:14:12:079
-6.398406066894531,-6.7072533569335935,1.2198270874023438,0.031044489632999692,0.03823319365296421,0.014120535749817876,1.6348161697387695,2019-06-20 16:14:12:084
-6.380449829101562,-6.720421264648437,1.2772870483398437,0.031044489632999692,0.03916530003449194,0.013721061586305991,1.6399359703063965,2019-06-20 16:14:12:089
-6.34932568359375,-6.7216183471679685,1.316790771484375,0.032642386287047236,0.038100035598460244,0.014253693804321838,1.6448001861572266,2019-06-20 16:14:12:094
-6.360099426269531,-6.759924987792969,1.2940462036132812,0.03210975406903139,0.03836635170746817,0.0143868518588258,1.6499199867248535,2019-06-20 16:14:12:099
-6.360099426269531,-6.750348327636718,1.2653162231445312,0.03210975406903139,0.038765825870980056,0.013721061586305991,1.6547839641571045,2019-06-20 16:14:12:104
-6.370873168945312,-6.755136657714844,1.2533453979492186,0.03157712185101554,0.037966877543956286,0.014653167967833723,1.6599040031433105,2019-06-20 16:14:12:109
-6.364887756347656,-6.749151245117187,1.2617249755859374,0.03290870239605516,0.03783371948945232,0.015052642131345608,1.6647679805755615,2019-06-20 16:14:12:114
-6.366084838867187,-6.7515454101562495,1.2748928833007813,0.03210975406903139,0.03836635170746817,0.0143868518588258,1.6698880195617676,2019-06-20 16:14:12:119
-6.3577052612304685,-6.715632934570312,1.27369580078125,0.03157712185101554,0.03916530003449194,0.015052642131345608,1.6747519969940186,2019-06-20 16:14:12:124
-6.36847900390625,-6.715632934570312,1.2377833251953125,0.03330817655956705,0.04102951279754741,0.013854219640809953,1.6798720359802246,2019-06-20 16:14:12:129
-6.3864352416992185,-6.731195007324218,1.2449658203125,0.03317501850506309,0.04116267085205137,0.013454745477298068,1.6849920749664307,2019-06-20 16:14:12:135
-6.361296508789063,-6.727603759765625,1.29284912109375,0.03290870239605516,0.039964248361515714,0.013854219640809953,1.6898560523986816,2019-06-20 16:14:12:139
-6.35890234375,-6.710844604492188,1.2868637084960937,0.03210975406903139,0.039964248361515714,0.013321587422794106,1.6949760913848877,2019-06-20 16:14:12:144
-6.375661499023438,-6.698873779296875,1.2940462036132812,0.032642386287047236,0.03943161614349987,0.014520009913329761,1.6998400688171387,2019-06-20 16:14:12:149
-6.3720702514648435,-6.755136657714844,1.2760899658203124,0.03330817655956705,0.03836635170746817,0.014919484076841646,1.7049601078033447,2019-06-20 16:14:12:154
-6.394814819335937,-6.7228154296875,1.2665133056640625,0.033707650723078936,0.03969793225250779,0.015585274349361458,1.7098240852355957,2019-06-20 16:14:12:159
-6.38763232421875,-6.718027099609375,1.2808782958984375,0.03250922823254328,0.04023056447052364,0.013721061586305991,1.7149441242218018,2019-06-20 16:14:12:164
-6.375661499023438,-6.7216183471679685,1.25454248046875,0.032642386287047236,0.03983109030701175,0.014786326022337684,1.7198081016540527,2019-06-20 16:14:12:169
-6.393617736816406,-6.710844604492188,1.2724987182617187,0.03330817655956705,0.03863266781647609,0.014520009913329761,1.7249281406402588,2019-06-20 16:14:12:174
-6.376858581542969,-6.719224182128906,1.2126445922851563,0.03237607017803931,0.037966877543956286,0.014520009913329761,1.7297921180725098,2019-06-20 16:14:12:179
-6.366084838867187,-6.740771667480469,1.2701045532226563,0.03197659601452743,0.038100035598460244,0.013721061586305991,1.7349121570587158,2019-06-20 16:14:12:184
-6.363690673828125,-6.727603759765625,1.2497541503906249,0.03290870239605516,0.039564774198003826,0.01358790353180203,1.7400321960449219,2019-06-20 16:14:12:190
-6.374464416503906,-6.743165832519531,1.2389804077148436,0.03250922823254328,0.03903214197998798,0.014253693804321838,1.7448961734771729,2019-06-20 16:14:12:194
-6.3864352416992185,-6.740771667480469,1.2389804077148436,0.03317501850506309,0.03783371948945232,0.013987377695313915,1.7497601509094238,2019-06-20 16:14:12:199
-6.369676086425781,-6.719224182128906,1.2557395629882813,0.03250922823254328,0.038898983925484014,0.013321587422794106,1.7548801898956299,2019-06-20 16:14:12:204
-6.388829406738281,-6.729997924804687,1.2389804077148436,0.03237607017803931,0.03836635170746817,0.013854219640809953,1.7599999904632568,2019-06-20 16:14:12:210
-6.381646911621093,-6.743165832519531,1.2389804077148436,0.03157712185101554,0.039564774198003826,0.0143868518588258,1.7648639678955078,2019-06-20 16:14:12:214
-6.384041076660156,-6.728800842285156,1.2353891601562499,0.03197659601452743,0.0392984580889959,0.013454745477298068,1.7699840068817139,2019-06-20 16:14:12:220
-6.374464416503906,-6.714435852050781,1.2605278930664061,0.03131080574200762,0.0392984580889959,0.012655797150274295,1.7748479843139648,2019-06-20 16:14:12:224
-6.352916931152343,-6.744362915039062,1.2389804077148436,0.03171027990551951,0.039964248361515714,0.01305527131378618,1.779968023300171,2019-06-20 16:14:12:229
-6.363690673828125,-6.720421264648437,1.25454248046875,0.031843437960023466,0.03943161614349987,0.011590532714242601,1.7848320007324219,2019-06-20 16:14:12:234
-6.361296508789063,-6.720421264648437,1.2497541503906249,0.03250922823254328,0.038765825870980056,0.012389481041266371,1.789952039718628,2019-06-20 16:14:12:239
-6.360099426269531,-6.718027099609375,1.2270095825195313,0.03330817655956705,0.038898983925484014,0.012788955204778256,1.794816017150879,2019-06-20 16:14:12:244
-6.376858581542969,-6.719224182128906,1.25454248046875,0.034639757104606664,0.03849950976197213,0.01305527131378618,1.799936056137085,2019-06-20 16:14:12:249
-6.340946105957031,-6.703662109375,1.278484130859375,0.03317501850506309,0.038898983925484014,0.014253693804321838,1.804800033569336,2019-06-20 16:14:12:254
-6.340946105957031,-6.720421264648437,1.307214111328125,0.03357449266857497,0.038765825870980056,0.013987377695313915,1.809920072555542,2019-06-20 16:14:12:259
-6.344537353515625,-6.744362915039062,1.2677103881835938,0.033840808777582894,0.039564774198003826,0.012788955204778256,1.814784049987793,2019-06-20 16:14:12:264
-6.3864352416992185,-6.703662109375,1.2413745727539063,0.0327755443415512,0.03823319365296421,0.014120535749817876,1.819904088973999,2019-06-20 16:14:12:269
-6.36847900390625,-6.733589172363281,1.2808782958984375,0.031843437960023466,0.03863266781647609,0.01358790353180203,1.82476806640625,2019-06-20 16:14:12:274
-6.3433402709960935,-6.7527424926757815,1.2904549560546874,0.03330817655956705,0.03903214197998798,0.013854219640809953,1.829888105392456,2019-06-20 16:14:12:279
-6.328975280761719,-6.762319152832031,1.2198270874023438,0.03290870239605516,0.04009740641601968,0.015185800185849573,1.834752082824707,2019-06-20 16:14:12:284
-6.363690673828125,-6.747954162597656,1.2916520385742187,0.03344133461407101,0.03849950976197213,0.01358790353180203,1.839872121810913,2019-06-20 16:14:12:289
-6.361296508789063,-6.73239208984375,1.2485570678710938,0.033041860450559124,0.038765825870980056,0.015452116294857496,1.8449921607971191,2019-06-20 16:14:12:295
-6.352916931152343,-6.725209594726563,1.1994766845703124,0.03210975406903139,0.03943161614349987,0.015185800185849573,1.8498561382293701,2019-06-20 16:14:12:299
-6.364887756347656,-6.747954162597656,1.2461629028320311,0.033041860450559124,0.03863266781647609,0.015052642131345608,1.8549761772155762,2019-06-20 16:14:12:304
-6.360099426269531,-6.718027099609375,1.2365862426757812,0.033041860450559124,0.039564774198003826,0.015585274349361458,1.8598401546478271,2019-06-20 16:14:12:309
-6.364887756347656,-6.726406677246094,1.2246154174804686,0.032642386287047236,0.039564774198003826,0.015851590458369383,1.8649601936340332,2019-06-20 16:14:12:314
-6.374464416503906,-6.74196875,1.2617249755859374,0.03344133461407101,0.03849950976197213,0.01571843240386542,1.8698241710662842,2019-06-20 16:14:12:319
-6.354114013671875,-6.749151245117187,1.2437687377929687,0.03344133461407101,0.03983109030701175,0.016783696839897114,1.8749439716339111,2019-06-20 16:14:12:324
-6.348128601074219,-6.710844604492188,1.268907470703125,0.033840808777582894,0.04023056447052364,0.016650538785393153,1.8798081874847412,2019-06-20 16:14:12:329
-6.364887756347656,-6.738377502441406,1.2988345336914062,0.03397396683208686,0.03983109030701175,0.01651738073088919,1.8849279880523682,2019-06-20 16:14:12:334
-6.3780556640625,-6.716830017089843,1.2629220581054688,0.03437344099559874,0.04009740641601968,0.014919484076841646,1.8897919654846191,2019-06-20 16:14:12:339
-6.404391479492188,-6.74196875,1.2701045532226563,0.03437344099559874,0.03943161614349987,0.015585274349361458,1.8949120044708252,2019-06-20 16:14:12:344
-6.398406066894531,-6.7371804199218746,1.2724987182617187,0.03424028294109478,0.03823319365296421,0.015984748512873345,1.8997759819030762,2019-06-20 16:14:12:349
-6.3864352416992185,-6.726406677246094,1.2198270874023438,0.03330817655956705,0.039964248361515714,0.01651738073088919,1.9048960208892822,2019-06-20 16:14:12:354
-6.394814819335937,-6.750348327636718,1.2449658203125,0.033840808777582894,0.040763196688539484,0.016916854894401076,1.9097599983215332,2019-06-20 16:14:12:359
-6.352916931152343,-6.753939575195313,1.259330810546875,0.03330817655956705,0.03943161614349987,0.016650538785393153,1.9148800373077393,2019-06-20 16:14:12:364
-6.388829406738281,-6.718027099609375,1.2282066650390624,0.03290870239605516,0.038898983925484014,0.017183171003409,1.9200000762939453,2019-06-20 16:14:12:370
-6.397208984375,-6.724012512207031,1.2174329223632812,0.03317501850506309,0.0403637225250276,0.017183171003409,1.9248640537261963,2019-06-20 16:14:12:374
-6.381646911621093,-6.712041687011719,1.2461629028320311,0.034506599050102706,0.0403637225250276,0.017183171003409,1.9299840927124023,2019-06-20 16:14:12:380
-6.36847900390625,-6.716830017089843,1.2533453979492186,0.03317501850506309,0.04009740641601968,0.016650538785393153,1.9348480701446533,2019-06-20 16:14:12:384
-6.352916931152343,-6.726406677246094,1.2724987182617187,0.03250922823254328,0.0392984580889959,0.015984748512873345,1.9399681091308594,2019-06-20 16:14:12:389
-6.38763232421875,-6.731195007324218,1.2461629028320311,0.03330817655956705,0.04023056447052364,0.015984748512873345,1.9448320865631104,2019-06-20 16:14:12:394
-6.367281921386718,-6.703662109375,1.2329949951171875,0.033840808777582894,0.0392984580889959,0.014919484076841646,1.9499521255493164,2019-06-20 16:14:12:399
-6.346931518554688,-6.724012512207031,1.2377833251953125,0.03344133461407101,0.038100035598460244,0.015318958240353535,1.9548161029815674,2019-06-20 16:14:12:404
-6.360099426269531,-6.719224182128906,1.25454248046875,0.03171027990551951,0.04023056447052364,0.015851590458369383,1.9599361419677734,2019-06-20 16:14:12:409
-6.405588562011719,-6.714435852050781,1.2665133056640625,0.032242912123535354,0.04023056447052364,0.015984748512873345,1.9648001194000244,2019-06-20 16:14:12:414
-6.390026489257813,-6.7228154296875,1.2772870483398437,0.03344133461407101,0.041562145015563254,0.015452116294857496,1.9699201583862305,2019-06-20 16:14:12:419
-6.385238159179687,-6.725209594726563,1.264119140625,0.03357449266857497,0.039564774198003826,0.015452116294857496,1.9747841358184814,2019-06-20 16:14:12:424
-6.3864352416992185,-6.709647521972656,1.2413745727539063,0.033041860450559124,0.040630038634035526,0.014653167967833723,1.9799041748046875,2019-06-20 16:14:12:429
-6.399603149414062,-6.696479614257813,1.2605278930664061,0.033041860450559124,0.04049688057953156,0.013454745477298068,1.9847681522369385,2019-06-20 16:14:12:434
-6.394814819335937,-6.6928883666992185,1.278484130859375,0.03357449266857497,0.039964248361515714,0.014520009913329761,1.9898881912231445,2019-06-20 16:14:12:439
-6.38763232421875,-6.709647521972656,1.2796812133789062,0.03410712488659082,0.03943161614349987,0.013854219640809953,1.9947521686553955,2019-06-20 16:14:12:444
-6.393617736816406,-6.715632934570312,1.2449658203125,0.03290870239605516,0.0392984580889959,0.014919484076841646,1.9998719692230225,2019-06-20 16:14:12:449
-6.381646911621093,-6.718027099609375,1.2485570678710938,0.03290870239605516,0.039964248361515714,0.013454745477298068,2.0049920082092285,2019-06-20 16:14:12:455
-6.376858581542969,-6.708450439453125,1.2629220581054688,0.032642386287047236,0.04023056447052364,0.013321587422794106,2.0098559856414795,2019-06-20 16:14:12:459
-6.380449829101562,-6.719224182128906,1.2270095825195313,0.03290870239605516,0.04009740641601968,0.01358790353180203,2.0149760246276855,2019-06-20 16:14:12:464
-6.356508178710937,-6.720421264648437,1.2246154174804686,0.032642386287047236,0.04009740641601968,0.013188429368290141,2.0198400020599365,2019-06-20 16:14:12:469
-6.381646911621093,-6.719224182128906,1.2030679321289062,0.03171027990551951,0.03969793225250779,0.013721061586305991,2.0249600410461426,2019-06-20 16:14:12:474
-6.381646911621093,-6.6928883666992185,1.2509512329101562,0.032642386287047236,0.039564774198003826,0.014520009913329761,2.0298240184783936,2019-06-20 16:14:12:479
-6.393617736816406,-6.701267944335937,1.2617249755859374,0.03250922823254328,0.0392984580889959,0.013454745477298068,2.0349440574645996,2019-06-20 16:14:12:484
-6.423544799804687,-6.686902954101562,1.2485570678710938,0.032642386287047236,0.03863266781647609,0.013854219640809953,2.0398080348968506,2019-06-20 16:14:12:489
-6.399603149414062,-6.719224182128906,1.2569366455078124,0.03157712185101554,0.03823319365296421,0.012788955204778256,2.0449280738830566,2019-06-20 16:14:12:494
-6.3864352416992185,-6.704859191894531,1.2724987182617187,0.03171027990551951,0.03823319365296421,0.013188429368290141,2.0497920513153076,2019-06-20 16:14:12:499
-6.388829406738281,-6.724012512207031,1.264119140625,0.03237607017803931,0.03903214197998798,0.01145737465973864,2.0549120903015137,2019-06-20 16:14:12:504
-6.380449829101562,-6.712041687011719,1.288060791015625,0.032642386287047236,0.038765825870980056,0.01012579411469902,2.0597760677337646,2019-06-20 16:14:12:509
-6.388829406738281,-6.719224182128906,1.2856666259765626,0.0327755443415512,0.03983109030701175,0.010525268278210905,2.0648961067199707,2019-06-20 16:14:12:514
-6.3780556640625,-6.712041687011719,1.25454248046875,0.032242912123535354,0.04116267085205137,0.0087942135696594,2.0697600841522217,2019-06-20 16:14:12:519
-6.405588562011719,-6.720421264648437,1.2748928833007813,0.030378699360479884,0.03863266781647609,0.009859478005691095,2.0748801231384277,2019-06-20 16:14:12:524
-6.367281921386718,-6.74196875,1.2772870483398437,0.03171027990551951,0.040630038634035526,0.010525268278210905,2.080000162124634,2019-06-20 16:14:12:530
-6.404391479492188,-6.7228154296875,1.2832724609375,0.0327755443415512,0.038765825870980056,0.010258952169202981,2.0848641395568848,2019-06-20 16:14:12:534
-6.388829406738281,-6.718027099609375,1.2365862426757812,0.03197659601452743,0.038765825870980056,0.011723690768746563,2.089984178543091,2019-06-20 16:14:12:540
-6.375661499023438,-6.706056274414062,1.2557395629882813,0.03210975406903139,0.03836635170746817,0.010658426332714866,2.094848155975342,2019-06-20 16:14:12:544
-6.363690673828125,-6.719224182128906,1.2581337280273437,0.03171027990551951,0.03823319365296421,0.01092474244172279,2.099968194961548,2019-06-20 16:14:12:549
-6.3780556640625,-6.738377502441406,1.2760899658203124,0.031177647687503654,0.037966877543956286,0.009593161896683172,2.104832172393799,2019-06-20 16:14:12:554
-6.381646911621093,-6.73239208984375,1.2653162231445312,0.03171027990551951,0.038100035598460244,0.0087942135696594,2.109951972961426,2019-06-20 16:14:12:559
-6.40678564453125,-6.729997924804687,1.2425716552734374,0.032242912123535354,0.037301087271436474,0.007862107188131667,2.114816188812256,2019-06-20 16:14:12:564
-6.3864352416992185,-6.700070861816406,1.2557395629882813,0.031177647687503654,0.03783371948945232,0.008261581351643552,2.119935989379883,2019-06-20 16:14:12:569
-6.409179809570312,-6.725209594726563,1.2461629028320311,0.03077817352399177,0.03690161310792459,0.00946000384217921,2.124799966812134,2019-06-20 16:14:12:574
-6.380449829101562,-6.740771667480469,1.2317979125976561,0.030511857414983846,0.03703477116242855,0.009593161896683172,2.12992000579834,2019-06-20 16:14:12:579
-6.350522766113281,-6.750348327636718,1.240177490234375,0.030378699360479884,0.03743424532594044,0.009593161896683172,2.134783983230591,2019-06-20 16:14:12:584
-6.373267333984375,-6.7527424926757815,1.25454248046875,0.030511857414983846,0.036368980889908746,0.009326845787675248,2.139904022216797,2019-06-20 16:14:12:589
-6.354114013671875,-6.764713317871093,1.2569366455078124,0.03131080574200762,0.03770056143494836,0.009726319951187133,2.144767999649048,2019-06-20 16:14:12:594
-6.380449829101562,-6.733589172363281,1.2461629028320311,0.031443963796511584,0.03916530003449194,0.009859478005691095,2.149888038635254,2019-06-20 16:14:12:599
-6.369676086425781,-6.7515454101562495,1.2317979125976561,0.03250922823254328,0.03783371948945232,0.00946000384217921,2.154752016067505,2019-06-20 16:14:12:604
-6.3577052612304685,-6.7371804199218746,1.2186300048828125,0.0327755443415512,0.03836635170746817,0.010525268278210905,2.159872055053711,2019-06-20 16:14:12:609
-6.338551940917968,-6.744362915039062,1.2150387573242187,0.03290870239605516,0.03823319365296421,0.011324216605234675,2.164992094039917,2019-06-20 16:14:12:615
-6.370873168945312,-6.725209594726563,1.2473599853515625,0.0327755443415512,0.038100035598460244,0.010791584387218828,2.169856071472168,2019-06-20 16:14:12:619
-6.369676086425781,-6.74196875,1.2569366455078124,0.0327755443415512,0.038765825870980056,0.011191058550730713,2.174976110458374,2019-06-20 16:14:12:624
-6.369676086425781,-6.743165832519531,1.2389804077148436,0.03317501850506309,0.038765825870980056,0.01092474244172279,2.179840087890625,2019-06-20 16:14:12:629
-6.370873168945312,-6.729997924804687,1.2449658203125,0.03290870239605516,0.03849950976197213,0.009193687733171287,2.184960126876831,2019-06-20 16:14:12:634
-6.369676086425781,-6.706056274414062,1.2748928833007813,0.03197659601452743,0.03823319365296421,0.012123164932258448,2.189824104309082,2019-06-20 16:14:12:639
-6.3720702514648435,-6.725209594726563,1.2377833251953125,0.03131080574200762,0.038765825870980056,0.011590532714242601,2.194944143295288,2019-06-20 16:14:12:644
-6.362493591308594,-6.747954162597656,1.2258125,0.03237607017803931,0.038898983925484014,0.011057900496226753,2.199808120727539,2019-06-20 16:14:12:649
-6.374464416503906,-6.720421264648437,1.2581337280273437,0.032642386287047236,0.038898983925484014,0.010658426332714866,2.204928159713745,2019-06-20 16:14:12:654
-6.375661499023438,-6.727603759765625,1.259330810546875,0.0327755443415512,0.038765825870980056,0.011590532714242601,2.209792137145996,2019-06-20 16:14:12:659
-6.397208984375,-6.74196875,1.2605278930664061,0.0327755443415512,0.03863266781647609,0.011324216605234675,2.214912176132202,2019-06-20 16:14:12:664
-6.370873168945312,-6.749151245117187,1.2509512329101562,0.032642386287047236,0.038898983925484014,0.011324216605234675,2.219776153564453,2019-06-20 16:14:12:669
-6.35890234375,-6.7371804199218746,1.2605278930664061,0.03290870239605516,0.038765825870980056,0.01145737465973864,2.224896192550659,2019-06-20 16:14:12:674
-6.370873168945312,-6.728800842285156,1.2533453979492186,0.03250922823254328,0.03863266781647609,0.012123164932258448,2.22976016998291,2019-06-20 16:14:12:679
-6.393617736816406,-6.747954162597656,1.268907470703125,0.033707650723078936,0.03969793225250779,0.012655797150274295,2.234879970550537,2019-06-20 16:14:12:684
-6.3780556640625,-6.749151245117187,1.2581337280273437,0.03317501850506309,0.04009740641601968,0.012522639095770333,2.240000009536743,2019-06-20 16:14:12:690
-6.381646911621093,-6.726406677246094,1.2497541503906249,0.03397396683208686,0.03863266781647609,0.01305527131378618,2.244863986968994,2019-06-20 16:14:12:694
-6.36847900390625,-6.716830017089843,1.2653162231445312,0.03424028294109478,0.03770056143494836,0.011990006877754486,2.2499840259552,2019-06-20 16:14:12:700
-6.374464416503906,-6.716830017089843,1.2437687377929687,0.03397396683208686,0.03849950976197213,0.01225632298676241,2.254848003387451,2019-06-20 16:14:12:704
-6.381646911621093,-6.726406677246094,1.2569366455078124,0.03317501850506309,0.03863266781647609,0.012922113259282218,2.2599680423736572,2019-06-20 16:14:12:709
-6.375661499023438,-6.708450439453125,1.2389804077148436,0.03410712488659082,0.03863266781647609,0.013987377695313915,2.264832019805908,2019-06-20 16:14:12:714
-6.36847900390625,-6.7371804199218746,1.2772870483398437,0.03477291515911063,0.038898983925484014,0.011990006877754486,2.2699520587921143,2019-06-20 16:14:12:719
-6.355311096191406,-6.69408544921875,1.2748928833007813,0.03477291515911063,0.037966877543956286,0.01305527131378618,2.2748160362243652,2019-06-20 16:14:12:724
-6.354114013671875,-6.6928883666992185,1.2569366455078124,0.03290870239605516,0.03849950976197213,0.012123164932258448,2.2799360752105713,2019-06-20 16:14:12:729
-6.366084838867187,-6.7072533569335935,1.2796812133789062,0.03290870239605516,0.03836635170746817,0.011057900496226753,2.2848000526428223,2019-06-20 16:14:12:734
-6.363690673828125,-6.728800842285156,1.2701045532226563,0.03424028294109478,0.03836635170746817,0.012788955204778256,2.2899200916290283,2019-06-20 16:14:12:739
-6.356508178710937,-6.715632934570312,1.2186300048828125,0.03397396683208686,0.03823319365296421,0.012655797150274295,2.2947840690612793,2019-06-20 16:14:12:744
-6.403194396972656,-6.720421264648437,1.2605278930664061,0.03290870239605516,0.03903214197998798,0.011590532714242601,2.2999041080474854,2019-06-20 16:14:12:749
-6.3780556640625,-6.709647521972656,1.2317979125976561,0.03317501850506309,0.039564774198003826,0.01225632298676241,2.3047680854797363,2019-06-20 16:14:12:754
-6.350522766113281,-6.733589172363281,1.2760899658203124,0.033041860450559124,0.039564774198003826,0.011590532714242601,2.3098881244659424,2019-06-20 16:14:12:759
-6.370873168945312,-6.738377502441406,1.2533453979492186,0.03250922823254328,0.03969793225250779,0.010525268278210905,2.3147521018981934,2019-06-20 16:14:12:764
-6.348128601074219,-6.720421264648437,1.268907470703125,0.03237607017803931,0.03983109030701175,0.009859478005691095,2.3198721408843994,2019-06-20 16:14:12:769
-6.379252746582031,-6.7216183471679685,1.2760899658203124,0.033041860450559124,0.038765825870980056,0.010525268278210905,2.3249921798706055,2019-06-20 16:14:12:775
-6.373267333984375,-6.716830017089843,1.2665133056640625,0.03357449266857497,0.0392984580889959,0.010525268278210905,2.3298561573028564,2019-06-20 16:14:12:779
-6.376858581542969,-6.740771667480469,1.2713016357421876,0.033041860450559124,0.03983109030701175,0.011191058550730713,2.3349761962890625,2019-06-20 16:14:12:784
-6.390026489257813,-6.753939575195313,1.2533453979492186,0.03357449266857497,0.03849950976197213,0.00946000384217921,2.3398401737213135,2019-06-20 16:14:12:789
-6.382843994140625,-6.729997924804687,1.2533453979492186,0.03344133461407101,0.039564774198003826,0.01012579411469902,2.3449599742889404,2019-06-20 16:14:12:794
-6.376858581542969,-6.739574584960938,1.2425716552734374,0.03330817655956705,0.03823319365296421,0.010392110223706943,2.3498241901397705,2019-06-20 16:14:12:799
-6.384041076660156,-6.7371804199218746,1.2713016357421876,0.03410712488659082,0.03823319365296421,0.009992636060195056,2.3549439907073975,2019-06-20 16:14:12:804
-6.362493591308594,-6.731195007324218,1.268907470703125,0.03317501850506309,0.03743424532594044,0.010258952169202981,2.3598079681396484,2019-06-20 16:14:12:809
-6.394814819335937,-6.7611220703125,1.2665133056640625,0.03171027990551951,0.03823319365296421,0.011057900496226753,2.3649280071258545,2019-06-20 16:14:12:814
-6.356508178710937,-6.73239208984375,1.2665133056640625,0.033041860450559124,0.037966877543956286,0.010525268278210905,2.3697919845581055,2019-06-20 16:14:12:819
-6.3720702514648435,-6.743165832519531,1.2258125,0.03344133461407101,0.03743424532594044,0.008261581351643552,2.3749120235443115,2019-06-20 16:14:12:824
-6.364887756347656,-6.745559997558594,1.278484130859375,0.03250922823254328,0.0392984580889959,0.009193687733171287,2.3797760009765625,2019-06-20 16:14:12:829
-6.374464416503906,-6.729997924804687,1.2629220581054688,0.03357449266857497,0.04023056447052364,0.010392110223706943,2.3848960399627686,2019-06-20 16:14:12:834
-6.375661499023438,-6.728800842285156,1.2940462036132812,0.03357449266857497,0.03943161614349987,0.01145737465973864,2.3897600173950195,2019-06-20 16:14:12:839
-6.421150634765625,-6.720421264648437,1.268907470703125,0.0327755443415512,0.03983109030701175,0.010791584387218828,2.3948800563812256,2019-06-20 16:14:12:844
-6.376858581542969,-6.718027099609375,1.2772870483398437,0.03344133461407101,0.03943161614349987,0.010392110223706943,2.4000000953674316,2019-06-20 16:14:12:850
-6.350522766113281,-6.727603759765625,1.2988345336914062,0.03344133461407101,0.039564774198003826,0.011324216605234675,2.4048640727996826,2019-06-20 16:14:12:854
-6.373267333984375,-6.718027099609375,1.3060170288085937,0.03210975406903139,0.039964248361515714,0.01092474244172279,2.4099841117858887,2019-06-20 16:14:12:860
-6.3780556640625,-6.73239208984375,1.2748928833007813,0.03077817352399177,0.04009740641601968,0.010258952169202981,2.4148480892181396,2019-06-20 16:14:12:864
-6.356508178710937,-6.720421264648437,1.2653162231445312,0.030645015469487807,0.0403637225250276,0.011723690768746563,2.4199681282043457,2019-06-20 16:14:12:869
-6.321792785644531,-6.7359833374023435,1.2665133056640625,0.03157712185101554,0.03969793225250779,0.012922113259282218,2.4248321056365967,2019-06-20 16:14:12:874
-6.355311096191406,-6.718027099609375,1.2808782958984375,0.03131080574200762,0.03983109030701175,0.011990006877754486,2.4299521446228027,2019-06-20 16:14:12:879
-6.360099426269531,-6.749151245117187,1.2485570678710938,0.03171027990551951,0.03983109030701175,0.011191058550730713,2.4348161220550537,2019-06-20 16:14:12:884
-6.3433402709960935,-6.743165832519531,1.2497541503906249,0.03171027990551951,0.039564774198003826,0.012123164932258448,2.4399361610412598,2019-06-20 16:14:12:889
-6.324186950683593,-6.7527424926757815,1.2557395629882813,0.03210975406903139,0.03969793225250779,0.01305527131378618,2.4448001384735107,2019-06-20 16:14:12:894
-6.344537353515625,-6.747954162597656,1.2497541503906249,0.033041860450559124,0.03916530003449194,0.01225632298676241,2.449920177459717,2019-06-20 16:14:12:899
-6.366084838867187,-6.757530822753906,1.2473599853515625,0.031843437960023466,0.03916530003449194,0.011856848823250525,2.4547841548919678,2019-06-20 16:14:12:904
-6.348128601074219,-6.777881225585937,1.2521483154296875,0.031177647687503654,0.03903214197998798,0.011324216605234675,2.459904193878174,2019-06-20 16:14:12:909
-6.350522766113281,-6.7659104003906245,1.2365862426757812,0.03197659601452743,0.03969793225250779,0.011590532714242601,2.464768171310425,2019-06-20 16:14:12:914
-6.374464416503906,-6.7515454101562495,1.1851116943359374,0.03131080574200762,0.03969793225250779,0.012522639095770333,2.4698879718780518,2019-06-20 16:14:12:919
-6.363690673828125,-6.755136657714844,1.240177490234375,0.03210975406903139,0.038898983925484014,0.01305527131378618,2.475008010864258,2019-06-20 16:14:12:925
-6.3397490234375,-6.745559997558594,1.2449658203125,0.032642386287047236,0.038898983925484014,0.013454745477298068,2.479871988296509,2019-06-20 16:14:12:929
-6.3720702514648435,-6.744362915039062,1.230600830078125,0.03290870239605516,0.03969793225250779,0.01358790353180203,2.484992027282715,2019-06-20 16:14:12:935
-6.3780556640625,-6.750348327636718,1.2557395629882813,0.034506599050102706,0.03969793225250779,0.0143868518588258,2.489856004714966,2019-06-20 16:14:12:939
-6.370873168945312,-6.750348327636718,1.2521483154296875,0.0327755443415512,0.03916530003449194,0.015585274349361458,2.494976043701172,2019-06-20 16:14:12:944
-6.356508178710937,-6.73239208984375,1.2473599853515625,0.03397396683208686,0.03916530003449194,0.016117906567377306,2.499840021133423,2019-06-20 16:14:12:949
-6.360099426269531,-6.724012512207031,1.2629220581054688,0.03344133461407101,0.03836635170746817,0.01651738073088919,2.504960060119629,2019-06-20 16:14:12:954
-6.346931518554688,-6.749151245117187,1.268907470703125,0.03330817655956705,0.03863266781647609,0.015318958240353535,2.50982403755188,2019-06-20 16:14:12:959
-6.360099426269531,-6.7515454101562495,1.25454248046875,0.03424028294109478,0.038765825870980056,0.01638422267638523,2.514944076538086,2019-06-20 16:14:12:964
-6.356508178710937,-6.773092895507812,1.2605278930664061,0.03424028294109478,0.0392984580889959,0.016650538785393153,2.519808053970337,2019-06-20 16:14:12:969
-6.350522766113281,-6.753939575195313,1.2365862426757812,0.03437344099559874,0.03836635170746817,0.01784896127592881,2.524928092956543,2019-06-20 16:14:12:974
-6.373267333984375,-6.74196875,1.27369580078125,0.033041860450559124,0.038898983925484014,0.017582645166920888,2.529792070388794,2019-06-20 16:14:12:979
-6.374464416503906,-6.734786254882812,1.2605278930664061,0.032642386287047236,0.040630038634035526,0.017050012948905038,2.534912109375,2019-06-20 16:14:12:984
-6.38763232421875,-6.739574584960938,1.2425716552734374,0.03410712488659082,0.03969793225250779,0.018381593493944658,2.539776086807251,2019-06-20 16:14:12:989
-6.382843994140625,-6.727603759765625,1.2581337280273437,0.033707650723078936,0.039964248361515714,0.017982119330432773,2.544896125793457,2019-06-20 16:14:12:994
-6.361296508789063,-6.733589172363281,1.264119140625,0.03424028294109478,0.039564774198003826,0.01651738073088919,2.549760103225708,2019-06-20 16:14:12:999
-6.355311096191406,-6.727603759765625,1.2282066650390624,0.03437344099559874,0.040630038634035526,0.01784896127592881,2.554880142211914,2019-06-20 16:14:13:004
-6.360099426269531,-6.746757080078125,1.2581337280273437,0.03477291515911063,0.03969793225250779,0.019446857929976354,2.56000018119812,2019-06-20 16:14:13:010
-6.345734436035156,-6.740771667480469,1.2713016357421876,0.03490607321361459,0.03916530003449194,0.019446857929976354,2.564864158630371,2019-06-20 16:14:13:014
-6.3780556640625,-6.7228154296875,1.2617249755859374,0.03517238932262252,0.039964248361515714,0.019446857929976354,2.569984197616577,2019-06-20 16:14:13:020
-6.375661499023438,-6.716830017089843,1.2772870483398437,0.03437344099559874,0.03943161614349987,0.01904738376646447,2.574848175048828,2019-06-20 16:14:13:024
-6.384041076660156,-6.7072533569335935,1.2701045532226563,0.03437344099559874,0.0403637225250276,0.017982119330432773,2.579967975616455,2019-06-20 16:14:13:029
-6.375661499023438,-6.71323876953125,1.2916520385742187,0.03410712488659082,0.03983109030701175,0.01784896127592881,2.584832191467285,2019-06-20 16:14:13:034
-6.399603149414062,-6.7228154296875,1.2677103881835938,0.03424028294109478,0.03743424532594044,0.01851475154844862,2.589951992034912,2019-06-20 16:14:13:039
-6.399603149414062,-6.712041687011719,1.2796812133789062,0.03490607321361459,0.038100035598460244,0.018248435439440696,2.594815969467163,2019-06-20 16:14:13:044
-6.3864352416992185,-6.7228154296875,1.2569366455078124,0.03330817655956705,0.03943161614349987,0.018381593493944658,2.599936008453369,2019-06-20 16:14:13:049
-6.384041076660156,-6.7072533569335935,1.2353891601562499,0.0327755443415512,0.040630038634035526,0.017582645166920888,2.60479998588562,2019-06-20 16:14:13:054
-6.405588562011719,-6.715632934570312,1.2605278930664061,0.0327755443415512,0.04102951279754741,0.017982119330432773,2.609920024871826,2019-06-20 16:14:13:059
-6.373267333984375,-6.724012512207031,1.2844695434570312,0.03250922823254328,0.039964248361515714,0.016117906567377306,2.614784002304077,2019-06-20 16:14:13:064
-6.385238159179687,-6.712041687011719,1.2701045532226563,0.031843437960023466,0.038100035598460244,0.015318958240353535,2.619904041290283,2019-06-20 16:14:13:069
-6.391223571777344,-6.689297119140625,1.3215791015625,0.03210975406903139,0.03863266781647609,0.01571843240386542,2.624768018722534,2019-06-20 16:14:13:074
-6.367281921386718,-6.696479614257813,1.2569366455078124,0.032242912123535354,0.03836635170746817,0.015984748512873345,2.6298880577087402,2019-06-20 16:14:13:079
-6.366084838867187,-6.71323876953125,1.3108053588867188,0.031443963796511584,0.038765825870980056,0.015585274349361458,2.634752035140991,2019-06-20 16:14:13:084
-6.385238159179687,-6.709647521972656,1.268907470703125,0.033041860450559124,0.04049688057953156,0.0143868518588258,2.6398720741271973,2019-06-20 16:14:13:089
-6.370873168945312,-6.7228154296875,1.2533453979492186,0.03237607017803931,0.04116267085205137,0.014520009913329761,2.6449921131134033,2019-06-20 16:14:13:095
-6.364887756347656,-6.719224182128906,1.2629220581054688,0.03091133157849573,0.038765825870980056,0.013188429368290141,2.6498560905456543,2019-06-20 16:14:13:099
-6.373267333984375,-6.710844604492188,1.2389804077148436,0.031177647687503654,0.03783371948945232,0.013188429368290141,2.6549761295318604,2019-06-20 16:14:13:104
-6.379252746582031,-6.680917541503906,1.2701045532226563,0.031843437960023466,0.03943161614349987,0.013721061586305991,2.6598401069641113,2019-06-20 16:14:13:109
-6.379252746582031,-6.712041687011719,1.2904549560546874,0.031443963796511584,0.040630038634035526,0.013987377695313915,2.6649601459503174,2019-06-20 16:14:13:114
-6.362493591308594,-6.703662109375,1.2856666259765626,0.03091133157849573,0.04049688057953156,0.012123164932258448,2.6698241233825684,2019-06-20 16:14:13:119
-6.3577052612304685,-6.709647521972656,1.2294037475585937,0.031044489632999692,0.04023056447052364,0.011990006877754486,2.6749441623687744,2019-06-20 16:14:13:124
-6.369676086425781,-6.718027099609375,1.27369580078125,0.03157712185101554,0.039964248361515714,0.011324216605234675,2.6798081398010254,2019-06-20 16:14:13:129
-6.3577052612304685,-6.704859191894531,1.25454248046875,0.031843437960023466,0.0392984580889959,0.01225632298676241,2.6849281787872314,2019-06-20 16:14:13:134
-6.38763232421875,-6.683311706542969,1.2497541503906249,0.03091133157849573,0.03903214197998798,0.012389481041266371,2.6897921562194824,2019-06-20 16:14:13:139
-6.388829406738281,-6.708450439453125,1.2078562622070312,0.03157712185101554,0.038898983925484014,0.01225632298676241,2.6949121952056885,2019-06-20 16:14:13:144
-6.381646911621093,-6.704859191894531,1.2844695434570312,0.03157712185101554,0.03836635170746817,0.012123164932258448,2.6997761726379395,2019-06-20 16:14:13:149
-6.403194396972656,-6.703662109375,1.2317979125976561,0.03290870239605516,0.038898983925484014,0.01225632298676241,2.7048959732055664,2019-06-20 16:14:13:154
-6.390026489257813,-6.708450439453125,1.2581337280273437,0.03157712185101554,0.040630038634035526,0.011990006877754486,2.7097601890563965,2019-06-20 16:14:13:159
-6.3864352416992185,-6.714435852050781,1.2748928833007813,0.03171027990551951,0.03943161614349987,0.011990006877754486,2.7148799896240234,2019-06-20 16:14:13:164
-6.399603149414062,-6.728800842285156,1.240177490234375,0.03171027990551951,0.0392984580889959,0.010525268278210905,2.7200000286102295,2019-06-20 16:14:13:170
-6.376858581542969,-6.749151245117187,1.2449658203125,0.030645015469487807,0.03916530003449194,0.010658426332714866,2.7248640060424805,2019-06-20 16:14:13:174
-6.35890234375,-6.743165832519531,1.2605278930664061,0.030645015469487807,0.03849950976197213,0.010658426332714866,2.7299840450286865,2019-06-20 16:14:13:180
-6.370873168945312,-6.738377502441406,1.2317979125976561,0.03157712185101554,0.03863266781647609,0.011057900496226753,2.7348480224609375,2019-06-20 16:14:13:184
-6.367281921386718,-6.74196875,1.2521483154296875,0.031044489632999692,0.03836635170746817,0.009593161896683172,2.7399680614471436,2019-06-20 16:14:13:189
-6.348128601074219,-6.729997924804687,1.2425716552734374,0.031044489632999692,0.037966877543956286,0.009859478005691095,2.7448320388793945,2019-06-20 16:14:13:194
-6.390026489257813,-6.733589172363281,1.2413745727539063,0.031443963796511584,0.03849950976197213,0.010525268278210905,2.7499520778656006,2019-06-20 16:14:13:199
-6.385238159179687,-6.7216183471679685,1.2389804077148436,0.03197659601452743,0.03836635170746817,0.01012579411469902,2.7548160552978516,2019-06-20 16:14:13:204
-6.346931518554688,-6.720421264648437,1.2772870483398437,0.03171027990551951,0.038765825870980056,0.010392110223706943,2.7599360942840576,2019-06-20 16:14:13:209
-6.361296508789063,-6.739574584960938,1.268907470703125,0.031843437960023466,0.040763196688539484,0.01092474244172279,2.7648000717163086,2019-06-20 16:14:13:214
-6.390026489257813,-6.709647521972656,1.2665133056640625,0.03197659601452743,0.03983109030701175,0.010658426332714866,2.7699201107025146,2019-06-20 16:14:13:219
-6.364887756347656,-6.724012512207031,1.2449658203125,0.03171027990551951,0.03916530003449194,0.008661055515155438,2.7747840881347656,2019-06-20 16:14:13:224
-6.360099426269531,-6.733589172363281,1.2521483154296875,0.03317501850506309,0.03916530003449194,0.009726319951187133,2.7799041271209717,2019-06-20 16:14:13:229
-6.363690673828125,-6.738377502441406,1.264119140625,0.032642386287047236,0.04089635474304345,0.010525268278210905,2.7847681045532227,2019-06-20 16:14:13:234
-6.3577052612304685,-6.739574584960938,1.2461629028320311,0.032242912123535354,0.039564774198003826,0.011191058550730713,2.7898881435394287,2019-06-20 16:14:13:239
-6.390026489257813,-6.745559997558594,1.2365862426757812,0.03210975406903139,0.039564774198003826,0.01092474244172279,2.7947521209716797,2019-06-20 16:14:13:244
-6.370873168945312,-6.709647521972656,1.230600830078125,0.03397396683208686,0.03916530003449194,0.010791584387218828,2.7998721599578857,2019-06-20 16:14:13:249
-6.354114013671875,-6.7216183471679685,1.2234183349609375,0.03250922823254328,0.0392984580889959,0.010258952169202981,2.804992198944092,2019-06-20 16:14:13:255
-6.350522766113281,-6.706056274414062,1.2437687377929687,0.03171027990551951,0.03849950976197213,0.010791584387218828,2.8098561763763428,2019-06-20 16:14:13:259
-6.381646911621093,-6.7527424926757815,1.2605278930664061,0.033041860450559124,0.03903214197998798,0.011856848823250525,2.8149759769439697,2019-06-20 16:14:13:264
-6.369676086425781,-6.744362915039062,1.2413745727539063,0.032642386287047236,0.04023056447052364,0.01145737465973864,2.8198401927948,2019-06-20 16:14:13:269
-6.384041076660156,-6.726406677246094,1.2353891601562499,0.03197659601452743,0.04009740641601968,0.01145737465973864,2.8249599933624268,2019-06-20 16:14:13:274
-6.361296508789063,-6.727603759765625,1.2820753784179688,0.033041860450559124,0.03863266781647609,0.010791584387218828,2.8298239707946777,2019-06-20 16:14:13:279
-6.380449829101562,-6.731195007324218,1.259330810546875,0.03290870239605516,0.03823319365296421,0.011191058550730713,2.834944009780884,2019-06-20 16:14:13:284
-6.388829406738281,-6.74196875,1.2473599853515625,0.033041860450559124,0.03849950976197213,0.012123164932258448,2.8398079872131348,2019-06-20 16:14:13:289
-6.373267333984375,-6.731195007324218,1.2569366455078124,0.03290870239605516,0.038765825870980056,0.012123164932258448,2.844928026199341,2019-06-20 16:14:13:294
-6.370873168945312,-6.73239208984375,1.2294037475585937,0.032642386287047236,0.038765825870980056,0.011723690768746563,2.849792003631592,2019-06-20 16:14:13:299
-6.362493591308594,-6.7527424926757815,1.2437687377929687,0.03357449266857497,0.03849950976197213,0.011057900496226753,2.854912042617798,2019-06-20 16:14:13:304
-6.351719848632812,-6.727603759765625,1.2234183349609375,0.03397396683208686,0.038765825870980056,0.011057900496226753,2.859776020050049,2019-06-20 16:14:13:309
-6.374464416503906,-6.720421264648437,1.2294037475585937,0.0327755443415512,0.038100035598460244,0.013854219640809953,2.864896059036255,2019-06-20 16:14:13:314
-6.366084838867187,-6.733589172363281,1.2317979125976561,0.03250922823254328,0.03916530003449194,0.012522639095770333,2.869760036468506,2019-06-20 16:14:13:319
-6.38763232421875,-6.725209594726563,1.2629220581054688,0.03424028294109478,0.03770056143494836,0.011324216605234675,2.874880075454712,2019-06-20 16:14:13:324
-6.375661499023438,-6.689297119140625,1.2174329223632812,0.032642386287047236,0.03836635170746817,0.01092474244172279,2.880000114440918,2019-06-20 16:14:13:330
-6.376858581542969,-6.727603759765625,1.2150387573242187,0.033041860450559124,0.038898983925484014,0.011990006877754486,2.884864091873169,2019-06-20 16:14:13:334
-6.380449829101562,-6.725209594726563,1.2246154174804686,0.03237607017803931,0.038765825870980056,0.012389481041266371,2.889984130859375,2019-06-20 16:14:13:340
-6.376858581542969,-6.7216183471679685,1.2437687377929687,0.032642386287047236,0.03849950976197213,0.010791584387218828,2.894848108291626,2019-06-20 16:14:13:344
-6.370873168945312,-6.733589172363281,1.259330810546875,0.032642386287047236,0.03690161310792459,0.01145737465973864,2.899968147277832,2019-06-20 16:14:13:349
-6.36847900390625,-6.73239208984375,1.2713016357421876,0.03290870239605516,0.03823319365296421,0.010791584387218828,2.904832124710083,2019-06-20 16:14:13:354
-6.352916931152343,-6.739574584960938,1.2904549560546874,0.03250922823254328,0.039564774198003826,0.012389481041266371,2.909952163696289,2019-06-20 16:14:13:359
-6.362493591308594,-6.733589172363281,1.3108053588867188,0.03330817655956705,0.038765825870980056,0.012788955204778256,2.91481614112854,2019-06-20 16:14:13:364
-6.351719848632812,-6.744362915039062,1.2772870483398437,0.033707650723078936,0.03863266781647609,0.012123164932258448,2.919936180114746,2019-06-20 16:14:13:369
-6.354114013671875,-6.720421264648437,1.240177490234375,0.03344133461407101,0.03903214197998798,0.012123164932258448,2.924800157546997,2019-06-20 16:14:13:374
-6.363690673828125,-6.712041687011719,1.2270095825195313,0.032642386287047236,0.03849950976197213,0.011856848823250525,2.929920196533203,2019-06-20 16:14:13:379
-6.362493591308594,-6.740771667480469,1.2665133056640625,0.03250922823254328,0.03863266781647609,0.012522639095770333,2.934784173965454,2019-06-20 16:14:13:384
-6.34932568359375,-6.750348327636718,1.2713016357421876,0.032242912123535354,0.03916530003449194,0.011990006877754486,2.939903974533081,2019-06-20 16:14:13:389
-6.375661499023438,-6.749151245117187,1.2940462036132812,0.03357449266857497,0.03863266781647609,0.01145737465973864,2.944768190383911,2019-06-20 16:14:13:394
-6.375661499023438,-6.749151245117187,1.2940462036132812,0.03357449266857497,0.03863266781647609,0.01145737465973864,2.9478399753570557,2019-06-20 16:14:13:397
-6.385238159179687,-6.710844604492188,1.3000316162109375,0.03210975406903139,0.03916530003449194,0.012389481041266371,2.954751968383789,2019-06-20 16:14:13:404
-6.385238159179687,-6.710844604492188,1.3000316162109375,0.03210975406903139,0.03916530003449194,0.012389481041266371,2.9578239917755127,2019-06-20 16:14:13:407
-6.379252746582031,-6.727603759765625,1.2653162231445312,0.0327755443415512,0.03783371948945232,0.01145737465973864,2.964992046356201,2019-06-20 16:14:13:415
-6.379252746582031,-6.727603759765625,1.2653162231445312,0.0327755443415512,0.03783371948945232,0.01145737465973864,2.9678080081939697,2019-06-20 16:14:13:417
-6.362493591308594,-6.715632934570312,1.3012286987304686,0.031843437960023466,0.038765825870980056,0.011990006877754486,2.974976062774658,2019-06-20 16:14:13:424
-6.362493591308594,-6.715632934570312,1.3012286987304686,0.031843437960023466,0.038765825870980056,0.011990006877754486,2.9777920246124268,2019-06-20 16:14:13:427
-6.369676086425781,-6.7515454101562495,1.288060791015625,0.030511857414983846,0.03916530003449194,0.011324216605234675,2.9849600791931152,2019-06-20 16:14:13:434
-6.374464416503906,-6.74196875,1.2294037475585937,0.030645015469487807,0.0392984580889959,0.011856848823250525,2.989824056625366,2019-06-20 16:14:13:439
-6.362493591308594,-6.759924987792969,1.264119140625,0.03157712185101554,0.038898983925484014,0.012922113259282218,2.9949440956115723,2019-06-20 16:14:13:444
-6.35890234375,-6.7671074829101565,1.2294037475585937,0.031843437960023466,0.038100035598460244,0.012522639095770333,2.9998080730438232,2019-06-20 16:14:13:449
-6.374464416503906,-6.773092895507812,1.25454248046875,0.03250922823254328,0.037966877543956286,0.011723690768746563,3.0049281120300293,2019-06-20 16:14:13:454
-6.355311096191406,-6.773092895507812,1.2485570678710938,0.03157712185101554,0.03903214197998798,0.012123164932258448,3.0097920894622803,2019-06-20 16:14:13:459
-6.328975280761719,-6.783866638183594,1.2497541503906249,0.031843437960023466,0.0392984580889959,0.012655797150274295,3.0149121284484863,2019-06-20 16:14:13:464
-6.352916931152343,-6.756333740234375,1.2437687377929687,0.0327755443415512,0.038765825870980056,0.013188429368290141,3.0197761058807373,2019-06-20 16:14:13:469
-6.352916931152343,-6.756333740234375,1.2437687377929687,0.03250922823254328,0.03770056143494836,0.013721061586305991,3.0248961448669434,2019-06-20 16:14:13:474
-6.352916931152343,-6.745559997558594,1.2497541503906249,0.032242912123535354,0.03863266781647609,0.014520009913329761,3.0297601222991943,2019-06-20 16:14:13:479
-6.3720702514648435,-6.729997924804687,1.2617249755859374,0.03250922823254328,0.03969793225250779,0.014253693804321838,3.0348801612854004,2019-06-20 16:14:13:484
-6.364887756347656,-6.743165832519531,1.2724987182617187,0.03171027990551951,0.039964248361515714,0.013188429368290141,3.0399999618530273,2019-06-20 16:14:13:490
-6.354114013671875,-6.724012512207031,1.3036228637695313,0.032242912123535354,0.03903214197998798,0.012522639095770333,3.0448641777038574,2019-06-20 16:14:13:494
-6.373267333984375,-6.728800842285156,1.2772870483398437,0.03290870239605516,0.038765825870980056,0.013321587422794106,3.0499839782714844,2019-06-20 16:14:13:500
-6.379252746582031,-6.7216183471679685,1.2832724609375,0.031843437960023466,0.038100035598460244,0.012922113259282218,3.0548481941223145,2019-06-20 16:14:13:504
-6.3864352416992185,-6.719224182128906,1.2497541503906249,0.03237607017803931,0.039564774198003826,0.012922113259282218,3.0599679946899414,2019-06-20 16:14:13:509
-6.390026489257813,-6.734786254882812,1.2629220581054688,0.03210975406903139,0.03849950976197213,0.013721061586305991,3.0648319721221924,2019-06-20 16:14:13:514
-6.385238159179687,-6.734786254882812,1.2461629028320311,0.03290870239605516,0.03916530003449194,0.014253693804321838,3.0699520111083984,2019-06-20 16:14:13:519
-6.363690673828125,-6.738377502441406,1.2796812133789062,0.033840808777582894,0.03983109030701175,0.01225632298676241,3.0748159885406494,2019-06-20 16:14:13:524
-6.325384033203125,-6.731195007324218,1.2796812133789062,0.03290870239605516,0.03943161614349987,0.012922113259282218,3.0799360275268555,2019-06-20 16:14:13:529
-6.348128601074219,-6.728800842285156,1.2234183349609375,0.03344133461407101,0.039564774198003826,0.013321587422794106,3.0848000049591064,2019-06-20 16:14:13:534
-6.374464416503906,-6.739574584960938,1.2653162231445312,0.03344133461407101,0.040763196688539484,0.012655797150274295,3.0899200439453125,2019-06-20 16:14:13:539
-6.369676086425781,-6.749151245117187,1.2557395629882813,0.03330817655956705,0.0403637225250276,0.01305527131378618,3.0947840213775635,2019-06-20 16:14:13:544
-6.390026489257813,-6.740771667480469,1.2150387573242187,0.03437344099559874,0.0392984580889959,0.013188429368290141,3.0999040603637695,2019-06-20 16:14:13:549
-6.375661499023438,-6.7371804199218746,1.2569366455078124,0.03330817655956705,0.0403637225250276,0.01225632298676241,3.1047680377960205,2019-06-20 16:14:13:554
-6.3433402709960935,-6.725209594726563,1.2389804077148436,0.03210975406903139,0.04129582890655533,0.012655797150274295,3.1098880767822266,2019-06-20 16:14:13:559
-6.364887756347656,-6.7515454101562495,1.2138416748046874,0.03210975406903139,0.04009740641601968,0.012788955204778256,3.1147520542144775,2019-06-20 16:14:13:564
-6.360099426269531,-6.734786254882812,1.2425716552734374,0.03237607017803931,0.03969793225250779,0.013854219640809953,3.1198720932006836,2019-06-20 16:14:13:569
-6.348128601074219,-6.724012512207031,1.2413745727539063,0.03330817655956705,0.03863266781647609,0.013854219640809953,3.1249921321868896,2019-06-20 16:14:13:575
-6.379252746582031,-6.71323876953125,1.2270095825195313,0.033041860450559124,0.04009740641601968,0.014253693804321838,3.1298561096191406,2019-06-20 16:14:13:579
-6.380449829101562,-6.706056274414062,1.268907470703125,0.03237607017803931,0.03983109030701175,0.014120535749817876,3.1349761486053467,2019-06-20 16:14:13:584
-6.352916931152343,-6.700070861816406,1.2653162231445312,0.03250922823254328,0.039564774198003826,0.015984748512873345,3.1398401260375977,2019-06-20 16:14:13:589
-6.363690673828125,-6.728800842285156,1.230600830078125,0.032242912123535354,0.03849950976197213,0.015052642131345608,3.1449601650238037,2019-06-20 16:14:13:594
-6.375661499023438,-6.720421264648437,1.2473599853515625,0.03197659601452743,0.038765825870980056,0.014120535749817876,3.1498241424560547,2019-06-20 16:14:13:599
-6.36847900390625,-6.71323876953125,1.2521483154296875,0.03357449266857497,0.03916530003449194,0.014253693804321838,3.1549441814422607,2019-06-20 16:14:13:604
-6.379252746582031,-6.758727905273437,1.264119140625,0.03357449266857497,0.03916530003449194,0.0143868518588258,3.1598081588745117,2019-06-20 16:14:13:609
-6.396011901855468,-6.749151245117187,1.2365862426757812,0.03210975406903139,0.03916530003449194,0.0143868518588258,3.1649281978607178,2019-06-20 16:14:13:614
-6.351719848632812,-6.7359833374023435,1.21623583984375,0.03290870239605516,0.0392984580889959,0.015452116294857496,3.1697921752929688,2019-06-20 16:14:13:619
-6.340946105957031,-6.724012512207031,1.2605278930664061,0.03344133461407101,0.03903214197998798,0.016117906567377306,3.1749119758605957,2019-06-20 16:14:13:624
-6.345734436035156,-6.758727905273437,1.2377833251953125,0.03290870239605516,0.03903214197998798,0.014786326022337684,3.179776191711426,2019-06-20 16:14:13:629
-6.362493591308594,-6.7515454101562495,1.259330810546875,0.032642386287047236,0.038898983925484014,0.013854219640809953,3.1848959922790527,2019-06-20 16:14:13:634
-6.381646911621093,-6.747954162597656,1.2832724609375,0.03250922823254328,0.037966877543956286,0.014786326022337684,3.1897599697113037,2019-06-20 16:14:13:639
-6.348128601074219,-6.7371804199218746,1.2317979125976561,0.03330817655956705,0.03983109030701175,0.015185800185849573,3.1948800086975098,2019-06-20 16:14:13:644
-6.355311096191406,-6.7359833374023435,1.2126445922851563,0.03424028294109478,0.04049688057953156,0.014653167967833723,3.200000047683716,2019-06-20 16:14:13:650
-6.394814819335937,-6.726406677246094,1.2329949951171875,0.03410712488659082,0.03969793225250779,0.016251064621881268,3.204864025115967,2019-06-20 16:14:13:654
-6.336157775878906,-6.743165832519531,1.230600830078125,0.033707650723078936,0.039964248361515714,0.01771580322142485,3.209984064102173,2019-06-20 16:14:13:660
-6.345734436035156,-6.738377502441406,1.2665133056640625,0.03424028294109478,0.04009740641601968,0.017050012948905038,3.214848041534424,2019-06-20 16:14:13:664
-6.354114013671875,-6.700070861816406,1.27369580078125,0.03397396683208686,0.03943161614349987,0.016251064621881268,3.21996808052063,2019-06-20 16:14:13:669
-6.367281921386718,-6.720421264648437,1.2748928833007813,0.03237607017803931,0.04009740641601968,0.016117906567377306,3.224832057952881,2019-06-20 16:14:13:674
-6.381646911621093,-6.718027099609375,1.2748928833007813,0.03250922823254328,0.039564774198003826,0.017050012948905038,3.229952096939087,2019-06-20 16:14:13:679
-6.344537353515625,-6.726406677246094,1.2413745727539063,0.0327755443415512,0.03863266781647609,0.017183171003409,3.234816074371338,2019-06-20 16:14:13:684
-6.3397490234375,-6.73239208984375,1.2317979125976561,0.033041860450559124,0.038100035598460244,0.01784896127592881,3.239936113357544,2019-06-20 16:14:13:689
-6.3720702514648435,-6.745559997558594,1.2533453979492186,0.03317501850506309,0.03903214197998798,0.017582645166920888,3.244800090789795,2019-06-20 16:14:13:694
-6.381646911621093,-6.731195007324218,1.2701045532226563,0.033707650723078936,0.0392984580889959,0.016117906567377306,3.249920129776001,2019-06-20 16:14:13:699
-6.376858581542969,-6.74196875,1.2449658203125,0.03424028294109478,0.03849950976197213,0.014520009913329761,3.255040168762207,2019-06-20 16:14:13:705
-6.390026489257813,-6.724012512207031,1.2581337280273437,0.033707650723078936,0.03903214197998798,0.014520009913329761,3.259904146194458,2019-06-20 16:14:13:709
-6.392420654296875,-6.706056274414062,1.2461629028320311,0.0327755443415512,0.03916530003449194,0.015185800185849573,3.264768123626709,2019-06-20 16:14:13:714
-6.364887756347656,-6.728800842285156,1.2509512329101562,0.03157712185101554,0.03943161614349987,0.016916854894401076,3.269888162612915,2019-06-20 16:14:13:719
-6.385238159179687,-6.716830017089843,1.2473599853515625,0.03290870239605516,0.037167929216932516,0.015984748512873345,3.274752140045166,2019-06-20 16:14:13:724
-6.3780556640625,-6.69408544921875,1.2317979125976561,0.03197659601452743,0.038765825870980056,0.015452116294857496,3.279872179031372,2019-06-20 16:14:13:729
-6.361296508789063,-6.712041687011719,1.2473599853515625,0.03210975406903139,0.03849950976197213,0.016650538785393153,3.284991979598999,2019-06-20 16:14:13:735
-6.369676086425781,-6.74196875,1.240177490234375,0.032242912123535354,0.03849950976197213,0.01638422267638523,3.289856195449829,2019-06-20 16:14:13:739
-6.385238159179687,-6.71323876953125,1.25454248046875,0.0327755443415512,0.03916530003449194,0.016650538785393153,3.294975996017456,2019-06-20 16:14:13:744
-6.38763232421875,-6.71323876953125,1.2844695434570312,0.03344133461407101,0.039564774198003826,0.015984748512873345,3.299839973449707,2019-06-20 16:14:13:749
-6.376858581542969,-6.695282531738281,1.2796812133789062,0.03290870239605516,0.03903214197998798,0.015452116294857496,3.304960012435913,2019-06-20 16:14:13:754
-6.361296508789063,-6.719224182128906,1.268907470703125,0.0327755443415512,0.03849950976197213,0.016916854894401076,3.309823989868164,2019-06-20 16:14:13:759
-6.388829406738281,-6.727603759765625,1.259330810546875,0.0327755443415512,0.038765825870980056,0.015585274349361458,3.31494402885437,2019-06-20 16:14:13:764
-6.3864352416992185,-6.714435852050781,1.2270095825195313,0.033041860450559124,0.03836635170746817,0.01638422267638523,3.319808006286621,2019-06-20 16:14:13:769
-6.384041076660156,-6.718027099609375,1.2581337280273437,0.033041860450559124,0.0375674033804444,0.016251064621881268,3.324928045272827,2019-06-20 16:14:13:774
-6.403194396972656,-6.702465026855468,1.2569366455078124,0.033041860450559124,0.038100035598460244,0.015984748512873345,3.329792022705078,2019-06-20 16:14:13:779
-6.374464416503906,-6.716830017089843,1.2569366455078124,0.03237607017803931,0.04009740641601968,0.015851590458369383,3.334912061691284,2019-06-20 16:14:13:784
-6.384041076660156,-6.709647521972656,1.2509512329101562,0.03197659601452743,0.038898983925484014,0.01651738073088919,3.339776039123535,2019-06-20 16:14:13:789
-6.362493591308594,-6.726406677246094,1.240177490234375,0.03091133157849573,0.03863266781647609,0.015052642131345608,3.344896078109741,2019-06-20 16:14:13:794
-6.390026489257813,-6.715632934570312,1.2329949951171875,0.031443963796511584,0.03770056143494836,0.014253693804321838,3.349760055541992,2019-06-20 16:14:13:799
-6.38763232421875,-6.697676696777344,1.2246154174804686,0.03250922823254328,0.03743424532594044,0.015452116294857496,3.3548800945281982,2019-06-20 16:14:13:804
-6.360099426269531,-6.709647521972656,1.2282066650390624,0.031843437960023466,0.037966877543956286,0.01571843240386542,3.3600001335144043,2019-06-20 16:14:13:810
-6.394814819335937,-6.728800842285156,1.240177490234375,0.031443963796511584,0.03863266781647609,0.014919484076841646,3.3648641109466553,2019-06-20 16:14:13:814
-6.379252746582031,-6.719224182128906,1.2425716552734374,0.03210975406903139,0.038765825870980056,0.014120535749817876,3.3699841499328613,2019-06-20 16:14:13:820
-6.397208984375,-6.729997924804687,1.2533453979492186,0.03250922823254328,0.03849950976197213,0.014919484076841646,3.3748481273651123,2019-06-20 16:14:13:824
-6.398406066894531,-6.701267944335937,1.2497541503906249,0.03237607017803931,0.03849950976197213,0.013721061586305991,3.3799681663513184,2019-06-20 16:14:13:829
-6.390026489257813,-6.731195007324218,1.2713016357421876,0.0327755443415512,0.039564774198003826,0.014520009913329761,3.3848321437835693,2019-06-20 16:14:13:834
-6.394814819335937,-6.726406677246094,1.2521483154296875,0.03250922823254328,0.03943161614349987,0.014919484076841646,3.3899521827697754,2019-06-20 16:14:13:839
-6.345734436035156,-6.743165832519531,1.2258125,0.03157712185101554,0.03849950976197213,0.015452116294857496,3.3948161602020264,2019-06-20 16:14:13:844
-6.374464416503906,-6.7228154296875,1.2605278930664061,0.03171027990551951,0.038765825870980056,0.01358790353180203,3.3999361991882324,2019-06-20 16:14:13:849
-6.375661499023438,-6.706056274414062,1.2413745727539063,0.031843437960023466,0.03916530003449194,0.015052642131345608,3.4048001766204834,2019-06-20 16:14:13:854
-6.370873168945312,-6.743165832519531,1.2329949951171875,0.03077817352399177,0.038765825870980056,0.015585274349361458,3.4099199771881104,2019-06-20 16:14:13:859
-6.3577052612304685,-6.7371804199218746,1.2497541503906249,0.032242912123535354,0.03969793225250779,0.015052642131345608,3.4147841930389404,2019-06-20 16:14:13:864
-6.3720702514648435,-6.7371804199218746,1.2569366455078124,0.03237607017803931,0.03943161614349987,0.015052642131345608,3.4199039936065674,2019-06-20 16:14:13:869
-6.373267333984375,-6.744362915039062,1.268907470703125,0.03290870239605516,0.0392984580889959,0.014253693804321838,3.4247679710388184,2019-06-20 16:14:13:874
-6.369676086425781,-6.740771667480469,1.2485570678710938,0.033041860450559124,0.039564774198003826,0.014520009913329761,3.4298880100250244,2019-06-20 16:14:13:879
-6.376858581542969,-6.743165832519531,1.2665133056640625,0.0327755443415512,0.0403637225250276,0.016251064621881268,3.4347519874572754,2019-06-20 16:14:13:884
-6.370873168945312,-6.764713317871093,1.2485570678710938,0.03290870239605516,0.040763196688539484,0.015452116294857496,3.4398720264434814,2019-06-20 16:14:13:889
-6.338551940917968,-6.739574584960938,1.2748928833007813,0.03330817655956705,0.0392984580889959,0.015851590458369383,3.4449920654296875,2019-06-20 16:14:13:895
-6.376858581542969,-6.724012512207031,1.2581337280273437,0.033041860450559124,0.03849950976197213,0.015452116294857496,3.4498560428619385,2019-06-20 16:14:13:899
-6.361296508789063,-6.729997924804687,1.2605278930664061,0.03210975406903139,0.0392984580889959,0.015185800185849573,3.4549760818481445,2019-06-20 16:14:13:904
-6.375661499023438,-6.734786254882812,1.268907470703125,0.03157712185101554,0.03849950976197213,0.014786326022337684,3.4598400592803955,2019-06-20 16:14:13:909
-6.384041076660156,-6.746757080078125,1.2521483154296875,0.03171027990551951,0.03903214197998798,0.015452116294857496,3.4649600982666016,2019-06-20 16:14:13:914
-6.336157775878906,-6.739574584960938,1.2270095825195313,0.032642386287047236,0.038898983925484014,0.015851590458369383,3.4698240756988525,2019-06-20 16:14:13:919
-6.354114013671875,-6.71323876953125,1.259330810546875,0.032242912123535354,0.0375674033804444,0.015984748512873345,3.4749441146850586,2019-06-20 16:14:13:924
-6.348128601074219,-6.710844604492188,1.2796812133789062,0.03250922823254328,0.0375674033804444,0.015851590458369383,3.4798080921173096,2019-06-20 16:14:13:929
-6.381646911621093,-6.7515454101562495,1.2665133056640625,0.032242912123535354,0.03823319365296421,0.014919484076841646,3.4849281311035156,2019-06-20 16:14:13:934
-6.350522766113281,-6.745559997558594,1.259330810546875,0.03317501850506309,0.03943161614349987,0.01638422267638523,3.4897921085357666,2019-06-20 16:14:13:939
-6.369676086425781,-6.729997924804687,1.297637451171875,0.03330817655956705,0.038765825870980056,0.015318958240353535,3.4949121475219727,2019-06-20 16:14:13:944
-6.350522766113281,-6.7515454101562495,1.3012286987304686,0.032642386287047236,0.04009740641601968,0.016251064621881268,3.4997761249542236,2019-06-20 16:14:13:949
-6.3577052612304685,-6.757530822753906,1.2497541503906249,0.03397396683208686,0.03969793225250779,0.016783696839897114,3.5048961639404297,2019-06-20 16:14:13:954
-6.399603149414062,-6.749151245117187,1.307214111328125,0.03250922823254328,0.03943161614349987,0.016783696839897114,3.5097601413726807,2019-06-20 16:14:13:959
-6.360099426269531,-6.750348327636718,1.3383382568359374,0.03171027990551951,0.0392984580889959,0.018381593493944658,3.5148801803588867,2019-06-20 16:14:13:964
-6.370873168945312,-6.749151245117187,1.2437687377929687,0.03237607017803931,0.03943161614349987,0.018914225711960504,3.5199999809265137,2019-06-20 16:14:13:970
-6.374464416503906,-6.757530822753906,1.2820753784179688,0.0327755443415512,0.03983109030701175,0.017982119330432773,3.5248641967773438,2019-06-20 16:14:13:974
-6.382843994140625,-6.758727905273437,1.2521483154296875,0.03317501850506309,0.039564774198003826,0.017183171003409,3.5299839973449707,2019-06-20 16:14:13:980
-6.362493591308594,-6.74196875,1.264119140625,0.03397396683208686,0.0392984580889959,0.01651738073088919,3.5348479747772217,2019-06-20 16:14:13:984
-6.370873168945312,-6.7359833374023435,1.2234183349609375,0.03330817655956705,0.04116267085205137,0.01771580322142485,3.5399680137634277,2019-06-20 16:14:13:989
-6.3720702514648435,-6.729997924804687,1.2258125,0.033041860450559124,0.038765825870980056,0.018248435439440696,3.5448319911956787,2019-06-20 16:14:13:994
-6.3720702514648435,-6.725209594726563,1.2557395629882813,0.03357449266857497,0.039564774198003826,0.017316329057912964,3.5499520301818848,2019-06-20 16:14:13:999
-6.352916931152343,-6.7359833374023435,1.264119140625,0.03250922823254328,0.039964248361515714,0.015585274349361458,3.5548160076141357,2019-06-20 16:14:14:004
-6.369676086425781,-6.733589172363281,1.2521483154296875,0.0327755443415512,0.03916530003449194,0.016783696839897114,3.559936046600342,2019-06-20 16:14:14:009
-6.394814819335937,-6.729997924804687,1.2653162231445312,0.03357449266857497,0.03983109030701175,0.016783696839897114,3.5648000240325928,2019-06-20 16:14:14:014
-6.380449829101562,-6.708450439453125,1.3060170288085937,0.03317501850506309,0.03916530003449194,0.017050012948905038,3.569920063018799,2019-06-20 16:14:14:019
-6.3720702514648435,-6.718027099609375,1.2772870483398437,0.03477291515911063,0.03916530003449194,0.018115277384936734,3.57478404045105,2019-06-20 16:14:14:024
-6.363690673828125,-6.7072533569335935,1.2605278930664061,0.03517238932262252,0.03969793225250779,0.016251064621881268,3.579904079437256,2019-06-20 16:14:14:029
-6.3780556640625,-6.715632934570312,1.2677103881835938,0.03397396683208686,0.03903214197998798,0.016783696839897114,3.584768056869507,2019-06-20 16:14:14:034
-6.375661499023438,-6.710844604492188,1.268907470703125,0.03344133461407101,0.03849950976197213,0.017582645166920888,3.589888095855713,2019-06-20 16:14:14:039
-6.393617736816406,-6.69408544921875,1.2988345336914062,0.03290870239605516,0.038898983925484014,0.016650538785393153,3.594752073287964,2019-06-20 16:14:14:044
-6.38763232421875,-6.716830017089843,1.2760899658203124,0.03410712488659082,0.038100035598460244,0.016650538785393153,3.59987211227417,2019-06-20 16:14:14:049
-6.4008002319335935,-6.716830017089843,1.2665133056640625,0.03410712488659082,0.038100035598460244,0.016650538785393153,3.604992151260376,2019-06-20 16:14:14:055
-6.393617736816406,-6.7216183471679685,1.2748928833007813,0.033840808777582894,0.03836635170746817,0.014919484076841646,3.609856128692627,2019-06-20 16:14:14:059
-6.363690673828125,-6.706056274414062,1.2605278930664061,0.03250922823254328,0.038898983925484014,0.015185800185849573,3.614976167678833,2019-06-20 16:14:14:064
-6.352916931152343,-6.715632934570312,1.2892578735351563,0.03330817655956705,0.038765825870980056,0.014919484076841646,3.619840145111084,2019-06-20 16:14:14:069
-6.381646911621093,-6.719224182128906,1.2509512329101562,0.03397396683208686,0.03836635170746817,0.015052642131345608,3.62496018409729,2019-06-20 16:14:14:074
-6.4008002319335935,-6.7072533569335935,1.240177490234375,0.033041860450559124,0.038765825870980056,0.015851590458369383,3.629824161529541,2019-06-20 16:14:14:079
-6.382843994140625,-6.719224182128906,1.29284912109375,0.03330817655956705,0.03983109030701175,0.01638422267638523,3.634943962097168,2019-06-20 16:14:14:084
-6.379252746582031,-6.695282531738281,1.2449658203125,0.033840808777582894,0.03916530003449194,0.01571843240386542,3.639808177947998,2019-06-20 16:14:14:089
-6.394814819335937,-6.712041687011719,1.2473599853515625,0.033707650723078936,0.038898983925484014,0.016117906567377306,3.644927978515625,2019-06-20 16:14:14:094
-6.384041076660156,-6.7072533569335935,1.264119140625,0.033041860450559124,0.03943161614349987,0.014786326022337684,3.649792194366455,2019-06-20 16:14:14:099
-6.36847900390625,-6.718027099609375,1.2353891601562499,0.03197659601452743,0.0392984580889959,0.015185800185849573,3.654911994934082,2019-06-20 16:14:14:104
-6.362493591308594,-6.7228154296875,1.2557395629882813,0.03210975406903139,0.03969793225250779,0.015452116294857496,3.659775972366333,2019-06-20 16:14:14:109
-6.392420654296875,-6.715632934570312,1.2713016357421876,0.03357449266857497,0.03903214197998798,0.015185800185849573,3.664896011352539,2019-06-20 16:14:14:114
-6.379252746582031,-6.738377502441406,1.2677103881835938,0.03397396683208686,0.038765825870980056,0.015452116294857496,3.66975998878479,2019-06-20 16:14:14:119
-6.3780556640625,-6.719224182128906,1.2425716552734374,0.03357449266857497,0.04009740641601968,0.015318958240353535,3.674880027770996,2019-06-20 16:14:14:124
-6.362493591308594,-6.706056274414062,1.2569366455078124,0.03250922823254328,0.03916530003449194,0.0143868518588258,3.680000066757202,2019-06-20 16:14:14:130
-6.361296508789063,-6.716830017089843,1.2521483154296875,0.03197659601452743,0.03863266781647609,0.014919484076841646,3.684864044189453,2019-06-20 16:14:14:134
-6.3780556640625,-6.712041687011719,1.2485570678710938,0.031843437960023466,0.038898983925484014,0.014120535749817876,3.689984083175659,2019-06-20 16:14:14:140
-6.384041076660156,-6.716830017089843,1.2473599853515625,0.0327755443415512,0.03836635170746817,0.014653167967833723,3.69484806060791,2019-06-20 16:14:14:144
-6.3780556640625,-6.728800842285156,1.2677103881835938,0.03250922823254328,0.0392984580889959,0.013321587422794106,3.699968099594116,2019-06-20 16:14:14:149
-6.381646911621093,-6.729997924804687,1.264119140625,0.031843437960023466,0.03903214197998798,0.014653167967833723,3.704832077026367,2019-06-20 16:14:14:154
