ACCELEROMETER X (m/s²),ACCELEROMETER Y (m/s²),ACCELEROMETER Z (m/s²),GYROSCOPE X (rad/s),GYROSCOPE Y (rad/s),GYROSCOPE Z (rad/s),Time since start in ms ,YYYY-MO-DD HH-MI-SS_SSS
9.326469909667969,2.4851433105468748,0.6943078613281249,0.037036456444055864,0.030773854209598796,-0.022240761504227068,0.0,2019-06-21 13:10:31:426
9.338440734863282,2.489931640625,0.66078955078125,0.03756908866207172,0.030507538100590873,-0.023572342049266684,0.0048639774322509766,2019-06-21 13:10:31:431
9.302528259277343,2.481552062988281,0.6835341186523437,0.037036456444055864,0.029974905882575027,-0.025569712866826116,0.009984016418457031,2019-06-21 13:10:31:436
9.315696166992188,2.5030995483398435,0.6871253662109374,0.035438559790008324,0.02944227366455918,-0.026368661193849886,0.014847993850708008,2019-06-21 13:10:31:441
9.342031982421874,2.5090849609375,0.6595924682617187,0.036104350062528136,0.029175957555551257,-0.028366032011409317,0.01996779441833496,2019-06-21 13:10:31:446
9.336046569824218,2.5126762084960936,0.6691691284179687,0.03490592549139788,0.028377009228527487,-0.032360773646528174,0.02483201026916504,2019-06-21 13:10:31:451
9.356396972656249,2.510282043457031,0.6476216430664062,0.0341069771643741,0.027578060901503717,-0.03409182835507967,0.029951810836791992,2019-06-21 13:10:31:456
9.338440734863282,2.5030995483398435,0.6931107788085937,0.03250908051032656,0.027977535065015602,-0.03489077668210345,0.03507184982299805,2019-06-21 13:10:31:461
9.328864074707031,2.5019024658203124,0.665577880859375,0.030378551638263168,0.028243851174023525,-0.03582288306363118,0.03993582725524902,2019-06-21 13:10:31:466
9.333652404785155,2.5258441162109375,0.651212890625,0.029979077474751283,0.027578060901503717,-0.037021305554166835,0.04505586624145508,2019-06-21 13:10:31:471
9.324075744628907,2.5306324462890624,0.636847900390625,0.029180129147727513,0.028243851174023525,-0.03861920220821438,0.049919843673706055,2019-06-21 13:10:31:476
9.330061157226563,2.5473916015625,0.598541259765625,0.027315916384672043,0.026113322301960132,-0.04061657302577381,0.05503988265991211,2019-06-21 13:10:31:481
9.326469909667969,2.5593624267578123,0.6212858276367187,0.02691644222116016,0.02664595451997598,-0.041282363298293615,0.059903860092163086,2019-06-21 13:10:31:486
9.315696166992188,2.5677420043945314,0.6212858276367187,0.027449074439176012,0.027045428683487863,-0.042214469679821356,0.06502389907836914,2019-06-21 13:10:31:491
9.321681579589843,2.5641507568359376,0.6344537353515625,0.02625065194864035,0.026512796465472017,-0.043945524388372854,0.06988787651062012,2019-06-21 13:10:31:496
9.298937011718749,2.5785157470703126,0.6392420654296875,0.025584861676120542,0.026246480356464093,-0.045010788824404555,0.07500791549682617,2019-06-21 13:10:31:501
9.336046569824218,2.560559509277344,0.6787457885742187,0.024919071403600734,0.026379638410968055,-0.04594289520593229,0.07987189292907715,2019-06-21 13:10:31:506
9.296542846679687,2.5581653442382812,0.6943078613281249,0.02465275529459281,0.02598016424745617,-0.045010788824404555,0.0849919319152832,2019-06-21 13:10:31:511
9.308513671875,2.5677420043945314,0.6440303955078125,0.024919071403600734,0.02584700619295221,-0.04541026298791644,0.08985590934753418,2019-06-21 13:10:31:516
9.303725341796875,2.574924499511719,0.6571983032226563,0.025584861676120542,0.02677911257447994,-0.04620921131494021,0.09497594833374023,2019-06-21 13:10:31:521
9.302528259277343,2.586895324707031,0.6679720458984375,0.025185387512608657,0.027311744792495794,-0.04674184353295606,0.09983992576599121,2019-06-21 13:10:31:526
9.300134094238281,2.603654479980469,0.665577880859375,0.024919071403600734,0.02664595451997598,-0.046608685478452094,0.10495996475219727,2019-06-21 13:10:31:531
9.296542846679687,2.57612158203125,0.651212890625,0.02545170362161658,0.02677911257447994,-0.04634236936944417,0.10982394218444824,2019-06-21 13:10:31:536
9.31809033203125,2.6072457275390626,0.6691691284179687,0.02545170362161658,0.027311744792495794,-0.04714131769646794,0.1149439811706543,2019-06-21 13:10:31:541
9.320484497070312,2.590486572265625,0.6536070556640625,0.02545170362161658,0.02864332533753541,-0.04700815964196398,0.12006402015686035,2019-06-21 13:10:31:546
9.308513671875,2.601260314941406,0.6631837158203124,0.025718019730624504,0.02784437701051164,-0.04607605326043625,0.12492799758911133,2019-06-21 13:10:31:551
9.282177856445312,2.6311873779296873,0.6679720458984375,0.02625065194864035,0.027977535065015602,-0.04634236936944417,0.13004779815673828,2019-06-21 13:10:31:556
9.306119506835937,2.6515377807617186,0.66078955078125,0.026516968057648273,0.028243851174023525,-0.04754079185997983,0.13491201400756836,2019-06-21 13:10:31:561
9.297739929199219,2.6539319458007813,0.6679720458984375,0.02691644222116016,0.029042799501047295,-0.046608685478452094,0.1400318145751953,2019-06-21 13:10:31:566
9.308513671875,2.6515377807617186,0.6428333129882813,0.02625065194864035,0.029974905882575027,-0.0455434210424204,0.1448957920074463,2019-06-21 13:10:31:571
9.294148681640625,2.6623115234375,0.6296654052734375,0.02718275833016808,0.029974905882575027,-0.04527710493341248,0.15001583099365234,2019-06-21 13:10:31:576
9.284572021484374,2.6539319458007813,0.675154541015625,0.026783284166656197,0.02944227366455918,-0.043945524388372854,0.15487980842590332,2019-06-21 13:10:31:581
9.27978369140625,2.6659027709960936,0.6212858276367187,0.027715390548183935,0.029042799501047295,-0.042214469679821356,0.15999984741210938,2019-06-21 13:10:31:586
9.297739929199219,2.67188818359375,0.6284683227539062,0.027715390548183935,0.029841747828071065,-0.041149205243789656,0.16486382484436035,2019-06-21 13:10:31:591
9.278586608886718,2.676676513671875,0.6775487060546875,0.02878065498421563,0.02944227366455918,-0.039684466644246075,0.1699838638305664,2019-06-21 13:10:31:596
9.280980773925782,2.6659027709960936,0.6859282836914062,0.0295796033112394,0.02957543171906314,-0.03848604415371042,0.17484784126281738,2019-06-21 13:10:31:601
9.278586608886718,2.6934356689453125,0.6907166137695312,0.030778025801775053,0.029974905882575027,-0.037820253881190605,0.17996788024902344,2019-06-21 13:10:31:606
9.252250793457032,2.6970269165039062,0.6931107788085937,0.03064486774727109,0.028909641446543333,-0.036222357227143065,0.18483185768127441,2019-06-21 13:10:31:611
9.277389526367188,2.6814648437499997,0.6763516235351562,0.03210960634681467,0.029841747828071065,-0.03489077668210345,0.18995189666748047,2019-06-21 13:10:31:616
9.291754516601562,2.6934356689453125,0.6548041381835937,0.031976448292310715,0.029708589773567103,-0.03382551224607175,0.19507193565368652,2019-06-21 13:10:31:621
9.296542846679687,2.719771484375,0.69909619140625,0.032775396619334485,0.03037438004608691,-0.03209445753752025,0.1999359130859375,2019-06-21 13:10:31:626
9.269009948730469,2.7185744018554687,0.67994287109375,0.03317487078284637,0.031040170318606727,-0.029697612556448934,0.20505595207214355,2019-06-21 13:10:31:631
9.271404113769531,2.756881042480469,0.6392420654296875,0.03397381910987014,0.030907012264102765,-0.02743392562988158,0.20991992950439453,2019-06-21 13:10:31:636
9.243871215820313,2.7700489501953123,0.6404391479492187,0.034639609382389955,0.03037438004608691,-0.025436554812322154,0.21503996849060059,2019-06-21 13:10:31:641
9.247462463378906,2.7796256103515624,0.6775487060546875,0.03570487589901625,0.030640696155094835,-0.02170812928621122,0.21990394592285156,2019-06-21 13:10:31:646
9.258236206054688,2.802370178222656,0.6524099731445312,0.03450645132788599,0.030907012264102765,-0.01957760041414783,0.22502398490905762,2019-06-21 13:10:31:651
9.276192443847656,2.754486877441406,0.5829791870117187,0.03450645132788599,0.03117332837311069,-0.017180755433076515,0.2298879623413086,2019-06-21 13:10:31:656
9.280980773925782,2.758078125,0.6212858276367187,0.0341069771643741,0.031705960591126535,-0.014517594342997276,0.23500800132751465,2019-06-21 13:10:31:661
9.267812866210937,2.762866455078125,0.646424560546875,0.03370750300086222,0.03197227670013446,-0.01212074936192596,0.23987197875976562,2019-06-21 13:10:31:666
9.259433288574218,2.758078125,0.684731201171875,0.0341069771643741,0.03263806697265426,-0.009590746326350685,0.24499201774597168,2019-06-21 13:10:31:671
9.265418701171875,2.754486877441406,0.6296654052734375,0.034240135218878066,0.03317069919067011,-0.0077265335632952185,0.24985599517822266,2019-06-21 13:10:31:676
9.277389526367188,2.7113919067382812,0.6021325073242187,0.03490592549139788,0.03303754113616615,-0.006128636909247675,0.2549757957458496,2019-06-21 13:10:31:681
9.237885803222657,2.6982239990234373,0.64163623046875,0.03450645132788599,0.032504908918150305,-0.0037317919281763612,0.2598400115966797,2019-06-21 13:10:31:686
9.27020703125,2.6647056884765625,0.6727603759765625,0.03384066105536618,0.033303857245174075,-0.0024002113831367426,0.26495981216430664,2019-06-21 13:10:31:691
9.297739929199219,2.677873596191406,0.6835341186523437,0.034240135218878066,0.03343701529967803,-0.0014681050016090093,0.2698237895965576,2019-06-21 13:10:31:696
9.283374938964844,2.6527348632812497,0.6691691284179687,0.0341069771643741,0.03263806697265426,-0.0009354727835931616,0.27494382858276367,2019-06-21 13:10:31:701
9.308513671875,2.6311873779296873,0.6775487060546875,0.03503908562649644,0.03383648946318992,0.0005292658159504193,0.2800638675689697,2019-06-21 13:10:31:706
9.29055743408203,2.6311873779296873,0.6440303955078125,0.0351722436810004,0.03423596362670181,0.00039610776144645746,0.2849278450012207,2019-06-21 13:10:31:711
9.274995361328125,2.615625305175781,0.6200887451171875,0.034639609382389955,0.03423596362670181,0.00026294970694249554,0.29004788398742676,2019-06-21 13:10:31:716
9.310907836914062,2.5940778198242187,0.6332566528320313,0.03477276743689391,0.03343701529967803,-0.0010686308380971235,0.29491186141967773,2019-06-21 13:10:31:721
9.300134094238281,2.5737274169921873,0.6739574584960938,0.034373293273382025,0.03277122502715823,-0.0006691566745852378,0.3000319004058838,2019-06-21 13:10:31:726
9.310907836914062,2.5533770141601564,0.684731201171875,0.03490592549139788,0.031705960591126535,-0.001734421110616933,0.30489587783813477,2019-06-21 13:10:31:731
9.34801739501953,2.566544921875,0.6859282836914062,0.03503908562649644,0.03197227670013446,-0.0018675791651208951,0.3100159168243408,2019-06-21 13:10:31:736
9.344426147460938,2.571333251953125,0.6440303955078125,0.0341069771643741,0.03263806697265426,-0.0025333694376407047,0.3148798942565918,2019-06-21 13:10:31:741
9.31809033203125,2.603654479980469,0.6739574584960938,0.03370750300086222,0.032105434754638416,-0.002799685546648628,0.31999993324279785,2019-06-21 13:10:31:746
9.314499084472656,2.6228078002929687,0.627271240234375,0.03384066105536618,0.031306486427614647,-0.0037317919281763612,0.32486391067504883,2019-06-21 13:10:31:751
9.301331176757813,2.5964719848632813,0.6476216430664062,0.033574344946358255,0.031306486427614647,-0.0053296885822239045,0.3299839496612549,2019-06-21 13:10:31:756
9.296542846679687,2.5964719848632813,0.6571983032226563,0.034240135218878066,0.031705960591126535,-0.004930214418712019,0.33484792709350586,2019-06-21 13:10:31:761
9.296542846679687,2.5940778198242187,0.6524099731445312,0.03370750300086222,0.03157280253662257,-0.004397582200696171,0.3399679660797119,2019-06-21 13:10:31:766
9.272601196289063,2.606048645019531,0.5949500122070313,0.034240135218878066,0.03303754113616615,-0.004797056364208057,0.3448319435119629,2019-06-21 13:10:31:771
9.274995361328125,2.619216552734375,0.67994287109375,0.034373293273382025,0.032504908918150305,-0.0046638983097040945,0.34995198249816895,2019-06-21 13:10:31:776
9.254644958496094,2.658720275878906,0.6859282836914062,0.033441186891854296,0.03263806697265426,-0.0033323177646644763,0.3550717830657959,2019-06-21 13:10:31:781
9.249856628417968,2.6359757080078126,0.7290232543945312,0.03450645132788599,0.033969647517693886,-0.0024002113831367426,0.359935998916626,2019-06-21 13:10:31:786
9.245068298339843,2.6682969360351563,0.7098699340820313,0.033574344946358255,0.03343701529967803,-0.0008023147290891998,0.36505579948425293,2019-06-21 13:10:31:791
9.2127470703125,2.676676513671875,0.6955049438476563,0.034240135218878066,0.033570173354182,0.0015945302519821147,0.369920015335083,2019-06-21 13:10:31:796
9.236688720703125,2.7066035766601564,0.6907166137695312,0.035438559790008324,0.03383648946318992,0.0029261107970217333,0.37503981590270996,2019-06-21 13:10:31:801
9.266615783691407,2.705406494140625,0.7086728515625,0.036104350062528136,0.033969647517693886,0.005855587996108896,0.37990379333496094,2019-06-21 13:10:31:806
9.265418701171875,2.7113919067382812,0.6919136962890625,0.03570487589901625,0.034102805572197845,0.005722429941604934,0.385023832321167,2019-06-21 13:10:31:811
9.257039123535156,2.6838590087890624,0.6679720458984375,0.03503908562649644,0.03423596362670181,0.008785065195196057,0.38988780975341797,2019-06-21 13:10:31:816
9.272601196289063,2.6898444213867188,0.6093150024414062,0.03477276743689391,0.03503491195372558,0.010516119903747562,0.395007848739624,2019-06-21 13:10:31:821
9.322878662109375,2.7089977416992186,0.560234619140625,0.03317487078284637,0.03503491195372558,0.012380332666803029,0.399871826171875,2019-06-21 13:10:31:826
9.322878662109375,2.7113919067382812,0.6296654052734375,0.03290855467383845,0.034768595844717656,0.01384507126634661,0.40499186515808105,2019-06-21 13:10:31:831
9.330061157226563,2.6395669555664063,0.6021325073242187,0.03264223856483052,0.035168070008229545,0.016907706519937733,0.40985584259033203,2019-06-21 13:10:31:836
9.362382385253905,2.5940778198242187,0.608117919921875,0.03210960634681467,0.03450227973570973,0.015576125974898115,0.4149758815765381,2019-06-21 13:10:31:841
9.3659736328125,2.5689390869140625,0.6667749633789062,0.032375922455822596,0.03450227973570973,0.016907706519937733,0.41983985900878906,2019-06-21 13:10:31:846
9.359988220214843,2.533026611328125,0.64163623046875,0.03210960634681467,0.03490175389922162,0.01664139041092981,0.4249598979949951,2019-06-21 13:10:31:851
9.377944458007812,2.5007053833007813,0.6871253662109374,0.031044341910782983,0.03383648946318992,0.014777177647874342,0.4298238754272461,2019-06-21 13:10:31:856
9.39470361328125,2.4600045776367185,0.7218407592773437,0.03184329023780675,0.033303857245174075,0.013312439048330764,0.43494391441345215,2019-06-21 13:10:31:861
9.39350653076172,2.4121212768554687,0.7242349243164062,0.032375922455822596,0.032504908918150305,0.01171454239428322,0.4400639533996582,2019-06-21 13:10:31:866
9.379141540527344,2.3905737915039063,0.6488187255859375,0.032375922455822596,0.03117332837311069,0.007852958813668324,0.4449279308319092,2019-06-21 13:10:31:871
9.389915283203125,2.3582525634765625,0.6715632934570313,0.03503908562649644,0.029708589773567103,0.003725059124045505,0.45004796981811523,2019-06-21 13:10:31:876
9.397097778320312,2.3295225830078126,0.742191162109375,0.03490592549139788,0.03037438004608691,-0.0002696825110733521,0.4549119472503662,2019-06-21 13:10:31:881
9.400689025878906,2.370223388671875,0.6859282836914062,0.03477276743689391,0.030640696155094835,-0.003465475819168438,0.46003198623657227,2019-06-21 13:10:31:886
9.361185302734375,2.341493408203125,0.6919136962890625,0.035438559790008324,0.02957543171906314,-0.00852548189031899,0.46489596366882324,2019-06-21 13:10:31:891
9.36477655029297,2.3343109130859374,0.6883224487304688,0.035438559790008324,0.02877648339203937,-0.012253907416429925,0.4700160026550293,2019-06-21 13:10:31:896
9.37674737548828,2.3486759033203124,0.6955049438476563,0.035305401735504366,0.027977535065015602,-0.016648123215060668,0.4748799800872803,2019-06-21 13:10:31:901
9.37674737548828,2.3558583984375,0.67994287109375,0.03650382422604002,0.027977535065015602,-0.021175497068195374,0.48000001907348633,2019-06-21 13:10:31:906
9.327666992187499,2.357055480957031,0.6955049438476563,0.036237508117032094,0.027578060901503717,-0.02503708064881027,0.4848639965057373,2019-06-21 13:10:31:911
9.343229064941406,2.4001504516601564,0.703884521484375,0.03477276743689391,0.026246480356464093,-0.028898664229425164,0.48998379707336426,2019-06-21 13:10:31:916
9.370761962890624,2.4193037719726562,0.6595924682617187,0.03503908562649644,0.025314373974936362,-0.03209445753752025,0.49484801292419434,2019-06-21 13:10:31:921
9.340834899902344,2.4743695678710935,0.646424560546875,0.03384066105536618,0.024515425647912592,-0.03489077668210345,0.4999678134918213,2019-06-21 13:10:31:926
9.333652404785155,2.5138732910156247,0.627271240234375,0.03397381910987014,0.02438226759340863,-0.03688814749966288,0.5048317909240723,2019-06-21 13:10:31:931
9.330061157226563,2.524647033691406,0.6344537353515625,0.03384066105536618,0.0251812159204324,-0.03848604415371042,0.5099518299102783,2019-06-21 13:10:31:936
9.340834899902344,2.5150703735351563,0.6284683227539062,0.03210960634681467,0.02424910953890467,-0.03981762469875004,0.5150718688964844,2019-06-21 13:10:31:941
9.367170715332032,2.531829528808594,0.6488187255859375,0.031044341910782983,0.024648583702416554,-0.04074973108027777,0.5199358463287354,2019-06-21 13:10:31:946
9.340834899902344,2.5438003540039062,0.6164974975585937,0.029979077474751283,0.026246480356464093,-0.04261394384333324,0.5250558853149414,2019-06-21 13:10:31:951
9.326469909667969,2.571333251953125,0.6260741577148438,0.028514338875207705,0.026512796465472017,-0.04354605022486097,0.5299198627471924,2019-06-21 13:10:31:956
9.326469909667969,2.55696826171875,0.6057237548828125,0.02718275833016808,0.026113322301960132,-0.04421184049738078,0.5350399017333984,2019-06-21 13:10:31:961
9.327666992187499,2.5797128295898437,0.6320595703125,0.02545170362161658,0.026379638410968055,-0.04474447271539663,0.5399038791656494,2019-06-21 13:10:31:966
9.31928741455078,2.5258441162109375,0.6069208374023437,0.024785913349096772,0.026246480356464093,-0.045010788824404555,0.5450239181518555,2019-06-21 13:10:31:971
9.330061157226563,2.52823828125,0.6248770751953124,0.02451959724008885,0.026512796465472017,-0.04514394687890852,0.5498878955841064,2019-06-21 13:10:31:976
9.321681579589843,2.524647033691406,0.6188916625976563,0.023054858640545264,0.027444902846999755,-0.04634236936944417,0.5550079345703125,2019-06-21 13:10:31:981
9.313302001953124,2.5150703735351563,0.6763516235351562,0.021723278095505647,0.02851016728303145,-0.048073424077995676,0.5598719120025635,2019-06-21 13:10:31:986
9.320484497070312,2.493522888183594,0.6619866333007812,0.02278854253153734,0.028377009228527487,-0.04940500462303529,0.5649919509887695,2019-06-21 13:10:31:991
9.300134094238281,2.5150703735351563,0.684731201171875,0.022921700586041302,0.027178586737991825,-0.051002901277082846,0.5698559284210205,2019-06-21 13:10:31:996
9.286966186523438,2.52823828125,0.6763516235351562,0.023321174749553187,0.02864332533753541,-0.05233448182212246,0.5749759674072266,2019-06-21 13:10:32:001
9.298937011718749,2.5007053833007813,0.6703662109374999,0.02358749085856111,0.028377009228527487,-0.05366606236716208,0.5798399448394775,2019-06-21 13:10:32:006
9.286966186523438,2.493522888183594,0.6715632934570313,0.023720648913065072,0.027311744792495794,-0.05486448485769773,0.5849599838256836,2019-06-21 13:10:32:011
9.304922424316405,2.5019024658203124,0.703884521484375,0.024120123076576964,0.027178586737991825,-0.05752764594777697,0.5898239612579346,2019-06-21 13:10:32:016
9.313302001953124,2.5306324462890624,0.6955049438476563,0.02611749389413639,0.02677911257447994,-0.05845975232930471,0.5949440002441406,2019-06-21 13:10:32:021
9.324075744628907,2.5473916015625,0.6835341186523437,0.027315916384672043,0.026512796465472017,-0.06045712314686413,0.6000638008117676,2019-06-21 13:10:32:026
9.309710754394532,2.5473916015625,0.6811399536132813,0.027582232493679974,0.028909641446543333,-0.06218817785541564,0.6049280166625977,2019-06-21 13:10:32:031
9.309710754394532,2.5833040771484375,0.66078955078125,0.02718275833016808,0.028909641446543333,-0.062321335909919603,0.6100478172302246,2019-06-21 13:10:32:036
9.321681579589843,2.589289489746094,0.6404391479492187,0.02811486471169582,0.02864332533753541,-0.061921861746407715,0.6149117946624756,2019-06-21 13:10:32:041
9.316893249511718,2.61442822265625,0.6691691284179687,0.029180129147727513,0.029042799501047295,-0.061921861746407715,0.6200318336486816,2019-06-21 13:10:32:046
9.308513671875,2.6084428100585937,0.6548041381835937,0.0295796033112394,0.02957543171906314,-0.06245449396442356,0.6248958110809326,2019-06-21 13:10:32:051
9.295345764160157,2.6240048828124998,0.64163623046875,0.030378551638263168,0.02930911561005522,-0.06178870369190375,0.6300158500671387,2019-06-21 13:10:32:056
9.304922424316405,2.7030123291015626,0.6931107788085937,0.03144381607429487,0.029841747828071065,-0.06085659731037602,0.6348798274993896,2019-06-21 13:10:32:061
9.272601196289063,2.7006181640625,0.6775487060546875,0.03144381607429487,0.029175957555551257,-0.06072343925587206,0.6399998664855957,2019-06-21 13:10:32:066
9.259433288574218,2.7173773193359376,0.6823370361328125,0.03210960634681467,0.02957543171906314,-0.05912554260182452,0.6448638439178467,2019-06-21 13:10:32:071
9.266615783691407,2.714983154296875,0.6823370361328125,0.03264223856483052,0.029708589773567103,-0.056595539566249235,0.6499838829040527,2019-06-21 13:10:32:076
9.258236206054688,2.744910217285156,0.6524099731445312,0.031976448292310715,0.029708589773567103,-0.05379922042166604,0.6548478603363037,2019-06-21 13:10:32:081
9.249856628417968,2.7652606201171874,0.6931107788085937,0.03250908051032656,0.029708589773567103,-0.05326658820365019,0.6599678993225098,2019-06-21 13:10:32:086
9.246265380859375,2.772443115234375,0.66078955078125,0.03224276440131864,0.029175957555551257,-0.050070794895555104,0.6648318767547607,2019-06-21 13:10:32:091
9.266615783691407,2.7951876831054685,0.6943078613281249,0.032775396619334485,0.029708589773567103,-0.047407633805475864,0.6699519157409668,2019-06-21 13:10:32:096
9.265418701171875,2.7808226928710935,0.6859282836914062,0.03264223856483052,0.03024122199158295,-0.04527710493341248,0.6750719547271729,2019-06-21 13:10:32:101
9.26182745361328,2.771246032714844,0.6392420654296875,0.03384066105536618,0.031040170318606727,-0.041282363298293615,0.6799359321594238,2019-06-21 13:10:32:106
9.267812866210937,2.7844139404296873,0.6392420654296875,0.03290855467383845,0.030640696155094835,-0.03955130858974212,0.6850559711456299,2019-06-21 13:10:32:111
9.249856628417968,2.78680810546875,0.6476216430664062,0.033441186891854296,0.03024122199158295,-0.03675498944515891,0.6899199485778809,2019-06-21 13:10:32:116
9.247462463378906,2.8179322509765625,0.665577880859375,0.03330802883735033,0.030108063937078988,-0.0332928800280559,0.6950399875640869,2019-06-21 13:10:32:121
9.257039123535156,2.8083555908203124,0.6392420654296875,0.03397381910987014,0.029708589773567103,-0.031162351155992515,0.6999039649963379,2019-06-21 13:10:32:126
9.264221618652343,2.8239176635742185,0.6703662109374999,0.03397381910987014,0.029841747828071065,-0.02796655784789743,0.705024003982544,2019-06-21 13:10:32:131
9.280980773925782,2.839479736328125,0.6775487060546875,0.03370750300086222,0.029974905882575027,-0.024903922594306308,0.7098879814147949,2019-06-21 13:10:32:136
9.246265380859375,2.839479736328125,0.6643807983398438,0.03450645132788599,0.03024122199158295,-0.021974445395219144,0.715008020401001,2019-06-21 13:10:32:141
9.207958740234375,2.826311828613281,0.651212890625,0.034639609382389955,0.03117332837311069,-0.019311284305139904,0.719871997833252,2019-06-21 13:10:32:146
9.223520812988282,2.839479736328125,0.6643807983398438,0.03490592549139788,0.030507538100590873,-0.0147839104520052,0.7249917984008789,2019-06-21 13:10:32:151
9.258236206054688,2.7892022705078126,0.7002932739257812,0.03477276743689391,0.03037438004608691,-0.011188642980398228,0.729856014251709,2019-06-21 13:10:32:156
9.257039123535156,2.7951876831054685,0.6763516235351562,0.03397381910987014,0.030773854209598796,-0.009058114108334838,0.7349758148193359,2019-06-21 13:10:32:161
9.254644958496094,2.756881042480469,0.6631837158203124,0.03503908562649644,0.030507538100590873,-0.005596004691231829,0.7398397922515869,2019-06-21 13:10:32:166
9.253447875976562,2.740121887207031,0.6595924682617187,0.03637066617153606,0.031306486427614647,-0.0025333694376407047,0.744959831237793,2019-06-21 13:10:32:171
9.259433288574218,2.771246032714844,0.6595924682617187,0.0351722436810004,0.030640696155094835,0.0005292658159504193,0.749823808670044,2019-06-21 13:10:32:176
9.240279968261719,2.734136474609375,0.6500158081054688,0.033441186891854296,0.030907012264102765,0.0009287399794623051,0.75494384765625,2019-06-21 13:10:32:181
9.264221618652343,2.7700489501953123,0.6739574584960938,0.03370750300086222,0.030907012264102765,0.003725059124045505,0.760063886642456,2019-06-21 13:10:32:186
9.253447875976562,2.7760343627929687,0.651212890625,0.03384066105536618,0.03024122199158295,0.006255062159620781,0.764927864074707,2019-06-21 13:10:32:191
9.253447875976562,2.743713134765625,0.6488187255859375,0.03384066105536618,0.02957543171906314,0.007986116868172285,0.7700479030609131,2019-06-21 13:10:32:196
9.247462463378906,2.74850146484375,0.646424560546875,0.03330802883735033,0.030907012264102765,0.008651907140692095,0.7749118804931641,2019-06-21 13:10:32:201
9.266615783691407,2.7461072998046876,0.6105120849609375,0.03317487078284637,0.03197227670013446,0.0103829618492436,0.7800319194793701,2019-06-21 13:10:32:206
9.264221618652343,2.7185744018554687,0.6476216430664062,0.03304171272834241,0.03157280253662257,0.012912964884818875,0.7848958969116211,2019-06-21 13:10:32:211
9.254644958496094,2.6802677612304686,0.6943078613281249,0.03224276440131864,0.031306486427614647,0.015576125974898115,0.7900159358978271,2019-06-21 13:10:32:216
9.26063037109375,2.6754794311523438,0.6823370361328125,0.031044341910782983,0.032904383081662186,0.01664139041092981,0.7948799133300781,2019-06-21 13:10:32:221
9.255842041015624,2.649143615722656,0.6883224487304688,0.032375922455822596,0.03143964448211861,0.018239287064977353,0.7999999523162842,2019-06-21 13:10:32:226
9.286966186523438,2.6670998535156247,0.6907166137695312,0.033574344946358255,0.030907012264102765,0.020369815937040743,0.8048639297485352,2019-06-21 13:10:32:231
9.286966186523438,2.6982239990234373,0.6548041381835937,0.0341069771643741,0.03117332837311069,0.021301922318568478,0.8099839687347412,2019-06-21 13:10:32:236
9.245068298339843,2.6826619262695313,0.646424560546875,0.0341069771643741,0.03237175086364634,0.021834554536584325,0.8148479461669922,2019-06-21 13:10:32:241
9.258236206054688,2.6455523681640623,0.6583953857421875,0.034639609382389955,0.03237175086364634,0.02303297702711998,0.8199679851531982,2019-06-21 13:10:32:246
9.27020703125,2.646749450683594,0.6296654052734375,0.03503908562649644,0.03223859280914238,0.02423139951765564,0.8248319625854492,2019-06-21 13:10:32:251
9.27978369140625,2.6228078002929687,0.6500158081054688,0.036104350062528136,0.03223859280914238,0.02569613811719922,0.8299520015716553,2019-06-21 13:10:32:256
9.316893249511718,2.591683654785156,0.6583953857421875,0.03597119200802417,0.034102805572197845,0.026095612280711104,0.8350718021392822,2019-06-21 13:10:32:261
9.2893603515625,2.5689390869140625,0.6200887451171875,0.03650382422604002,0.03436912168120577,0.025962454226207143,0.8399360179901123,2019-06-21 13:10:32:266
9.320484497070312,2.5593624267578123,0.6619866333007812,0.03783540477107964,0.03543438611723747,0.026361928389719028,0.8450558185577393,2019-06-21 13:10:32:271
9.320484497070312,2.5976690673828124,0.6811399536132813,0.038767511152607376,0.035967018335253315,0.026095612280711104,0.8499197959899902,2019-06-21 13:10:32:276
9.316893249511718,2.5988661499023435,0.6440303955078125,0.04009909169764699,0.03623333444426124,0.025429822008191296,0.8550398349761963,2019-06-21 13:10:32:281
9.322878662109375,2.5581653442382812,0.651212890625,0.039699617534135104,0.03570070222624539,0.025562980062695258,0.8599038124084473,2019-06-21 13:10:32:286
9.333652404785155,2.5737274169921873,0.6476216430664062,0.039699617534135104,0.03623333444426124,0.024630873681167526,0.8650238513946533,2019-06-21 13:10:32:291
9.331258239746093,2.5509828491210937,0.6619866333007812,0.04143067224268661,0.03689912471678104,0.02489718979017545,0.8698878288269043,2019-06-21 13:10:32:296
9.352805725097657,2.5689390869140625,0.6560012207031249,0.042229620569710385,0.03663280860777312,0.024364557572159603,0.8750078678131104,2019-06-21 13:10:32:301
9.333652404785155,2.5414061889648436,0.6715632934570313,0.04209646251520642,0.037431756934796896,0.023831925354143753,0.8798718452453613,2019-06-21 13:10:32:306
9.338440734863282,2.552179931640625,0.646424560546875,0.042229620569710385,0.03809754720731671,0.02356560924513583,0.8849918842315674,2019-06-21 13:10:32:311
9.339637817382812,2.531829528808594,0.6488187255859375,0.041164356133678685,0.03649965055326916,0.022500344809104133,0.8898558616638184,2019-06-21 13:10:32:316
9.358791137695313,2.5114791259765625,0.6763516235351562,0.041164356133678685,0.036366492498765196,0.021834554536584325,0.8949759006500244,2019-06-21 13:10:32:321
9.352805725097657,2.510282043457031,0.646424560546875,0.041164356133678685,0.03623333444426124,0.020502973991544708,0.8998398780822754,2019-06-21 13:10:32:326
9.37555029296875,2.5306324462890624,0.651212890625,0.041164356133678685,0.035567544171741426,0.019038235392001127,0.9049599170684814,2019-06-21 13:10:32:331
9.379141540527344,2.4995083007812497,0.6212858276367187,0.04023224975215095,0.03543438611723747,0.018638761228489238,0.9098238945007324,2019-06-21 13:10:32:336
9.379141540527344,2.4971141357421875,0.627271240234375,0.040365407806654915,0.03490175389922162,0.01664139041092981,0.9149439334869385,2019-06-21 13:10:32:341
9.382732788085937,2.4743695678710935,0.6811399536132813,0.03983277558863907,0.03503491195372558,0.014510861538866418,0.9200639724731445,2019-06-21 13:10:32:346
9.389915283203125,2.475566650390625,0.7074757690429687,0.03850119504359945,0.03436912168120577,0.012646648775810952,0.9249279499053955,2019-06-21 13:10:32:351
9.377944458007812,2.4600045776367185,0.6691691284179687,0.038101720880087564,0.03383648946318992,0.010649277958251524,0.9300479888916016,2019-06-21 13:10:32:356
9.368367797851562,2.4588074951171874,0.6296654052734375,0.03850119504359945,0.033303857245174075,0.007986116868172285,0.9349119663238525,2019-06-21 13:10:32:361
9.421039428710937,2.4540191650390626,0.6476216430664062,0.03783540477107964,0.03317069919067011,0.006654536323132667,0.9400320053100586,2019-06-21 13:10:32:366
9.387521118164063,2.40374169921875,0.6488187255859375,0.03756908866207172,0.03237175086364634,0.004390849396565315,0.9448959827423096,2019-06-21 13:10:32:371
9.382732788085937,2.4288804321289064,0.6691691284179687,0.03597119200802417,0.032904383081662186,0.0009287399794623051,0.9500157833099365,2019-06-21 13:10:32:376
9.383929870605469,2.4288804321289064,0.6619866333007812,0.033574344946358255,0.031705960591126535,-0.003465475819168438,0.9548799991607666,2019-06-21 13:10:32:381
9.391112365722655,2.4049387817382812,0.6440303955078125,0.034373293273382025,0.03197227670013446,-0.006927585236271447,0.9599997997283936,2019-06-21 13:10:32:386
9.392309448242187,2.4013475341796875,0.6835341186523437,0.034373293273382025,0.03183911864563049,-0.009324430217342762,0.9648640155792236,2019-06-21 13:10:32:391
9.371959045410156,2.3726175537109375,0.7158553466796875,0.03384066105536618,0.03157280253662257,-0.012786539634445772,0.9699838161468506,2019-06-21 13:10:32:396
9.363579467773437,2.36543505859375,0.6739574584960938,0.03370750300086222,0.031040170318606727,-0.017447071542084438,0.9748477935791016,2019-06-21 13:10:32:401
9.368367797851562,2.38458837890625,0.6619866333007812,0.03264223856483052,0.03037438004608691,-0.019710758468651793,0.9799678325653076,2019-06-21 13:10:32:406
9.334849487304687,2.3857854614257814,0.713461181640625,0.031976448292310715,0.029708589773567103,-0.022640235667738953,0.9850878715515137,2019-06-21 13:10:32:411
9.342031982421874,2.3750117187499997,0.6978991088867187,0.03224276440131864,0.028909641446543333,-0.025569712866826116,0.9899518489837646,2019-06-21 13:10:32:416
9.332455322265625,2.3630408935546874,0.6859282836914062,0.031177499965286945,0.027578060901503717,-0.029164980338433087,0.9950718879699707,2019-06-21 13:10:32:421
9.325272827148437,2.398953369140625,0.7074757690429687,0.030245393583759207,0.0269122706289839,-0.03289340586454402,0.9999358654022217,2019-06-21 13:10:32:426
9.369564880371094,2.408530029296875,0.69909619140625,0.029313287202231475,0.027178586737991825,-0.035423408900119295,1.0050559043884277,2019-06-21 13:10:32:431
9.370761962890624,2.3750117187499997,0.6739574584960938,0.02878065498421563,0.026113322301960132,-0.03915183442623023,1.0099198818206787,2019-06-21 13:10:32:436
9.334849487304687,2.378602966308594,0.6775487060546875,0.027715390548183935,0.02438226759340863,-0.0427471018978372,1.0150399208068848,2019-06-21 13:10:32:441
9.355199890136719,2.380997131347656,0.6583953857421875,0.02718275833016808,0.02598016424745617,-0.04594289520593229,1.0199038982391357,2019-06-21 13:10:32:446
9.34801739501953,2.3762088012695313,0.651212890625,0.02611749389413639,0.02584700619295221,-0.04860605629601152,1.0250239372253418,2019-06-21 13:10:32:451
9.309710754394532,2.380997131347656,0.6536070556640625,0.02625065194864035,0.025713848138448247,-0.05246763987662642,1.0298879146575928,2019-06-21 13:10:32:456
9.297739929199219,2.3905737915039063,0.6811399536132813,0.025584861676120542,0.024914899811424477,-0.05592974929372943,1.0350079536437988,2019-06-21 13:10:32:461
9.327666992187499,2.4205008544921873,0.6811399536132813,0.024785913349096772,0.023849635375392784,-0.059525016765336405,1.0398719310760498,2019-06-21 13:10:32:466
9.322878662109375,2.4576104125976563,0.6715632934570313,0.025185387512608657,0.023716477320888822,-0.06205501980091167,1.0449919700622559,2019-06-21 13:10:32:471
9.340834899902344,2.464792907714844,0.6811399536132813,0.024120123076576964,0.023716477320888822,-0.0647181808909909,1.0498559474945068,2019-06-21 13:10:32:476
9.308513671875,2.4779608154296873,0.646424560546875,0.02278854253153734,0.024115951484400707,-0.0668487097630543,1.054975986480713,2019-06-21 13:10:32:481
9.325272827148437,2.4923258056640623,0.6176945800781249,0.022389068368025455,0.023583319266384854,-0.06804713225358996,1.0598399639129639,2019-06-21 13:10:32:486
9.331258239746093,2.4839462280273437,0.6308624877929687,0.020924329768481874,0.023716477320888822,-0.07071028918248,1.06496000289917,2019-06-21 13:10:32:491
9.324075744628907,2.523449951171875,0.64163623046875,0.021590120041001686,0.02331700315737693,-0.07204186972751961,1.069823980331421,2019-06-21 13:10:32:496
9.320484497070312,2.523449951171875,0.5757966918945312,0.021057487822985835,0.024648583702416554,-0.0724413438910315,1.074944019317627,2019-06-21 13:10:32:501
9.331258239746093,2.5557711791992186,0.6320595703125,0.020791171713977912,0.0251812159204324,-0.0735066083270632,1.080063819885254,2019-06-21 13:10:32:506
9.331258239746093,2.572530334472656,0.6476216430664062,0.020391697550466027,0.025314373974936362,-0.07417239859958301,1.0849277973175049,2019-06-21 13:10:32:511
9.328864074707031,2.560559509277344,0.6176945800781249,0.019060117005426407,0.025713848138448247,-0.07510450498111075,1.090047836303711,2019-06-21 13:10:32:516
9.334849487304687,2.5797128295898437,0.6344537353515625,0.020125381441458104,0.02598016424745617,-0.07510450498111075,1.094911813735962,2019-06-21 13:10:32:521
9.312104919433594,2.590486572265625,0.6583953857421875,0.020924329768481874,0.02677911257447994,-0.07643608552615036,1.100031852722168,2019-06-21 13:10:32:526
9.277389526367188,2.61442822265625,0.6560012207031249,0.020391697550466027,0.02598016424745617,-0.07643608552615036,1.104895830154419,2019-06-21 13:10:32:531
9.312104919433594,2.6263990478515624,0.6595924682617187,0.02052485560496999,0.02438226759340863,-0.0756371371991266,1.110015869140625,2019-06-21 13:10:32:536
9.31809033203125,2.6503406982421875,0.6308624877929687,0.021323803931993762,0.0251812159204324,-0.07443871470859093,1.114879846572876,2019-06-21 13:10:32:541
9.308513671875,2.69104150390625,0.6176945800781249,0.020791171713977912,0.02598016424745617,-0.07430555665408696,1.119999885559082,2019-06-21 13:10:32:546
9.2893603515625,2.7089977416992186,0.6380449829101562,0.020924329768481874,0.02584700619295221,-0.07390608249057508,1.124863862991333,2019-06-21 13:10:32:551
9.315696166992188,2.7066035766601564,0.675154541015625,0.021323803931993762,0.026246480356464093,-0.07217502778202357,1.129983901977539,2019-06-21 13:10:32:556
9.301331176757813,2.705406494140625,0.6164974975585937,0.020791171713977912,0.027444902846999755,-0.07097660529148792,1.13484787940979,2019-06-21 13:10:32:561
9.307316589355468,2.71019482421875,0.6284683227539062,0.021590120041001686,0.02851016728303145,-0.07004449890996019,1.139967918395996,2019-06-21 13:10:32:566
9.282177856445312,2.724559814453125,0.6500158081054688,0.021723278095505647,0.02944227366455918,-0.06658239365404639,1.144831895828247,2019-06-21 13:10:32:571
9.298937011718749,2.713786071777344,0.6380449829101562,0.02185643615000961,0.028110693119519563,-0.06418554867297506,1.1499519348144531,2019-06-21 13:10:32:576
9.286966186523438,2.724559814453125,0.6057237548828125,0.023321174749553187,0.027977535065015602,-0.06378607450946318,1.1550719738006592,2019-06-21 13:10:32:581
9.248659545898438,2.7664577026367185,0.6619866333007812,0.024253281131080925,0.028243851174023525,-0.062321335909919603,1.1599359512329102,2019-06-21 13:10:32:586
9.271404113769531,2.8071585083007813,0.6560012207031249,0.02451959724008885,0.02851016728303145,-0.058859226492816594,1.1650559902191162,2019-06-21 13:10:32:591
9.272601196289063,2.8035672607421875,0.665577880859375,0.025851177785128465,0.027578060901503717,-0.054997642912201695,1.1699199676513672,2019-06-21 13:10:32:596
9.254644958496094,2.849056396484375,0.6380449829101562,0.025851177785128465,0.029708589773567103,-0.05206816571311454,1.1750400066375732,2019-06-21 13:10:32:601
9.247462463378906,2.8227205810546874,0.6380449829101562,0.02704960027566412,0.03024122199158295,-0.048472898241507564,1.1799039840698242,2019-06-21 13:10:32:606
9.253447875976562,2.840676818847656,0.6428333129882813,0.02891381303871959,0.030907012264102765,-0.043812366333868896,1.1850237846374512,2019-06-21 13:10:32:611
9.269009948730469,2.8538447265625,0.6643807983398438,0.030378551638263168,0.031306486427614647,-0.03955130858974212,1.1898880004882812,2019-06-21 13:10:32:616
9.227112060546874,2.829903076171875,0.6332566528320313,0.030778025801775053,0.030507538100590873,-0.036222357227143065,1.1950078010559082,2019-06-21 13:10:32:621
9.247462463378906,2.839479736328125,0.6595924682617187,0.030245393583759207,0.030907012264102765,-0.03222761559202421,1.1998720169067383,2019-06-21 13:10:32:626
9.243871215820313,2.852647644042969,0.6811399536132813,0.03144381607429487,0.031705960591126535,-0.028765506174921202,1.2049918174743652,2019-06-21 13:10:32:631
9.264221618652343,2.826311828613281,0.6835341186523437,0.03171013218330279,0.03317069919067011,-0.025303396757818192,1.2098557949066162,2019-06-21 13:10:32:636
9.237885803222657,2.852647644042969,0.6715632934570313,0.03184329023780675,0.03197227670013446,-0.020642864850179524,1.2149758338928223,2019-06-21 13:10:32:641
9.237885803222657,2.852647644042969,0.6715632934570313,0.03184329023780675,0.03197227670013446,-0.020642864850179524,1.2177917957305908,2019-06-21 13:10:32:644
9.23309747314453,2.839479736328125,0.6548041381835937,0.033441186891854296,0.032904383081662186,-0.013851804070477465,1.2249598503112793,2019-06-21 13:10:32:651
9.23309747314453,2.839479736328125,0.6548041381835937,0.033441186891854296,0.032904383081662186,-0.013851804070477465,1.2277758121490479,2019-06-21 13:10:32:654
9.247462463378906,2.8071585083007813,0.6595924682617187,0.03304171272834241,0.03237175086364634,-0.007593375508791257,1.2349438667297363,2019-06-21 13:10:32:661
9.247462463378906,2.8071585083007813,0.6595924682617187,0.03304171272834241,0.03237175086364634,-0.007593375508791257,1.2377598285675049,2019-06-21 13:10:32:664
9.2510537109375,2.7951876831054685,0.651212890625,0.0341069771643741,0.03277122502715823,-0.000402840565577314,1.2449278831481934,2019-06-21 13:10:32:671
9.265418701171875,2.7461072998046876,0.6643807983398438,0.03450645132788599,0.032105434754638416,0.0019940044154940005,1.2500479221343994,2019-06-21 13:10:32:676
9.26063037109375,2.756881042480469,0.6859282836914062,0.034639609382389955,0.03317069919067011,0.0031924269060296575,1.2549118995666504,2019-06-21 13:10:32:681
9.258236206054688,2.7233627319335936,0.6631837158203124,0.034240135218878066,0.03303754113616615,0.005722429941604934,1.2600319385528564,2019-06-21 13:10:32:686
9.258236206054688,2.71019482421875,0.723037841796875,0.034639609382389955,0.03223859280914238,0.007187168541148514,1.2648959159851074,2019-06-21 13:10:32:691
9.282177856445312,2.6694940185546874,0.6859282836914062,0.035438559790008324,0.03183911864563049,0.00825243297718021,1.2700159549713135,2019-06-21 13:10:32:696
9.276192443847656,2.6539319458007813,0.6955049438476563,0.03570487589901625,0.03183911864563049,0.009184539358707944,1.2748799324035645,2019-06-21 13:10:32:701
9.301331176757813,2.6527348632812497,0.7110670166015625,0.036237508117032094,0.031040170318606727,0.00905138130420398,1.2799999713897705,2019-06-21 13:10:32:706
9.294148681640625,2.6383698730468748,0.713461181640625,0.03716961449855983,0.030108063937078988,0.009584013522219829,1.2848639488220215,2019-06-21 13:10:32:711
9.272601196289063,2.6228078002929687,0.71824951171875,0.03783540477107964,0.030907012264102765,0.00905138130420398,1.2899839878082275,2019-06-21 13:10:32:716
9.272601196289063,2.6228078002929687,0.71824951171875,0.038767511152607376,0.03157280253662257,0.00905138130420398,1.2948479652404785,2019-06-21 13:10:32:721
9.258236206054688,2.5833040771484375,0.7194465942382813,0.03943330142512718,0.031705960591126535,0.007852958813668324,1.2999680042266846,2019-06-21 13:10:32:726
9.257039123535156,2.5976690673828124,0.7062786865234375,0.03983277558863907,0.032504908918150305,0.009184539358707944,1.3048319816589355,2019-06-21 13:10:32:731
9.27020703125,2.6228078002929687,0.7002932739257812,0.040365407806654915,0.03303754113616615,0.007986116868172285,1.3099520206451416,2019-06-21 13:10:32:736
9.269009948730469,2.6132311401367185,0.6823370361328125,0.04169698835169454,0.032904383081662186,0.009184539358707944,1.3150718212127686,2019-06-21 13:10:32:741
9.286966186523438,2.615625305175781,0.6739574584960938,0.04289541084223019,0.03197227670013446,0.009850329631227752,1.3199357986450195,2019-06-21 13:10:32:746
9.285769104003906,2.618019470214844,0.6727603759765625,0.04342804306024604,0.03223859280914238,0.0103829618492436,1.3250558376312256,2019-06-21 13:10:32:751
9.255842041015624,2.647946533203125,0.6452274780273437,0.04262909473322227,0.03317069919067011,0.010649277958251524,1.3299198150634766,2019-06-21 13:10:32:756
9.257039123535156,2.6599173583984372,0.6356508178710938,0.04262909473322227,0.03303754113616615,0.012114016557795105,1.3350398540496826,2019-06-21 13:10:32:761
9.272601196289063,2.6886473388671877,0.6392420654296875,0.04276225278772623,0.033570173354182,0.013312439048330764,1.3399038314819336,2019-06-21 13:10:32:766
9.246265380859375,2.6539319458007813,0.6691691284179687,0.043161726951238114,0.03490175389922162,0.013312439048330764,1.3450238704681396,2019-06-21 13:10:32:771
9.23309747314453,2.7030123291015626,0.6236799926757812,0.04249593667871831,0.03490175389922162,0.015309809865890192,1.3498878479003906,2019-06-21 13:10:32:776
9.269009948730469,2.7269539794921873,0.6332566528320313,0.04436014944177377,0.03649965055326916,0.016907706519937733,1.3550078868865967,2019-06-21 13:10:32:781
9.273798278808593,2.7078006591796875,0.636847900390625,0.04449330749627773,0.03769807304380482,0.018905077337497165,1.3598718643188477,2019-06-21 13:10:32:786
9.284572021484374,2.754486877441406,0.62248291015625,0.043827517223757925,0.03796438915281274,0.021168764264064516,1.3649919033050537,2019-06-21 13:10:32:791
9.288163269042968,2.744910217285156,0.6428333129882813,0.043028568896734155,0.03809754720731671,0.023432451190631868,1.3698558807373047,2019-06-21 13:10:32:796
9.271404113769531,2.728151062011719,0.6619866333007812,0.04169698835169454,0.037431756934796896,0.02582929617170318,1.3749759197235107,2019-06-21 13:10:32:801
9.2893603515625,2.699421081542969,0.6428333129882813,0.04103119807917473,0.037431756934796896,0.0271608767167428,1.3798398971557617,2019-06-21 13:10:32:806
9.31928741455078,2.6670998535156247,0.6536070556640625,0.04089804002467076,0.03836386331632463,0.028625615316286383,1.3849599361419678,2019-06-21 13:10:32:811
9.31928741455078,2.61442822265625,0.6260741577148438,0.04023224975215095,0.03769807304380482,0.028625615316286383,1.3898239135742188,2019-06-21 13:10:32:816
9.340834899902344,2.5845011596679686,0.6560012207031249,0.03943330142512718,0.03716544082578897,0.027826666989262613,1.3949439525604248,2019-06-21 13:10:32:821
9.345623229980468,2.571333251953125,0.6117091674804688,0.039566459479631146,0.03716544082578897,0.027427192825750728,1.4000639915466309,2019-06-21 13:10:32:826
9.342031982421874,2.548588684082031,0.6093150024414062,0.03943330142512718,0.03663280860777312,0.026361928389719028,1.4049279689788818,2019-06-21 13:10:32:831
9.380338623046875,2.5174645385742185,0.684731201171875,0.039566459479631146,0.037431756934796896,0.023831925354143753,1.410048007965088,2019-06-21 13:10:32:836
9.373156127929688,2.5150703735351563,0.6931107788085937,0.04009909169764699,0.036366492498765196,0.02236718675460017,1.4149119853973389,2019-06-21 13:10:32:841
9.382732788085937,2.4695812377929687,0.6619866333007812,0.0407648819701668,0.03689912471678104,0.021301922318568478,1.4200317859649658,2019-06-21 13:10:32:846
9.398294860839844,2.465989990234375,0.6667749633789062,0.04103119807917473,0.035967018335253315,0.018505603173985277,1.424896001815796,2019-06-21 13:10:32:851
9.395900695800782,2.475566650390625,0.6643807983398438,0.0407648819701668,0.03370333140868596,0.01517665181138623,1.4300158023834229,2019-06-21 13:10:32:856
9.40547735595703,2.452822082519531,0.6631837158203124,0.04063172391566284,0.032504908918150305,0.01251349072130699,1.434880018234253,2019-06-21 13:10:32:861
9.406674438476562,2.4396541748046876,0.68951953125,0.04103119807917473,0.032504908918150305,0.010249803794739639,1.4399998188018799,2019-06-21 13:10:32:866
9.380338623046875,2.46120166015625,0.6763516235351562,0.038767511152607376,0.03157280253662257,0.0075866427046604006,1.4448637962341309,2019-06-21 13:10:32:871
9.407871520996094,2.4863403930664063,0.6536070556640625,0.0390338272616153,0.030640696155094835,0.004524007451069277,1.449983835220337,2019-06-21 13:10:32:876
9.391112365722655,2.481552062988281,0.6919136962890625,0.038101720880087564,0.03037438004608691,0.002127162469997962,1.454847812652588,2019-06-21 13:10:32:881
9.380338623046875,2.451625,0.6679720458984375,0.03677014033504794,0.029708589773567103,0.00039610776144645746,1.459967851638794,2019-06-21 13:10:32:886
9.362382385253905,2.48035498046875,0.6440303955078125,0.03570487589901625,0.02957543171906314,-0.001601263056112971,1.464831829071045,2019-06-21 13:10:32:891
9.358791137695313,2.465989990234375,0.6560012207031249,0.03450645132788599,0.02930911561005522,-0.0035986338736723996,1.469951868057251,2019-06-21 13:10:32:896
9.379141540527344,2.4492308349609373,0.6919136962890625,0.03397381910987014,0.027578060901503717,-0.0066612691272635235,1.475071907043457,2019-06-21 13:10:32:901
9.352805725097657,2.44204833984375,0.6476216430664062,0.03317487078284637,0.027977535065015602,-0.010522852707878418,1.479935884475708,2019-06-21 13:10:32:906
9.36477655029297,2.4492308349609373,0.6619866333007812,0.0313106580197909,0.02864332533753541,-0.013052855743453695,1.485055923461914,2019-06-21 13:10:32:911
9.362382385253905,2.42289501953125,0.713461181640625,0.030378551638263168,0.029175957555551257,-0.01558285877902897,1.489919900894165,2019-06-21 13:10:32:916
9.344426147460938,2.421697937011719,0.6739574584960938,0.030245393583759207,0.028110693119519563,-0.017979703760100288,1.495039939880371,2019-06-21 13:10:32:921
9.331258239746093,2.4205008544921873,0.6631837158203124,0.028381180820703743,0.0269122706289839,-0.021441813177203298,1.499903917312622,2019-06-21 13:10:32:926
9.316893249511718,2.3881796264648436,0.6548041381835937,0.026650126112152235,0.025314373974936362,-0.024238132321786496,1.5050239562988281,2019-06-21 13:10:32:931
9.320484497070312,2.3881796264648436,0.6548041381835937,0.026383810003144312,0.026512796465472017,-0.02743392562988158,1.509887933731079,2019-06-21 13:10:32:936
9.330061157226563,2.407332946777344,0.651212890625,0.02465275529459281,0.025314373974936362,-0.03222761559202421,1.5150079727172852,2019-06-21 13:10:32:941
9.324075744628907,2.4157125244140625,0.64163623046875,0.024120123076576964,0.027045428683487863,-0.034358144464087595,1.5198719501495361,2019-06-21 13:10:32:946
9.343229064941406,2.4312745971679686,0.6284683227539062,0.023720648913065072,0.025580690083944285,-0.03688814749966288,1.5249919891357422,2019-06-21 13:10:32:951
9.333652404785155,2.4288804321289064,0.6236799926757812,0.022122752259017532,0.025447532029440324,-0.03928499248073419,1.5298559665679932,2019-06-21 13:10:32:956
9.327666992187499,2.413318359375,0.6308624877929687,0.021456961986497724,0.02504805786592844,-0.0427471018978372,1.5349760055541992,2019-06-21 13:10:32:961
9.316893249511718,2.452822082519531,0.6548041381835937,0.019992223386954142,0.02664595451997598,-0.04607605326043625,1.5398399829864502,2019-06-21 13:10:32:966
9.324075744628907,2.4396541748046876,0.6488187255859375,0.020125381441458104,0.02664595451997598,-0.049271846568531334,1.5449597835540771,2019-06-21 13:10:32:971
9.338440734863282,2.4588074951171874,0.6332566528320313,0.019592749223442257,0.025314373974936362,-0.05126921738609077,1.5498239994049072,2019-06-21 13:10:32:976
9.340834899902344,2.4264862670898437,0.6931107788085937,0.01985906533245018,0.027045428683487863,-0.05246763987662642,1.5549437999725342,2019-06-21 13:10:32:981
9.312104919433594,2.4312745971679686,0.6978991088867187,0.019592749223442257,0.028110693119519563,-0.05393237847617,1.5600638389587402,2019-06-21 13:10:32:986
9.310907836914062,2.451625,0.6332566528320313,0.01985906533245018,0.026246480356464093,-0.05632922345724131,1.5649278163909912,2019-06-21 13:10:32:991
9.33724365234375,2.48035498046875,0.651212890625,0.01919327505993037,0.026512796465472017,-0.05792712011128885,1.5700478553771973,2019-06-21 13:10:32:996
9.338440734863282,2.4839462280273437,0.7026874389648438,0.019592749223442257,0.025447532029440324,-0.05992449092884829,1.5749118328094482,2019-06-21 13:10:33:001
9.340834899902344,2.475566650390625,0.6763516235351562,0.01985906533245018,0.025314373974936362,-0.06138922952839187,1.5800318717956543,2019-06-21 13:10:33:006
9.325272827148437,2.479157897949219,0.7014903564453124,0.020258539495962066,0.023982793429896745,-0.06258765201892752,1.5848958492279053,2019-06-21 13:10:33:011
9.340834899902344,2.493522888183594,0.68951953125,0.020924329768481874,0.024515425647912592,-0.06525081310900675,1.5900158882141113,2019-06-21 13:10:33:016
9.313302001953124,2.4875374755859374,0.6703662109374999,0.022122752259017532,0.02424910953890467,-0.06578344532702261,1.5948798656463623,2019-06-21 13:10:33:021
9.315696166992188,2.4743695678710935,0.6823370361328125,0.022255910313521494,0.024914899811424477,-0.06764765809007808,1.5999999046325684,2019-06-21 13:10:33:026
9.315696166992188,2.489931640625,0.7026874389648438,0.023188016695049225,0.02504805786592844,-0.07004449890996019,1.6048638820648193,2019-06-21 13:10:33:031
9.325272827148437,2.5126762084960936,0.7254320068359374,0.023321174749553187,0.024781741756920515,-0.07097660529148792,1.6099839210510254,2019-06-21 13:10:33:036
9.343229064941406,2.5270411987304686,0.7014903564453124,0.024785913349096772,0.0251812159204324,-0.07284081805454339,1.6148478984832764,2019-06-21 13:10:33:041
9.334849487304687,2.5473916015625,0.665577880859375,0.02611749389413639,0.024781741756920515,-0.07363976638156716,1.6199679374694824,2019-06-21 13:10:33:046
9.308513671875,2.546194519042969,0.6907166137695312,0.025984335839632427,0.02424910953890467,-0.0745718727630949,1.6248319149017334,2019-06-21 13:10:33:051
9.282177856445312,2.552179931640625,0.665577880859375,0.026783284166656197,0.023982793429896745,-0.07550397914462263,1.6299519538879395,2019-06-21 13:10:33:056
9.282177856445312,2.5785157470703126,0.6787457885742187,0.028381180820703743,0.024115951484400707,-0.07590345330813451,1.6350719928741455,2019-06-21 13:10:33:061
9.308513671875,2.5988661499023435,0.651212890625,0.02878065498421563,0.02598016424745617,-0.07656924358065433,1.6399359703063965,2019-06-21 13:10:33:066
9.309710754394532,2.649143615722656,0.6595924682617187,0.029313287202231475,0.025713848138448247,-0.07510450498111075,1.6450560092926025,2019-06-21 13:10:33:071
9.27978369140625,2.6359757080078126,0.665577880859375,0.0295796033112394,0.025447532029440324,-0.07417239859958301,1.6499199867248535,2019-06-21 13:10:33:076
9.302528259277343,2.699421081542969,0.6440303955078125,0.030245393583759207,0.025713848138448247,-0.07337345027255923,1.6550397872924805,2019-06-21 13:10:33:081
9.272601196289063,2.724559814453125,0.6296654052734375,0.030378551638263168,0.026113322301960132,-0.07084344723698396,1.6599040031433105,2019-06-21 13:10:33:086
9.273798278808593,2.7269539794921873,0.6296654052734375,0.030778025801775053,0.0269122706289839,-0.06897923863511769,1.6650238037109375,2019-06-21 13:10:33:091
9.269009948730469,2.758078125,0.5925558471679687,0.031177499965286945,0.027178586737991825,-0.06711502587206224,1.6698880195617676,2019-06-21 13:10:33:096
9.2893603515625,2.7748372802734376,0.6164974975585937,0.030112235529255245,0.027444902846999755,-0.06365291645495921,1.6750078201293945,2019-06-21 13:10:33:101
9.282177856445312,2.8191293334960936,0.6404391479492187,0.03051170969276713,0.028110693119519563,-0.0612560714738879,1.6798717975616455,2019-06-21 13:10:33:106
9.259433288574218,2.8287059936523438,0.6164974975585937,0.031044341910782983,0.029708589773567103,-0.05726132983876905,1.6849918365478516,2019-06-21 13:10:33:111
9.249856628417968,2.8430709838867188,0.6583953857421875,0.030911183856279015,0.029042799501047295,-0.052600797931130386,1.6898558139801025,2019-06-21 13:10:33:116
9.252250793457032,2.8598301391601564,0.6176945800781249,0.032375922455822596,0.030640696155094835,-0.048872372405019446,1.6949758529663086,2019-06-21 13:10:33:121
9.263024536132813,2.869406799316406,0.6356508178710938,0.032375922455822596,0.030907012264102765,-0.04474447271539663,1.6998398303985596,2019-06-21 13:10:33:126
9.245068298339843,2.84426806640625,0.6440303955078125,0.03264223856483052,0.031306486427614647,-0.04061657302577381,1.7049598693847656,2019-06-21 13:10:33:131
9.24147705078125,2.869406799316406,0.6571983032226563,0.03210960634681467,0.031705960591126535,-0.03728762166317476,1.7098238468170166,2019-06-21 13:10:33:136
9.243871215820313,2.839479736328125,0.6296654052734375,0.03224276440131864,0.03157280253662257,-0.033559196137063825,1.7149438858032227,2019-06-21 13:10:33:141
9.2510537109375,2.8622243041992186,0.636847900390625,0.03304171272834241,0.03237175086364634,-0.03129550921049648,1.7200639247894287,2019-06-21 13:10:33:146
9.286966186523438,2.8658155517578123,0.6344537353515625,0.03317487078284637,0.03183911864563049,-0.025969187030338,1.7249279022216797,2019-06-21 13:10:33:151
9.257039123535156,2.8622243041992186,0.6105120849609375,0.03264223856483052,0.033303857245174075,-0.022107603449723106,1.7300479412078857,2019-06-21 13:10:33:156
9.2510537109375,2.839479736328125,0.6320595703125,0.033441186891854296,0.03237175086364634,-0.01824601986910821,1.7349119186401367,2019-06-21 13:10:33:161
9.240279968261719,2.8502534790039062,0.5937529296874999,0.033574344946358255,0.030773854209598796,-0.014917068506509161,1.7400319576263428,2019-06-21 13:10:33:166
9.235491638183593,2.8322972412109375,0.62248291015625,0.033574344946358255,0.032105434754638416,-0.010389694653374457,1.7448959350585938,2019-06-21 13:10:33:171
9.248659545898438,2.8203264160156247,0.6380449829101562,0.03210960634681467,0.032504908918150305,-0.0066612691272635235,1.7500159740447998,2019-06-21 13:10:33:176
9.265418701171875,2.8203264160156247,0.6356508178710938,0.03210960634681467,0.03237175086364634,-0.0038649499826803237,1.7548799514770508,2019-06-21 13:10:33:181
9.252250793457032,2.814341003417969,0.64163623046875,0.031976448292310715,0.032904383081662186,0.00039610776144645746,1.7599999904632568,2019-06-21 13:10:33:186
9.2510537109375,2.802370178222656,0.6440303955078125,0.03290855467383845,0.032904383081662186,0.0014613721974781526,1.7648639678955078,2019-06-21 13:10:33:191
9.27978369140625,2.7796256103515624,0.6715632934570313,0.033441186891854296,0.033969647517693886,0.0035919010695415433,1.7699840068817139,2019-06-21 13:10:33:196
9.273798278808593,2.768851867675781,0.6583953857421875,0.03397381910987014,0.03277122502715823,0.006255062159620781,1.7748479843139648,2019-06-21 13:10:33:201
9.254644958496094,2.759275207519531,0.6739574584960938,0.0341069771643741,0.03303754113616615,0.008918223249700019,1.7799677848815918,2019-06-21 13:10:33:206
9.254644958496094,2.74850146484375,0.68951953125,0.0341069771643741,0.032904383081662186,0.011847700448787182,1.7848320007324219,2019-06-21 13:10:33:211
9.254644958496094,2.74850146484375,0.7086728515625,0.03384066105536618,0.03317069919067011,0.013978229320850572,1.7899518013000488,2019-06-21 13:10:33:216
9.277389526367188,2.7329393920898437,0.6787457885742187,0.03330802883735033,0.03117332837311069,0.014111387375354533,1.7950718402862549,2019-06-21 13:10:33:221
9.284572021484374,2.701815246582031,0.7242349243164062,0.034240135218878066,0.03197227670013446,0.01570928402940208,1.7999358177185059,2019-06-21 13:10:33:226
9.309710754394532,2.705406494140625,0.6703662109374999,0.03397381910987014,0.03157280253662257,0.01584244208390604,1.805055856704712,2019-06-21 13:10:33:231
9.292951599121093,2.69104150390625,0.6536070556640625,0.03330802883735033,0.03143964448211861,0.018239287064977353,1.809919834136963,2019-06-21 13:10:33:236
9.294148681640625,2.6515377807617186,0.636847900390625,0.03370750300086222,0.03183911864563049,0.01783981290146547,1.815039873123169,2019-06-21 13:10:33:241
9.288163269042968,2.661114440917969,0.6260741577148438,0.032375922455822596,0.03263806697265426,0.018771919282993203,1.81990385055542,2019-06-21 13:10:33:246
9.264221618652343,2.615625305175781,0.6141033325195312,0.03264223856483052,0.034102805572197845,0.01943770955551301,1.825023889541626,2019-06-21 13:10:33:251
9.230703308105468,2.6527348632812497,0.6380449829101562,0.032775396619334485,0.033570173354182,0.019704025664520935,1.829887866973877,2019-06-21 13:10:33:256
9.245068298339843,2.663508605957031,0.6392420654296875,0.030911183856279015,0.03317069919067011,0.021035606209560555,1.835007905960083,2019-06-21 13:10:33:261
9.228309143066406,2.629990295410156,0.6476216430664062,0.029979077474751283,0.03450227973570973,0.020902448155056593,1.839871883392334,2019-06-21 13:10:33:266
9.199579162597656,2.6132311401367185,0.6931107788085937,0.030378551638263168,0.03570070222624539,0.021168764264064516,1.84499192237854,2019-06-21 13:10:33:271
9.188805419921875,2.6263990478515624,0.6727603759765625,0.031044341910782983,0.035168070008229545,0.02223402870009621,1.849855899810791,2019-06-21 13:10:33:276
9.218732482910156,2.606048645019531,0.713461181640625,0.03171013218330279,0.0346354377902137,0.02356560924513583,1.854975938796997,2019-06-21 13:10:33:281
9.205564575195313,2.6048515625,0.7122640991210938,0.03210960634681467,0.035168070008229545,0.02409824146315168,1.859839916229248,2019-06-21 13:10:33:286
9.20436749267578,2.615625305175781,0.7074757690429687,0.03330802883735033,0.03543438611723747,0.02303297702711998,1.864959955215454,2019-06-21 13:10:33:291
9.234294555664063,2.6311873779296873,0.7002932739257812,0.03384066105536618,0.0353012280627335,0.024764031735671488,1.869823932647705,2019-06-21 13:10:33:296
9.258236206054688,2.6551290283203124,0.7110670166015625,0.03477276743689391,0.03583386028074935,0.026761402553230916,1.8749439716339111,2019-06-21 13:10:33:301
9.27978369140625,2.657523193359375,0.7302203369140625,0.03597119200802417,0.03610017638975727,0.02569613811719922,1.8800640106201172,2019-06-21 13:10:33:306
9.297739929199219,2.6407640380859374,0.6883224487304688,0.037036456444055864,0.035967018335253315,0.0271608767167428,1.8849279880523682,2019-06-21 13:10:33:311
9.325272827148437,2.6802677612304686,0.6476216430664062,0.0390338272616153,0.03543438611723747,0.028758773370790344,1.8900477886199951,2019-06-21 13:10:33:316
9.345623229980468,2.661114440917969,0.6787457885742187,0.0390338272616153,0.03543438611723747,0.028758773370790344,1.8949120044708252,2019-06-21 13:10:33:321
9.3659736328125,2.6563261108398435,0.6643807983398438,0.0390338272616153,0.035567544171741426,0.029957195861326,1.9000318050384521,2019-06-21 13:10:33:326
9.373156127929688,2.634778625488281,0.6548041381835937,0.040498565861158874,0.035567544171741426,0.03195456667888543,1.9048960208892822,2019-06-21 13:10:33:331
9.37555029296875,2.6120340576171874,0.62248291015625,0.043028568896734155,0.03503491195372558,0.03248719889690128,1.9100158214569092,2019-06-21 13:10:33:336
9.392309448242187,2.577318664550781,0.6440303955078125,0.0452922558233015,0.0353012280627335,0.0327535150059092,1.9148797988891602,2019-06-21 13:10:33:341
9.352805725097657,2.5390120239257814,0.6619866333007812,0.04595804609582131,0.03503491195372558,0.032620356951405236,1.9199998378753662,2019-06-21 13:10:33:346
9.387521118164063,2.4983112182617186,0.6595924682617187,0.04768910080437282,0.036366492498765196,0.032220882787893354,1.9248638153076172,2019-06-21 13:10:33:351
9.407871520996094,2.4875374755859374,0.6679720458984375,0.049153839403916405,0.03570070222624539,0.030889302242853738,1.9299838542938232,2019-06-21 13:10:33:356
9.421039428710937,2.4719754028320313,0.6691691284179687,0.04981962967643621,0.03503491195372558,0.02769350893475865,1.9348478317260742,2019-06-21 13:10:33:361
9.403083190917968,2.44204833984375,0.6248770751953124,0.05128436827597979,0.03543438611723747,0.026095612280711104,1.9399678707122803,2019-06-21 13:10:33:366
9.416251098632813,2.408530029296875,0.646424560546875,0.051550684384987715,0.034768595844717656,0.024630873681167526,1.9448318481445312,2019-06-21 13:10:33:371
9.443783996582031,2.4193037719726562,0.636847900390625,0.051950158548499596,0.033969647517693886,0.021701396482080363,1.9499518871307373,2019-06-21 13:10:33:376
9.438995666503907,2.44204833984375,0.6308624877929687,0.05248279076651544,0.03343701529967803,0.018372445119481315,1.9550719261169434,2019-06-21 13:10:33:381
9.409068603515625,2.3869825439453125,0.5662200317382813,0.052349632712011485,0.03383648946318992,0.015043493756882268,1.9599359035491943,2019-06-21 13:10:33:386
9.410265686035157,2.395362121582031,0.5913587646484375,0.052349632712011485,0.03263806697265426,0.01171454239428322,1.9650559425354004,2019-06-21 13:10:33:391
9.412659851074219,2.4013475341796875,0.6404391479492187,0.05181700049399564,0.03303754113616615,0.007986116868172285,1.9699199199676514,2019-06-21 13:10:33:396
9.409068603515625,2.4061358642578123,0.6236799926757812,0.0508848941124679,0.032904383081662186,0.004390849396565315,1.9750399589538574,2019-06-21 13:10:33:401
9.397097778320312,2.418106689453125,0.6284683227539062,0.05048541994895602,0.03183911864563049,0.0014613721974781526,1.9799039363861084,2019-06-21 13:10:33:406
9.37674737548828,2.4193037719726562,0.6548041381835937,0.04928699745842036,0.03037438004608691,-0.0020007372196248568,1.9850239753723145,2019-06-21 13:10:33:411
9.385126953124999,2.4348658447265623,0.6536070556640625,0.04795541691338075,0.030907012264102765,-0.00506337247321598,1.9898879528045654,2019-06-21 13:10:33:416
9.361185302734375,2.4444425048828125,0.6440303955078125,0.046490678313837165,0.03197227670013446,-0.007193901345279372,1.9950079917907715,2019-06-21 13:10:33:421
9.369564880371094,2.4743695678710935,0.6488187255859375,0.04609120415032527,0.031306486427614647,-0.010922326871390305,1.9998719692230225,2019-06-21 13:10:33:426
9.355199890136719,2.467187072753906,0.6164974975585937,0.043161726951238114,0.031040170318606727,-0.014118120179485391,2.0049920082092285,2019-06-21 13:10:33:431
9.344426147460938,2.4707783203124998,0.6320595703125,0.04063172391566284,0.029708589773567103,-0.015050226561013123,2.0098559856414795,2019-06-21 13:10:33:436
9.371959045410156,2.456413330078125,0.6332566528320313,0.039566459479631146,0.02864332533753541,-0.018778652087124058,2.0149757862091064,2019-06-21 13:10:33:441
9.336046569824218,2.4408512573242187,0.6320595703125,0.03637066617153606,0.028377009228527487,-0.019843916523155754,2.0198400020599365,2019-06-21 13:10:33:446
9.331258239746093,2.42289501953125,0.6248770751953124,0.034639609382389955,0.028110693119519563,-0.022107603449723106,2.0249598026275635,2019-06-21 13:10:33:451
9.359988220214843,2.448033752441406,0.6619866333007812,0.03250908051032656,0.027977535065015602,-0.023838658158274607,2.0300798416137695,2019-06-21 13:10:33:456
9.325272827148437,2.395362121582031,0.6380449829101562,0.030245393583759207,0.02784437701051164,-0.026102345084841962,2.0349438190460205,2019-06-21 13:10:33:461
9.331258239746093,2.3905737915039063,0.6548041381835937,0.028381180820703743,0.02877648339203937,-0.03009708671996082,2.0400638580322266,2019-06-21 13:10:33:466
9.358791137695313,2.351070068359375,0.67994287109375,0.027449074439176012,0.028110693119519563,-0.03289340586454402,2.0449278354644775,2019-06-21 13:10:33:471
9.330061157226563,2.3450846557617187,0.6859282836914062,0.02625065194864035,0.027311744792495794,-0.036222357227143065,2.0500478744506836,2019-06-21 13:10:33:476
9.325272827148437,2.352267150878906,0.6907166137695312,0.02625065194864035,0.027311744792495794,-0.041282363298293615,2.0549118518829346,2019-06-21 13:10:33:481
9.321681579589843,2.342690490722656,0.7242349243164062,0.024785913349096772,0.02784437701051164,-0.045676579096924366,2.0600318908691406,2019-06-21 13:10:33:486
9.333652404785155,2.341493408203125,0.7098699340820313,0.023188016695049225,0.027178586737991825,-0.048206582132499634,2.0648958683013916,2019-06-21 13:10:33:491
9.358791137695313,2.328325500488281,0.7026874389648438,0.022921700586041302,0.0269122706289839,-0.051801849604106616,2.0700159072875977,2019-06-21 13:10:33:496
9.328864074707031,2.3307196655273437,0.6955049438476563,0.02278854253153734,0.02584700619295221,-0.05646238151174528,2.0748798847198486,2019-06-21 13:10:33:501
9.334849487304687,2.3678292236328122,0.6787457885742187,0.022389068368025455,0.025713848138448247,-0.060323965092360175,2.0799999237060547,2019-06-21 13:10:33:506
9.302528259277343,2.389376708984375,0.6452274780273437,0.022255910313521494,0.025447532029440324,-0.06378607450946318,2.0848639011383057,2019-06-21 13:10:33:511
9.313302001953124,2.4205008544921873,0.67994287109375,0.021456961986497724,0.024515425647912592,-0.06724818392656619,2.0899839401245117,2019-06-21 13:10:33:516
9.327666992187499,2.4348658447265623,0.6691691284179687,0.02052485560496999,0.024781741756920515,-0.06991134085545622,2.0948479175567627,2019-06-21 13:10:33:521
9.33724365234375,2.4600045776367185,0.6595924682617187,0.02052485560496999,0.025314373974936362,-0.07217502778202357,2.0999679565429688,2019-06-21 13:10:33:526
9.339637817382812,2.505493713378906,0.6667749633789062,0.018660642841914522,0.024781741756920515,-0.07577029525363055,2.1048319339752197,2019-06-21 13:10:33:531
9.325272827148437,2.5306324462890624,0.6931107788085937,0.018128010623898676,0.02438226759340863,-0.07723503385317414,2.109951972961426,2019-06-21 13:10:33:536
9.334849487304687,2.524647033691406,0.6404391479492187,0.018261168678402637,0.024781741756920515,-0.07869977245271771,2.115072011947632,2019-06-21 13:10:33:541
9.322878662109375,2.5366178588867188,0.6536070556640625,0.017329062296874902,0.024914899811424477,-0.07989819494325337,2.119935989379883,2019-06-21 13:10:33:546
9.340834899902344,2.552179931640625,0.6212858276367187,0.016663272024355094,0.024115951484400707,-0.08096345937928506,2.1250557899475098,2019-06-21 13:10:33:551
9.313302001953124,2.572530334472656,0.6595924682617187,0.016663272024355094,0.024914899811424477,-0.08242819797882865,2.12992000579834,2019-06-21 13:10:33:556
9.327666992187499,2.601260314941406,0.646424560546875,0.015464849533819436,0.02331700315737693,-0.08162924965180487,2.135039806365967,2019-06-21 13:10:33:561
9.308513671875,2.6024573974609373,0.6524099731445312,0.015198533424811513,0.022917528993865045,-0.08149609159730091,2.1399037837982178,2019-06-21 13:10:33:566
9.304922424316405,2.619216552734375,0.675154541015625,0.016929588133363017,0.023982793429896745,-0.08162924965180487,2.145023822784424,2019-06-21 13:10:33:571
9.310907836914062,2.590486572265625,0.6703662109374999,0.016530113969851132,0.02318384510287297,-0.08162924965180487,2.149887800216675,2019-06-21 13:10:33:576
9.301331176757813,2.6228078002929687,0.6440303955078125,0.016929588133363017,0.023849635375392784,-0.08309398825134846,2.155007839202881,2019-06-21 13:10:33:581
9.297739929199219,2.6455523681640623,0.6344537353515625,0.017329062296874902,0.023583319266384854,-0.08269451408783657,2.159871816635132,2019-06-21 13:10:33:586
9.280980773925782,2.644355285644531,0.64163623046875,0.01706274618786698,0.024115951484400707,-0.08096345937928506,2.164991855621338,2019-06-21 13:10:33:591
9.285769104003906,2.67188818359375,0.6404391479492187,0.018128010623898676,0.024515425647912592,-0.08136293354279694,2.169855833053589,2019-06-21 13:10:33:596
9.301331176757813,2.6838590087890624,0.6320595703125,0.019326433114434334,0.025314373974936362,-0.08003135299775734,2.174975872039795,2019-06-21 13:10:33:601
9.292951599121093,2.7006181640625,0.5865704345703124,0.019592749223442257,0.026512796465472017,-0.07883293050722168,2.179839849472046,2019-06-21 13:10:33:606
9.288163269042968,2.6886473388671877,0.6188916625976563,0.01985906533245018,0.026246480356464093,-0.07776766607118998,2.184959888458252,2019-06-21 13:10:33:611
9.285769104003906,2.7461072998046876,0.665577880859375,0.019992223386954142,0.0269122706289839,-0.07483818887210282,2.189823865890503,2019-06-21 13:10:33:616
9.282177856445312,2.7520927124023435,0.6560012207031249,0.0211906458774898,0.027178586737991825,-0.07337345027255923,2.194943904876709,2019-06-21 13:10:33:621
9.272601196289063,2.797581848144531,0.6679720458984375,0.021456961986497724,0.02771121895600768,-0.07190871167301566,2.200063943862915,2019-06-21 13:10:33:626
9.254644958496094,2.785611022949219,0.6344537353515625,0.021723278095505647,0.027578060901503717,-0.06857976447160581,2.204927921295166,2019-06-21 13:10:33:631
9.278586608886718,2.8035672607421875,0.6488187255859375,0.021590120041001686,0.02598016424745617,-0.06764765809007808,2.210047960281372,2019-06-21 13:10:33:636
9.27020703125,2.816735168457031,0.6021325073242187,0.023054858640545264,0.02664595451997598,-0.06285396812793545,2.214911937713623,2019-06-21 13:10:33:641
9.247462463378906,2.8179322509765625,0.5973441772460938,0.025185387512608657,0.028110693119519563,-0.059525016765336405,2.220031976699829,2019-06-21 13:10:33:646
9.245068298339843,2.8191293334960936,0.6560012207031249,0.026783284166656197,0.02851016728303145,-0.056595539566249235,2.22489595413208,2019-06-21 13:10:33:651
9.23309747314453,2.8454651489257814,0.6667749633789062,0.027315916384672043,0.02864332533753541,-0.05246763987662642,2.230015993118286,2019-06-21 13:10:33:656
9.245068298339843,2.8430709838867188,0.7002932739257812,0.028248022766199782,0.029042799501047295,-0.04873921435051549,2.234879970550537,2019-06-21 13:10:33:661
9.229506225585938,2.838282653808594,0.6907166137695312,0.029313287202231475,0.030640696155094835,-0.04541026298791644,2.240000009536743,2019-06-21 13:10:33:666
9.245068298339843,2.858633056640625,0.6727603759765625,0.030378551638263168,0.02957543171906314,-0.04141552135279758,2.244863986968994,2019-06-21 13:10:33:671
9.23309747314453,2.8418739013671876,0.6679720458984375,0.03051170969276713,0.029175957555551257,-0.03768709582668665,2.249983787536621,2019-06-21 13:10:33:676
9.231900390625,2.86342138671875,0.6643807983398438,0.031177499965286945,0.029841747828071065,-0.033559196137063825,2.254848003387451,2019-06-21 13:10:33:681
9.242674133300781,2.8622243041992186,0.6883224487304688,0.031976448292310715,0.02944227366455918,-0.029830770610952895,2.259967803955078,2019-06-21 13:10:33:686
9.231900390625,2.877786376953125,0.6907166137695312,0.03264223856483052,0.02864332533753541,-0.026102345084841962,2.264832019805908,2019-06-21 13:10:33:691
9.224717895507812,2.8849688720703126,0.6823370361328125,0.03264223856483052,0.029841747828071065,-0.02170812928621122,2.269951820373535,2019-06-21 13:10:33:696
9.243871215820313,2.887363037109375,0.675154541015625,0.03370750300086222,0.030507538100590873,-0.0175802295965884,2.275071859359741,2019-06-21 13:10:33:701
9.242674133300781,2.8849688720703126,0.6380449829101562,0.03450645132788599,0.030907012264102765,-0.01345232990696558,2.279935836791992,2019-06-21 13:10:33:706
9.252250793457032,2.8801805419921873,0.6571983032226563,0.03397381910987014,0.03263806697265426,-0.008924956053830875,2.2850558757781982,2019-06-21 13:10:33:711
9.26182745361328,2.9005309448242187,0.651212890625,0.03370750300086222,0.03303754113616615,-0.004131266091688247,2.289919853210449,2019-06-21 13:10:33:716
9.254644958496094,2.8849688720703126,0.6296654052734375,0.03330802883735033,0.03383648946318992,-0.000402840565577314,2.2950398921966553,2019-06-21 13:10:33:721
9.239082885742187,2.8646184692382812,0.6188916625976563,0.033574344946358255,0.033570173354182,0.0022603205245019242,2.2999038696289062,2019-06-21 13:10:33:726
9.230703308105468,2.849056396484375,0.627271240234375,0.0341069771643741,0.03303754113616615,0.006521378268628706,2.3050239086151123,2019-06-21 13:10:33:731
9.221126647949218,2.829903076171875,0.6560012207031249,0.03450645132788599,0.033570173354182,0.008918223249700019,2.3098878860473633,2019-06-21 13:10:33:736
9.248659545898438,2.7951876831054685,0.6176945800781249,0.03370750300086222,0.03317069919067011,0.012646648775810952,2.3150079250335693,2019-06-21 13:10:33:741
9.229506225585938,2.7915964355468748,0.6548041381835937,0.03330802883735033,0.03237175086364634,0.015442967920394153,2.3198719024658203,2019-06-21 13:10:33:746
9.228309143066406,2.785611022949219,0.6320595703125,0.03330802883735033,0.03343701529967803,0.01930455150100905,2.3249919414520264,2019-06-21 13:10:33:751
9.227112060546874,2.785611022949219,0.6021325073242187,0.03384066105536618,0.034768595844717656,0.022633502863608095,2.3298559188842773,2019-06-21 13:10:33:756
9.229506225585938,2.7700489501953123,0.646424560546875,0.03477276743689391,0.035967018335253315,0.025429822008191296,2.3349759578704834,2019-06-21 13:10:33:761
9.216338317871093,2.773640197753906,0.6440303955078125,0.034373293273382025,0.03663280860777312,0.02756035088025469,2.3398399353027344,2019-06-21 13:10:33:766
9.197184997558594,2.7760343627929687,0.6200887451171875,0.034240135218878066,0.03796438915281274,0.029557721697814114,2.3449599742889404,2019-06-21 13:10:33:771
9.16486376953125,2.788005187988281,0.627271240234375,0.03397381910987014,0.039029653588844436,0.03368562138743693,2.3498239517211914,2019-06-21 13:10:33:776
9.176834594726563,2.788005187988281,0.598541259765625,0.0341069771643741,0.0391628116433484,0.03661509858652409,2.3549439907073975,2019-06-21 13:10:33:781
9.192396667480468,2.8083555908203124,0.6236799926757812,0.033574344946358255,0.03996175997037217,0.04074299827614691,2.3600637912750244,2019-06-21 13:10:33:786
9.206761657714843,2.8035672607421875,0.6571983032226563,0.03370750300086222,0.04036123413388405,0.04353931742073011,2.3649280071258545,2019-06-21 13:10:33:791
9.20317041015625,2.7939906005859374,0.6560012207031249,0.03384066105536618,0.04036123413388405,0.0467351107288252,2.3700478076934814,2019-06-21 13:10:33:796
9.26182745361328,2.8191293334960936,0.6536070556640625,0.03264223856483052,0.040228076079380094,0.050996168472951985,2.3749117851257324,2019-06-21 13:10:33:801
9.264221618652343,2.839479736328125,0.6392420654296875,0.03304171272834241,0.03929596969785236,0.05432511983555103,2.3800318241119385,2019-06-21 13:10:33:806
9.272601196289063,2.796384765625,0.6715632934570313,0.033441186891854296,0.04076070829739594,0.05765407119815008,2.3848958015441895,2019-06-21 13:10:33:811
9.286966186523438,2.7640635375976563,0.6835341186523437,0.03384066105536618,0.04009491802487613,0.06058354839723724,2.3900158405303955,2019-06-21 13:10:33:816
9.298937011718749,2.7185744018554687,0.7050816040039062,0.035305401735504366,0.04009491802487613,0.06337986754182044,2.3948798179626465,2019-06-21 13:10:33:821
9.343229064941406,2.695829833984375,0.7206436767578125,0.03597119200802417,0.03929596969785236,0.06684197695892345,2.3999998569488525,2019-06-21 13:10:33:826
9.358791137695313,2.6802677612304686,0.6978991088867187,0.036104350062528136,0.03969544386136425,0.06804039944945911,2.4048638343811035,2019-06-21 13:10:33:831
9.377944458007812,2.6407640380859374,0.6631837158203124,0.036903298389551906,0.03849702137082859,0.06977145415801062,2.4099838733673096,2019-06-21 13:10:33:836
9.381535705566407,2.5940778198242187,0.6548041381835937,0.03716961449855983,0.038630179425332554,0.07057040664622359,2.4148478507995605,2019-06-21 13:10:33:841
9.39350653076172,2.5390120239257814,0.64163623046875,0.03836803698909549,0.03876333747983651,0.07043724859171963,2.4199678897857666,2019-06-21 13:10:33:846
9.395900695800782,2.5138732910156247,0.6703662109374999,0.03916698531611926,0.03729859888029293,0.06963829610350665,2.4248318672180176,2019-06-21 13:10:33:851
9.437798583984375,2.4600045776367185,0.6715632934570313,0.04089804002467076,0.03649965055326916,0.06804039944945911,2.4299519062042236,2019-06-21 13:10:33:856
9.436601501464844,2.4109241943359376,0.684731201171875,0.04169698835169454,0.035567544171741426,0.06590987057739572,2.4350719451904297,2019-06-21 13:10:33:861
9.435404418945312,2.3678292236328122,0.67994287109375,0.04276225278772623,0.03543438611723747,0.06391249975983629,2.4399359226226807,2019-06-21 13:10:33:866
9.43301025390625,2.3582525634765625,0.6548041381835937,0.04329488500574208,0.035567544171741426,0.06005091617922139,2.4450559616088867,2019-06-21 13:10:33:871
9.43420733642578,2.309172180175781,0.7062786865234375,0.04356120111475,0.0353012280627335,0.05592301648959857,2.4499199390411377,2019-06-21 13:10:33:876
9.455754821777344,2.2720626220703126,0.7362057495117187,0.04502593971429358,0.033570173354182,0.05126248458195991,2.4550399780273438,2019-06-21 13:10:33:881
9.459346069335938,2.2756538696289064,0.6967020263671875,0.045824888041317346,0.03263806697265426,0.04620247851080935,2.4599039554595947,2019-06-21 13:10:33:886
9.441389831542969,2.2624859619140625,0.703884521484375,0.04782225885887678,0.030640696155094835,0.0411424724396588,2.465023994445801,2019-06-21 13:10:33:891
9.43301025390625,2.2385443115234374,0.67994287109375,0.04862120718590056,0.03117332837311069,0.035682992204996364,2.4698879718780518,2019-06-21 13:10:33:896
9.440192749023437,2.2349530639648436,0.6560012207031249,0.04848804913139659,0.031040170318606727,0.02929140558880619,2.475008010864258,2019-06-21 13:10:33:901
9.442586914062499,2.22178515625,0.6488187255859375,0.04942015551292433,0.030773854209598796,0.02369876729963979,2.479871988296509,2019-06-21 13:10:33:906
9.415054016113281,2.188266845703125,0.6643807983398438,0.05061857800345998,0.029841747828071065,0.017706654846961507,2.4849917888641357,2019-06-21 13:10:33:911
9.388718200683593,2.184675598144531,0.665577880859375,0.050352261894452056,0.030507538100590873,0.01104875212176341,2.489856004714966,2019-06-21 13:10:33:916
9.363579467773437,2.2110114135742185,0.6978991088867187,0.05008594578544413,0.029841747828071065,0.005322955778093048,2.4949758052825928,2019-06-21 13:10:33:921
9.356396972656249,2.21220849609375,0.7146582641601562,0.04875436524040452,0.028909641446543333,-0.0009354727835931616,2.500095844268799,2019-06-21 13:10:33:926
9.36477655029297,2.2098143310546874,0.723037841796875,0.04875436524040452,0.027578060901503717,-0.0066612691272635235,2.50495982170105,2019-06-21 13:10:33:931
9.343229064941406,2.201434753417969,0.6943078613281249,0.04782225885887678,0.027311744792495794,-0.013718646015973503,2.509823799133301,2019-06-21 13:10:33:936
9.354002807617187,2.189463928222656,0.69909619140625,0.049153839403916405,0.027178586737991825,-0.019843916523155754,2.514943838119507,2019-06-21 13:10:33:941
9.327666992187499,2.2086172485351563,0.7050816040039062,0.04862120718590056,0.027578060901503717,-0.025303396757818192,2.520063877105713,2019-06-21 13:10:33:946
9.3468203125,2.2110114135742185,0.6978991088867187,0.048088574967884705,0.02677911257447994,-0.03129550921049648,2.524927854537964,2019-06-21 13:10:33:951
9.34801739501953,2.2624859619140625,0.7110670166015625,0.04702331053185301,0.02664595451997598,-0.03608919917263911,2.53004789352417,2019-06-21 13:10:33:956
9.350411560058594,2.2876246948242187,0.7050816040039062,0.04595804609582131,0.026246480356464093,-0.04101604718928569,2.534911870956421,2019-06-21 13:10:33:961
9.370761962890624,2.293610107421875,0.6715632934570313,0.044626465550781695,0.026113322301960132,-0.04674184353295606,2.540031909942627,2019-06-21 13:10:33:966
9.356396972656249,2.3331138305664063,0.6524099731445312,0.042229620569710385,0.024115951484400707,-0.052733955985634344,2.544895887374878,2019-06-21 13:10:33:971
9.345623229980468,2.357055480957031,0.6643807983398438,0.041164356133678685,0.025713848138448247,-0.05686185567525716,2.550015926361084,2019-06-21 13:10:33:976
9.338440734863282,2.3690263061523438,0.6284683227539062,0.039566459479631146,0.024648583702416554,-0.061122913419383945,2.554879903793335,2019-06-21 13:10:33:981
9.33724365234375,2.3726175537109375,0.6344537353515625,0.0379685628255836,0.025314373974936362,-0.06431870672747902,2.559999942779541,2019-06-21 13:10:33:986
9.363579467773437,2.380997131347656,0.6871253662109374,0.03583803395352021,0.02438226759340863,-0.06844660641710185,2.564863920211792,2019-06-21 13:10:33:991
9.331258239746093,2.3881796264648436,0.6727603759765625,0.033441186891854296,0.022917528993865045,-0.07204186972751961,2.569983959197998,2019-06-21 13:10:33:996
9.362382385253905,2.3642379760742185,0.6560012207031249,0.030778025801775053,0.023982793429896745,-0.07590345330813451,2.574847936630249,2019-06-21 13:10:34:001
9.359988220214843,2.3821942138671877,0.6643807983398438,0.03051170969276713,0.022917528993865045,-0.07949872077974149,2.579967975616455,2019-06-21 13:10:34:006
9.334849487304687,2.3881796264648436,0.67994287109375,0.029180129147727513,0.022251738721345237,-0.08322714630585241,2.584831953048706,2019-06-21 13:10:34:011
9.338440734863282,2.392967956542969,0.6440303955078125,0.02691644222116016,0.02318384510287297,-0.08655609766845146,2.589951992034912,2019-06-21 13:10:34:016
9.339637817382812,2.408530029296875,0.665577880859375,0.02545170362161658,0.021852264557833352,-0.0892192587585307,2.595071792602539,2019-06-21 13:10:34:021
9.331258239746093,2.438457092285156,0.6308624877929687,0.02451959724008885,0.022251738721345237,-0.09161610373960202,2.599936008453369,2019-06-21 13:10:34:026
9.350411560058594,2.448033752441406,0.6476216430664062,0.02358749085856111,0.02158594844882543,-0.09454558093868917,2.605055809020996,2019-06-21 13:10:34:031
9.343229064941406,2.462398742675781,0.579387939453125,0.020924329768481874,0.02158594844882543,-0.09694242591976049,2.609919786453247,2019-06-21 13:10:34:036
9.325272827148437,2.4719754028320313,0.5937529296874999,0.0211906458774898,0.021852264557833352,-0.09947242895533576,2.615039825439453,2019-06-21 13:10:34:041
9.338440734863282,2.5114791259765625,0.6069208374023437,0.020258539495962066,0.021985422612337314,-0.10107032560938332,2.619903802871704,2019-06-21 13:10:34:046
9.336046569824218,2.531829528808594,0.60332958984375,0.019326433114434334,0.021852264557833352,-0.1042661189174784,2.62502384185791,2019-06-21 13:10:34:051
9.3468203125,2.572530334472656,0.5626287841796875,0.01772853646038679,0.022784370939361084,-0.10453243502648632,2.629887819290161,2019-06-21 13:10:34:056
9.309710754394532,2.55696826171875,0.574599609375,0.016929588133363017,0.023849635375392784,-0.10559769946251801,2.635007858276367,2019-06-21 13:10:34:061
9.33724365234375,2.5976690673828124,0.6188916625976563,0.016663272024355094,0.023450161211880892,-0.10772822833458141,2.639871835708618,2019-06-21 13:10:34:066
9.316893249511718,2.6120340576171874,0.6057237548828125,0.015731165642827363,0.023849635375392784,-0.10732875417106952,2.644991874694824,2019-06-21 13:10:34:071
9.330061157226563,2.6455523681640623,0.60332958984375,0.015198533424811513,0.023849635375392784,-0.10599717362602991,2.649855852127075,2019-06-21 13:10:34:076
9.306119506835937,2.685056091308594,0.636847900390625,0.014399585097787743,0.023716477320888822,-0.1066629638985497,2.6549758911132812,2019-06-21 13:10:34:081
9.313302001953124,2.7221656494140625,0.636847900390625,0.013334320661756046,0.02424910953890467,-0.10613033168053386,2.6598398685455322,2019-06-21 13:10:34:086
9.27978369140625,2.7173773193359376,0.5901616821289062,0.0128016884437402,0.0251812159204324,-0.10346717059045463,2.6649599075317383,2019-06-21 13:10:34:091
9.269009948730469,2.7221656494140625,0.61290625,0.01360063677076397,0.024914899811424477,-0.10226874809991898,2.6698238849639893,2019-06-21 13:10:34:096
9.316893249511718,2.7640635375976563,0.6392420654296875,0.013334320661756046,0.026512796465472017,-0.10120348366388729,2.6749439239501953,2019-06-21 13:10:34:101
9.26182745361328,2.7844139404296873,0.6332566528320313,0.013068004552748123,0.026113322301960132,-0.09880663868281594,2.6800639629364014,2019-06-21 13:10:34:106
9.27020703125,2.772443115234375,0.6488187255859375,0.012535372334732276,0.025580690083944285,-0.09547768732021691,2.6849279403686523,2019-06-21 13:10:34:111
9.27020703125,2.8215234985351563,0.6955049438476563,0.01360063677076397,0.024914899811424477,-0.09281452623013767,2.6900479793548584,2019-06-21 13:10:34:116
9.246265380859375,2.840676818847656,0.665577880859375,0.01413326898877982,0.024648583702416554,-0.08961873292204259,2.6949119567871094,2019-06-21 13:10:34:121
9.248659545898438,2.839479736328125,0.651212890625,0.014799059261299628,0.025314373974936362,-0.08522451712341185,2.7000319957733154,2019-06-21 13:10:34:126
9.219929565429688,2.8658155517578123,0.7098699340820313,0.014399585097787743,0.0251812159204324,-0.08122977548829298,2.7048959732055664,2019-06-21 13:10:34:131
9.223520812988282,2.895742614746094,0.7098699340820313,0.015331691479315474,0.025713848138448247,-0.0780339821801979,2.7100160121917725,2019-06-21 13:10:34:136
9.254644958496094,2.9029251098632813,0.6715632934570313,0.016663272024355094,0.025580690083944285,-0.07443871470859093,2.7148799896240234,2019-06-21 13:10:34:141
9.254644958496094,2.924472595214844,0.6248770751953124,0.017329062296874902,0.024914899811424477,-0.06871292252610978,2.7199997901916504,2019-06-21 13:10:34:146
9.239082885742187,2.8849688720703126,0.598541259765625,0.017329062296874902,0.026246480356464093,-0.06431870672747902,2.7248640060424805,2019-06-21 13:10:34:151
9.252250793457032,2.925669677734375,0.6296654052734375,0.018660642841914522,0.027444902846999755,-0.059525016765336405,2.7299838066101074,2019-06-21 13:10:34:156
9.24147705078125,2.938837585449219,0.61290625,0.019459591168938296,0.02851016728303145,-0.05393237847617,2.7348477840423584,2019-06-21 13:10:34:161
9.215141235351563,2.950808410644531,0.6380449829101562,0.021323803931993762,0.029175957555551257,-0.04754079185997983,2.7399678230285645,2019-06-21 13:10:34:166
9.224717895507812,2.954399658203125,0.6248770751953124,0.022921700586041302,0.02944227366455918,-0.042214469679821356,2.7448318004608154,2019-06-21 13:10:34:171
9.213944152832031,2.924472595214844,0.6117091674804688,0.02358749085856111,0.03037438004608691,-0.03728762166317476,2.7499518394470215,2019-06-21 13:10:34:176
9.207958740234375,2.92088134765625,0.6380449829101562,0.024253281131080925,0.03183911864563049,-0.033159721973551944,2.7550718784332275,2019-06-21 13:10:34:181
9.230703308105468,2.916093017578125,0.6356508178710938,0.025185387512608657,0.03183911864563049,-0.029830770610952895,2.7599358558654785,2019-06-21 13:10:34:186
9.230703308105468,2.9136988525390626,0.6476216430664062,0.02718275833016808,0.03263806697265426,-0.02517023870331423,2.7650558948516846,2019-06-21 13:10:34:191
9.24147705078125,2.906516357421875,0.627271240234375,0.02798170665719186,0.032904383081662186,-0.018778652087124058,2.7699198722839355,2019-06-21 13:10:34:196
9.195987915039062,2.9113046875,0.675154541015625,0.02878065498421563,0.033570173354182,-0.013186013797957656,2.7750399112701416,2019-06-21 13:10:34:201
9.20317041015625,2.9136988525390626,0.6811399536132813,0.03051170969276713,0.03543438611723747,-0.009324430217342762,2.7799038887023926,2019-06-21 13:10:34:206
9.194790832519532,2.896939697265625,0.68951953125,0.03264223856483052,0.036366492498765196,-0.0053296885822239045,2.7850239276885986,2019-06-21 13:10:34:211
9.207958740234375,2.9136988525390626,0.6978991088867187,0.033574344946358255,0.035967018335253315,-0.001601263056112971,2.7898879051208496,2019-06-21 13:10:34:216
9.20317041015625,2.8921513671875,0.684731201171875,0.03503908562649644,0.03649965055326916,0.004257691342061352,2.7950079441070557,2019-06-21 13:10:34:221
9.207958740234375,2.8741951293945314,0.6631837158203124,0.03597119200802417,0.03490175389922162,0.00825243297718021,2.7998719215393066,2019-06-21 13:10:34:226
9.213944152832031,2.8765892944335936,0.6703662109374999,0.03650382422604002,0.036765966662277084,0.011980858503291144,2.8049919605255127,2019-06-21 13:10:34:231
9.223520812988282,2.8610272216796875,0.6105120849609375,0.03743593060756775,0.03703228277128501,0.014510861538866418,2.8098559379577637,2019-06-21 13:10:34:236
9.23309747314453,2.8358884887695313,0.6284683227539062,0.038900669207111334,0.035967018335253315,0.0170408645744417,2.8149759769439697,2019-06-21 13:10:34:241
9.2127470703125,2.8358884887695313,0.6404391479492187,0.03996593364314303,0.035967018335253315,0.022100870645592248,2.8198399543762207,2019-06-21 13:10:34:246
9.218732482910156,2.8131439208984372,0.6440303955078125,0.04023224975215095,0.036765966662277084,0.026361928389719028,2.8249599933624268,2019-06-21 13:10:34:251
9.217535400390625,2.826311828613281,0.6164974975585937,0.0407648819701668,0.03716544082578897,0.030223511970333922,2.8298239707946777,2019-06-21 13:10:34:256
9.206761657714843,2.8059614257812497,0.6548041381835937,0.04169698835169454,0.038230705261820666,0.03368562138743693,2.834944009780884,2019-06-21 13:10:34:261
9.215141235351563,2.802370178222656,0.6619866333007812,0.04196330446070246,0.0391628116433484,0.03674825664102806,2.8400638103485107,2019-06-21 13:10:34:266
9.20436749267578,2.816735168457031,0.6811399536132813,0.042229620569710385,0.04009491802487613,0.0394114177311073,2.8449277877807617,2019-06-21 13:10:34:271
9.219929565429688,2.797581848144531,0.6931107788085937,0.04262909473322227,0.04076070829739594,0.04167510465767465,2.8500478267669678,2019-06-21 13:10:34:276
9.243871215820313,2.785611022949219,0.6727603759765625,0.04329488500574208,0.039429127752356324,0.04460458185676181,2.8549118041992188,2019-06-21 13:10:34:281
9.22232373046875,2.8059614257812497,0.6583953857421875,0.04436014944177377,0.03836386331632463,0.04753405905584897,2.860031843185425,2019-06-21 13:10:34:286
9.258236206054688,2.7915964355468748,0.6571983032226563,0.04276225278772623,0.04036123413388405,0.051795116799975754,2.864895820617676,2019-06-21 13:10:34:291
9.235491638183593,2.8179322509765625,0.646424560546875,0.042362778624214344,0.039429127752356324,0.055257226217078764,2.870015859603882,2019-06-21 13:10:34:296
9.237885803222657,2.801173095703125,0.703884521484375,0.043161726951238114,0.03969544386136425,0.057254597034638186,2.874879837036133,2019-06-21 13:10:34:301
9.2510537109375,2.799976013183594,0.73740283203125,0.04103119807917473,0.041027024406403864,0.05978460007021347,2.879999876022339,2019-06-21 13:10:34:306
9.246265380859375,2.797581848144531,0.7912715454101562,0.039699617534135104,0.038230705261820666,0.06431197392334817,2.88486385345459,2019-06-21 13:10:34:311
9.20317041015625,2.734136474609375,0.8451402587890625,0.03996593364314303,0.03849702137082859,0.06670881890441949,2.889983892440796,2019-06-21 13:10:34:316
9.2127470703125,2.7006181640625,0.8032423706054688,0.03916698531611926,0.037564914989300854,0.06963829610350665,2.894847869873047,2019-06-21 13:10:34:321
9.211549987792969,2.7030123291015626,0.7876802978515625,0.04129751418818265,0.03663280860777312,0.07283409357279094,2.899967908859253,2019-06-21 13:10:34:326
9.291754516601562,2.6790706787109375,0.83316943359375,0.043161726951238114,0.0353012280627335,0.07483146439035036,2.904831886291504,2019-06-21 13:10:34:331
9.284572021484374,2.663508605957031,0.7409940795898438,0.0418301464061985,0.03317069919067011,0.07682883520790978,2.90995192527771,2019-06-21 13:10:34:336
9.326469909667969,2.634778625488281,0.6775487060546875,0.04089804002467076,0.032904383081662186,0.07789409964394149,2.915071964263916,2019-06-21 13:10:34:341
9.350411560058594,2.5845011596679686,0.6332566528320313,0.043161726951238114,0.032105434754638416,0.07909252213447715,2.919935941696167,2019-06-21 13:10:34:346
9.368367797851562,2.560559509277344,0.6176945800781249,0.04169698835169454,0.03317069919067011,0.07816041575294942,2.925055980682373,2019-06-21 13:10:34:351
9.377944458007812,2.5390120239257814,0.5781908569335937,0.042362778624214344,0.03383648946318992,0.07776094158943753,2.929919958114624,2019-06-21 13:10:34:356
9.400689025878906,2.4971141357421875,0.5949500122070313,0.04369435916925396,0.03383648946318992,0.07749462548042961,2.93503999710083,2019-06-21 13:10:34:361
9.427024841308594,2.504296630859375,0.6117091674804688,0.04143067224268661,0.03383648946318992,0.07523093855386224,2.939903974533081,2019-06-21 13:10:34:366
9.465331481933594,2.4061358642578123,0.5973441772460938,0.040498565861158874,0.03303754113616615,0.0723014613547751,2.945024013519287,2019-06-21 13:10:34:371
9.455754821777344,2.32712841796875,0.60332958984375,0.04063172391566284,0.03237175086364634,0.06950513804900268,2.949887990951538,2019-06-21 13:10:34:376
9.455754821777344,2.274456787109375,0.6296654052734375,0.04143067224268661,0.03303754113616615,0.06537723835937988,2.955007791519165,2019-06-21 13:10:34:381
9.488076049804688,2.264880126953125,0.665577880859375,0.043827517223757925,0.032504908918150305,0.060184074233725356,2.959872007369995,2019-06-21 13:10:34:386
9.50124395751953,2.2050260009765625,0.646424560546875,0.043827517223757925,0.03157280253662257,0.055656700380590646,2.964991807937622,2019-06-21 13:10:34:391
9.516806030273438,2.1667193603515624,0.6332566528320313,0.04356120111475,0.03117332837311069,0.047933533219360856,2.969855785369873,2019-06-21 13:10:34:396
9.50124395751953,2.1260185546875,0.7170524291992187,0.045824888041317346,0.03037438004608691,0.0400772080036271,2.974975824356079,2019-06-21 13:10:34:401
9.502441040039063,2.0841206665039063,0.7098699340820313,0.04835489107689263,0.02930911561005522,0.03315298916942108,2.97983980178833,2019-06-21 13:10:34:406
9.49047021484375,2.1056681518554687,0.6835341186523437,0.049952787730940175,0.02877648339203937,0.026095612280711104,2.984959840774536,2019-06-21 13:10:34:411
9.464134399414062,2.1391864624023436,0.703884521484375,0.051550684384987715,0.02851016728303145,0.018638761228489238,2.990079879760742,2019-06-21 13:10:34:416
9.466528564453125,2.1284127197265623,0.6476216430664062,0.051550684384987715,0.029042799501047295,0.01251349072130699,2.994943857192993,2019-06-21 13:10:34:421
9.435404418945312,2.1667193603515624,0.646424560546875,0.05141752633048375,0.028243851174023525,0.004257691342061352,3.000063896179199,2019-06-21 13:10:34:426
9.440192749023437,2.1535514526367185,0.6967020263671875,0.05168384243949167,0.02784437701051164,-0.0025333694376407047,3.00492787361145,2019-06-21 13:10:34:431
9.412659851074219,2.213405578613281,0.6727603759765625,0.051550684384987715,0.027178586737991825,-0.008126007726807105,3.0100479125976562,2019-06-21 13:10:34:436
9.37555029296875,2.2385443115234374,0.6583953857421875,0.05061857800345998,0.02664595451997598,-0.015449700724525008,3.0149118900299072,2019-06-21 13:10:34:441
9.386324035644531,2.2433326416015626,0.6919136962890625,0.0502191038399481,0.026113322301960132,-0.02157497123170726,3.0200319290161133,2019-06-21 13:10:34:446
9.351608642578125,2.2349530639648436,0.6679720458984375,0.04702331053185301,0.02504805786592844,-0.027300767575377617,3.0248959064483643,2019-06-21 13:10:34:451
9.381535705566407,2.254106384277344,0.64163623046875,0.04329488500574208,0.024914899811424477,-0.0332928800280559,3.0300159454345703,2019-06-21 13:10:34:456
9.397097778320312,2.256500549316406,0.6009354248046875,0.04169698835169454,0.023450161211880892,-0.03821972804470249,3.0348799228668213,2019-06-21 13:10:34:461
9.362382385253905,2.293610107421875,0.6188916625976563,0.03850119504359945,0.02318384510287297,-0.04354605022486097,3.0399999618530273,2019-06-21 13:10:34:466
9.354002807617187,2.3187488403320313,0.6260741577148438,0.036237508117032094,0.024648583702416554,-0.0483397401870036,3.0448639392852783,2019-06-21 13:10:34:471
9.3659736328125,2.312763427734375,0.6105120849609375,0.033441186891854296,0.023716477320888822,-0.05313343014914623,3.0499839782714844,2019-06-21 13:10:34:476
9.3468203125,2.3295225830078126,0.5997383422851562,0.029446445256735437,0.02318384510287297,-0.05832659427480075,3.0548479557037354,2019-06-21 13:10:34:481
9.342031982421874,2.340296325683594,0.58417626953125,0.02625065194864035,0.023716477320888822,-0.06298712618243942,3.0599679946899414,2019-06-21 13:10:34:486
9.351608642578125,2.3594496459960936,0.579387939453125,0.023054858640545264,0.024115951484400707,-0.06644923559954242,3.0648319721221924,2019-06-21 13:10:34:491
9.351608642578125,2.3307196655273437,0.5853733520507812,0.01972590727794622,0.0251812159204324,-0.0696450289076375,3.0699520111083984,2019-06-21 13:10:34:496
9.340834899902344,2.3343109130859374,0.5805850219726563,0.018261168678402637,0.024914899811424477,-0.07430555665408696,3.0750718116760254,2019-06-21 13:10:34:501
9.33724365234375,2.342690490722656,0.6380449829101562,0.015864323697331324,0.024781741756920515,-0.07869977245271771,3.0799357891082764,2019-06-21 13:10:34:506
9.342031982421874,2.3187488403320313,0.6117091674804688,0.014399585097787743,0.02504805786592844,-0.08322714630585241,3.0850558280944824,2019-06-21 13:10:34:511
9.370761962890624,2.325931335449219,0.608117919921875,0.0128016884437402,0.02677911257447994,-0.08615662350493958,3.0899198055267334,2019-06-21 13:10:34:516
9.3468203125,2.309172180175781,0.6476216430664062,0.012002740116716426,0.028243851174023525,-0.09121662957609013,3.0950398445129395,2019-06-21 13:10:34:521
9.338440734863282,2.3199459228515624,0.6619866333007812,0.012269056225724353,0.026512796465472017,-0.0948118970476971,3.0999038219451904,2019-06-21 13:10:34:526
9.349214477539062,2.3498729858398435,0.6500158081054688,0.012269056225724353,0.027045428683487863,-0.098673480628312,3.1050238609313965,2019-06-21 13:10:34:531
9.315696166992188,2.3774058837890624,0.665577880859375,0.01360063677076397,0.028377009228527487,-0.1014697997728952,3.1098878383636475,2019-06-21 13:10:34:536
9.308513671875,2.4061358642578123,0.69909619140625,0.013467478716260008,0.027977535065015602,-0.10466559308099029,3.1150078773498535,2019-06-21 13:10:34:541
9.307316589355468,2.413318359375,0.6667749633789062,0.014532743152291704,0.027311744792495794,-0.1087934927706131,3.1198718547821045,2019-06-21 13:10:34:546
9.309710754394532,2.467187072753906,0.64163623046875,0.014665901206795666,0.029042799501047295,-0.11158981191519629,3.1249918937683105,2019-06-21 13:10:34:551
9.31928741455078,2.4887345581054685,0.684731201171875,0.015598007588323397,0.02944227366455918,-0.11385349884176364,3.1298558712005615,2019-06-21 13:10:34:556
9.310907836914062,2.5294353637695313,0.6883224487304688,0.01639695591534717,0.027045428683487863,-0.11638350187733894,3.1349759101867676,2019-06-21 13:10:34:561
9.324075744628907,2.5557711791992186,0.6775487060546875,0.017329062296874902,0.0269122706289839,-0.11664981798634687,3.1398398876190186,2019-06-21 13:10:34:566
9.310907836914062,2.5880924072265623,0.6488187255859375,0.016796430078859056,0.0269122706289839,-0.11904666296741817,3.1449599266052246,2019-06-21 13:10:34:571
9.302528259277343,2.6168223876953123,0.646424560546875,0.01759537840588283,0.02771121895600768,-0.11904666296741817,3.1498239040374756,2019-06-21 13:10:34:576
9.291754516601562,2.6527348632812497,0.6643807983398438,0.018128010623898676,0.02771121895600768,-0.11771508242237856,3.1549439430236816,2019-06-21 13:10:34:581
9.285769104003906,2.7113919067382812,0.6440303955078125,0.018128010623898676,0.02784437701051164,-0.11678297604085082,3.1600639820098877,2019-06-21 13:10:34:586
9.286966186523438,2.724559814453125,0.6560012207031249,0.018660642841914522,0.027578060901503717,-0.11571771160481913,3.1649279594421387,2019-06-21 13:10:34:591
9.27020703125,2.759275207519531,0.6260741577148438,0.0183943267329066,0.027311744792495794,-0.11491876327779536,3.1700479984283447,2019-06-21 13:10:34:596
9.245068298339843,2.7808226928710935,0.6320595703125,0.017462220351378864,0.027311744792495794,-0.11212244413321214,3.1749119758605957,2019-06-21 13:10:34:601
9.224717895507812,2.8191293334960936,0.6643807983398438,0.018261168678402637,0.027578060901503717,-0.10972559915214083,3.1800320148468018,2019-06-21 13:10:34:606
9.236688720703125,2.872998046875,0.6332566528320313,0.019326433114434334,0.027444902846999755,-0.10599717362602991,3.1848959922790527,2019-06-21 13:10:34:611
9.242674133300781,2.9113046875,0.6176945800781249,0.018128010623898676,0.027578060901503717,-0.1014697997728952,3.1900157928466797,2019-06-21 13:10:34:616
9.23309747314453,2.912501770019531,0.66078955078125,0.018128010623898676,0.028909641446543333,-0.0958771614837288,3.1948800086975098,2019-06-21 13:10:34:621
9.259433288574218,2.9292609252929687,0.6583953857421875,0.0183943267329066,0.02957543171906314,-0.09241505206662579,3.1999998092651367,2019-06-21 13:10:34:626
9.271404113769531,2.954399658203125,0.6344537353515625,0.018128010623898676,0.029708589773567103,-0.08762136210448315,3.2048637866973877,2019-06-21 13:10:34:631
9.247462463378906,2.9460200805664063,0.6141033325195312,0.018261168678402637,0.028909641446543333,-0.08122977548829298,3.2099838256835938,2019-06-21 13:10:34:636
9.254644958496094,2.9867208862304686,0.6176945800781249,0.01852748478741056,0.030507538100590873,-0.07510450498111075,3.2148478031158447,2019-06-21 13:10:34:641
9.246265380859375,2.9735529785156247,0.6500158081054688,0.019326433114434334,0.03024122199158295,-0.06937871279862959,3.219967842102051,2019-06-21 13:10:34:646
9.236688720703125,2.97834130859375,0.6476216430664062,0.020125381441458104,0.030907012264102765,-0.06525081310900675,3.2248318195343018,2019-06-21 13:10:34:651
9.210352905273437,2.9735529785156247,0.6775487060546875,0.02065801365947395,0.030640696155094835,-0.05939185871083244,3.229951858520508,2019-06-21 13:10:34:656
9.216338317871093,2.9711588134765625,0.6643807983398438,0.022255910313521494,0.03157280253662257,-0.05286711404013831,3.235071897506714,2019-06-21 13:10:34:661
9.188805419921875,2.9771442260742185,0.6931107788085937,0.023720648913065072,0.03157280253662257,-0.04634236936944417,3.239935874938965,2019-06-21 13:10:34:666
9.245068298339843,2.9723558959960936,0.6967020263671875,0.025718019730624504,0.03037438004608691,-0.040483414971269845,3.245055913925171,2019-06-21 13:10:34:671
9.206761657714843,2.9819325561523438,0.7290232543945312,0.028248022766199782,0.031040170318606727,-0.03582288306363118,3.249919891357422,2019-06-21 13:10:34:676
9.194790832519532,2.9711588134765625,0.6907166137695312,0.029979077474751283,0.03117332837311069,-0.029963928665456857,3.255039930343628,2019-06-21 13:10:34:681
9.181622924804687,2.9855238037109375,0.6835341186523437,0.03051170969276713,0.03183911864563049,-0.02330602594025876,3.259903907775879,2019-06-21 13:10:34:686
9.186411254882811,2.9879179687499997,0.6907166137695312,0.03171013218330279,0.031306486427614647,-0.01691443932406859,3.265023946762085,2019-06-21 13:10:34:691
9.205564575195313,2.9735529785156247,0.6703662109374999,0.03290855467383845,0.031705960591126535,-0.011588117143910113,3.269887924194336,2019-06-21 13:10:34:696
9.240279968261719,2.9747500610351563,0.7062786865234375,0.034639609382389955,0.031705960591126535,-0.0063949530182556,3.275007963180542,2019-06-21 13:10:34:701
9.20317041015625,2.963976318359375,0.67994287109375,0.03503908562649644,0.031705960591126535,-0.0009354727835931616,3.279871940612793,2019-06-21 13:10:34:706
9.194790832519532,2.950808410644531,0.6595924682617187,0.03677014033504794,0.032105434754638416,0.0047903235600772,3.284991979598999,2019-06-21 13:10:34:711
9.188805419921875,2.9460200805664063,0.646424560546875,0.038101720880087564,0.03263806697265426,0.010649277958251524,3.28985595703125,2019-06-21 13:10:34:716
9.224717895507812,2.9316550903320313,0.6727603759765625,0.03823487893459153,0.031705960591126535,0.015576125974898115,3.294975996017456,2019-06-21 13:10:34:721
9.216338317871093,2.92088134765625,0.6404391479492187,0.03850119504359945,0.03197227670013446,0.019837183719024896,3.299839973449707,2019-06-21 13:10:34:726
9.2127470703125,2.9113046875,0.6524099731445312,0.03930014337062322,0.03317069919067011,0.023965083408647718,3.304960012435913,2019-06-21 13:10:34:731
9.242674133300781,2.868209716796875,0.6943078613281249,0.039699617534135104,0.032504908918150305,0.02915824753430223,3.309823989868164,2019-06-21 13:10:34:736
9.230703308105468,2.878983459472656,0.6571983032226563,0.04023224975215095,0.03223859280914238,0.03208772473338939,3.314943790435791,2019-06-21 13:10:34:741
9.247462463378906,2.8155380859375,0.6775487060546875,0.040498565861158874,0.03277122502715823,0.035283518041484475,3.320063829421997,2019-06-21 13:10:34:746
9.282177856445312,2.7939906005859374,0.6452274780273437,0.041563830297190574,0.03223859280914238,0.03967773384011522,3.324927806854248,2019-06-21 13:10:34:751
9.277389526367188,2.802370178222656,0.6859282836914062,0.041563830297190574,0.03197227670013446,0.042207736875690495,3.330047845840454,2019-06-21 13:10:34:756
9.272601196289063,2.771246032714844,0.6823370361328125,0.041164356133678685,0.03183911864563049,0.04447142380225785,3.334911823272705,2019-06-21 13:10:34:761
9.29055743408203,2.730545227050781,0.6667749633789062,0.04169698835169454,0.03277122502715823,0.0467351107288252,3.340031862258911,2019-06-21 13:10:34:766
9.282177856445312,2.7066035766601564,0.6811399536132813,0.04262909473322227,0.031705960591126535,0.047267742946841045,3.344895839691162,2019-06-21 13:10:34:771
9.284572021484374,2.6682969360351563,0.6404391479492187,0.04329488500574208,0.032904383081662186,0.049131955709896515,3.350015878677368,2019-06-21 13:10:34:776
9.27978369140625,2.6395669555664063,0.6643807983398438,0.04276225278772623,0.032504908918150305,0.050863010418448026,3.354879856109619,2019-06-21 13:10:34:781
9.272601196289063,2.6503406982421875,0.6548041381835937,0.04209646251520642,0.03237175086364634,0.05112932652745595,3.359999895095825,2019-06-21 13:10:34:786
9.29055743408203,2.6275961303710935,0.6428333129882813,0.04276225278772623,0.03277122502715823,0.0523277490179916,3.364863872528076,2019-06-21 13:10:34:791
9.308513671875,2.6072457275390626,0.6380449829101562,0.043028568896734155,0.031306486427614647,0.051795116799975754,3.3699839115142822,2019-06-21 13:10:34:796
9.286966186523438,2.577318664550781,0.6548041381835937,0.042362778624214344,0.03157280253662257,0.050996168472951985,3.374847888946533,2019-06-21 13:10:34:801
9.27020703125,2.5473916015625,0.6296654052734375,0.04262909473322227,0.032504908918150305,0.05033037820043218,3.3799679279327393,2019-06-21 13:10:34:806
9.253447875976562,2.566544921875,0.6117091674804688,0.04262909473322227,0.03277122502715823,0.04926511376440047,3.3848319053649902,2019-06-21 13:10:34:811
9.243871215820313,2.5497857666015626,0.6404391479492187,0.04143067224268661,0.03383648946318992,0.048333007382872745,3.3899519443511963,2019-06-21 13:10:34:816
9.246265380859375,2.571333251953125,0.6703662109374999,0.04143067224268661,0.03490175389922162,0.048732481546384626,3.3950719833374023,2019-06-21 13:10:34:821
9.225914978027344,2.59527490234375,0.6117091674804688,0.04089804002467076,0.03583386028074935,0.04859932349188067,3.3999359607696533,2019-06-21 13:10:34:826
9.201973327636718,2.6240048828124998,0.6344537353515625,0.0407648819701668,0.03836386331632463,0.049531429873408396,3.4050559997558594,2019-06-21 13:10:34:831
9.160075439453125,2.6383698730468748,0.6212858276367187,0.040498565861158874,0.039029653588844436,0.04899879765539255,3.4099199771881104,2019-06-21 13:10:34:836
9.178031677246093,2.676676513671875,0.6344537353515625,0.039699617534135104,0.03969544386136425,0.05033037820043218,3.4150400161743164,2019-06-21 13:10:34:841
9.225914978027344,2.6790706787109375,0.6571983032226563,0.03943330142512718,0.04129334051541179,0.05299353929051141,3.4199039936065674,2019-06-21 13:10:34:846
9.2127470703125,2.7209685668945314,0.6859282836914062,0.03916698531611926,0.042491763005947446,0.05432511983555103,3.4250237941741943,2019-06-21 13:10:34:851
9.186411254882811,2.753289794921875,0.6811399536132813,0.0379685628255836,0.042491763005947446,0.05738775508914215,3.4298880100250244,2019-06-21 13:10:34:856
9.182820007324219,2.7365306396484375,0.6811399536132813,0.03756908866207172,0.042491763005947446,0.06124933866975705,3.4350078105926514,2019-06-21 13:10:34:861
9.2510537109375,2.762866455078125,0.7158553466796875,0.037302772553063794,0.04342386938747518,0.06551039641388383,3.4398717880249023,2019-06-21 13:10:34:866
9.26063037109375,2.734136474609375,0.7433882446289062,0.03836803698909549,0.04182597273342764,0.06883934777648287,3.4449918270111084,2019-06-21 13:10:34:871
9.31928741455078,2.7473043823242187,0.7074757690429687,0.03836803698909549,0.04142649856991575,0.07203514524576717,3.4498558044433594,2019-06-21 13:10:34:876
9.391112365722655,2.647946533203125,0.7338115844726563,0.03916698531611926,0.040893866351899906,0.07429883217233452,3.4549758434295654,2019-06-21 13:10:34:881
9.369564880371094,2.677873596191406,0.75655615234375,0.04169698835169454,0.037431756934796896,0.07682883520790978,3.4598398208618164,2019-06-21 13:10:34:886
9.411462768554687,2.615625305175781,0.6440303955078125,0.0407648819701668,0.040228076079380094,0.07882620602546922,3.4649598598480225,2019-06-21 13:10:34:891
9.461740234375,2.561756591796875,0.7050816040039062,0.043161726951238114,0.03716544082578897,0.07895936407997318,3.4698238372802734,2019-06-21 13:10:34:896
9.472513977050781,2.5354207763671877,0.723037841796875,0.04489278165978962,0.03703228277128501,0.07949199629798903,3.4749438762664795,2019-06-21 13:10:34:901
9.43301025390625,2.4205008544921873,0.56502294921875,0.04609120415032527,0.03503491195372558,0.07789409964394149,3.4800639152526855,2019-06-21 13:10:34:906
9.54912725830078,2.4205008544921873,0.5554462890625,0.04662383636834113,0.03490175389922162,0.07563041271737414,3.4849278926849365,2019-06-21 13:10:34:911
9.583842651367187,2.336705078125,0.6619866333007812,0.04702331053185301,0.03543438611723747,0.07310040968179886,3.4900479316711426,2019-06-21 13:10:34:916
9.494061462402344,2.2876246948242187,0.7014903564453124,0.049553313567428287,0.03143964448211861,0.0691056638854908,3.4949119091033936,2019-06-21 13:10:34:921
9.581448486328124,2.199040588378906,0.5446725463867187,0.04715646858635698,0.03570070222624539,0.061781970887772895,3.5000319480895996,2019-06-21 13:10:34:926
9.550324340820312,2.2110114135742185,0.5542492065429687,0.04875436524040452,0.03037438004608691,0.05712143898013423,3.5048959255218506,2019-06-21 13:10:34:931
9.545536010742188,2.1332010498046876,0.7026874389648438,0.05101805216697187,0.03024122199158295,0.050863010418448026,3.5100159645080566,2019-06-21 13:10:34:936
9.561098083496093,2.1104564819335936,0.6344537353515625,0.05008594578544413,0.030640696155094835,0.04460458185676181,3.5148799419403076,2019-06-21 13:10:34:941
9.489273132324218,2.1080623168945314,0.5207308959960938,0.049553313567428287,0.027311744792495794,0.036881414695532015,3.5199999809265137,2019-06-21 13:10:34:946
9.507229370117187,2.086514831542969,0.6260741577148438,0.05128436827597979,0.029175957555551257,0.02929140558880619,3.5248639583587646,2019-06-21 13:10:34:951
9.476105224609375,2.1260185546875,0.6332566528320313,0.04822173302238867,0.027444902846999755,0.0215682384275764,3.5299839973449707,2019-06-21 13:10:34:956
9.454557739257812,2.11644189453125,0.608117919921875,0.04755594274986886,0.029042799501047295,0.014244545429858495,3.5348479747772217,2019-06-21 13:10:34:961
9.465331481933594,2.086514831542969,0.5937529296874999,0.04662383636834113,0.02944227366455918,0.006787694377636629,3.5399680137634277,2019-06-21 13:10:34:966
9.429419006347656,2.145171875,0.6440303955078125,0.04276225278772623,0.027045428683487863,-0.0005359986200812759,3.5448319911956787,2019-06-21 13:10:34:971
9.458148986816406,2.130806884765625,0.665577880859375,0.04329488500574208,0.028243851174023525,-0.00785969161779918,3.5499517917633057,2019-06-21 13:10:34:976
9.336046569824218,2.130806884765625,0.6823370361328125,0.041164356133678685,0.02677911257447994,-0.013851804070477465,3.5550718307495117,2019-06-21 13:10:34:981
9.34801739501953,2.1487631225585937,0.6488187255859375,0.03677014033504794,0.027977535065015602,-0.020509706795675563,3.5599358081817627,2019-06-21 13:10:34:986
9.386324035644531,2.1631281127929687,0.7673298950195312,0.03823487893459153,0.028243851174023525,-0.02676813535736177,3.5650558471679688,2019-06-21 13:10:34:991
9.368367797851562,2.1966464233398435,0.6943078613281249,0.03583803395352021,0.028377009228527487,-0.03289340586454402,3.5699198246002197,2019-06-21 13:10:34:996
9.380338623046875,2.2050260009765625,0.6380449829101562,0.033441186891854296,0.029042799501047295,-0.03955130858974212,3.575039863586426,2019-06-21 13:10:35:001
9.359988220214843,2.1655222778320313,0.7362057495117187,0.033441186891854296,0.028243851174023525,-0.044877630769900596,3.5799038410186768,2019-06-21 13:10:35:006
9.322878662109375,2.1798872680664063,0.7409940795898438,0.0295796033112394,0.028909641446543333,-0.050470269059066986,3.585023880004883,2019-06-21 13:10:35:011
9.334849487304687,2.213405578613281,0.651212890625,0.027715390548183935,0.02851016728303145,-0.056196065402737354,3.589887857437134,2019-06-21 13:10:35:016
9.334849487304687,2.2110114135742185,0.6583953857421875,0.028381180820703743,0.026113322301960132,-0.06218817785541564,3.59500789642334,2019-06-21 13:10:35:021
9.332455322265625,2.22178515625,0.6787457885742187,0.02451959724008885,0.0269122706289839,-0.06804713225358996,3.599871873855591,2019-06-21 13:10:35:026
9.3468203125,2.226573486328125,0.6679720458984375,0.02358749085856111,0.027311744792495794,-0.07204186972751961,3.604991912841797,2019-06-21 13:10:35:031
9.37555029296875,2.2146026611328122,0.6332566528320313,0.023986965022073002,0.027311744792495794,-0.07736819190767809,3.609855890274048,2019-06-21 13:10:35:036
9.354002807617187,2.226573486328125,0.6919136962890625,0.02198959420451357,0.026113322301960132,-0.08309398825134846,3.614975929260254,2019-06-21 13:10:35:041
9.370761962890624,2.236150146484375,0.7194465942382813,0.020924329768481874,0.025447532029440324,-0.08935241681303467,3.619839906692505,2019-06-21 13:10:35:046
9.339637817382812,2.2074201660156247,0.6763516235351562,0.020791171713977912,0.025314373974936362,-0.09374663261166541,3.624959945678711,2019-06-21 13:10:35:051
9.316893249511718,2.236150146484375,0.6404391479492187,0.018793800896418484,0.026379638410968055,-0.09973874506434369,3.629823923110962,2019-06-21 13:10:35:056
9.356396972656249,2.239741394042969,0.7218407592773437,0.018926958950922446,0.025580690083944285,-0.10493190918999822,3.634943962097168,2019-06-21 13:10:35:061
9.359988220214843,2.25051513671875,0.7050816040039062,0.018660642841914522,0.02438226759340863,-0.11105717969718044,3.640064001083374,2019-06-21 13:10:35:066
9.322878662109375,2.2900188598632814,0.6260741577148438,0.016530113969851132,0.024515425647912592,-0.11611718576833102,3.644927978515625,2019-06-21 13:10:35:071
9.354002807617187,2.280442199707031,0.6907166137695312,0.01639695591534717,0.024115951484400707,-0.12077771767596968,3.650048017501831,2019-06-21 13:10:35:076
9.331258239746093,2.3007926025390626,0.727826171875,0.016796430078859056,0.0251812159204324,-0.1251719334746004,3.654911994934082,2019-06-21 13:10:35:081
9.324075744628907,2.328325500488281,0.6344537353515625,0.015598007588323397,0.0251812159204324,-0.12969930732773513,3.660031795501709,2019-06-21 13:10:35:086
9.330061157226563,2.378602966308594,0.6548041381835937,0.016130639806339248,0.024515425647912592,-0.13409352312636585,3.664896011352539,2019-06-21 13:10:35:091
9.330061157226563,2.4121212768554687,0.6643807983398438,0.015731165642827363,0.024515425647912592,-0.13902037114301244,3.670015811920166,2019-06-21 13:10:35:096
9.313302001953124,2.4540191650390626,0.6488187255859375,0.013866952879771894,0.02424910953890467,-0.14194984834209962,3.674879789352417,2019-06-21 13:10:35:101
9.302528259277343,2.4695812377929687,0.6284683227539062,0.014799059261299628,0.024115951484400707,-0.1444798513776749,3.679999828338623,2019-06-21 13:10:35:106
9.330061157226563,2.48035498046875,0.6452274780273437,0.014532743152291704,0.023716477320888822,-0.14740932857676206,3.684863805770874,2019-06-21 13:10:35:111
9.310907836914062,2.5797128295898437,0.7050816040039062,0.01413326898877982,0.023050687048369007,-0.14847459301279375,3.68998384475708,2019-06-21 13:10:35:116
9.303725341796875,2.603654479980469,0.6548041381835937,0.01413326898877982,0.023982793429896745,-0.1468766963587462,3.694847822189331,2019-06-21 13:10:35:121
9.2893603515625,2.663508605957031,0.6093150024414062,0.013467478716260008,0.023849635375392784,-0.14700985441325018,3.699967861175537,2019-06-21 13:10:35:126
9.310907836914062,2.744910217285156,0.6691691284179687,0.012402214280228314,0.02438226759340863,-0.1472761705222581,3.704831838607788,2019-06-21 13:10:35:131
9.274995361328125,2.7772314453124998,0.7062786865234375,0.01360063677076397,0.023849635375392784,-0.1455451158137066,3.709951877593994,2019-06-21 13:10:35:136
9.249856628417968,2.7903993530273437,0.6332566528320313,0.012269056225724353,0.022917528993865045,-0.14288195472362733,3.7150719165802,2019-06-21 13:10:35:141
9.234294555664063,2.839479736328125,0.6488187255859375,0.01213589817122039,0.024115951484400707,-0.1395530033610283,3.719935894012451,2019-06-21 13:10:35:146
9.295345764160157,2.8562388916015626,0.651212890625,0.011869582062212464,0.024515425647912592,-0.13635721005293322,3.7250559329986572,2019-06-21 13:10:35:151
9.26182745361328,2.9292609252929687,0.6548041381835937,0.011736424007708503,0.025580690083944285,-0.13249562647231833,3.729919910430908,2019-06-21 13:10:35:156
