ACCELEROMETER X (m/s²),ACCELEROMETER Y (m/s²),ACCELEROMETER Z (m/s²),GYROSCOPE X (rad/s),GYROSCOPE Y (rad/s),GYROSCOPE Z (rad/s),Time since start in ms ,YYYY-MO-DD HH-MI-SS_SSS
6.587545104980468,7.9330658569335935,0.4848184204101562,0.03424028294109478,0.0392984580889959,0.012655797150274295,0.0,2019-06-20 16:35:05:596
6.604304260253906,7.951022094726563,0.4381322021484375,0.034506599050102706,0.03903214197998798,0.012522639095770333,0.004992008209228516,2019-06-20 16:35:05:601
6.597121765136719,7.946233764648437,0.42376721191406247,0.03477291515911063,0.040763196688539484,0.012655797150274295,0.01001596450805664,2019-06-20 16:35:05:606
6.595924682617188,7.937854187011719,0.4082051391601562,0.03357449266857497,0.040630038634035526,0.01305527131378618,0.015007972717285156,2019-06-20 16:35:05:611
6.610289672851563,7.951022094726563,0.4393292846679687,0.03424028294109478,0.040763196688539484,0.012788955204778256,0.019999980926513672,2019-06-20 16:35:05:616
6.6198663330078125,7.945036682128906,0.46327093505859374,0.033707650723078936,0.03916530003449194,0.012522639095770333,0.024991989135742188,2019-06-20 16:35:05:621
6.59831884765625,7.961795837402343,0.47284759521484376,0.03317501850506309,0.03916530003449194,0.012389481041266371,0.030015945434570312,2019-06-20 16:35:05:626
6.604304260253906,7.984540405273437,0.5051688232421875,0.03437344099559874,0.04023056447052364,0.012788955204778256,0.03500795364379883,2019-06-20 16:35:05:631
6.5767713623046875,7.959401672363281,0.512351318359375,0.034506599050102706,0.04023056447052364,0.013721061586305991,0.039999961853027344,2019-06-20 16:35:05:636
6.588742187499999,7.96778125,0.44890594482421875,0.03357449266857497,0.0392984580889959,0.013188429368290141,0.04499197006225586,2019-06-20 16:35:05:641
6.5911363525390625,7.959401672363281,0.46805926513671875,0.03317501850506309,0.038898983925484014,0.012655797150274295,0.050015926361083984,2019-06-20 16:35:05:646
6.603107177734375,7.9629929199218745,0.5063659057617187,0.032242912123535354,0.039564774198003826,0.014120535749817876,0.0550079345703125,2019-06-20 16:35:05:651
6.622260498046875,7.96778125,0.4572855224609375,0.03317501850506309,0.03943161614349987,0.014653167967833723,0.059999942779541016,2019-06-20 16:35:05:656
6.594727600097656,7.940248352050781,0.47045343017578123,0.03330817655956705,0.03863266781647609,0.0143868518588258,0.06499195098876953,2019-06-20 16:35:05:661
6.580362609863281,7.927080444335937,0.4596796875,0.033840808777582894,0.03836635170746817,0.013721061586305991,0.07001590728759766,2019-06-20 16:35:05:666
6.593530517578125,7.93905126953125,0.4465117797851562,0.03317501850506309,0.03943161614349987,0.014653167967833723,0.07500791549682617,2019-06-20 16:35:05:671
6.611486755371094,7.955810424804687,0.46925634765625,0.03290870239605516,0.03983109030701175,0.013987377695313915,0.07999992370605469,2019-06-20 16:35:05:676
6.59831884765625,7.968978332519531,0.454891357421875,0.031843437960023466,0.038898983925484014,0.015452116294857496,0.08502388000488281,2019-06-20 16:35:05:681
6.613880920410156,7.959401672363281,0.4572855224609375,0.0327755443415512,0.03903214197998798,0.014786326022337684,0.09001588821411133,2019-06-20 16:35:05:686
6.610289672851563,7.929474609375,0.4333438720703125,0.03237607017803931,0.03916530003449194,0.015318958240353535,0.09500789642333984,2019-06-20 16:35:05:691
6.625851745605469,7.964190002441406,0.4584826049804687,0.031443963796511584,0.03836635170746817,0.016251064621881268,0.09999990463256836,2019-06-20 16:35:05:696
6.615078002929687,7.965387084960938,0.4572855224609375,0.03157712185101554,0.03823319365296421,0.015052642131345608,0.10499191284179688,2019-06-20 16:35:05:701
6.603107177734375,7.953416259765625,0.46207385253906247,0.03237607017803931,0.03783371948945232,0.014253693804321838,0.110015869140625,2019-06-20 16:35:05:706
6.61747216796875,7.954613342285156,0.4285555419921875,0.03237607017803931,0.03836635170746817,0.016251064621881268,0.11500787734985352,2019-06-20 16:35:05:711
6.59831884765625,7.9629929199218745,0.4656651000976562,0.033840808777582894,0.038898983925484014,0.016117906567377306,0.11999988555908203,2019-06-20 16:35:05:716
6.618669250488281,7.927080444335937,0.4716505126953125,0.03290870239605516,0.03903214197998798,0.015851590458369383,0.12499189376831055,2019-06-20 16:35:05:721
6.629442993164062,7.942642517089843,0.4465117797851562,0.03290870239605516,0.03903214197998798,0.014653167967833723,0.13001585006713867,2019-06-20 16:35:05:726
6.615078002929687,7.95820458984375,0.46087677001953126,0.03290870239605516,0.038898983925484014,0.015851590458369383,0.1350078582763672,2019-06-20 16:35:05:731
6.612683837890625,7.95820458984375,0.44411761474609374,0.03317501850506309,0.039564774198003826,0.016251064621881268,0.1399998664855957,2019-06-20 16:35:05:736
6.623457580566406,7.929474609375,0.43094970703125,0.033041860450559124,0.039964248361515714,0.015052642131345608,0.14499187469482422,2019-06-20 16:35:05:741
6.611486755371094,7.931868774414062,0.43094970703125,0.03237607017803931,0.038765825870980056,0.013987377695313915,0.15001583099365234,2019-06-20 16:35:05:746
6.616275085449218,7.965387084960938,0.47524176025390624,0.033041860450559124,0.038765825870980056,0.016117906567377306,0.15500783920288086,2019-06-20 16:35:05:751
6.616275085449218,7.954613342285156,0.474044677734375,0.0327755443415512,0.03770056143494836,0.016117906567377306,0.15999984741210938,2019-06-20 16:35:05:756
6.6198663330078125,7.955810424804687,0.4285555419921875,0.033041860450559124,0.037301087271436474,0.01571843240386542,0.1649918556213379,2019-06-20 16:35:05:761
6.633034240722656,7.972569580078125,0.4848184204101562,0.031843437960023466,0.03903214197998798,0.014520009913329761,0.17001581192016602,2019-06-20 16:35:05:766
6.609092590332031,7.957007507324218,0.4776359252929687,0.03317501850506309,0.03903214197998798,0.013321587422794106,0.17500782012939453,2019-06-20 16:35:05:771
6.630640075683593,7.966584167480469,0.4393292846679687,0.03317501850506309,0.037167929216932516,0.013454745477298068,0.17999982833862305,2019-06-20 16:35:05:776
6.612683837890625,7.951022094726563,0.44890594482421875,0.033041860450559124,0.03783371948945232,0.014120535749817876,0.18499183654785156,2019-06-20 16:35:05:781
6.594727600097656,7.940248352050781,0.43454095458984376,0.03210975406903139,0.03903214197998798,0.013854219640809953,0.1900157928466797,2019-06-20 16:35:05:786
6.628245910644531,7.899547546386718,0.44292053222656247,0.031843437960023466,0.03943161614349987,0.0143868518588258,0.1950078010559082,2019-06-20 16:35:05:791
6.624654663085938,7.9330658569335935,0.41538763427734376,0.03357449266857497,0.039564774198003826,0.014786326022337684,0.19999980926513672,2019-06-20 16:35:05:796
6.616275085449218,7.955810424804687,0.43693511962890624,0.03330817655956705,0.038898983925484014,0.014786326022337684,0.20499181747436523,2019-06-20 16:35:05:801
6.625851745605469,7.954613342285156,0.4572855224609375,0.032642386287047236,0.03943161614349987,0.014653167967833723,0.21001577377319336,2019-06-20 16:35:05:806
6.623457580566406,7.935460021972656,0.4776359252929687,0.03237607017803931,0.03916530003449194,0.012123164932258448,0.21500778198242188,2019-06-20 16:35:05:811
6.6078955078125,7.95820458984375,0.45130010986328123,0.03397396683208686,0.03836635170746817,0.012655797150274295,0.2199997901916504,2019-06-20 16:35:05:816
6.599515930175781,7.953416259765625,0.41179638671874996,0.03424028294109478,0.038898983925484014,0.011590532714242601,0.2249917984008789,2019-06-20 16:35:05:821
6.628245910644531,7.9342629394531246,0.4201759643554687,0.033041860450559124,0.0403637225250276,0.014120535749817876,0.23001599311828613,2019-06-20 16:35:05:826
6.621063415527344,7.960598754882812,0.4524971923828125,0.03344133461407101,0.04116267085205137,0.013721061586305991,0.23500800132751465,2019-06-20 16:35:05:831
6.601910095214843,7.972569580078125,0.454891357421875,0.03344133461407101,0.03903214197998798,0.013987377695313915,0.24000000953674316,2019-06-20 16:35:05:836
6.599515930175781,7.955810424804687,0.4273584594726562,0.032242912123535354,0.03969793225250779,0.013721061586305991,0.24499177932739258,2019-06-20 16:35:05:841
6.616275085449218,7.949825012207031,0.49439508056640624,0.0327755443415512,0.038765825870980056,0.013721061586305991,0.2500159740447998,2019-06-20 16:35:05:846
6.589939270019531,7.965387084960938,0.45130010986328123,0.0327755443415512,0.03916530003449194,0.013188429368290141,0.2550079822540283,2019-06-20 16:35:05:851
6.594727600097656,7.940248352050781,0.46207385253906247,0.03157712185101554,0.03943161614349987,0.012655797150274295,0.25999999046325684,2019-06-20 16:35:05:856
6.616275085449218,7.942642517089843,0.4668621826171875,0.03250922823254328,0.03863266781647609,0.011856848823250525,0.26499199867248535,2019-06-20 16:35:05:861
6.587545104980468,7.9330658569335935,0.474044677734375,0.031843437960023466,0.0375674033804444,0.012922113259282218,0.2700159549713135,2019-06-20 16:35:05:866
6.601910095214843,7.946233764648437,0.46925634765625,0.031443963796511584,0.03903214197998798,0.012389481041266371,0.275007963180542,2019-06-20 16:35:05:871
6.593530517578125,7.9103212890625,0.474044677734375,0.03171027990551951,0.0403637225250276,0.013321587422794106,0.2799999713897705,2019-06-20 16:35:05:876
6.612683837890625,7.942642517089843,0.4393292846679687,0.03197659601452743,0.03849950976197213,0.013321587422794106,0.284991979598999,2019-06-20 16:35:05:881
6.612683837890625,7.952219177246094,0.48721258544921875,0.033041860450559124,0.038898983925484014,0.013454745477298068,0.29001593589782715,2019-06-20 16:35:05:886
6.612683837890625,7.940248352050781,0.48721258544921875,0.033041860450559124,0.03863266781647609,0.010791584387218828,0.29500794410705566,2019-06-20 16:35:05:891
6.609092590332031,7.930671691894531,0.4716505126953125,0.03344133461407101,0.04023056447052364,0.010791584387218828,0.2999999523162842,2019-06-20 16:35:05:896
6.594727600097656,7.930671691894531,0.47284759521484376,0.03330817655956705,0.03849950976197213,0.012123164932258448,0.3049919605255127,2019-06-20 16:35:05:901
6.611486755371094,7.925883361816406,0.4596796875,0.03344133461407101,0.03863266781647609,0.011990006877754486,0.3100159168243408,2019-06-20 16:35:05:906
6.6198663330078125,7.942642517089843,0.46087677001953126,0.03250922823254328,0.038765825870980056,0.011057900496226753,0.31500792503356934,2019-06-20 16:35:05:911
6.61747216796875,7.96778125,0.44890594482421875,0.033707650723078936,0.03943161614349987,0.011590532714242601,0.31999993324279785,2019-06-20 16:35:05:916
6.601910095214843,7.953416259765625,0.4596796875,0.03344133461407101,0.03836635170746817,0.01225632298676241,0.325023889541626,2019-06-20 16:35:05:921
6.615078002929687,7.937854187011719,0.464468017578125,0.03250922823254328,0.0392984580889959,0.011856848823250525,0.3300158977508545,2019-06-20 16:35:05:926
6.610289672851563,7.924686279296875,0.4848184204101562,0.03330817655956705,0.03863266781647609,0.011324216605234675,0.335007905960083,2019-06-20 16:35:05:931
6.610289672851563,7.949825012207031,0.4967892456054687,0.033707650723078936,0.03849950976197213,0.010791584387218828,0.3399999141693115,2019-06-20 16:35:05:936
6.594727600097656,7.954613342285156,0.45130010986328123,0.03290870239605516,0.03943161614349987,0.011324216605234675,0.34499192237854004,2019-06-20 16:35:05:941
6.599515930175781,7.946233764648437,0.44890594482421875,0.03317501850506309,0.03969793225250779,0.012522639095770333,0.35001587867736816,2019-06-20 16:35:05:946
6.6198663330078125,7.937854187011719,0.426161376953125,0.03317501850506309,0.038765825870980056,0.012389481041266371,0.3550078868865967,2019-06-20 16:35:05:951
6.612683837890625,7.937854187011719,0.45608843994140624,0.03250922823254328,0.039964248361515714,0.01145737465973864,0.3599998950958252,2019-06-20 16:35:05:956
6.587545104980468,7.927080444335937,0.4524971923828125,0.033041860450559124,0.038765825870980056,0.011590532714242601,0.3649919033050537,2019-06-20 16:35:05:961
6.552829711914062,7.931868774414062,0.44292053222656247,0.03330817655956705,0.03903214197998798,0.011856848823250525,0.37001585960388184,2019-06-20 16:35:05:966
6.570785949707031,7.952219177246094,0.41059930419921875,0.03357449266857497,0.038100035598460244,0.012655797150274295,0.37500786781311035,2019-06-20 16:35:05:971
6.593530517578125,7.9486279296874995,0.464468017578125,0.03237607017803931,0.03903214197998798,0.01358790353180203,0.37999987602233887,2019-06-20 16:35:05:976
6.5767713623046875,7.964190002441406,0.42975262451171875,0.03210975406903139,0.038765825870980056,0.013321587422794106,0.3849918842315674,2019-06-20 16:35:05:981
6.6078955078125,7.942642517089843,0.445314697265625,0.03157712185101554,0.03823319365296421,0.013321587422794106,0.3900158405303955,2019-06-20 16:35:05:986
6.611486755371094,7.941445434570312,0.45369427490234376,0.03237607017803931,0.03863266781647609,0.013321587422794106,0.39507198333740234,2019-06-20 16:35:05:991
6.603107177734375,7.941445434570312,0.4477088623046875,0.032242912123535354,0.038898983925484014,0.014253693804321838,0.39999985694885254,2019-06-20 16:35:05:996
6.622260498046875,7.957007507324218,0.4333438720703125,0.032242912123535354,0.03849950976197213,0.014520009913329761,0.40502381324768066,2019-06-20 16:35:06:001
6.623457580566406,7.929474609375,0.46207385253906247,0.033707650723078936,0.03903214197998798,0.0143868518588258,0.4100158214569092,2019-06-20 16:35:06:006
6.583953857421875,7.946233764648437,0.44292053222656247,0.032642386287047236,0.040763196688539484,0.013854219640809953,0.4150078296661377,2019-06-20 16:35:06:011
6.604304260253906,7.942642517089843,0.4668621826171875,0.032642386287047236,0.039564774198003826,0.013188429368290141,0.4199998378753662,2019-06-20 16:35:06:016
6.59831884765625,7.947430847167968,0.48840966796874996,0.034639757104606664,0.03849950976197213,0.013854219640809953,0.4249918460845947,2019-06-20 16:35:06:021
6.618669250488281,7.955810424804687,0.4393292846679687,0.03397396683208686,0.03863266781647609,0.013321587422794106,0.43001580238342285,2019-06-20 16:35:06:026
6.612683837890625,7.951022094726563,0.45130010986328123,0.033707650723078936,0.03903214197998798,0.013321587422794106,0.43500781059265137,2019-06-20 16:35:06:031
6.610289672851563,7.9785549926757815,0.45010302734374996,0.033707650723078936,0.038765825870980056,0.013321587422794106,0.4399998188018799,2019-06-20 16:35:06:036
6.622260498046875,7.965387084960938,0.464468017578125,0.03317501850506309,0.03903214197998798,0.01305527131378618,0.4449918270111084,2019-06-20 16:35:06:041
6.610289672851563,7.972569580078125,0.46805926513671875,0.033707650723078936,0.03943161614349987,0.013454745477298068,0.4500157833099365,2019-06-20 16:35:06:046
6.623457580566406,7.941445434570312,0.4405263671875,0.03344133461407101,0.03903214197998798,0.014653167967833723,0.45500779151916504,2019-06-20 16:35:06:051
6.595924682617188,7.966584167480469,0.48721258544921875,0.03237607017803931,0.03916530003449194,0.013987377695313915,0.45999979972839355,2019-06-20 16:35:06:056
6.615078002929687,7.959401672363281,0.464468017578125,0.033041860450559124,0.03903214197998798,0.014120535749817876,0.4650239944458008,2019-06-20 16:35:06:061
6.595924682617188,7.971372497558594,0.445314697265625,0.03317501850506309,0.03916530003449194,0.014653167967833723,0.4700160026550293,2019-06-20 16:35:06:066
6.586348022460937,7.949825012207031,0.45369427490234376,0.03290870239605516,0.038100035598460244,0.014253693804321838,0.4750077724456787,2019-06-20 16:35:06:071
6.597121765136719,7.960598754882812,0.48242425537109374,0.03330817655956705,0.038100035598460244,0.014120535749817876,0.4799997806549072,2019-06-20 16:35:06:076
6.588742187499999,7.917503784179687,0.4393292846679687,0.03357449266857497,0.038765825870980056,0.013721061586305991,0.48499178886413574,2019-06-20 16:35:06:081
6.616275085449218,7.928277526855468,0.4405263671875,0.03344133461407101,0.03916530003449194,0.01305527131378618,0.49001598358154297,2019-06-20 16:35:06:086
6.57916552734375,7.972569580078125,0.45010302734374996,0.03317501850506309,0.03903214197998798,0.01358790353180203,0.4950079917907715,2019-06-20 16:35:06:091
6.583953857421875,7.929474609375,0.46207385253906247,0.03344133461407101,0.03983109030701175,0.015052642131345608,0.5,2019-06-20 16:35:06:096
6.581559692382812,7.951022094726563,0.4716505126953125,0.03330817655956705,0.03863266781647609,0.014253693804321838,0.5049920082092285,2019-06-20 16:35:06:101
6.582756774902344,7.95820458984375,0.4596796875,0.032642386287047236,0.0375674033804444,0.014120535749817876,0.5100159645080566,2019-06-20 16:35:06:106
6.612683837890625,7.952219177246094,0.426161376953125,0.033041860450559124,0.03770056143494836,0.014520009913329761,0.5150079727172852,2019-06-20 16:35:06:111
6.616275085449218,7.928277526855468,0.44172344970703126,0.03330817655956705,0.03903214197998798,0.0143868518588258,0.5199999809265137,2019-06-20 16:35:06:116
6.616275085449218,7.952219177246094,0.46087677001953126,0.03397396683208686,0.03916530003449194,0.01358790353180203,0.5250239372253418,2019-06-20 16:35:06:121
6.603107177734375,7.937854187011719,0.46207385253906247,0.03197659601452743,0.03916530003449194,0.013454745477298068,0.5300159454345703,2019-06-20 16:35:06:126
6.625851745605469,7.9103212890625,0.474044677734375,0.031843437960023466,0.03783371948945232,0.014120535749817876,0.5350079536437988,2019-06-20 16:35:06:131
6.61747216796875,7.937854187011719,0.45010302734374996,0.032242912123535354,0.037167929216932516,0.0143868518588258,0.5399999618530273,2019-06-20 16:35:06:136
6.604304260253906,7.935460021972656,0.46207385253906247,0.031843437960023466,0.037301087271436474,0.013987377695313915,0.5449919700622559,2019-06-20 16:35:06:141
6.616275085449218,7.927080444335937,0.4524971923828125,0.032242912123535354,0.037301087271436474,0.013454745477298068,0.550015926361084,2019-06-20 16:35:06:146
6.612683837890625,7.941445434570312,0.46087677001953126,0.03237607017803931,0.03770056143494836,0.013987377695313915,0.5550079345703125,2019-06-20 16:35:06:151
6.618669250488281,7.924686279296875,0.48840966796874996,0.03317501850506309,0.038898983925484014,0.013854219640809953,0.559999942779541,2019-06-20 16:35:06:156
6.595924682617188,7.930671691894531,0.47045343017578123,0.0327755443415512,0.03983109030701175,0.013721061586305991,0.5649919509887695,2019-06-20 16:35:06:161
6.609092590332031,7.936657104492188,0.4285555419921875,0.0327755443415512,0.03863266781647609,0.014786326022337684,0.5700159072875977,2019-06-20 16:35:06:166
6.59831884765625,7.9785549926757815,0.44890594482421875,0.03237607017803931,0.038898983925484014,0.015185800185849573,0.5750079154968262,2019-06-20 16:35:06:171
6.612683837890625,7.946233764648437,0.4596796875,0.03237607017803931,0.037966877543956286,0.013987377695313915,0.5799999237060547,2019-06-20 16:35:06:176
6.592333435058594,7.930671691894531,0.46207385253906247,0.03210975406903139,0.037966877543956286,0.01358790353180203,0.5849919319152832,2019-06-20 16:35:06:181
6.599515930175781,7.970175415039062,0.45369427490234376,0.031443963796511584,0.03836635170746817,0.013854219640809953,0.5900158882141113,2019-06-20 16:35:06:186
6.580362609863281,7.946233764648437,0.48840966796874996,0.032642386287047236,0.03903214197998798,0.014653167967833723,0.5950078964233398,2019-06-20 16:35:06:191
6.604304260253906,7.949825012207031,0.4656651000976562,0.03357449266857497,0.03836635170746817,0.013188429368290141,0.5999999046325684,2019-06-20 16:35:06:196
6.592333435058594,7.954613342285156,0.4465117797851562,0.03330817655956705,0.03823319365296421,0.013321587422794106,0.6049919128417969,2019-06-20 16:35:06:201
6.594727600097656,7.997708312988281,0.41179638671874996,0.03357449266857497,0.037167929216932516,0.013454745477298068,0.610015869140625,2019-06-20 16:35:06:206
6.624654663085938,7.949825012207031,0.41059930419921875,0.03290870239605516,0.038100035598460244,0.012922113259282218,0.6150078773498535,2019-06-20 16:35:06:211
6.601910095214843,7.935460021972656,0.42257012939453126,0.03210975406903139,0.038898983925484014,0.013721061586305991,0.619999885559082,2019-06-20 16:35:06:216
6.6055013427734375,7.953416259765625,0.474044677734375,0.03317501850506309,0.03983109030701175,0.013987377695313915,0.6249918937683105,2019-06-20 16:35:06:221
6.597121765136719,7.966584167480469,0.48003009033203126,0.033840808777582894,0.03916530003449194,0.013721061586305991,0.6300158500671387,2019-06-20 16:35:06:226
6.631837158203125,7.951022094726563,0.4285555419921875,0.033707650723078936,0.04023056447052364,0.014653167967833723,0.6350078582763672,2019-06-20 16:35:06:231
6.604304260253906,7.952219177246094,0.3890518188476562,0.033707650723078936,0.0392984580889959,0.013854219640809953,0.6399998664855957,2019-06-20 16:35:06:236
6.612683837890625,7.974963745117187,0.44411761474609374,0.03410712488659082,0.03983109030701175,0.014653167967833723,0.6450238227844238,2019-06-20 16:35:06:241
6.600713012695312,7.922292114257813,0.4405263671875,0.033041860450559124,0.038898983925484014,0.014520009913329761,0.6500158309936523,2019-06-20 16:35:06:246
6.59831884765625,7.960598754882812,0.48122717285156247,0.032642386287047236,0.038765825870980056,0.01358790353180203,0.6550078392028809,2019-06-20 16:35:06:251
6.581559692382812,7.95820458984375,0.48960675048828123,0.0327755443415512,0.039564774198003826,0.01358790353180203,0.6599998474121094,2019-06-20 16:35:06:256
6.587545104980468,7.953416259765625,0.46207385253906247,0.0327755443415512,0.03916530003449194,0.013854219640809953,0.6649918556213379,2019-06-20 16:35:06:261
6.601910095214843,7.930671691894531,0.4572855224609375,0.03210975406903139,0.04049688057953156,0.013987377695313915,0.670015811920166,2019-06-20 16:35:06:266
6.6078955078125,7.937854187011719,0.44172344970703126,0.032642386287047236,0.038898983925484014,0.013721061586305991,0.6750078201293945,2019-06-20 16:35:06:271
6.618669250488281,7.955810424804687,0.4668621826171875,0.033707650723078936,0.04023056447052364,0.01358790353180203,0.679999828338623,2019-06-20 16:35:06:276
6.59831884765625,7.913912536621093,0.4656651000976562,0.032642386287047236,0.04023056447052364,0.013854219640809953,0.6849918365478516,2019-06-20 16:35:06:281
6.603107177734375,7.924686279296875,0.4596796875,0.032242912123535354,0.03983109030701175,0.0143868518588258,0.6900157928466797,2019-06-20 16:35:06:286
6.6462021484375,7.949825012207031,0.4393292846679687,0.03290870239605516,0.039564774198003826,0.014253693804321838,0.6950078010559082,2019-06-20 16:35:06:291
6.618669250488281,7.936657104492188,0.46087677001953126,0.03317501850506309,0.0403637225250276,0.01358790353180203,0.6999998092651367,2019-06-20 16:35:06:296
6.600713012695312,7.9486279296874995,0.4572855224609375,0.033041860450559124,0.038898983925484014,0.013854219640809953,0.7049918174743652,2019-06-20 16:35:06:301
6.609092590332031,7.984540405273437,0.46805926513671875,0.03290870239605516,0.037966877543956286,0.014653167967833723,0.7100157737731934,2019-06-20 16:35:06:306
6.597121765136719,7.965387084960938,0.45130010986328123,0.031443963796511584,0.03916530003449194,0.013454745477298068,0.7150077819824219,2019-06-20 16:35:06:311
6.606698425292969,7.941445434570312,0.43094970703125,0.03237607017803931,0.03943161614349987,0.013454745477298068,0.7199997901916504,2019-06-20 16:35:06:316
6.622260498046875,7.953416259765625,0.45369427490234376,0.0327755443415512,0.03916530003449194,0.015052642131345608,0.7250239849090576,2019-06-20 16:35:06:321
6.604304260253906,7.984540405273437,0.46087677001953126,0.03330817655956705,0.03823319365296421,0.014786326022337684,0.7300159931182861,2019-06-20 16:35:06:326
6.613880920410156,7.945036682128906,0.5051688232421875,0.033041860450559124,0.03823319365296421,0.014120535749817876,0.7350080013275146,2019-06-20 16:35:06:331
6.600713012695312,7.952219177246094,0.50756298828125,0.03157712185101554,0.039564774198003826,0.013987377695313915,0.7400000095367432,2019-06-20 16:35:06:336
6.599515930175781,7.9773579101562495,0.4477088623046875,0.03197659601452743,0.03836635170746817,0.013987377695313915,0.7449917793273926,2019-06-20 16:35:06:341
6.606698425292969,7.973766662597656,0.45369427490234376,0.03250922823254328,0.03916530003449194,0.013987377695313915,0.7500159740447998,2019-06-20 16:35:06:346
6.6198663330078125,7.931868774414062,0.46327093505859374,0.0327755443415512,0.040630038634035526,0.013854219640809953,0.7550079822540283,2019-06-20 16:35:06:351
6.628245910644531,7.954613342285156,0.4477088623046875,0.03357449266857497,0.03969793225250779,0.013188429368290141,0.7599999904632568,2019-06-20 16:35:06:356
6.612683837890625,7.952219177246094,0.45010302734374996,0.03290870239605516,0.03823319365296421,0.012788955204778256,0.765023946762085,2019-06-20 16:35:06:361
6.616275085449218,7.923489196777344,0.464468017578125,0.03317501850506309,0.03836635170746817,0.014253693804321838,0.7700159549713135,2019-06-20 16:35:06:366
6.609092590332031,7.949825012207031,0.4668621826171875,0.03290870239605516,0.039564774198003826,0.012788955204778256,0.775007963180542,2019-06-20 16:35:06:371
6.624654663085938,7.960598754882812,0.43693511962890624,0.031843437960023466,0.03863266781647609,0.011324216605234675,0.7799999713897705,2019-06-20 16:35:06:376
6.622260498046875,7.929474609375,0.42975262451171875,0.03171027990551951,0.03783371948945232,0.01358790353180203,0.784991979598999,2019-06-20 16:35:06:381
6.625851745605469,7.9103212890625,0.46327093505859374,0.033840808777582894,0.03849950976197213,0.014120535749817876,0.7900159358978271,2019-06-20 16:35:06:386
6.640216735839844,7.93905126953125,0.46327093505859374,0.03397396683208686,0.038765825870980056,0.013188429368290141,0.7950079441070557,2019-06-20 16:35:06:391
6.604304260253906,7.954613342285156,0.46327093505859374,0.03330817655956705,0.038100035598460244,0.01305527131378618,0.7999999523162842,2019-06-20 16:35:06:396
6.6055013427734375,7.943839599609375,0.4381322021484375,0.032242912123535354,0.03836635170746817,0.012522639095770333,0.8049919605255127,2019-06-20 16:35:06:401
6.594727600097656,7.951022094726563,0.454891357421875,0.033041860450559124,0.03863266781647609,0.013188429368290141,0.8100159168243408,2019-06-20 16:35:06:406
6.613880920410156,7.955810424804687,0.44172344970703126,0.03290870239605516,0.03863266781647609,0.013321587422794106,0.8150079250335693,2019-06-20 16:35:06:411
6.624654663085938,7.928277526855468,0.4848184204101562,0.033041860450559124,0.037966877543956286,0.011856848823250525,0.8199999332427979,2019-06-20 16:35:06:416
6.611486755371094,7.929474609375,0.46327093505859374,0.03197659601452743,0.03903214197998798,0.011856848823250525,0.8249919414520264,2019-06-20 16:35:06:421
6.613880920410156,7.953416259765625,0.45369427490234376,0.03317501850506309,0.03903214197998798,0.011191058550730713,0.8300158977508545,2019-06-20 16:35:06:426
6.597121765136719,7.965387084960938,0.493197998046875,0.032642386287047236,0.03863266781647609,0.011057900496226753,0.835007905960083,2019-06-20 16:35:06:431
6.6078955078125,7.961795837402343,0.4596796875,0.032642386287047236,0.038765825870980056,0.012655797150274295,0.8399999141693115,2019-06-20 16:35:06:436
6.583953857421875,7.9773579101562495,0.454891357421875,0.03250922823254328,0.03943161614349987,0.012389481041266371,0.8450238704681396,2019-06-20 16:35:06:441
6.586348022460937,7.96778125,0.497986328125,0.03317501850506309,0.03836635170746817,0.012389481041266371,0.8500158786773682,2019-06-20 16:35:06:446
6.580362609863281,7.964190002441406,0.4381322021484375,0.03344133461407101,0.04009740641601968,0.013454745477298068,0.8550078868865967,2019-06-20 16:35:06:451
6.583953857421875,7.966584167480469,0.42257012939453126,0.033041860450559124,0.039564774198003826,0.012922113259282218,0.8599998950958252,2019-06-20 16:35:06:456
6.585150939941406,7.965387084960938,0.44172344970703126,0.03157712185101554,0.03969793225250779,0.01305527131378618,0.8649919033050537,2019-06-20 16:35:06:461
6.6055013427734375,7.937854187011719,0.5135484008789062,0.03210975406903139,0.03969793225250779,0.01305527131378618,0.8700158596038818,2019-06-20 16:35:06:466
6.594727600097656,7.936657104492188,0.46925634765625,0.031843437960023466,0.038898983925484014,0.013188429368290141,0.8750078678131104,2019-06-20 16:35:06:471
6.609092590332031,7.9342629394531246,0.50756298828125,0.032242912123535354,0.038765825870980056,0.013321587422794106,0.8799998760223389,2019-06-20 16:35:06:476
6.586348022460937,7.9486279296874995,0.445314697265625,0.03197659601452743,0.03836635170746817,0.01305527131378618,0.8849918842315674,2019-06-20 16:35:06:481
6.609092590332031,7.9342629394531246,0.45608843994140624,0.03210975406903139,0.03943161614349987,0.013721061586305991,0.8900158405303955,2019-06-20 16:35:06:486
6.616275085449218,7.93905126953125,0.47524176025390624,0.03237607017803931,0.038898983925484014,0.01305527131378618,0.895007848739624,2019-06-20 16:35:06:491
6.599515930175781,7.970175415039062,0.43454095458984376,0.032642386287047236,0.03823319365296421,0.012655797150274295,0.9000639915466309,2019-06-20 16:35:06:496
6.612683837890625,7.949825012207031,0.4788330078125,0.03237607017803931,0.03823319365296421,0.012922113259282218,0.9050238132476807,2019-06-20 16:35:06:501
6.609092590332031,7.940248352050781,0.47524176025390624,0.03197659601452743,0.038100035598460244,0.012389481041266371,0.9100158214569092,2019-06-20 16:35:06:506
6.629442993164062,7.9629929199218745,0.4584826049804687,0.032642386287047236,0.03903214197998798,0.012522639095770333,0.9150078296661377,2019-06-20 16:35:06:511
6.615078002929687,7.925883361816406,0.44890594482421875,0.032242912123535354,0.03823319365296421,0.011856848823250525,0.9199998378753662,2019-06-20 16:35:06:516
6.59831884765625,7.93905126953125,0.45608843994140624,0.033707650723078936,0.03916530003449194,0.011723690768746563,0.9249918460845947,2019-06-20 16:35:06:521
6.618669250488281,7.954613342285156,0.44890594482421875,0.032242912123535354,0.03823319365296421,0.012389481041266371,0.9300158023834229,2019-06-20 16:35:06:526
6.625851745605469,7.930671691894531,0.4477088623046875,0.032642386287047236,0.03743424532594044,0.011856848823250525,0.9350078105926514,2019-06-20 16:35:06:531
6.604304260253906,7.925883361816406,0.445314697265625,0.03157712185101554,0.03783371948945232,0.01092474244172279,0.9399998188018799,2019-06-20 16:35:06:536
6.604304260253906,7.935460021972656,0.44890594482421875,0.032242912123535354,0.039564774198003826,0.010791584387218828,0.9449918270111084,2019-06-20 16:35:06:541
6.594727600097656,7.955810424804687,0.46805926513671875,0.032642386287047236,0.03983109030701175,0.01092474244172279,0.9500157833099365,2019-06-20 16:35:06:546
6.588742187499999,7.95820458984375,0.4668621826171875,0.03210975406903139,0.04009740641601968,0.01145737465973864,0.955007791519165,2019-06-20 16:35:06:551
6.600713012695312,7.943839599609375,0.4381322021484375,0.0327755443415512,0.039564774198003826,0.01225632298676241,0.9599997997283936,2019-06-20 16:35:06:556
6.616275085449218,7.9486279296874995,0.4668621826171875,0.033707650723078936,0.03836635170746817,0.011990006877754486,0.9650239944458008,2019-06-20 16:35:06:561
6.601910095214843,7.945036682128906,0.4860155029296875,0.033840808777582894,0.0392984580889959,0.010392110223706943,0.9700160026550293,2019-06-20 16:35:06:566
6.625851745605469,7.917503784179687,0.4572855224609375,0.034639757104606664,0.03943161614349987,0.011590532714242601,0.9750077724456787,2019-06-20 16:35:06:571
6.6055013427734375,7.961795837402343,0.45010302734374996,0.03397396683208686,0.038898983925484014,0.012123164932258448,0.9799997806549072,2019-06-20 16:35:06:576
6.625851745605469,7.970175415039062,0.4477088623046875,0.033041860450559124,0.0392984580889959,0.012123164932258448,0.9849917888641357,2019-06-20 16:35:06:581
6.6198663330078125,7.949825012207031,0.42975262451171875,0.0327755443415512,0.040630038634035526,0.012522639095770333,0.990015983581543,2019-06-20 16:35:06:586
6.589939270019531,7.943839599609375,0.43454095458984376,0.034506599050102706,0.040763196688539484,0.01145737465973864,0.9950079917907715,2019-06-20 16:35:06:591
6.568391784667969,7.970175415039062,0.48003009033203126,0.03503923126811855,0.0392984580889959,0.012389481041266371,1.0,2019-06-20 16:35:06:596
6.57916552734375,7.943839599609375,0.47524176025390624,0.03330817655956705,0.0403637225250276,0.012389481041266371,1.0049920082092285,2019-06-20 16:35:06:601
6.600713012695312,7.924686279296875,0.445314697265625,0.03344133461407101,0.038898983925484014,0.013454745477298068,1.0100159645080566,2019-06-20 16:35:06:606
6.611486755371094,7.947430847167968,0.464468017578125,0.03357449266857497,0.03969793225250779,0.01358790353180203,1.0150079727172852,2019-06-20 16:35:06:611
6.5911363525390625,7.960598754882812,0.50756298828125,0.03437344099559874,0.04009740641601968,0.013454745477298068,1.0199999809265137,2019-06-20 16:35:06:616
6.573180114746093,7.952219177246094,0.483621337890625,0.034639757104606664,0.03903214197998798,0.01145737465973864,1.0249919891357422,2019-06-20 16:35:06:621
6.585150939941406,7.957007507324218,0.47045343017578123,0.032642386287047236,0.03983109030701175,0.011990006877754486,1.0300159454345703,2019-06-20 16:35:06:626
6.601910095214843,7.941445434570312,0.4860155029296875,0.032242912123535354,0.0403637225250276,0.012922113259282218,1.0350079536437988,2019-06-20 16:35:06:631
6.61747216796875,7.942642517089843,0.43214678955078123,0.03437344099559874,0.0403637225250276,0.013188429368290141,1.0399999618530273,2019-06-20 16:35:06:636
6.603107177734375,7.93905126953125,0.47045343017578123,0.03330817655956705,0.03916530003449194,0.013854219640809953,1.0450239181518555,2019-06-20 16:35:06:641
6.611486755371094,7.982146240234375,0.4572855224609375,0.033840808777582894,0.03783371948945232,0.014919484076841646,1.050015926361084,2019-06-20 16:35:06:646
6.582756774902344,7.960598754882812,0.45369427490234376,0.033041860450559124,0.037966877543956286,0.014919484076841646,1.0550079345703125,2019-06-20 16:35:06:651
6.583953857421875,7.941445434570312,0.4788330078125,0.032242912123535354,0.03943161614349987,0.01358790353180203,1.059999942779541,2019-06-20 16:35:06:656
6.588742187499999,7.968978332519531,0.4764388427734375,0.03344133461407101,0.039964248361515714,0.013854219640809953,1.0649919509887695,2019-06-20 16:35:06:661
6.589939270019531,7.957007507324218,0.4381322021484375,0.03290870239605516,0.03943161614349987,0.014120535749817876,1.0700159072875977,2019-06-20 16:35:06:666
6.577968444824219,7.959401672363281,0.4405263671875,0.03344133461407101,0.03783371948945232,0.014919484076841646,1.0750079154968262,2019-06-20 16:35:06:671
6.615078002929687,7.972569580078125,0.42257012939453126,0.0327755443415512,0.03849950976197213,0.015318958240353535,1.0799999237060547,2019-06-20 16:35:06:676
6.59831884765625,7.9785549926757815,0.4584826049804687,0.0327755443415512,0.03916530003449194,0.015452116294857496,1.0849919319152832,2019-06-20 16:35:06:681
6.586348022460937,7.965387084960938,0.45010302734374996,0.03237607017803931,0.038898983925484014,0.014653167967833723,1.0900158882141113,2019-06-20 16:35:06:686
6.574377197265624,7.945036682128906,0.4584826049804687,0.03131080574200762,0.038898983925484014,0.015318958240353535,1.0950078964233398,2019-06-20 16:35:06:691
6.592333435058594,7.954613342285156,0.43094970703125,0.03197659601452743,0.03943161614349987,0.015052642131345608,1.0999999046325684,2019-06-20 16:35:06:696
6.615078002929687,7.964190002441406,0.44890594482421875,0.031843437960023466,0.038100035598460244,0.014653167967833723,1.1049919128417969,2019-06-20 16:35:06:701
6.57916552734375,7.961795837402343,0.4656651000976562,0.03171027990551951,0.037301087271436474,0.014120535749817876,1.110015869140625,2019-06-20 16:35:06:706
6.621063415527344,7.959401672363281,0.45130010986328123,0.03197659601452743,0.03916530003449194,0.014919484076841646,1.1150078773498535,2019-06-20 16:35:06:711
6.5911363525390625,7.9342629394531246,0.42975262451171875,0.032242912123535354,0.03903214197998798,0.016251064621881268,1.119999885559082,2019-06-20 16:35:06:716
6.582756774902344,7.946233764648437,0.45010302734374996,0.031843437960023466,0.0392984580889959,0.016650538785393153,1.1249918937683105,2019-06-20 16:35:06:721
6.583953857421875,7.9629929199218745,0.47045343017578123,0.03210975406903139,0.03783371948945232,0.016650538785393153,1.1300158500671387,2019-06-20 16:35:06:726
6.587545104980468,7.937854187011719,0.4776359252929687,0.033041860450559124,0.037966877543956286,0.01651738073088919,1.1350078582763672,2019-06-20 16:35:06:731
6.6078955078125,7.951022094726563,0.4596796875,0.03344133461407101,0.03823319365296421,0.016117906567377306,1.1399998664855957,2019-06-20 16:35:06:736
6.597121765136719,7.941445434570312,0.483621337890625,0.033707650723078936,0.03903214197998798,0.015851590458369383,1.1449918746948242,2019-06-20 16:35:06:741
6.609092590332031,7.9929199829101565,0.4333438720703125,0.032642386287047236,0.03916530003449194,0.015452116294857496,1.1500158309936523,2019-06-20 16:35:06:746
6.612683837890625,7.959401672363281,0.47284759521484376,0.03357449266857497,0.0392984580889959,0.015452116294857496,1.1550078392028809,2019-06-20 16:35:06:751
6.583953857421875,7.943839599609375,0.4908038330078125,0.03290870239605516,0.0392984580889959,0.015585274349361458,1.1599998474121094,2019-06-20 16:35:06:756
6.610289672851563,7.936657104492188,0.4524971923828125,0.03317501850506309,0.039564774198003826,0.014919484076841646,1.164991855621338,2019-06-20 16:35:06:761
6.599515930175781,7.945036682128906,0.46087677001953126,0.033041860450559124,0.03969793225250779,0.015984748512873345,1.170015811920166,2019-06-20 16:35:06:766
6.603107177734375,7.935460021972656,0.4764388427734375,0.03290870239605516,0.04023056447052364,0.01638422267638523,1.1750078201293945,2019-06-20 16:35:06:771
6.603107177734375,7.93905126953125,0.4285555419921875,0.03250922823254328,0.03849950976197213,0.013987377695313915,1.179999828338623,2019-06-20 16:35:06:776
6.609092590332031,7.959401672363281,0.44890594482421875,0.03237607017803931,0.03823319365296421,0.01358790353180203,1.1849918365478516,2019-06-20 16:35:06:781
6.616275085449218,7.941445434570312,0.454891357421875,0.033041860450559124,0.03903214197998798,0.01571843240386542,1.1900157928466797,2019-06-20 16:35:06:786
6.6055013427734375,7.922292114257813,0.483621337890625,0.032242912123535354,0.037167929216932516,0.015052642131345608,1.1950078010559082,2019-06-20 16:35:06:791
6.601910095214843,7.957007507324218,0.46207385253906247,0.0327755443415512,0.03743424532594044,0.014786326022337684,1.1999998092651367,2019-06-20 16:35:06:796
6.600713012695312,7.957007507324218,0.45608843994140624,0.03290870239605516,0.03969793225250779,0.015585274349361458,1.2049918174743652,2019-06-20 16:35:06:801
6.604304260253906,7.924686279296875,0.4477088623046875,0.033041860450559124,0.039964248361515714,0.0143868518588258,1.2100157737731934,2019-06-20 16:35:06:806
6.609092590332031,7.9330658569335935,0.45130010986328123,0.03290870239605516,0.039964248361515714,0.0143868518588258,1.2150077819824219,2019-06-20 16:35:06:811
6.616275085449218,7.949825012207031,0.493197998046875,0.03237607017803931,0.03863266781647609,0.0143868518588258,1.2199997901916504,2019-06-20 16:35:06:816
6.633034240722656,7.941445434570312,0.464468017578125,0.0327755443415512,0.037966877543956286,0.013321587422794106,1.224991798400879,2019-06-20 16:35:06:821
6.6055013427734375,7.91989794921875,0.44172344970703126,0.03330817655956705,0.0392984580889959,0.0143868518588258,1.2300159931182861,2019-06-20 16:35:06:826
6.611486755371094,7.935460021972656,0.4584826049804687,0.033041860450559124,0.0392984580889959,0.013321587422794106,1.2350080013275146,2019-06-20 16:35:06:831
6.611486755371094,7.942642517089843,0.47045343017578123,0.033041860450559124,0.03863266781647609,0.013188429368290141,1.2400000095367432,2019-06-20 16:35:06:836
6.618669250488281,7.929474609375,0.48003009033203126,0.032242912123535354,0.038100035598460244,0.012123164932258448,1.2449917793273926,2019-06-20 16:35:06:841
6.639019653320313,7.931868774414062,0.4405263671875,0.0327755443415512,0.038100035598460244,0.013188429368290141,1.2500159740447998,2019-06-20 16:35:06:846
6.59831884765625,7.951022094726563,0.40581097412109374,0.03197659601452743,0.03849950976197213,0.013721061586305991,1.2550079822540283,2019-06-20 16:35:06:851
6.6078955078125,7.935460021972656,0.46327093505859374,0.03197659601452743,0.03943161614349987,0.01305527131378618,1.2599999904632568,2019-06-20 16:35:06:856
6.630640075683593,7.941445434570312,0.44292053222656247,0.03171027990551951,0.04023056447052364,0.013321587422794106,1.2649919986724854,2019-06-20 16:35:06:861
6.631837158203125,7.957007507324218,0.4393292846679687,0.033707650723078936,0.039964248361515714,0.013454745477298068,1.2700159549713135,2019-06-20 16:35:06:866
6.633034240722656,7.9330658569335935,0.435738037109375,0.033041860450559124,0.03916530003449194,0.012788955204778256,1.275007963180542,2019-06-20 16:35:06:871
6.625851745605469,7.930671691894531,0.4572855224609375,0.03210975406903139,0.037966877543956286,0.012788955204778256,1.2799999713897705,2019-06-20 16:35:06:876
6.6078955078125,7.955810424804687,0.44411761474609374,0.03197659601452743,0.03903214197998798,0.01225632298676241,1.284991979598999,2019-06-20 16:35:06:881
6.610289672851563,7.951022094726563,0.46805926513671875,0.0327755443415512,0.03849950976197213,0.01145737465973864,1.2900159358978271,2019-06-20 16:35:06:886
6.593530517578125,7.93905126953125,0.44411761474609374,0.03330817655956705,0.03863266781647609,0.012522639095770333,1.2950079441070557,2019-06-20 16:35:06:891
6.609092590332031,7.943839599609375,0.426161376953125,0.03397396683208686,0.03983109030701175,0.010525268278210905,1.2999999523162842,2019-06-20 16:35:06:896
6.609092590332031,7.943839599609375,0.426161376953125,0.03397396683208686,0.03983109030701175,0.010525268278210905,1.302879810333252,2019-06-20 16:35:06:899
6.628245910644531,7.942642517089843,0.46087677001953126,0.033707650723078936,0.03943161614349987,0.011990006877754486,1.3100159168243408,2019-06-20 16:35:06:906
6.628245910644531,7.942642517089843,0.46087677001953126,0.033707650723078936,0.03943161614349987,0.011990006877754486,1.3128957748413086,2019-06-20 16:35:06:909
6.618669250488281,7.9342629394531246,0.45608843994140624,0.033840808777582894,0.03943161614349987,0.010392110223706943,1.3199999332427979,2019-06-20 16:35:06:916
6.618669250488281,7.9342629394531246,0.45608843994140624,0.033840808777582894,0.03943161614349987,0.010392110223706943,1.3228797912597656,2019-06-20 16:35:06:919
6.593530517578125,7.935460021972656,0.48960675048828123,0.03344133461407101,0.04023056447052364,0.010658426332714866,1.3300158977508545,2019-06-20 16:35:06:926
6.581559692382812,7.942642517089843,0.43214678955078123,0.031443963796511584,0.0392984580889959,0.012389481041266371,1.335007905960083,2019-06-20 16:35:06:931
6.586348022460937,7.947430847167968,0.4716505126953125,0.03250922823254328,0.038100035598460244,0.01358790353180203,1.3399999141693115,2019-06-20 16:35:06:936
6.618669250488281,7.929474609375,0.47045343017578123,0.031843437960023466,0.037167929216932516,0.012389481041266371,1.34499192237854,2019-06-20 16:35:06:941
6.6055013427734375,7.925883361816406,0.435738037109375,0.0327755443415512,0.03783371948945232,0.012522639095770333,1.3500158786773682,2019-06-20 16:35:06:946
6.57916552734375,7.965387084960938,0.45369427490234376,0.032642386287047236,0.037167929216932516,0.013321587422794106,1.3550078868865967,2019-06-20 16:35:06:951
6.5767713623046875,7.964190002441406,0.4393292846679687,0.03290870239605516,0.03823319365296421,0.013454745477298068,1.3599998950958252,2019-06-20 16:35:06:956
6.583953857421875,7.957007507324218,0.4381322021484375,0.03344133461407101,0.03903214197998798,0.011723690768746563,1.3649919033050537,2019-06-20 16:35:06:961
6.587545104980468,7.949825012207031,0.445314697265625,0.033041860450559124,0.04129582890655533,0.013188429368290141,1.3700158596038818,2019-06-20 16:35:06:966
6.587545104980468,7.949825012207031,0.445314697265625,0.03330817655956705,0.04049688057953156,0.012123164932258448,1.3750078678131104,2019-06-20 16:35:06:971
6.583953857421875,7.949825012207031,0.416584716796875,0.03330817655956705,0.0392984580889959,0.011191058550730713,1.3799998760223389,2019-06-20 16:35:06:976
6.594727600097656,7.943839599609375,0.454891357421875,0.03290870239605516,0.03969793225250779,0.01225632298676241,1.3849918842315674,2019-06-20 16:35:06:981
6.59831884765625,7.951022094726563,0.454891357421875,0.03424028294109478,0.039964248361515714,0.012389481041266371,1.3900158405303955,2019-06-20 16:35:06:986
6.609092590332031,7.971372497558594,0.4668621826171875,0.03397396683208686,0.040763196688539484,0.012788955204778256,1.395007848739624,2019-06-20 16:35:06:991
6.599515930175781,7.952219177246094,0.45608843994140624,0.033707650723078936,0.038765825870980056,0.013321587422794106,1.3999998569488525,2019-06-20 16:35:06:996
6.567194702148437,7.949825012207031,0.44890594482421875,0.03290870239605516,0.03916530003449194,0.012788955204778256,1.4050559997558594,2019-06-20 16:35:07:001
6.6078955078125,7.960598754882812,0.4477088623046875,0.033041860450559124,0.03836635170746817,0.012522639095770333,1.4100158214569092,2019-06-20 16:35:07:006
6.610289672851563,7.971372497558594,0.4788330078125,0.03397396683208686,0.0375674033804444,0.012788955204778256,1.4150078296661377,2019-06-20 16:35:07:011
6.567194702148437,7.954613342285156,0.46327093505859374,0.033840808777582894,0.037966877543956286,0.013987377695313915,1.4199998378753662,2019-06-20 16:35:07:016
6.601910095214843,7.961795837402343,0.4656651000976562,0.03357449266857497,0.038765825870980056,0.012922113259282218,1.4249918460845947,2019-06-20 16:35:07:021
6.600713012695312,7.928277526855468,0.4477088623046875,0.032642386287047236,0.040763196688539484,0.01358790353180203,1.4300158023834229,2019-06-20 16:35:07:026
6.57916552734375,7.921095031738281,0.4524971923828125,0.03317501850506309,0.039564774198003826,0.012922113259282218,1.4350078105926514,2019-06-20 16:35:07:031
6.589939270019531,7.947430847167968,0.426161376953125,0.03437344099559874,0.03863266781647609,0.01305527131378618,1.4399998188018799,2019-06-20 16:35:07:036
6.6055013427734375,7.936657104492188,0.47045343017578123,0.03317501850506309,0.037966877543956286,0.014520009913329761,1.445023775100708,2019-06-20 16:35:07:041
6.610289672851563,7.954613342285156,0.46087677001953126,0.0327755443415512,0.0375674033804444,0.014120535749817876,1.4500157833099365,2019-06-20 16:35:07:046
6.6078955078125,7.955810424804687,0.46925634765625,0.03197659601452743,0.03703477116242855,0.013721061586305991,1.455007791519165,2019-06-20 16:35:07:051
6.600713012695312,7.968978332519531,0.4393292846679687,0.03210975406903139,0.038765825870980056,0.014120535749817876,1.4599997997283936,2019-06-20 16:35:07:056
6.599515930175781,7.952219177246094,0.43214678955078123,0.03317501850506309,0.03836635170746817,0.015052642131345608,1.4650239944458008,2019-06-20 16:35:07:061
6.5624063720703125,7.911518371582031,0.4405263671875,0.03397396683208686,0.038898983925484014,0.015585274349361458,1.4700160026550293,2019-06-20 16:35:07:066
6.586348022460937,7.929474609375,0.45608843994140624,0.03344133461407101,0.03823319365296421,0.014919484076841646,1.4750077724456787,2019-06-20 16:35:07:071
6.603107177734375,7.954613342285156,0.4668621826171875,0.032642386287047236,0.038898983925484014,0.012788955204778256,1.4799997806549072,2019-06-20 16:35:07:076
6.600713012695312,7.968978332519531,0.48003009033203126,0.03344133461407101,0.03849950976197213,0.013454745477298068,1.4849917888641357,2019-06-20 16:35:07:081
6.575574279785156,7.955810424804687,0.48840966796874996,0.03344133461407101,0.03823319365296421,0.014253693804321838,1.490015983581543,2019-06-20 16:35:07:086
6.5911363525390625,7.968978332519531,0.493197998046875,0.033707650723078936,0.038100035598460244,0.01305527131378618,1.4950079917907715,2019-06-20 16:35:07:091
6.568391784667969,7.957007507324218,0.48960675048828123,0.033707650723078936,0.0392984580889959,0.0143868518588258,1.5,2019-06-20 16:35:07:096
6.594727600097656,7.961795837402343,0.46327093505859374,0.032642386287047236,0.03983109030701175,0.013854219640809953,1.5049920082092285,2019-06-20 16:35:07:101
6.571983032226562,7.951022094726563,0.46327093505859374,0.032642386287047236,0.03916530003449194,0.013721061586305991,1.5100159645080566,2019-06-20 16:35:07:106
6.624654663085938,7.949825012207031,0.46327093505859374,0.03330817655956705,0.0392984580889959,0.014120535749817876,1.5150079727172852,2019-06-20 16:35:07:111
6.622260498046875,7.930671691894531,0.48003009033203126,0.032242912123535354,0.03969793225250779,0.015984748512873345,1.5199999809265137,2019-06-20 16:35:07:116
6.597121765136719,7.9785549926757815,0.45608843994140624,0.033840808777582894,0.039564774198003826,0.014786326022337684,1.5250239372253418,2019-06-20 16:35:07:121
6.586348022460937,7.959401672363281,0.445314697265625,0.032642386287047236,0.03943161614349987,0.013854219640809953,1.5300159454345703,2019-06-20 16:35:07:126
6.615078002929687,7.952219177246094,0.48721258544921875,0.03197659601452743,0.03863266781647609,0.014520009913329761,1.5350079536437988,2019-06-20 16:35:07:131
6.586348022460937,7.961795837402343,0.4848184204101562,0.033707650723078936,0.038100035598460244,0.015185800185849573,1.5399999618530273,2019-06-20 16:35:07:136
6.594727600097656,7.970175415039062,0.4656651000976562,0.03237607017803931,0.04009740641601968,0.014120535749817876,1.5449919700622559,2019-06-20 16:35:07:141
6.577968444824219,7.911518371582031,0.4668621826171875,0.031177647687503654,0.03916530003449194,0.012522639095770333,1.550015926361084,2019-06-20 16:35:07:146
6.611486755371094,7.93905126953125,0.42975262451171875,0.031177647687503654,0.03849950976197213,0.0143868518588258,1.5550079345703125,2019-06-20 16:35:07:151
6.597121765136719,7.929474609375,0.45369427490234376,0.03330817655956705,0.03783371948945232,0.014520009913329761,1.559999942779541,2019-06-20 16:35:07:156
6.618669250488281,7.947430847167968,0.48122717285156247,0.0327755443415512,0.038765825870980056,0.013188429368290141,1.5649919509887695,2019-06-20 16:35:07:161
6.611486755371094,7.916306701660156,0.445314697265625,0.032642386287047236,0.03983109030701175,0.013321587422794106,1.5700159072875977,2019-06-20 16:35:07:166
6.613880920410156,7.953416259765625,0.426161376953125,0.03357449266857497,0.04089635474304345,0.013854219640809953,1.5750079154968262,2019-06-20 16:35:07:171
6.630640075683593,7.943839599609375,0.4955921630859375,0.032242912123535354,0.0403637225250276,0.0143868518588258,1.5799999237060547,2019-06-20 16:35:07:176
6.621063415527344,7.929474609375,0.445314697265625,0.03290870239605516,0.03969793225250779,0.014253693804321838,1.5849919319152832,2019-06-20 16:35:07:181
6.595924682617188,7.921095031738281,0.454891357421875,0.032642386287047236,0.03943161614349987,0.014120535749817876,1.5900158882141113,2019-06-20 16:35:07:186
6.610289672851563,7.953416259765625,0.46087677001953126,0.03250922823254328,0.038898983925484014,0.013854219640809953,1.5950078964233398,2019-06-20 16:35:07:191
6.628245910644531,7.959401672363281,0.43454095458984376,0.03210975406903139,0.03943161614349987,0.013721061586305991,1.5999999046325684,2019-06-20 16:35:07:196
6.609092590332031,7.951022094726563,0.445314697265625,0.0327755443415512,0.04049688057953156,0.013987377695313915,1.6049919128417969,2019-06-20 16:35:07:201
6.597121765136719,7.9330658569335935,0.45369427490234376,0.03290870239605516,0.03943161614349987,0.013987377695313915,1.610015869140625,2019-06-20 16:35:07:206
6.585150939941406,7.929474609375,0.474044677734375,0.032242912123535354,0.03770056143494836,0.014520009913329761,1.6150078773498535,2019-06-20 16:35:07:211
6.570785949707031,7.927080444335937,0.48721258544921875,0.032242912123535354,0.036502138944412704,0.013454745477298068,1.619999885559082,2019-06-20 16:35:07:216
6.595924682617188,7.923489196777344,0.45608843994140624,0.032242912123535354,0.037966877543956286,0.013188429368290141,1.6249918937683105,2019-06-20 16:35:07:221
6.630640075683593,7.95820458984375,0.45010302734374996,0.03330817655956705,0.03916530003449194,0.01225632298676241,1.6300158500671387,2019-06-20 16:35:07:226
6.6342313232421875,7.927080444335937,0.43454095458984376,0.0327755443415512,0.038100035598460244,0.012922113259282218,1.6350078582763672,2019-06-20 16:35:07:231
6.6078955078125,7.928277526855468,0.46207385253906247,0.03237607017803931,0.038100035598460244,0.013721061586305991,1.6399998664855957,2019-06-20 16:35:07:236
6.585150939941406,7.940248352050781,0.45010302734374996,0.0327755443415512,0.03770056143494836,0.014120535749817876,1.6450238227844238,2019-06-20 16:35:07:241
6.594727600097656,7.929474609375,0.4477088623046875,0.03290870239605516,0.038765825870980056,0.014120535749817876,1.6500158309936523,2019-06-20 16:35:07:246
6.6055013427734375,7.899547546386718,0.4477088623046875,0.03210975406903139,0.03849950976197213,0.014786326022337684,1.6550078392028809,2019-06-20 16:35:07:251
6.585150939941406,7.936657104492188,0.4776359252929687,0.03317501850506309,0.038100035598460244,0.014120535749817876,1.6599998474121094,2019-06-20 16:35:07:256
6.606698425292969,7.947430847167968,0.4776359252929687,0.03344133461407101,0.0392984580889959,0.014520009913329761,1.664991855621338,2019-06-20 16:35:07:261
6.616275085449218,7.909124206542969,0.46805926513671875,0.03290870239605516,0.03823319365296421,0.014653167967833723,1.670015811920166,2019-06-20 16:35:07:266
6.606698425292969,7.93905126953125,0.44411761474609374,0.03330817655956705,0.038898983925484014,0.013454745477298068,1.6750078201293945,2019-06-20 16:35:07:271
6.629442993164062,7.91989794921875,0.43454095458984376,0.033041860450559124,0.03916530003449194,0.012922113259282218,1.679999828338623,2019-06-20 16:35:07:276
6.623457580566406,7.946233764648437,0.4668621826171875,0.032242912123535354,0.038765825870980056,0.013321587422794106,1.6850237846374512,2019-06-20 16:35:07:281
6.6055013427734375,7.906730041503906,0.46925634765625,0.033041860450559124,0.03903214197998798,0.01305527131378618,1.6900157928466797,2019-06-20 16:35:07:286
6.6055013427734375,7.93905126953125,0.4764388427734375,0.03344133461407101,0.0392984580889959,0.012922113259282218,1.6950078010559082,2019-06-20 16:35:07:291
6.597121765136719,7.954613342285156,0.44172344970703126,0.03344133461407101,0.03903214197998798,0.0143868518588258,1.6999998092651367,2019-06-20 16:35:07:296
6.582756774902344,7.968978332519531,0.4596796875,0.03290870239605516,0.03770056143494836,0.013854219640809953,1.7049918174743652,2019-06-20 16:35:07:301
6.611486755371094,7.940248352050781,0.47524176025390624,0.03344133461407101,0.038100035598460244,0.012788955204778256,1.7100157737731934,2019-06-20 16:35:07:306
6.613880920410156,7.941445434570312,0.48003009033203126,0.03344133461407101,0.03783371948945232,0.012123164932258448,1.7150077819824219,2019-06-20 16:35:07:311
6.577968444824219,7.961795837402343,0.4022197265625,0.03344133461407101,0.03849950976197213,0.012389481041266371,1.7199997901916504,2019-06-20 16:35:07:316
6.610289672851563,7.946233764648437,0.4656651000976562,0.033041860450559124,0.03863266781647609,0.013721061586305991,1.724991798400879,2019-06-20 16:35:07:321
6.599515930175781,7.952219177246094,0.483621337890625,0.03357449266857497,0.038765825870980056,0.013321587422794106,1.7300159931182861,2019-06-20 16:35:07:326
6.588742187499999,7.935460021972656,0.5099571533203124,0.033041860450559124,0.039964248361515714,0.012522639095770333,1.7350080013275146,2019-06-20 16:35:07:331
6.603107177734375,7.93905126953125,0.454891357421875,0.032642386287047236,0.03863266781647609,0.01305527131378618,1.7400000095367432,2019-06-20 16:35:07:336
6.589939270019531,7.952219177246094,0.48003009033203126,0.03237607017803931,0.03836635170746817,0.012922113259282218,1.7449917793273926,2019-06-20 16:35:07:341
6.600713012695312,7.9773579101562495,0.47524176025390624,0.033707650723078936,0.03943161614349987,0.013454745477298068,1.7500159740447998,2019-06-20 16:35:07:346
6.600713012695312,7.952219177246094,0.4764388427734375,0.03330817655956705,0.03916530003449194,0.012922113259282218,1.7550079822540283,2019-06-20 16:35:07:351
6.59831884765625,7.928277526855468,0.43454095458984376,0.03250922823254328,0.03836635170746817,0.01225632298676241,1.7599999904632568,2019-06-20 16:35:07:356
6.601910095214843,7.973766662597656,0.46805926513671875,0.03237607017803931,0.038898983925484014,0.011856848823250525,1.7649919986724854,2019-06-20 16:35:07:361
6.592333435058594,7.947430847167968,0.4584826049804687,0.033840808777582894,0.03916530003449194,0.011856848823250525,1.7700159549713135,2019-06-20 16:35:07:366
6.603107177734375,7.93905126953125,0.45010302734374996,0.03437344099559874,0.039564774198003826,0.013188429368290141,1.775007963180542,2019-06-20 16:35:07:371
6.587545104980468,7.960598754882812,0.43214678955078123,0.03344133461407101,0.03863266781647609,0.014653167967833723,1.7799999713897705,2019-06-20 16:35:07:376
6.627048828125,7.943839599609375,0.4524971923828125,0.03290870239605516,0.03983109030701175,0.015052642131345608,1.784991979598999,2019-06-20 16:35:07:381
6.612683837890625,7.9486279296874995,0.4333438720703125,0.033041860450559124,0.039564774198003826,0.014653167967833723,1.7900159358978271,2019-06-20 16:35:07:386
6.621063415527344,7.951022094726563,0.4596796875,0.033840808777582894,0.038765825870980056,0.0143868518588258,1.7950079441070557,2019-06-20 16:35:07:391
6.609092590332031,7.940248352050781,0.4584826049804687,0.03317501850506309,0.03783371948945232,0.013321587422794106,1.7999999523162842,2019-06-20 16:35:07:396
6.59831884765625,7.9342629394531246,0.46207385253906247,0.032642386287047236,0.03903214197998798,0.013721061586305991,1.8049919605255127,2019-06-20 16:35:07:401
6.586348022460937,7.953416259765625,0.43094970703125,0.03344133461407101,0.038898983925484014,0.013321587422794106,1.8100159168243408,2019-06-20 16:35:07:406
6.597121765136719,7.964190002441406,0.4764388427734375,0.0327755443415512,0.03983109030701175,0.013188429368290141,1.8150079250335693,2019-06-20 16:35:07:411
6.595924682617188,7.937854187011719,0.48003009033203126,0.033840808777582894,0.03943161614349987,0.014253693804321838,1.8199999332427979,2019-06-20 16:35:07:416
6.601910095214843,7.960598754882812,0.46207385253906247,0.033041860450559124,0.039564774198003826,0.014253693804321838,1.8249919414520264,2019-06-20 16:35:07:421
6.586348022460937,7.946233764648437,0.46207385253906247,0.03397396683208686,0.03863266781647609,0.014653167967833723,1.8300158977508545,2019-06-20 16:35:07:426
6.583953857421875,7.930671691894531,0.46327093505859374,0.032242912123535354,0.03983109030701175,0.013854219640809953,1.835007905960083,2019-06-20 16:35:07:431
6.5767713623046875,7.982146240234375,0.4333438720703125,0.032642386287047236,0.037966877543956286,0.014653167967833723,1.8399999141693115,2019-06-20 16:35:07:436
6.599515930175781,7.951022094726563,0.43693511962890624,0.03290870239605516,0.03849950976197213,0.014520009913329761,1.8450238704681396,2019-06-20 16:35:07:441
6.567194702148437,7.998905395507812,0.46327093505859374,0.032242912123535354,0.03849950976197213,0.015318958240353535,1.8500158786773682,2019-06-20 16:35:07:446
6.595924682617188,7.952219177246094,0.5099571533203124,0.03131080574200762,0.03770056143494836,0.016251064621881268,1.8550078868865967,2019-06-20 16:35:07:451
6.601910095214843,7.970175415039062,0.4668621826171875,0.03157712185101554,0.037167929216932516,0.017582645166920888,1.8599998950958252,2019-06-20 16:35:07:456
6.613880920410156,7.965387084960938,0.5099571533203124,0.0327755443415512,0.03663529699891667,0.01771580322142485,1.8649919033050537,2019-06-20 16:35:07:461
6.564800537109375,7.959401672363281,0.47524176025390624,0.031177647687503654,0.037167929216932516,0.01784896127592881,1.8700158596038818,2019-06-20 16:35:07:466
6.612683837890625,7.935460021972656,0.454891357421875,0.031044489632999692,0.03703477116242855,0.019313699875472393,1.8750078678131104,2019-06-20 16:35:07:471
6.616275085449218,7.9773579101562495,0.4285555419921875,0.03131080574200762,0.03849950976197213,0.018115277384936734,1.8799998760223389,2019-06-20 16:35:07:476
6.5767713623046875,7.96778125,0.4405263671875,0.03077817352399177,0.03783371948945232,0.01918054182096843,1.8849918842315674,2019-06-20 16:35:07:481
6.568391784667969,7.931868774414062,0.46805926513671875,0.031044489632999692,0.03823319365296421,0.018914225711960504,1.8900158405303955,2019-06-20 16:35:07:486
6.57916552734375,7.973766662597656,0.4584826049804687,0.029979225196968,0.0375674033804444,0.019313699875472393,1.895007848739624,2019-06-20 16:35:07:491
6.570785949707031,7.966584167480469,0.4285555419921875,0.030511857414983846,0.038100035598460244,0.020911596529519936,1.8999998569488525,2019-06-20 16:35:07:496
6.570785949707031,7.972569580078125,0.49200091552734376,0.029047118815440268,0.037301087271436474,0.018781067657456543,1.904991865158081,2019-06-20 16:35:07:501
6.592333435058594,7.966584167480469,0.4572855224609375,0.03011238325147196,0.037167929216932516,0.01984633209348824,1.910048007965088,2019-06-20 16:35:07:506
6.594727600097656,7.960598754882812,0.4716505126953125,0.030511857414983846,0.037167929216932516,0.019580015984480316,1.9150078296661377,2019-06-20 16:35:07:511
6.587545104980468,7.9785549926757815,0.46805926513671875,0.031177647687503654,0.03703477116242855,0.02131107069303182,1.9199998378753662,2019-06-20 16:35:07:516
6.582756774902344,7.9929199829101565,0.47045343017578123,0.02918027686994423,0.03703477116242855,0.02064528042051201,1.9249918460845947,2019-06-20 16:35:07:521
6.585150939941406,7.960598754882812,0.46207385253906247,0.029579751033456114,0.036102664780900816,0.021843702911047667,1.9300158023834229,2019-06-20 16:35:07:526
6.592333435058594,7.989328735351562,0.46925634765625,0.029047118815440268,0.03676845505342063,0.02330844151059125,1.9350078105926514,2019-06-20 16:35:07:531
6.560012207031249,7.9929199829101565,0.4381322021484375,0.029047118815440268,0.03676845505342063,0.02330844151059125,1.9399998188018799,2019-06-20 16:35:07:536
6.565997619628906,7.9917229003906245,0.46327093505859374,0.029047118815440268,0.036102664780900816,0.024240547892118984,1.9449918270111084,2019-06-20 16:35:07:541
6.567194702148437,7.966584167480469,0.46925634765625,0.02838132854292046,0.03676845505342063,0.024506864001126907,1.9500157833099365,2019-06-20 16:35:07:546
6.5456472167968744,7.961795837402343,0.4764388427734375,0.02918027686994423,0.03676845505342063,0.024373705946622946,1.955007791519165,2019-06-20 16:35:07:551
6.554026794433594,7.945036682128906,0.49200091552734376,0.027981854379408574,0.036368980889908746,0.02637107676418237,1.9599997997283936,2019-06-20 16:35:07:556
6.5767713623046875,7.96778125,0.4465117797851562,0.027715538270400644,0.03596950672639686,0.027702657309221994,1.9650239944458008,2019-06-20 16:35:07:561
6.54085888671875,7.984540405273437,0.45130010986328123,0.027049747997880836,0.03596950672639686,0.029300553963269534,1.9700160026550293,2019-06-20 16:35:07:566
6.551632629394531,7.989328735351562,0.46925634765625,0.025451851343833296,0.03557003256288497,0.02970002812678142,1.9750077724456787,2019-06-20 16:35:07:571
6.54085888671875,7.990525817871093,0.48242425537109374,0.02665027383436895,0.036368980889908746,0.030632134508309154,1.9799997806549072,2019-06-20 16:35:07:576
6.556420959472656,8.000102478027344,0.5039717407226563,0.02665027383436895,0.03583634867189289,0.031963715053348773,1.9849917888641357,2019-06-20 16:35:07:581
6.551632629394531,7.9869345703125,0.46925634765625,0.02731606410688876,0.035303716453877046,0.03209687310785273,1.990015983581543,2019-06-20 16:35:07:586
6.5767713623046875,7.9785549926757815,0.46327093505859374,0.026916589943376874,0.034504768126853276,0.03356161170739631,1.9950079917907715,2019-06-20 16:35:07:591
6.599515930175781,7.982146240234375,0.43693511962890624,0.02851448659742442,0.035436874508381004,0.03542582655104638,2.0,2019-06-20 16:35:07:596
6.574377197265624,7.965387084960938,0.46207385253906247,0.02931343492444819,0.03490424229036516,0.03622477487807015,2.0049920082092285,2019-06-20 16:35:07:601
6.561209289550781,7.960598754882812,0.45608843994140624,0.02851448659742442,0.033838977854333464,0.03742319736860581,2.0100159645080566,2019-06-20 16:35:07:606
6.593530517578125,7.997708312988281,0.4596796875,0.029846067142464038,0.03437161007234931,0.03902109402265335,2.015007972717285,2019-06-20 16:35:07:611
6.565997619628906,8.014467468261719,0.4572855224609375,0.030245541305975922,0.03490424229036516,0.03942056818616524,2.0199999809265137,2019-06-20 16:35:07:616
6.564800537109375,7.997708312988281,0.46925634765625,0.030245541305975922,0.03437161007234931,0.04008635845868505,2.024991989135742,2019-06-20 16:35:07:621
6.5624063720703125,7.954613342285156,0.46207385253906247,0.02918027686994423,0.032906871472805736,0.043015835657772214,2.0300159454345703,2019-06-20 16:35:07:626
6.575574279785156,8.022847045898438,0.46207385253906247,0.029979225196968,0.033040029527309694,0.04328215176678014,2.035007953643799,2019-06-20 16:35:07:631
6.560012207031249,7.980949157714844,0.43693511962890624,0.02918027686994423,0.03410529396334139,0.04434741620281183,2.0399999618530273,2019-06-20 16:35:07:636
6.588742187499999,7.997708312988281,0.4524971923828125,0.02838132854292046,0.033838977854333464,0.045412680638843524,2.0450239181518555,2019-06-20 16:35:07:641
6.575574279785156,8.008482055664063,0.45130010986328123,0.02744922216139272,0.03357266174532554,0.04754320951090692,2.050015926361084,2019-06-20 16:35:07:646
6.57916552734375,8.002496643066406,0.4465117797851562,0.027848696324904613,0.03237423925478988,0.04847531589243465,2.0550079345703125,2019-06-20 16:35:07:651
6.594727600097656,7.988131652832031,0.45369427490234376,0.026783431888872913,0.032906871472805736,0.04914110616495446,2.059999942779541,2019-06-20 16:35:07:656
6.583953857421875,7.95820458984375,0.407008056640625,0.026383957725361028,0.03264055536379781,0.051138476982513885,2.0649919509887695,2019-06-20 16:35:07:661
6.6078955078125,7.970175415039062,0.454891357421875,0.026383957725361028,0.03170844898227007,0.05313584780007332,2.0700159072875977,2019-06-20 16:35:07:666
6.606698425292969,7.929474609375,0.45130010986328123,0.02491921912581745,0.03210792314578196,0.0524700575275535,2.075007915496826,2019-06-20 16:35:07:671
6.625851745605469,7.915109619140625,0.5183367309570313,0.025318693289329335,0.030376868437230458,0.052603215582057467,2.0799999237060547,2019-06-20 16:35:07:676
6.633034240722656,7.941445434570312,0.46207385253906247,0.02585132550734518,0.03144213287326215,0.05340216390908124,2.084991931915283,2019-06-20 16:35:07:681
6.615078002929687,7.942642517089843,0.41538763427734376,0.025585009398337258,0.031175816764254228,0.054467428345112937,2.0900158882141113,2019-06-20 16:35:07:686
6.642610900878906,7.892365051269531,0.46207385253906247,0.026916589943376874,0.03157529092776611,0.05433427029060898,2.09500789642334,2019-06-20 16:35:07:691
6.647399230957031,7.91989794921875,0.46327093505859374,0.02665027383436895,0.030909500655246305,0.054866902508624825,2.0999999046325684,2019-06-20 16:35:07:696
6.63662548828125,7.9629929199218745,0.483621337890625,0.027715538270400644,0.03210792314578196,0.05579900889015255,2.104991912841797,2019-06-20 16:35:07:701
6.670143798828125,7.952219177246094,0.49439508056640624,0.02665027383436895,0.031841607036774036,0.05673111527168029,2.110015869140625,2019-06-20 16:35:07:706
6.610289672851563,7.86243798828125,0.4285555419921875,0.02585132550734518,0.032906871472805736,0.05673111527168029,2.1150078773498535,2019-06-20 16:35:07:711
6.677326293945312,7.779839294433594,0.46327093505859374,0.02585132550734518,0.033040029527309694,0.05380163807259313,2.119999885559082,2019-06-20 16:35:07:716
6.65577880859375,7.887576721191406,0.4776359252929687,0.02731606410688876,0.03317318758181366,0.054067954181601055,2.1249918937683105,2019-06-20 16:35:07:721
6.762319152832031,7.819343017578125,0.5051688232421875,0.029979225196968,0.03490424229036516,0.0524700575275535,2.1300158500671387,2019-06-20 16:35:07:726
6.805414123535156,7.854058410644531,0.49439508056640624,0.029846067142464038,0.03623582283540478,0.050739002819002,2.135007858276367,2019-06-20 16:35:07:731
6.7659104003906245,7.754700561523437,0.38306640625,0.02731606410688876,0.03663529699891667,0.04780952561991484,2.1399998664855957,2019-06-20 16:35:07:736
6.807808288574218,7.624218566894531,0.5662200317382813,0.03250922823254328,0.03703477116242855,0.04394794203929995,2.144991874694824,2019-06-20 16:35:07:741
6.8760419921875,7.679284362792969,0.5350958862304688,0.03424028294109478,0.03943161614349987,0.039287410131661274,2.1500158309936523,2019-06-20 16:35:07:746
6.870056579589844,7.837299255371094,0.5087600708007812,0.03850134068522156,0.04049688057953156,0.03622477487807015,2.155007839202881,2019-06-20 16:35:07:751
6.8760419921875,7.760685974121094,0.47045343017578123,0.03930028901224533,0.043026883615106835,0.030765292562813115,2.1599998474121094,2019-06-20 16:35:07:756
6.782669555664063,7.775050964355469,0.3758839111328125,0.03703660208567798,0.04369267388762665,0.026504234818686332,2.1650238037109375,2019-06-20 16:35:07:761
6.805414123535156,7.73794140625,0.464468017578125,0.04089818566629288,0.04635583497770589,0.02290896734707936,2.170015811920166,2019-06-20 16:35:07:766
6.746757080078125,7.837299255371094,0.49918341064453126,0.044093978974387965,0.04542372859617816,0.0199794901479922,2.1750078201293945,2019-06-20 16:35:07:771
6.750348327636718,7.870817565917968,0.387854736328125,0.043960820919884,0.04728794135923362,0.01638422267638523,2.179999828338623,2019-06-20 16:35:07:776
6.771895812988281,7.864832153320313,0.42496429443359374,0.042629240374844383,0.04782057357724947,0.013321587422794106,2.1849918365478516,2019-06-20 16:35:07:781
6.668946716308594,7.836102172851563,0.41299346923828123,0.0394334470667493,0.04369267388762665,0.011590532714242601,2.1900157928466797,2019-06-20 16:35:07:786
6.739574584960938,7.842087585449218,0.5554462890625,0.041430817884308725,0.04435846416014646,0.009193687733171287,2.195007801055908,2019-06-20 16:35:07:791
6.725209594726563,7.854058410644531,0.44890594482421875,0.03903397290323741,0.044092148051138536,0.009193687733171287,2.1999998092651367,2019-06-20 16:35:07:796
6.74196875,7.905532958984375,0.39623431396484377,0.04049871150278099,0.044225306105642494,0.00812842329713959,2.205024003982544,2019-06-20 16:35:07:801
6.728800842285156,7.842087585449218,0.416584716796875,0.039566605121253255,0.04622267692320193,0.00666368469759601,2.2100157737731934,2019-06-20 16:35:07:806
6.628245910644531,7.8899708862304685,0.4584826049804687,0.03756923430369383,0.04182846112457118,0.004399997771028657,2.215007781982422,2019-06-20 16:35:07:811
6.660567138671875,7.876802978515625,0.5279133911132813,0.03543870543163044,0.0403637225250276,0.004533155825532619,2.2199997901916504,2019-06-20 16:35:07:816
6.7072533569335935,7.887576721191406,0.574599609375,0.03490607321361459,0.03849950976197213,0.004266839716524695,2.224991798400879,2019-06-20 16:35:07:821
6.688100036621093,7.858846740722656,0.42496429443359374,0.033707650723078936,0.036502138944412704,0.0030684172259890377,2.230015993118286,2019-06-20 16:35:07:826
6.7527424926757815,7.809766357421875,0.42975262451171875,0.03424028294109478,0.03676845505342063,0.0010710464084296096,2.2350080013275146,2019-06-20 16:35:07:831
6.645005065917968,7.906730041503906,0.4524971923828125,0.03410712488659082,0.03623582283540478,0.00027209808140583804,2.240000009536743,2019-06-20 16:35:07:836
6.69408544921875,7.886379638671875,0.4668621826171875,0.034639757104606664,0.03676845505342063,-0.0006600083001218952,2.2450239658355713,2019-06-20 16:35:07:841
6.685705871582031,7.8325109252929686,0.5243221435546875,0.03477291515911063,0.03743424532594044,-0.0030568532811932098,2.2500159740448,2019-06-20 16:35:07:846
6.627048828125,7.9043358764648435,0.292088134765625,0.02918027686994423,0.03357266174532554,-0.003456327444705095,2.2550079822540283,2019-06-20 16:35:07:851
6.7359833374023435,7.903138793945312,0.497986328125,0.032642386287047236,0.03570319061738893,-0.0037226435537130193,2.259999990463257,2019-06-20 16:35:07:856
6.685705871582031,7.927080444335937,0.41059930419921875,0.030245541305975922,0.034504768126853276,-0.004388433826232828,2.2649919986724854,2019-06-20 16:35:07:861
6.659370056152343,7.915109619140625,0.3902489013671875,0.028913960760936306,0.03517055839937308,-0.005054224098752638,2.2700159549713135,2019-06-20 16:35:07:866
6.703662109375,7.898350463867187,0.5374900512695312,0.032242912123535354,0.03583634867189289,-0.006518962698296219,2.275007963180542,2019-06-20 16:35:07:871
6.624654663085938,7.947430847167968,0.33518310546874996,0.027981854379408574,0.03357266174532554,-0.005853172425776409,2.2799999713897705,2019-06-20 16:35:07:876
6.698873779296875,7.957007507324218,0.40581097412109374,0.033041860450559124,0.0347710842358612,-0.004787907989744714,2.284991979598999,2019-06-20 16:35:07:881
6.656975891113281,7.9342629394531246,0.44292053222656247,0.030645015469487807,0.034504768126853276,-0.004255275771728867,2.290015935897827,2019-06-20 16:35:07:886
6.6342313232421875,7.998905395507812,0.387854736328125,0.02744922216139272,0.03503740034486912,-0.004388433826232828,2.2950079441070557,2019-06-20 16:35:07:891
6.6497933959960935,7.905532958984375,0.5195338134765625,0.029846067142464038,0.035436874508381004,-0.003456327444705095,2.299999952316284,2019-06-20 16:35:07:896
6.586348022460937,7.957007507324218,0.41778179931640624,0.026916589943376874,0.03343950369082158,-0.004122117717224904,2.3049919605255127,2019-06-20 16:35:07:901
6.594727600097656,8.002496643066406,0.416584716796875,0.028647644651928383,0.03570319061738893,-0.002790537172185286,2.310015916824341,2019-06-20 16:35:07:906
6.593530517578125,7.970175415039062,0.493197998046875,0.028115012433912536,0.03517055839937308,-0.0006600083001218952,2.3150079250335693,2019-06-20 16:35:07:911
6.5480413818359375,7.959401672363281,0.4189788818359375,0.024519744962305565,0.03317318758181366,-0.0010594824636337812,2.319999933242798,2019-06-20 16:35:07:916
6.580362609863281,7.952219177246094,0.5111542358398438,0.02585132550734518,0.03250739730929385,0.0012042044629335714,2.325023889541626,2019-06-20 16:35:07:921
6.583953857421875,7.9342629394531246,0.493197998046875,0.02425342885329764,0.031841607036774036,0.004399997771028657,2.3300158977508545,2019-06-20 16:35:07:926
6.599515930175781,7.982146240234375,0.42975262451171875,0.023454480526273865,0.03157529092776611,0.005465262207060353,2.335007905960083,2019-06-20 16:35:07:931
6.558815124511718,7.949825012207031,0.4405263671875,0.02585132550734518,0.030376868437230458,0.006264210534084123,2.3399999141693115,2019-06-20 16:35:07:936
6.564800537109375,7.966584167480469,0.416584716796875,0.023321322471769903,0.03064318454623838,0.007063158861107895,2.34499192237854,2019-06-20 16:35:07:941
6.5911363525390625,7.941445434570312,0.4776359252929687,0.022122899981234248,0.030909500655246305,0.008261581351643552,2.350015878677368,2019-06-20 16:35:07:946
6.558815124511718,7.954613342285156,0.5243221435546875,0.02305500636276198,0.030909500655246305,0.010658426332714866,2.3550078868865967,2019-06-20 16:35:07:951
6.6078955078125,7.930671691894531,0.45369427490234376,0.02225605803573821,0.03170844898227007,0.011990006877754486,2.359999895095825,2019-06-20 16:35:07:956
6.642610900878906,7.979752075195313,0.43454095458984376,0.023454480526273865,0.031974765091277994,0.012522639095770333,2.3649919033050537,2019-06-20 16:35:07:961
6.630640075683593,7.955810424804687,0.43693511962890624,0.023321322471769903,0.03264055536379781,0.013321587422794106,2.370015859603882,2019-06-20 16:35:07:966
6.6055013427734375,7.965387084960938,0.42496429443359374,0.024386586907801603,0.032906871472805736,0.012922113259282218,2.3750078678131104,2019-06-20 16:35:07:971
6.57916552734375,7.921095031738281,0.4333438720703125,0.024386586907801603,0.03250739730929385,0.013188429368290141,2.379999876022339,2019-06-20 16:35:07:976
6.631837158203125,7.928277526855468,0.44292053222656247,0.02585132550734518,0.03330634563631762,0.016117906567377306,2.3849918842315674,2019-06-20 16:35:07:981
6.633034240722656,7.946233764648437,0.40581097412109374,0.02665027383436895,0.03517055839937308,0.01771580322142485,2.3900158405303955,2019-06-20 16:35:07:986
6.645005065917968,7.951022094726563,0.4596796875,0.028647644651928383,0.036368980889908746,0.018381593493944658,2.395007848739624,2019-06-20 16:35:07:991
6.618669250488281,7.93905126953125,0.4848184204101562,0.02918027686994423,0.037167929216932516,0.018381593493944658,2.3999998569488525,2019-06-20 16:35:07:996
6.59831884765625,7.941445434570312,0.5015775756835937,0.02931343492444819,0.0375674033804444,0.019580015984480316,2.404991865158081,2019-06-20 16:35:08:001
6.5911363525390625,7.937854187011719,0.5015775756835937,0.029047118815440268,0.03863266781647609,0.02211001902005559,2.410015821456909,2019-06-20 16:35:08:006
6.581559692382812,7.9330658569335935,0.47045343017578123,0.028647644651928383,0.038765825870980056,0.02211001902005559,2.415071964263916,2019-06-20 16:35:08:011
6.609092590332031,7.946233764648437,0.4572855224609375,0.030645015469487807,0.038765825870980056,0.02197686096555163,2.419999837875366,2019-06-20 16:35:08:016
6.587545104980468,7.953416259765625,0.4596796875,0.03157712185101554,0.040763196688539484,0.023707915674103134,2.4249918460845947,2019-06-20 16:35:08:021
6.6055013427734375,7.957007507324218,0.5087600708007812,0.031044489632999692,0.0431600416696108,0.025705286491662562,2.430015802383423,2019-06-20 16:35:08:026
6.586348022460937,7.965387084960938,0.5003804931640625,0.0327755443415512,0.04196161917907514,0.02637107676418237,2.4350078105926514,2019-06-20 16:35:08:031
6.571983032226562,7.973766662597656,0.4764388427734375,0.032642386287047236,0.04129582890655533,0.027303183145710105,2.43999981880188,2019-06-20 16:35:08:036
6.603107177734375,7.974963745117187,0.46087677001953126,0.03157712185101554,0.040763196688539484,0.029566870072277457,2.4449918270111084,2019-06-20 16:35:08:041
6.59831884765625,7.966584167480469,0.47284759521484376,0.032642386287047236,0.04102951279754741,0.031164766726325004,2.4500157833099365,2019-06-20 16:35:08:046
6.600713012695312,7.955810424804687,0.42975262451171875,0.0327755443415512,0.042227935288083066,0.03183055699884481,2.455007791519165,2019-06-20 16:35:08:051
6.577968444824219,8.01566455078125,0.5207308959960938,0.03330817655956705,0.04169530307006722,0.03342845365289235,2.4599997997283936,2019-06-20 16:35:08:056
6.5911363525390625,7.949825012207031,0.46327093505859374,0.03237607017803931,0.04129582890655533,0.033961085870908195,2.464991807937622,2019-06-20 16:35:08:061
6.586348022460937,7.93905126953125,0.4716505126953125,0.03171027990551951,0.04049688057953156,0.03489319225243594,2.4700160026550293,2019-06-20 16:35:08:066
6.583953857421875,7.937854187011719,0.4860155029296875,0.03197659601452743,0.04129582890655533,0.037556355423109776,2.4750077724456787,2019-06-20 16:35:08:071
6.592333435058594,7.9629929199218745,0.49439508056640624,0.03477291515911063,0.04249425139709099,0.0406189906767009,2.4799997806549072,2019-06-20 16:35:08:076
6.59831884765625,7.931868774414062,0.46805926513671875,0.03424028294109478,0.042227935288083066,0.041018464840212786,2.4849917888641357,2019-06-20 16:35:08:081
6.593530517578125,7.947430847167968,0.4572855224609375,0.033707650723078936,0.04196161917907514,0.04248320343975636,2.490015983581543,2019-06-20 16:35:08:086
6.599515930175781,7.970175415039062,0.46805926513671875,0.03424028294109478,0.04129582890655533,0.04421425814830787,2.4950079917907715,2019-06-20 16:35:08:091
6.628245910644531,7.954613342285156,0.5111542358398438,0.03477291515911063,0.04182846112457118,0.0451463645298356,2.5,2019-06-20 16:35:08:096
6.6354284057617186,7.942642517089843,0.5566433715820313,0.03597133764964629,0.04182846112457118,0.04607847091136334,2.5049920082092285,2019-06-20 16:35:08:101
6.633034240722656,7.9187008666992185,0.5243221435546875,0.035705021540638364,0.04369267388762665,0.04834215783793069,2.5100159645080566,2019-06-20 16:35:08:106
6.599515930175781,7.93905126953125,0.52671630859375,0.036503969867662134,0.04196161917907514,0.04980689643747427,2.515007972717285,2019-06-20 16:35:08:111
6.630640075683593,7.907927124023438,0.4716505126953125,0.035705021540638364,0.04196161917907514,0.05127163503701785,2.5199999809265137,2019-06-20 16:35:08:116
6.631837158203125,7.93905126953125,0.4656651000976562,0.03623765375865421,0.043026883615106835,0.05207058336404162,2.525023937225342,2019-06-20 16:35:08:121
6.623457580566406,7.942642517089843,0.46207385253906247,0.036503969867662134,0.04289372556060288,0.05207058336404162,2.5300159454345703,2019-06-20 16:35:08:126
6.6198663330078125,7.931868774414062,0.49918341064453126,0.0366371279221661,0.04129582890655533,0.051937425309537655,2.535007953643799,2019-06-20 16:35:08:131
6.628245910644531,7.864832153320313,0.454891357421875,0.03623765375865421,0.041428986961059296,0.054067954181601055,2.5399999618530273,2019-06-20 16:35:08:136
6.654581726074219,7.90074462890625,0.45608843994140624,0.035305547377126476,0.04089635474304345,0.055266376672136706,2.544991970062256,2019-06-20 16:35:08:141
6.6497933959960935,7.907927124023438,0.4764388427734375,0.03583817959514232,0.04102951279754741,0.054866902508624825,2.550015926361084,2019-06-20 16:35:08:146
6.666552551269531,7.90074462890625,0.4393292846679687,0.03490607321361459,0.04169530307006722,0.05513321861763275,2.5550079345703125,2019-06-20 16:35:08:151
6.659370056152343,7.8899708862304685,0.48721258544921875,0.034506599050102706,0.04102951279754741,0.05500006056312878,2.559999942779541,2019-06-20 16:35:08:156
6.652187561035156,7.897153381347656,0.4405263671875,0.034639757104606664,0.0403637225250276,0.0563316411081684,2.5649919509887695,2019-06-20 16:35:08:161
6.676129211425781,7.883985473632812,0.46805926513671875,0.033840808777582894,0.04102951279754741,0.05593216694465652,2.5700159072875977,2019-06-20 16:35:08:166
6.676129211425781,7.894759216308594,0.4285555419921875,0.033041860450559124,0.03903214197998798,0.05513321861763275,2.575007915496826,2019-06-20 16:35:08:171
6.680917541503906,7.903138793945312,0.4596796875,0.03250922823254328,0.038765825870980056,0.056065324999160476,2.5799999237060547,2019-06-20 16:35:08:176
6.686902954101562,7.870817565917968,0.4716505126953125,0.03197659601452743,0.03823319365296421,0.05686427332618425,2.584991931915283,2019-06-20 16:35:08:181
6.679720458984375,7.887576721191406,0.48122717285156247,0.032642386287047236,0.037167929216932516,0.05513321861763275,2.5900158882141113,2019-06-20 16:35:08:186
6.698873779296875,7.8756058959960935,0.4716505126953125,0.03344133461407101,0.03690161310792459,0.05553269278114463,2.59500789642334,2019-06-20 16:35:08:191
6.698873779296875,7.867226318359375,0.45369427490234376,0.03210975406903139,0.03783371948945232,0.05673111527168029,2.5999999046325684,2019-06-20 16:35:08:196
6.7072533569335935,7.851664245605469,0.46207385253906247,0.031843437960023466,0.037167929216932516,0.055266376672136706,2.6050238609313965,2019-06-20 16:35:08:201
6.688100036621093,7.86243798828125,0.46207385253906247,0.031443963796511584,0.03690161310792459,0.05433427029060898,2.610015869140625,2019-06-20 16:35:08:206
6.703662109375,7.839693420410156,0.46327093505859374,0.031177647687503654,0.037167929216932516,0.055266376672136706,2.6150078773498535,2019-06-20 16:35:08:211
6.706056274414062,7.813357604980468,0.4668621826171875,0.031443963796511584,0.037167929216932516,0.05393479612709709,2.619999885559082,2019-06-20 16:35:08:216
6.709647521972656,7.851664245605469,0.4201759643554687,0.029712909087960076,0.036102664780900816,0.05353532196358521,2.6249918937683105,2019-06-20 16:35:08:221
6.728800842285156,7.8612409057617185,0.454891357421875,0.03091133157849573,0.03583634867189289,0.052603215582057467,2.6300158500671387,2019-06-20 16:35:08:226
6.758727905273437,7.809766357421875,0.4764388427734375,0.029846067142464038,0.035436874508381004,0.05127163503701785,2.635007858276367,2019-06-20 16:35:08:231
6.768304565429688,7.82413134765625,0.4668621826171875,0.03011238325147196,0.03743424532594044,0.049940054491978234,2.6399998664855957,2019-06-20 16:35:08:236
6.750348327636718,7.800189697265624,0.4405263671875,0.029047118815440268,0.03676845505342063,0.04927426421945842,2.644991874694824,2019-06-20 16:35:08:241
6.764713317871093,7.836102172851563,0.4584826049804687,0.028913960760936306,0.03690161310792459,0.04847531589243465,2.6500158309936523,2019-06-20 16:35:08:246
6.777881225585937,7.838496337890625,0.4465117797851562,0.029979225196968,0.03703477116242855,0.04754320951090692,2.655007839202881,2019-06-20 16:35:08:251
6.787457885742187,7.819343017578125,0.41299346923828123,0.030245541305975922,0.036368980889908746,0.04448057425731579,2.6599998474121094,2019-06-20 16:35:08:256
6.77069873046875,7.808569274902344,0.42257012939453126,0.029446592978952153,0.0347710842358612,0.042749519548764284,2.664991855621338,2019-06-20 16:35:08:261
6.814990783691406,7.8169488525390625,0.445314697265625,0.028248170488416498,0.03490424229036516,0.04248320343975636,2.670015811920166,2019-06-20 16:35:08:266
6.812596618652344,7.80497802734375,0.4860155029296875,0.02931343492444819,0.0347710842358612,0.03968688429517316,2.6750078201293945,2019-06-20 16:35:08:271
6.793443298339843,7.820540100097656,0.4393292846679687,0.028913960760936306,0.035436874508381004,0.038355303750133546,2.679999828338623,2019-06-20 16:35:08:276
6.792246215820312,7.8313138427734375,0.46207385253906247,0.028780802706432344,0.035436874508381004,0.03476003419793197,2.6849918365478516,2019-06-20 16:35:08:281
6.77069873046875,7.776248046875,0.47284759521484376,0.029047118815440268,0.036502138944412704,0.0328958214348765,2.6900157928466797,2019-06-20 16:35:08:286
6.7946403808593745,7.834905090332031,0.4405263671875,0.03011238325147196,0.036368980889908746,0.031963715053348773,2.695007801055908,2019-06-20 16:35:08:291
6.8090053710937495,7.840890502929687,0.48003009033203126,0.02931343492444819,0.036102664780900816,0.03143108283533293,2.6999998092651367,2019-06-20 16:35:08:296
6.8102024536132815,7.836102172851563,0.45608843994140624,0.027981854379408574,0.03663529699891667,0.030232660344797265,2.7049918174743652,2019-06-20 16:35:08:301
6.793443298339843,7.838496337890625,0.42975262451171875,0.02838132854292046,0.03676845505342063,0.02823528952723784,2.7100157737731934,2019-06-20 16:35:08:306
6.753939575195313,7.803780944824219,0.4524971923828125,0.030645015469487807,0.03690161310792459,0.02690370898219822,2.715007781982422,2019-06-20 16:35:08:311
6.758727905273437,7.793007202148437,0.4656651000976562,0.02918027686994423,0.035436874508381004,0.02477318011013483,2.7199997901916504,2019-06-20 16:35:08:316
6.7671074829101565,7.7954013671875,0.47284759521484376,0.02931343492444819,0.03570319061738893,0.024240547892118984,2.724991798400879,2019-06-20 16:35:08:321
6.793443298339843,7.803780944824219,0.46805926513671875,0.028913960760936306,0.036502138944412704,0.022509493183567476,2.730015993118286,2019-06-20 16:35:08:326
6.783866638183594,7.820540100097656,0.45010302734374996,0.029446592978952153,0.03690161310792459,0.022376335129063514,2.7350080013275146,2019-06-20 16:35:08:331
6.738377502441406,7.800189697265624,0.46805926513671875,0.031044489632999692,0.03703477116242855,0.02064528042051201,2.740000009536743,2019-06-20 16:35:08:336
6.728800842285156,7.8313138427734375,0.48122717285156247,0.031044489632999692,0.03823319365296421,0.01918054182096843,2.7449917793273926,2019-06-20 16:35:08:341
6.84731201171875,7.898350463867187,0.49200091552734376,0.030511857414983846,0.038100035598460244,0.01771580322142485,2.7500159740448,2019-06-20 16:35:08:346
6.829355773925781,7.8899708862304685,0.5255192260742187,0.03210975406903139,0.035303716453877046,0.015851590458369383,2.7550079822540283,2019-06-20 16:35:08:351
6.816187866210937,7.778642211914062,0.47524176025390624,0.030645015469487807,0.03676845505342063,0.014253693804321838,2.759999990463257,2019-06-20 16:35:08:356
6.729997924804687,7.764277221679687,0.42376721191406247,0.03091133157849573,0.03690161310792459,0.015052642131345608,2.7649919986724854,2019-06-20 16:35:08:361
6.720421264648437,7.798992614746093,0.44890594482421875,0.03171027990551951,0.038765825870980056,0.012522639095770333,2.7700159549713135,2019-06-20 16:35:08:366
6.776684143066406,7.851664245605469,0.5099571533203124,0.03410712488659082,0.039964248361515714,0.010392110223706943,2.775007963180542,2019-06-20 16:35:08:371
6.798231628417969,7.894759216308594,0.49439508056640624,0.03397396683208686,0.03863266781647609,0.009726319951187133,2.7799999713897705,2019-06-20 16:35:08:376
6.820976196289062,7.818145935058594,0.36032183837890625,0.031044489632999692,0.03783371948945232,0.008927371624163362,2.784991979598999,2019-06-20 16:35:08:381
6.7659104003906245,7.777445129394531,0.426161376953125,0.032242912123535354,0.037966877543956286,0.007196316915611857,2.790015935897827,2019-06-20 16:35:08:386
6.7611220703125,7.820540100097656,0.47284759521484376,0.03330817655956705,0.03943161614349987,0.007728949133627705,2.7950079441070557,2019-06-20 16:35:08:391
6.7371804199218746,7.851664245605469,0.5638258666992187,0.0355718634861344,0.03916530003449194,0.004266839716524695,2.799999952316284,2019-06-20 16:35:08:396
6.750348327636718,7.821737182617188,0.512351318359375,0.033840808777582894,0.03836635170746817,0.002935259171485076,2.8049919605255127,2019-06-20 16:35:08:401
6.77069873046875,7.819343017578125,0.368701416015625,0.03250922823254328,0.037966877543956286,0.0014705205719414951,2.810015916824341,2019-06-20 16:35:08:406
6.738377502441406,7.836102172851563,0.4201759643554687,0.035705021540638364,0.037167929216932516,0.001736836680949419,2.8150079250335693,2019-06-20 16:35:08:411
6.753939575195313,7.839693420410156,0.5051688232421875,0.035705021540638364,0.0392984580889959,0.0004052561359097999,2.819999933242798,2019-06-20 16:35:08:416
6.7359833374023435,7.8337080078125,0.5398842163085937,0.034506599050102706,0.03983109030701175,5.781972397914221e-06,2.8249919414520264,2019-06-20 16:35:08:421
6.729997924804687,7.878000061035156,0.4908038330078125,0.03397396683208686,0.04049688057953156,-0.0003936921911139715,2.8300158977508545,2019-06-20 16:35:08:426
6.720421264648437,7.864832153320313,0.41778179931640624,0.033707650723078936,0.0403637225250276,-0.0013257985726417049,2.835007905960083,2019-06-20 16:35:08:431
6.712041687011719,7.828919677734375,0.43094970703125,0.03490607321361459,0.03969793225250779,-0.0017252727361535905,2.8399999141693115,2019-06-20 16:35:08:436
6.729997924804687,7.825328430175781,0.5039717407226563,0.03490607321361459,0.04102951279754741,-0.002124746899665476,2.84499192237854,2019-06-20 16:35:08:441
6.714435852050781,7.887576721191406,0.5183367309570313,0.03357449266857497,0.039964248361515714,-0.0029236952266892477,2.850015878677368,2019-06-20 16:35:08:446
6.682114624023438,7.8720146484375,0.48003009033203126,0.03437344099559874,0.03983109030701175,-0.002524221063177362,2.8550078868865967,2019-06-20 16:35:08:451
6.724012512207031,7.840890502929687,0.43214678955078123,0.03410712488659082,0.038100035598460244,-0.002124746899665476,2.859999895095825,2019-06-20 16:35:08:456
6.733589172363281,7.895956298828125,0.4189788818359375,0.03517238932262252,0.03849950976197213,-0.0019915888451615144,2.8649919033050537,2019-06-20 16:35:08:461
6.7216183471679685,7.893562133789063,0.4596796875,0.034506599050102706,0.03916530003449194,-0.0017252727361535905,2.870015859603882,2019-06-20 16:35:08:466
6.738377502441406,7.858846740722656,0.48122717285156247,0.03490607321361459,0.03863266781647609,-0.003988959662720943,2.8750078678131104,2019-06-20 16:35:08:471
6.706056274414062,7.892365051269531,0.4405263671875,0.033840808777582894,0.037966877543956286,-0.003855801608216981,2.879999876022339,2019-06-20 16:35:08:476
6.709647521972656,7.885182556152343,0.42376721191406247,0.033840808777582894,0.03849950976197213,-0.0035894854992090572,2.8849918842315674,2019-06-20 16:35:08:481
6.710844604492188,7.852861328125,0.45010302734374996,0.03317501850506309,0.03823319365296421,-0.004388433826232828,2.8900158405303955,2019-06-20 16:35:08:486
6.7216183471679685,7.8720146484375,0.47524176025390624,0.03330817655956705,0.03770056143494836,-0.0037226435537130193,2.895007848739624,2019-06-20 16:35:08:491
6.706056274414062,7.892365051269531,0.44890594482421875,0.03330817655956705,0.0375674033804444,-0.003855801608216981,2.8999998569488525,2019-06-20 16:35:08:496
6.688100036621093,7.883985473632812,0.454891357421875,0.03290870239605516,0.03770056143494836,-0.0057200143712724475,2.904991865158081,2019-06-20 16:35:08:501
6.686902954101562,7.863635070800781,0.46925634765625,0.032242912123535354,0.037167929216932516,-0.004122117717224904,2.910015821456909,2019-06-20 16:35:08:506
6.680917541503906,7.895956298828125,0.43693511962890624,0.032242912123535354,0.03770056143494836,-0.0029236952266892477,2.9150078296661377,2019-06-20 16:35:08:511
6.676129211425781,7.897153381347656,0.47045343017578123,0.03197659601452743,0.03836635170746817,-0.001192640518137743,2.9200639724731445,2019-06-20 16:35:08:516
6.686902954101562,7.876802978515625,0.4908038330078125,0.032242912123535354,0.03823319365296421,-0.0014589566271456667,2.9250237941741943,2019-06-20 16:35:08:521
6.672537963867187,7.869620483398437,0.46207385253906247,0.032242912123535354,0.03823319365296421,-0.0006600083001218952,2.930015802383423,2019-06-20 16:35:08:526
6.677326293945312,7.868423400878906,0.41538763427734376,0.033041860450559124,0.03570319061738893,-0.0003936921911139715,2.9350078105926514,2019-06-20 16:35:08:531
6.672537963867187,7.873211730957031,0.41299346923828123,0.03250922823254328,0.03583634867189289,-0.0009263244091298192,2.93999981880188,2019-06-20 16:35:08:536
6.701267944335937,7.898350463867187,0.43693511962890624,0.030645015469487807,0.03783371948945232,-0.0002605341366100096,2.9449918270111084,2019-06-20 16:35:08:541
6.700070861816406,7.899547546386718,0.474044677734375,0.031177647687503654,0.03676845505342063,0.00013894002690187612,2.9500157833099365,2019-06-20 16:35:08:546
6.695282531738281,7.868423400878906,0.4776359252929687,0.031443963796511584,0.03770056143494836,0.002136310844461305,2.955007791519165,2019-06-20 16:35:08:551
6.6641583862304685,7.899547546386718,0.4094022216796875,0.03011238325147196,0.03849950976197213,0.001603678626445457,2.9599997997283936,2019-06-20 16:35:08:556
6.702465026855468,7.921095031738281,0.42496429443359374,0.031443963796511584,0.037167929216932516,0.002136310844461305,2.964991807937622,2019-06-20 16:35:08:561
6.689297119140625,7.894759216308594,0.43454095458984376,0.031443963796511584,0.03676845505342063,0.003334733334996962,2.9700160026550293,2019-06-20 16:35:08:566
6.683311706542969,7.897153381347656,0.474044677734375,0.031044489632999692,0.03623582283540478,0.0026689430624771524,2.9750077724456787,2019-06-20 16:35:08:571
6.686902954101562,7.886379638671875,0.48960675048828123,0.031843437960023466,0.03570319061738893,0.003334733334996962,2.9799997806549072,2019-06-20 16:35:08:576
6.666552551269531,7.897153381347656,0.4465117797851562,0.03210975406903139,0.038100035598460244,0.005065788043548467,2.9849917888641357,2019-06-20 16:35:08:581
6.715632934570312,7.882788391113281,0.41179638671874996,0.03197659601452743,0.037966877543956286,0.005065788043548467,2.990015983581543,2019-06-20 16:35:08:586
6.697676696777344,7.883985473632812,0.47284759521484376,0.031843437960023466,0.0375674033804444,0.00533210415255639,2.9950079917907715,2019-06-20 16:35:08:591
6.656975891113281,7.906730041503906,0.474044677734375,0.03210975406903139,0.03836635170746817,0.005864736370572238,3.0,2019-06-20 16:35:08:596
6.682114624023438,7.909124206542969,0.4656651000976562,0.03250922823254328,0.037966877543956286,0.006264210534084123,3.005023956298828,2019-06-20 16:35:08:601
6.672537963867187,7.928277526855468,0.44411761474609374,0.032642386287047236,0.037301087271436474,0.005864736370572238,3.0100159645080566,2019-06-20 16:35:08:606
6.691691284179687,7.901941711425781,0.46207385253906247,0.03250922823254328,0.0375674033804444,0.007595791079123743,3.015007972717285,2019-06-20 16:35:08:611
6.718027099609375,7.911518371582031,0.44890594482421875,0.03290870239605516,0.03849950976197213,0.0087942135696594,3.0199999809265137,2019-06-20 16:35:08:616
6.680917541503906,7.887576721191406,0.4405263671875,0.03250922823254328,0.03863266781647609,0.008661055515155438,3.024991989135742,2019-06-20 16:35:08:621
6.676129211425781,7.893562133789063,0.4477088623046875,0.03091133157849573,0.038765825870980056,0.009326845787675248,3.0300159454345703,2019-06-20 16:35:08:626
6.686902954101562,7.937854187011719,0.44172344970703126,0.032242912123535354,0.03916530003449194,0.009992636060195056,3.035007953643799,2019-06-20 16:35:08:631
6.683311706542969,7.903138793945312,0.45010302734374996,0.03091133157849573,0.03916530003449194,0.010525268278210905,3.0399999618530273,2019-06-20 16:35:08:636
6.666552551269531,7.873211730957031,0.454891357421875,0.031044489632999692,0.03916530003449194,0.011324216605234675,3.0450239181518555,2019-06-20 16:35:08:641
6.6785233764648435,7.907927124023438,0.445314697265625,0.03157712185101554,0.03863266781647609,0.012922113259282218,3.050015926361084,2019-06-20 16:35:08:646
6.654581726074219,7.911518371582031,0.4572855224609375,0.03210975406903139,0.038898983925484014,0.012922113259282218,3.0550079345703125,2019-06-20 16:35:08:651
6.676129211425781,7.90074462890625,0.454891357421875,0.031843437960023466,0.039964248361515714,0.0143868518588258,3.059999942779541,2019-06-20 16:35:08:656
6.715632934570312,7.88159130859375,0.47284759521484376,0.03237607017803931,0.04023056447052364,0.013721061586305991,3.0649919509887695,2019-06-20 16:35:08:661
6.706056274414062,7.870817565917968,0.47524176025390624,0.03290870239605516,0.03943161614349987,0.014520009913329761,3.0700159072875977,2019-06-20 16:35:08:666
6.709647521972656,7.876802978515625,0.4860155029296875,0.03357449266857497,0.039964248361515714,0.015452116294857496,3.075007915496826,2019-06-20 16:35:08:671
6.703662109375,7.887576721191406,0.49200091552734376,0.03410712488659082,0.03943161614349987,0.015851590458369383,3.0799999237060547,2019-06-20 16:35:08:676
6.714435852050781,7.886379638671875,0.44411761474609374,0.03330817655956705,0.039564774198003826,0.01638422267638523,3.084991931915283,2019-06-20 16:35:08:681
6.6928883666992185,7.892365051269531,0.4524971923828125,0.03171027990551951,0.03969793225250779,0.015851590458369383,3.0900158882141113,2019-06-20 16:35:08:686
6.67493212890625,7.898350463867187,0.4524971923828125,0.03357449266857497,0.04049688057953156,0.016251064621881268,3.09500789642334,2019-06-20 16:35:08:691
6.6928883666992185,7.9187008666992185,0.43693511962890624,0.03344133461407101,0.04089635474304345,0.016783696839897114,3.0999999046325684,2019-06-20 16:35:08:696
6.71323876953125,7.895956298828125,0.4477088623046875,0.03424028294109478,0.039964248361515714,0.017316329057912964,3.104991912841797,2019-06-20 16:35:08:701
6.683311706542969,7.882788391113281,0.48122717285156247,0.03397396683208686,0.04023056447052364,0.017316329057912964,3.110015869140625,2019-06-20 16:35:08:706
6.676129211425781,7.882788391113281,0.46207385253906247,0.033707650723078936,0.04023056447052364,0.016117906567377306,3.1150078773498535,2019-06-20 16:35:08:711
6.677326293945312,7.89116796875,0.4405263671875,0.03410712488659082,0.04049688057953156,0.016783696839897114,3.119999885559082,2019-06-20 16:35:08:716
6.666552551269531,7.8899708862304685,0.48003009033203126,0.033840808777582894,0.03943161614349987,0.017316329057912964,3.1249918937683105,2019-06-20 16:35:08:721
6.659370056152343,7.913912536621093,0.4465117797851562,0.033840808777582894,0.03823319365296421,0.018115277384936734,3.1300158500671387,2019-06-20 16:35:08:726
6.683311706542969,7.928277526855468,0.46925634765625,0.03357449266857497,0.03863266781647609,0.019313699875472393,3.135007858276367,2019-06-20 16:35:08:731
6.670143798828125,7.893562133789063,0.5039717407226563,0.032642386287047236,0.03983109030701175,0.01904738376646447,3.1399998664855957,2019-06-20 16:35:08:736
6.688100036621093,7.887576721191406,0.45010302734374996,0.03157712185101554,0.04009740641601968,0.019713174038984278,3.144991874694824,2019-06-20 16:35:08:741
6.689297119140625,7.90074462890625,0.4405263671875,0.03171027990551951,0.0392984580889959,0.021577386802039744,3.1500158309936523,2019-06-20 16:35:08:746
6.680917541503906,7.894759216308594,0.44411761474609374,0.03171027990551951,0.0392984580889959,0.02064528042051201,3.155007839202881,2019-06-20 16:35:08:751
6.67493212890625,7.876802978515625,0.48960675048828123,0.03157712185101554,0.03863266781647609,0.020778438475015974,3.1599998474121094,2019-06-20 16:35:08:756
6.695282531738281,7.879197143554688,0.454891357421875,0.031843437960023466,0.038765825870980056,0.02197686096555163,3.164991855621338,2019-06-20 16:35:08:761
6.726406677246094,7.88159130859375,0.4381322021484375,0.03091133157849573,0.03770056143494836,0.022509493183567476,3.170015811920166,2019-06-20 16:35:08:766
6.729997924804687,7.8612409057617185,0.46327093505859374,0.031177647687503654,0.03770056143494836,0.02064528042051201,3.1750078201293945,2019-06-20 16:35:08:771
6.733589172363281,7.849270080566406,0.5003804931640625,0.031843437960023466,0.03836635170746817,0.020512122366008047,3.179999828338623,2019-06-20 16:35:08:776
6.729997924804687,7.870817565917968,0.4764388427734375,0.032242912123535354,0.03943161614349987,0.020911596529519936,3.1849918365478516,2019-06-20 16:35:08:781
6.724012512207031,7.868423400878906,0.46087677001953126,0.032642386287047236,0.0392984580889959,0.020512122366008047,3.1900157928466797,2019-06-20 16:35:08:786
6.731195007324218,7.849270080566406,0.4967892456054687,0.031177647687503654,0.03863266781647609,0.020378964311504086,3.195007801055908,2019-06-20 16:35:08:791
6.73239208984375,7.848072998046875,0.4584826049804687,0.03290870239605516,0.03916530003449194,0.018781067657456543,3.1999998092651367,2019-06-20 16:35:08:796
6.7371804199218746,7.878000061035156,0.44292053222656247,0.03197659601452743,0.040763196688539484,0.018914225711960504,3.205024003982544,2019-06-20 16:35:08:801
6.719224182128906,7.860043823242187,0.45130010986328123,0.03210975406903139,0.03903214197998798,0.018914225711960504,3.2100157737731934,2019-06-20 16:35:08:806
6.731195007324218,7.845678833007812,0.46327093505859374,0.03250922823254328,0.039964248361515714,0.018115277384936734,3.215007781982422,2019-06-20 16:35:08:811
6.697676696777344,7.876802978515625,0.474044677734375,0.03210975406903139,0.03969793225250779,0.01638422267638523,3.2199997901916504,2019-06-20 16:35:08:816
6.726406677246094,7.869620483398437,0.5063659057617187,0.03330817655956705,0.040630038634035526,0.01638422267638523,3.224991798400879,2019-06-20 16:35:08:821
6.71323876953125,7.86243798828125,0.5015775756835937,0.03317501850506309,0.039564774198003826,0.017449487112416926,3.230015993118286,2019-06-20 16:35:08:826
6.71323876953125,7.845678833007812,0.47045343017578123,0.033707650723078936,0.03943161614349987,0.017183171003409,3.2350080013275146,2019-06-20 16:35:08:831
6.686902954101562,7.834905090332031,0.454891357421875,0.03357449266857497,0.03903214197998798,0.016650538785393153,3.240000009536743,2019-06-20 16:35:08:836
6.714435852050781,7.84328466796875,0.46805926513671875,0.03357449266857497,0.03849950976197213,0.015052642131345608,3.2449917793273926,2019-06-20 16:35:08:841
6.7216183471679685,7.854058410644531,0.497986328125,0.03317501850506309,0.039564774198003826,0.015052642131345608,3.2500159740448,2019-06-20 16:35:08:846
6.731195007324218,7.84328466796875,0.497986328125,0.03437344099559874,0.0392984580889959,0.015318958240353535,3.2550079822540283,2019-06-20 16:35:08:851
6.744362915039062,7.864832153320313,0.4848184204101562,0.03437344099559874,0.039564774198003826,0.014120535749817876,3.259999990463257,2019-06-20 16:35:08:856
6.731195007324218,7.856452575683593,0.48960675048828123,0.03490607321361459,0.04009740641601968,0.013987377695313915,3.2649919986724854,2019-06-20 16:35:08:861
6.719224182128906,7.852861328125,0.47045343017578123,0.03543870543163044,0.03916530003449194,0.013321587422794106,3.2700159549713135,2019-06-20 16:35:08:866
6.743165832519531,7.834905090332031,0.4716505126953125,0.035305547377126476,0.03983109030701175,0.011856848823250525,3.275007963180542,2019-06-20 16:35:08:871
6.740771667480469,7.838496337890625,0.48003009033203126,0.034639757104606664,0.039564774198003826,0.011590532714242601,3.2799999713897705,2019-06-20 16:35:08:876
6.74196875,7.868423400878906,0.43693511962890624,0.033840808777582894,0.03863266781647609,0.01145737465973864,3.284991979598999,2019-06-20 16:35:08:881
6.728800842285156,7.880394226074219,0.43693511962890624,0.03437344099559874,0.03916530003449194,0.010392110223706943,3.290015935897827,2019-06-20 16:35:08:886
6.724012512207031,7.870817565917968,0.43214678955078123,0.03437344099559874,0.0392984580889959,0.009326845787675248,3.2950079441070557,2019-06-20 16:35:08:891
6.725209594726563,7.850467163085938,0.47284759521484376,0.03410712488659082,0.0392984580889959,0.00946000384217921,3.299999952316284,2019-06-20 16:35:08:896
6.73239208984375,7.870817565917968,0.454891357421875,0.03503923126811855,0.03916530003449194,0.009593161896683172,3.3049919605255127,2019-06-20 16:35:08:901
6.719224182128906,7.868423400878906,0.48122717285156247,0.03543870543163044,0.03943161614349987,0.009193687733171287,3.310015916824341,2019-06-20 16:35:08:906
6.7371804199218746,7.840890502929687,0.46087677001953126,0.03517238932262252,0.0403637225250276,0.0087942135696594,3.3150079250335693,2019-06-20 16:35:08:911
6.697676696777344,7.878000061035156,0.47045343017578123,0.035305547377126476,0.039964248361515714,0.007862107188131667,3.319999933242798,2019-06-20 16:35:08:916
6.714435852050781,7.913912536621093,0.454891357421875,0.03477291515911063,0.03863266781647609,0.006930000806603933,3.3249919414520264,2019-06-20 16:35:08:921
6.719224182128906,7.858846740722656,0.4393292846679687,0.033840808777582894,0.0392984580889959,0.007462633024619782,3.3300158977508545,2019-06-20 16:35:08:926
6.712041687011719,7.882788391113281,0.45010302734374996,0.03437344099559874,0.0403637225250276,0.0087942135696594,3.335007905960083,2019-06-20 16:35:08:931
6.702465026855468,7.866029235839844,0.42975262451171875,0.03517238932262252,0.038765825870980056,0.008527897460651477,3.3399999141693115,2019-06-20 16:35:08:936
6.708450439453125,7.866029235839844,0.43693511962890624,0.03410712488659082,0.03903214197998798,0.006530526643092048,3.34499192237854,2019-06-20 16:35:08:941
6.724012512207031,7.854058410644531,0.4524971923828125,0.033041860450559124,0.03983109030701175,0.007728949133627705,3.350015878677368,2019-06-20 16:35:08:946
6.700070861816406,7.882788391113281,0.4848184204101562,0.03237607017803931,0.039564774198003826,0.007995265242635628,3.3550078868865967,2019-06-20 16:35:08:951
6.706056274414062,7.856452575683593,0.4848184204101562,0.032642386287047236,0.038765825870980056,0.006930000806603933,3.359999895095825,2019-06-20 16:35:08:956
6.714435852050781,7.887576721191406,0.4524971923828125,0.03210975406903139,0.038898983925484014,0.008661055515155438,3.3649919033050537,2019-06-20 16:35:08:961
6.710844604492188,7.903138793945312,0.44411761474609374,0.031443963796511584,0.038100035598460244,0.008261581351643552,3.370015859603882,2019-06-20 16:35:08:966
6.729997924804687,7.886379638671875,0.48242425537109374,0.03197659601452743,0.03836635170746817,0.009193687733171287,3.3750078678131104,2019-06-20 16:35:08:971
6.7515454101562495,7.888773803710937,0.4788330078125,0.032242912123535354,0.03823319365296421,0.007462633024619782,3.379999876022339,2019-06-20 16:35:08:976
6.7371804199218746,7.905532958984375,0.4848184204101562,0.03210975406903139,0.03903214197998798,0.006796842752099972,3.3849918842315674,2019-06-20 16:35:08:981
6.702465026855468,7.899547546386718,0.4405263671875,0.03290870239605516,0.03943161614349987,0.007329474970115818,3.3900158405303955,2019-06-20 16:35:08:986
6.680917541503906,7.892365051269531,0.445314697265625,0.03250922823254328,0.04023056447052364,0.005864736370572238,3.395007848739624,2019-06-20 16:35:08:991
6.673735046386718,7.879197143554688,0.43693511962890624,0.0327755443415512,0.03823319365296421,0.007595791079123743,3.3999998569488525,2019-06-20 16:35:08:996
6.712041687011719,7.876802978515625,0.445314697265625,0.03344133461407101,0.03903214197998798,0.008261581351643552,3.404991865158081,2019-06-20 16:35:09:001
6.696479614257813,7.887576721191406,0.464468017578125,0.03357449266857497,0.038898983925484014,0.007063158861107895,3.410015821456909,2019-06-20 16:35:09:006
6.696479614257813,7.8720146484375,0.4596796875,0.032242912123535354,0.03863266781647609,0.007595791079123743,3.4150078296661377,2019-06-20 16:35:09:011
6.683311706542969,7.893562133789063,0.4668621826171875,0.03250922823254328,0.03969793225250779,0.006930000806603933,3.419999837875366,2019-06-20 16:35:09:016
6.702465026855468,7.879197143554688,0.4716505126953125,0.03210975406903139,0.03983109030701175,0.005864736370572238,3.425055980682373,2019-06-20 16:35:09:021
6.7072533569335935,7.8468759155273435,0.454891357421875,0.03237607017803931,0.0403637225250276,0.007329474970115818,3.430015802383423,2019-06-20 16:35:09:026
6.71323876953125,7.878000061035156,0.454891357421875,0.03290870239605516,0.03943161614349987,0.007329474970115818,3.4350078105926514,2019-06-20 16:35:09:031
6.6845087890625,7.89116796875,0.4668621826171875,0.033041860450559124,0.03916530003449194,0.007995265242635628,3.43999981880188,2019-06-20 16:35:09:036
6.709647521972656,7.864832153320313,0.48721258544921875,0.03290870239605516,0.03983109030701175,0.007595791079123743,3.4449918270111084,2019-06-20 16:35:09:041
6.67493212890625,7.870817565917968,0.43693511962890624,0.03250922823254328,0.0392984580889959,0.008394739406147515,3.4500157833099365,2019-06-20 16:35:09:046
6.685705871582031,7.864832153320313,0.4584826049804687,0.032242912123535354,0.0392984580889959,0.009193687733171287,3.455007791519165,2019-06-20 16:35:09:051
6.679720458984375,7.8756058959960935,0.4967892456054687,0.03250922823254328,0.038765825870980056,0.008927371624163362,3.4599997997283936,2019-06-20 16:35:09:056
6.672537963867187,7.888773803710937,0.464468017578125,0.032642386287047236,0.04009740641601968,0.008527897460651477,3.464991807937622,2019-06-20 16:35:09:061
6.676129211425781,7.882788391113281,0.48242425537109374,0.032242912123535354,0.04023056447052364,0.008927371624163362,3.4700160026550293,2019-06-20 16:35:09:066
6.668946716308594,7.895956298828125,0.4465117797851562,0.033840808777582894,0.0392984580889959,0.01012579411469902,3.4750077724456787,2019-06-20 16:35:09:071
6.670143798828125,7.860043823242187,0.4285555419921875,0.03477291515911063,0.039964248361515714,0.011057900496226753,3.4799997806549072,2019-06-20 16:35:09:076
6.690494201660156,7.850467163085938,0.4860155029296875,0.03490607321361459,0.03916530003449194,0.009326845787675248,3.4850239753723145,2019-06-20 16:35:09:081
6.682114624023438,7.893562133789063,0.454891357421875,0.033707650723078936,0.03916530003449194,0.011856848823250525,3.490015983581543,2019-06-20 16:35:09:086
6.691691284179687,7.892365051269531,0.46925634765625,0.032642386287047236,0.03943161614349987,0.011723690768746563,3.4950079917907715,2019-06-20 16:35:09:091
6.697676696777344,7.8756058959960935,0.46805926513671875,0.03330817655956705,0.03983109030701175,0.01145737465973864,3.5,2019-06-20 16:35:09:096
6.685705871582031,7.886379638671875,0.474044677734375,0.03290870239605516,0.04023056447052364,0.012788955204778256,3.5049920082092285,2019-06-20 16:35:09:101
6.683311706542969,7.869620483398437,0.46925634765625,0.03317501850506309,0.038100035598460244,0.01225632298676241,3.5100159645080566,2019-06-20 16:35:09:106
6.701267944335937,7.879197143554688,0.47045343017578123,0.03237607017803931,0.039564774198003826,0.012123164932258448,3.515007972717285,2019-06-20 16:35:09:111
6.691691284179687,7.88159130859375,0.49200091552734376,0.033707650723078936,0.03916530003449194,0.012522639095770333,3.5199999809265137,2019-06-20 16:35:09:116
6.706056274414062,7.886379638671875,0.4668621826171875,0.03344133461407101,0.03916530003449194,0.01145737465973864,3.525023937225342,2019-06-20 16:35:09:121
6.715632934570312,7.858846740722656,0.4776359252929687,0.03344133461407101,0.038898983925484014,0.01092474244172279,3.5300159454345703,2019-06-20 16:35:09:126
6.682114624023438,7.866029235839844,0.4273584594726562,0.032242912123535354,0.03916530003449194,0.011324216605234675,3.535007953643799,2019-06-20 16:35:09:131
6.689297119140625,7.886379638671875,0.4465117797851562,0.034639757104606664,0.03969793225250779,0.012522639095770333,3.5399999618530273,2019-06-20 16:35:09:136
6.679720458984375,7.887576721191406,0.47045343017578123,0.03344133461407101,0.03916530003449194,0.01225632298676241,3.544991970062256,2019-06-20 16:35:09:141
6.6785233764648435,7.888773803710937,0.4848184204101562,0.034506599050102706,0.03983109030701175,0.011590532714242601,3.550015926361084,2019-06-20 16:35:09:146
6.69408544921875,7.9043358764648435,0.44411761474609374,0.033041860450559124,0.040630038634035526,0.011723690768746563,3.5550079345703125,2019-06-20 16:35:09:151
6.697676696777344,7.903138793945312,0.454891357421875,0.033041860450559124,0.04023056447052364,0.01225632298676241,3.559999942779541,2019-06-20 16:35:09:156
6.691691284179687,7.907927124023438,0.46805926513671875,0.03317501850506309,0.0403637225250276,0.011856848823250525,3.5649919509887695,2019-06-20 16:35:09:161
6.676129211425781,7.88159130859375,0.48840966796874996,0.03317501850506309,0.03969793225250779,0.011590532714242601,3.5700159072875977,2019-06-20 16:35:09:166
6.679720458984375,7.892365051269531,0.46925634765625,0.03424028294109478,0.03836635170746817,0.011723690768746563,3.575007915496826,2019-06-20 16:35:09:171
6.6928883666992185,7.892365051269531,0.454891357421875,0.03410712488659082,0.038765825870980056,0.012922113259282218,3.5799999237060547,2019-06-20 16:35:09:176
6.666552551269531,7.886379638671875,0.4656651000976562,0.03250922823254328,0.03849950976197213,0.012788955204778256,3.584991931915283,2019-06-20 16:35:09:181
6.666552551269531,7.895956298828125,0.474044677734375,0.031843437960023466,0.03916530003449194,0.01225632298676241,3.5900158882141113,2019-06-20 16:35:09:186
6.679720458984375,7.885182556152343,0.5015775756835937,0.03157712185101554,0.03863266781647609,0.013321587422794106,3.59500789642334,2019-06-20 16:35:09:191
6.659370056152343,7.8612409057617185,0.5015775756835937,0.033041860450559124,0.038898983925484014,0.014120535749817876,3.5999999046325684,2019-06-20 16:35:09:196
6.685705871582031,7.870817565917968,0.50756298828125,0.032642386287047236,0.03916530003449194,0.014919484076841646,3.604991912841797,2019-06-20 16:35:09:201
6.685705871582031,7.929474609375,0.4764388427734375,0.03290870239605516,0.03943161614349987,0.01358790353180203,3.610015869140625,2019-06-20 16:35:09:206
6.698873779296875,7.868423400878906,0.45369427490234376,0.0327755443415512,0.039964248361515714,0.013987377695313915,3.6150078773498535,2019-06-20 16:35:09:211
6.716830017089843,7.876802978515625,0.48122717285156247,0.03344133461407101,0.03836635170746817,0.013854219640809953,3.619999885559082,2019-06-20 16:35:09:216
6.685705871582031,7.874408813476562,0.45608843994140624,0.033041860450559124,0.0392984580889959,0.013188429368290141,3.6249918937683105,2019-06-20 16:35:09:221
6.697676696777344,7.888773803710937,0.4393292846679687,0.03330817655956705,0.04023056447052364,0.012123164932258448,3.6300158500671387,2019-06-20 16:35:09:226
6.689297119140625,7.86243798828125,0.43214678955078123,0.033840808777582894,0.038898983925484014,0.012922113259282218,3.635007858276367,2019-06-20 16:35:09:231
6.718027099609375,7.848072998046875,0.44292053222656247,0.03410712488659082,0.03849950976197213,0.012655797150274295,3.6399998664855957,2019-06-20 16:35:09:236
6.710844604492188,7.866029235839844,0.4656651000976562,0.032642386287047236,0.03916530003449194,0.012522639095770333,3.644991874694824,2019-06-20 16:35:09:241
6.720421264648437,7.854058410644531,0.46327093505859374,0.033707650723078936,0.03916530003449194,0.012389481041266371,3.6500158309936523,2019-06-20 16:35:09:246
6.710844604492188,7.838496337890625,0.48242425537109374,0.03290870239605516,0.038765825870980056,0.01145737465973864,3.655007839202881,2019-06-20 16:35:09:251
6.706056274414062,7.850467163085938,0.47045343017578123,0.03397396683208686,0.03783371948945232,0.010658426332714866,3.6599998474121094,2019-06-20 16:35:09:256
6.679720458984375,7.863635070800781,0.44172344970703126,0.03397396683208686,0.03916530003449194,0.012123164932258448,3.664991855621338,2019-06-20 16:35:09:261
6.673735046386718,7.883985473632812,0.4668621826171875,0.0327755443415512,0.04023056447052364,0.01305527131378618,3.670015811920166,2019-06-20 16:35:09:266
6.697676696777344,7.858846740722656,0.4524971923828125,0.03290870239605516,0.038765825870980056,0.012123164932258448,3.6750078201293945,2019-06-20 16:35:09:271
6.720421264648437,7.906730041503906,0.4716505126953125,0.033707650723078936,0.038898983925484014,0.011723690768746563,3.679999828338623,2019-06-20 16:35:09:276
6.704859191894531,7.883985473632812,0.5003804931640625,0.03397396683208686,0.04009740641601968,0.012123164932258448,3.6849918365478516,2019-06-20 16:35:09:281
6.690494201660156,7.898350463867187,0.4967892456054687,0.03410712488659082,0.03969793225250779,0.011856848823250525,3.6900157928466797,2019-06-20 16:35:09:286
6.695282531738281,7.878000061035156,0.48003009033203126,0.03290870239605516,0.03943161614349987,0.011723690768746563,3.695007801055908,2019-06-20 16:35:09:291
6.701267944335937,7.869620483398437,0.474044677734375,0.033840808777582894,0.038100035598460244,0.01145737465973864,3.6999998092651367,2019-06-20 16:35:09:296
6.691691284179687,7.876802978515625,0.4477088623046875,0.03330817655956705,0.03943161614349987,0.010392110223706943,3.705024003982544,2019-06-20 16:35:09:301
6.690494201660156,7.8756058959960935,0.435738037109375,0.03344133461407101,0.039964248361515714,0.011057900496226753,3.7100157737731934,2019-06-20 16:35:09:306
6.688100036621093,7.876802978515625,0.49200091552734376,0.03477291515911063,0.03969793225250779,0.009326845787675248,3.715007781982422,2019-06-20 16:35:09:311
6.704859191894531,7.856452575683593,0.454891357421875,0.03477291515911063,0.03849950976197213,0.009326845787675248,3.7199997901916504,2019-06-20 16:35:09:316
6.706056274414062,7.895956298828125,0.46805926513671875,0.034639757104606664,0.03823319365296421,0.01145737465973864,3.7250239849090576,2019-06-20 16:35:09:321
6.696479614257813,7.882788391113281,0.45369427490234376,0.033840808777582894,0.03849950976197213,0.01145737465973864,3.730015993118286,2019-06-20 16:35:09:326
6.695282531738281,7.876802978515625,0.445314697265625,0.03357449266857497,0.04089635474304345,0.011590532714242601,3.7350080013275146,2019-06-20 16:35:09:331
6.696479614257813,7.882788391113281,0.46805926513671875,0.03330817655956705,0.039964248361515714,0.011057900496226753,3.740000009536743,2019-06-20 16:35:09:336
