ACCELEROMETER X (m/s²),ACCELEROMETER Y (m/s²),ACCELEROMETER Z (m/s²),GYROSCOPE X (rad/s),GYROSCOPE Y (rad/s),GYROSCOPE Z (rad/s),Time since start in ms ,YYYY-MO-DD HH-MI-SS_SSS
-6.949064025878906,7.165735961914062,-0.11611700439453125,0.015331691479315474,0.044355975769002916,0.048732481546384626,0.0,2019-06-21 13:07:31:930
-6.9849765014648435,7.183692199707031,-0.14245281982421876,0.01360063677076397,0.04462229187801084,0.046468794619817275,0.0048639774322509766,2019-06-21 13:07:31:935
-6.964626098632812,7.186086364746093,-0.18554779052734374,0.014266427043283781,0.04542124020503461,0.04407194963874596,0.009984016418457031,2019-06-21 13:07:31:940
-6.958640686035156,7.178903869628906,-0.14724114990234374,0.0128016884437402,0.04622018853205838,0.04260721103920238,0.014847993850708008,2019-06-21 13:07:31:945
-6.938290283203125,7.162144714355469,-0.09337243652343749,0.013866952879771894,0.045953872423050456,0.04021036605813107,0.019968032836914062,2019-06-21 13:07:31:950
-6.957443603515625,7.181298034667969,-0.10654034423828125,0.014000110934275858,0.04715229491358612,0.03781352107705976,0.02483201026916504,2019-06-21 13:07:31:955
-6.9849765014648435,7.181298034667969,-0.10175201416015625,0.014266427043283781,0.04768492713160197,0.036481940532020134,0.029952049255371094,2019-06-21 13:07:31:960
-6.989764831542969,7.162144714355469,-0.08618994140625,0.015997481751835286,0.04715229491358612,0.03461772776896467,0.03481602668762207,2019-06-21 13:07:31:965
-6.995750244140625,7.154962219238281,-0.061051208496093745,0.015731165642827363,0.04768492713160197,0.03435141165995675,0.03993582725524902,2019-06-21 13:07:31:970
-6.9849765014648435,7.1609476318359375,-0.14484698486328124,0.016796430078859056,0.046752820750074225,0.03328614722392505,0.0448000431060791,2019-06-21 13:07:31:975
-7.001735656738281,7.123838073730469,-0.1173140869140625,0.017462220351378864,0.0464865046410663,0.032220882787893354,0.049919843673706055,2019-06-21 13:07:31:980
-7.0137064819335935,7.137005981445312,-0.09935784912109374,0.017994852569394714,0.046087030477554414,0.031821408624381466,0.05478382110595703,2019-06-21 13:07:31:985
-7.004129821777344,7.13461181640625,-0.16160614013671876,0.01985906533245018,0.04462229187801084,0.029557721697814114,0.059903860092163086,2019-06-21 13:07:31:990
-7.022086059570312,7.15376513671875,-0.16160614013671876,0.020258539495962066,0.0447554499325148,0.029690879752318076,0.06502389907836914,2019-06-21 13:07:31:995
-7.016100646972656,7.138203063964844,-0.158014892578125,0.02198959420451357,0.04422281771449895,0.029557721697814114,0.06988787651062012,2019-06-21 13:07:32:000
-7.012509399414062,7.156159301757812,-0.1508323974609375,0.022255910313521494,0.04408965965999499,0.02915824753430223,0.07500791549682617,2019-06-21 13:07:32:005
-6.992158996582031,7.170524291992187,-0.1939273681640625,0.023188016695049225,0.04342386938747518,0.02702771866223884,0.07987189292907715,2019-06-21 13:07:32:010
-6.968217346191406,7.19207177734375,-0.16160614013671876,0.024253281131080925,0.040893866351899906,0.0271608767167428,0.0849919319152832,2019-06-21 13:07:32:015
-6.947866943359375,7.224393005371094,-0.138861572265625,0.025185387512608657,0.04062755024289198,0.025429822008191296,0.08985590934753418,2019-06-21 13:07:32:020
-6.917939880371094,7.243546325683593,-0.11252575683593749,0.02625065194864035,0.039029653588844436,0.023299293136127906,0.09497594833374023,2019-06-21 13:07:32:025
-6.915545715332031,7.245940490722656,-0.13048199462890625,0.02691644222116016,0.03849702137082859,0.021301922318568478,0.09983992576599121,2019-06-21 13:07:32:030
-6.88561865234375,7.2974150390625,-0.090978271484375,0.02718275833016808,0.03716544082578897,0.018239287064977353,0.10495996475219727,2019-06-21 13:07:32:035
-6.8832244873046875,7.301006286621093,-0.12210241699218749,0.02878065498421563,0.0353012280627335,0.015309809865890192,0.10982394218444824,2019-06-21 13:07:32:040
-6.877239074707031,7.309385864257813,-0.1460440673828125,0.030112235529255245,0.034768595844717656,0.010516119903747562,0.1149439811706543,2019-06-21 13:07:32:045
-6.855691589355469,7.290232543945312,-0.1268907470703125,0.03064486774727109,0.0346354377902137,0.006521378268628706,0.11980795860290527,2019-06-21 13:07:32:050
-6.813793701171875,7.309385864257813,-0.13527032470703124,0.03210960634681467,0.033969647517693886,0.002393478579005886,0.12492799758911133,2019-06-21 13:07:32:055
-6.797034545898438,7.340510009765625,-0.1340732421875,0.03250908051032656,0.03343701529967803,-0.0035986338736723996,0.1297919750213623,2019-06-21 13:07:32:060
-6.777881225585937,7.366845825195313,-0.1532265625,0.03384066105536618,0.032904383081662186,-0.008924956053830875,0.13491201400756836,2019-06-21 13:07:32:065
-6.783866638183594,7.357269165039062,-0.14364990234375,0.03477276743689391,0.03237175086364634,-0.014384436288493315,0.13977599143981934,2019-06-21 13:07:32:070
-6.768304565429688,7.370437072753906,-0.138861572265625,0.035438559790008324,0.030108063937078988,-0.019977074577659716,0.1448960304260254,2019-06-21 13:07:32:075
-6.769501647949219,7.358466247558594,-0.1412557373046875,0.03677014033504794,0.02851016728303145,-0.026501819248353847,0.15001583099365234,2019-06-21 13:07:32:080
-6.7659104003906245,7.357269165039062,-0.1723798828125,0.037036456444055864,0.025713848138448247,-0.0326270897555361,0.15488004684448242,2019-06-21 13:07:32:085
-6.763516235351562,7.3357216796874996,-0.16400030517578124,0.037302772553063794,0.023982793429896745,-0.03768709582668665,0.15999984741210938,2019-06-21 13:07:32:090
-6.764713317871093,7.351283752441406,-0.1699857177734375,0.0379685628255836,0.023450161211880892,-0.04461131466089267,0.16486382484436035,2019-06-21 13:07:32:095
-6.763516235351562,7.357269165039062,-0.13048199462890625,0.03916698531611926,0.023849635375392784,-0.051002901277082846,0.1699838638305664,2019-06-21 13:07:32:100
-6.762319152832031,7.3357216796874996,-0.14843823242187498,0.039699617534135104,0.02251805483035316,-0.0567286976207532,0.17484784126281738,2019-06-21 13:07:32:105
-6.7814724731445315,7.339312927246094,-0.1460440673828125,0.04089804002467076,0.0223848967758492,-0.06298712618243942,0.17996788024902344,2019-06-21 13:07:32:110
-6.811399536132813,7.301006286621093,-0.14484698486328124,0.041164356133678685,0.019721735685769962,-0.06884608058061373,0.18483185768127441,2019-06-21 13:07:32:115
-6.803019958496094,7.283050048828125,-0.16639447021484374,0.04129751418818265,0.019322261522258077,-0.07324029221805527,0.18995189666748047,2019-06-21 13:07:32:120
-6.801822875976562,7.290232543945312,-0.138861572265625,0.04143067224268661,0.019322261522258077,-0.07750134996218205,0.19481587409973145,2019-06-21 13:07:32:125
-6.817384948730469,7.271079223632812,-0.12928491210937498,0.04249593667871831,0.017724364868210534,-0.08375977852386826,0.1999359130859375,2019-06-21 13:07:32:130
-6.812596618652344,7.269882141113281,-0.114919921875,0.042362778624214344,0.017191732650194684,-0.08802083626799505,0.20479989051818848,2019-06-21 13:07:32:135
-6.836538269042968,7.2626996459960935,-0.138861572265625,0.043028568896734155,0.01692541654118676,-0.09254821012112975,0.20991992950439453,2019-06-21 13:07:32:140
-6.873647827148437,7.250728820800781,-0.16878863525390625,0.04409383333276585,0.015061203778131294,-0.09614347759273671,0.2147839069366455,2019-06-21 13:07:32:145
-6.871253662109375,7.231575500488281,-0.158014892578125,0.04555857193230942,0.014395413505611484,-0.10013821922785558,0.21990394592285156,2019-06-21 13:07:32:150
-6.874844909667969,7.205239685058594,-0.13527032470703124,0.04635752025933321,0.012797516851563941,-0.10519822529900613,0.22502398490905762,2019-06-21 13:07:32:155
-6.8951953125,7.188480529785156,-0.15442364501953124,0.04555857193230942,0.012131726579044133,-0.1081277024980933,0.2298879623413086,2019-06-21 13:07:32:160
-6.934699035644531,7.181298034667969,-0.1532265625,0.04555857193230942,0.011732252415532246,-0.11025823137015668,0.23500800132751465,2019-06-21 13:07:32:165
-6.967020263671875,7.162144714355469,-0.12569366455078124,0.046224362204829235,0.010666987979500551,-0.11411981495077157,0.23987197875976562,2019-06-21 13:07:32:170
-6.97180859375,7.158553466796874,-0.110131591796875,0.046490678313837165,0.011865410470036208,-0.11691613409535478,0.24499201774597168,2019-06-21 13:07:32:175
-6.978991088867187,7.15376513671875,-0.08978118896484374,0.04635752025933321,0.011066462143012436,-0.11771508242237856,0.24985599517822266,2019-06-21 13:07:32:180
-7.00053857421875,7.1298234863281245,-0.10294909667968749,0.04755594274986886,0.011199620197516398,-0.1193129790764261,0.2549760341644287,2019-06-21 13:07:32:185
-7.011312316894531,7.113064331054687,-0.11252575683593749,0.04609120415032527,0.010267513815988664,-0.12051140156696175,0.2598400115966797,2019-06-21 13:07:32:190
-7.0292685546875,7.074757690429688,-0.12449658203125,0.04635752025933321,0.011066462143012436,-0.12131034989398552,0.26496005058288574,2019-06-21 13:07:32:195
-7.053210205078125,7.075954772949219,-0.10175201416015625,0.04635752025933321,0.011998568524540171,-0.12250877238452118,0.2698240280151367,2019-06-21 13:07:32:200
-7.093911010742187,7.040042297363281,-0.14963531494140625,0.04569172998681339,0.012930674906067903,-0.1210440337849776,0.27494382858276367,2019-06-21 13:07:32:205
-7.114261413574218,7.008918151855468,-0.12808782958984374,0.046490678313837165,0.013862781287595638,-0.12051140156696175,0.27980804443359375,2019-06-21 13:07:32:210
-7.121443908691406,6.982582336425781,-0.11851116943359374,0.04595804609582131,0.015726994050651106,-0.12077771767596968,0.2849278450012207,2019-06-21 13:07:32:215
-7.117852661132813,6.953852355957031,-0.11851116943359374,0.045824888041317346,0.01599331015965903,-0.11878034685841025,0.2897918224334717,2019-06-21 13:07:32:220
-7.158553466796874,6.940684448242187,-0.07661328125,0.04569172998681339,0.015593835996147143,-0.11545139549581121,0.29491186141967773,2019-06-21 13:07:32:225
-7.164538879394531,6.933501953125,-0.10534326171875,0.04595804609582131,0.0167922584866828,-0.11278823440573195,0.2997758388519287,2019-06-21 13:07:32:230
-7.169327209472656,6.90477197265625,-0.110131591796875,0.04436014944177377,0.017857522922714496,-0.10892665082511706,0.30489587783813477,2019-06-21 13:07:32:235
-7.201648437499999,6.901180725097656,-0.08618994140625,0.04436014944177377,0.018789629304242227,-0.10546454140801406,0.3100159168243408,2019-06-21 13:07:32:240
-7.229181335449218,6.852100341796874,-0.0981607666015625,0.04409383333276585,0.019322261522258077,-0.10200243199091105,0.3148798942565918,2019-06-21 13:07:32:245
-7.244743408203125,6.813793701171875,-0.11851116943359374,0.04342804306024604,0.019721735685769962,-0.09747505813777634,0.31999993324279785,2019-06-21 13:07:32:250
-7.254320068359375,6.801822875976562,-0.0957666015625,0.04276225278772623,0.020787000121801655,-0.09108347152158618,0.32486391067504883,2019-06-21 13:07:32:255
-7.285444213867187,6.764713317871093,-0.0981607666015625,0.042229620569710385,0.020787000121801655,-0.08562399128692373,0.3299839496612549,2019-06-21 13:07:32:260
-7.311780029296875,6.734786254882812,-0.13527032470703124,0.04262909473322227,0.021852264557833352,-0.08069714327027713,0.33484792709350586,2019-06-21 13:07:32:265
-7.321356689453125,6.74196875,-0.14963531494140625,0.04129751418818265,0.021852264557833352,-0.07363976638156716,0.3399679660797119,2019-06-21 13:07:32:270
-7.32614501953125,6.73239208984375,-0.14843823242187498,0.04129751418818265,0.023050687048369007,-0.0661829194905345,0.3448319435119629,2019-06-21 13:07:32:275
-7.342904174804687,6.701267944335937,-0.14364990234375,0.04169698835169454,0.023450161211880892,-0.058726068438312636,0.34995198249816895,2019-06-21 13:07:32:280
-7.342904174804687,6.733589172363281,-0.15202947998046876,0.041164356133678685,0.023583319266384854,-0.051801849604106616,0.3548159599304199,2019-06-21 13:07:32:285
-7.339312927246094,6.729997924804687,-0.1723798828125,0.040365407806654915,0.024515425647912592,-0.04541026298791644,0.359935998916626,2019-06-21 13:07:32:290
-7.362057495117187,6.734786254882812,-0.14364990234375,0.03996593364314303,0.025314373974936362,-0.037820253881190605,0.36479997634887695,2019-06-21 13:07:32:295
-7.353677917480469,6.757530822753906,-0.12210241699218749,0.04009909169764699,0.025713848138448247,-0.030363402828968742,0.369920015335083,2019-06-21 13:07:32:300
-7.340510009765625,6.746757080078125,-0.15442364501953124,0.03930014337062322,0.02504805786592844,-0.022640235667738953,0.374783992767334,2019-06-21 13:07:32:305
-7.336918762207031,6.74196875,-0.15921197509765625,0.038101720880087564,0.02784437701051164,-0.01598233294254086,0.37990403175354004,2019-06-21 13:07:32:310
-7.298612121582031,6.759924987792969,-0.15681781005859374,0.03743593060756775,0.028110693119519563,-0.009457588271846723,0.385023832321167,2019-06-21 13:07:32:315
-7.310582946777344,6.764713317871093,-0.1604090576171875,0.03650382422604002,0.030108063937078988,-0.0020007372196248568,0.38988804817199707,2019-06-21 13:07:32:320
-7.321356689453125,6.782669555664063,-0.10893450927734374,0.0351722436810004,0.031306486427614647,0.003725059124045505,0.395007848739624,2019-06-21 13:07:32:325
-7.298612121582031,6.791049133300781,-0.1604090576171875,0.03384066105536618,0.03237175086364634,0.009850329631227752,0.399871826171875,2019-06-21 13:07:32:330
-7.317765441894531,6.801822875976562,-0.100554931640625,0.03264223856483052,0.033969647517693886,0.01584244208390604,0.40499186515808105,2019-06-21 13:07:32:335
-7.2914296264648435,6.811399536132813,-0.12808782958984374,0.031177499965286945,0.03490175389922162,0.020369815937040743,0.40985584259033203,2019-06-21 13:07:32:340
-7.254320068359375,6.813793701171875,-0.11252575683593749,0.030245393583759207,0.03649965055326916,0.026894560607734878,0.4149758815765381,2019-06-21 13:07:32:345
-7.260305480957031,6.831749938964844,-0.13287615966796876,0.029313287202231475,0.03689912471678104,0.031821408624381466,0.41983985900878906,2019-06-21 13:07:32:350
-7.2626996459960935,6.841326599121094,-0.138861572265625,0.027582232493679974,0.03849702137082859,0.03621562442301221,0.4249598979949951,2019-06-21 13:07:32:355
-7.243546325683593,6.872450744628906,-0.12569366455078124,0.026516968057648273,0.0391628116433484,0.04260721103920238,0.4298238754272461,2019-06-21 13:07:32:360
-7.236363830566406,6.8951953125,-0.1364674072265625,0.025984335839632427,0.03996175997037217,0.048333007382872745,0.43494391441345215,2019-06-21 13:07:32:365
-7.213619262695312,6.919136962890625,-0.1795623779296875,0.02545170362161658,0.04062755024289198,0.05192827485447972,0.4398078918457031,2019-06-21 13:07:32:370
-7.201648437499999,6.927516540527344,-0.18554779052734374,0.02531854556711262,0.04036123413388405,0.05578985843509461,0.4449279308319092,2019-06-21 13:07:32:375
-7.199254272460937,6.97180859375,-0.2082923583984375,0.024919071403600734,0.04142649856991575,0.05911880979769366,0.44979190826416016,2019-06-21 13:07:32:380
-7.151370971679687,6.9526552734375,-0.14963531494140625,0.02358749085856111,0.04116018246090783,0.06244776116029271,0.4549119472503662,2019-06-21 13:07:32:385
-7.147779724121094,6.977794006347656,-0.1651973876953125,0.023188016695049225,0.04222544689693952,0.06377934170533232,0.4597759246826172,2019-06-21 13:07:32:390
-7.166933044433594,6.980188171386718,-0.18315362548828124,0.020924329768481874,0.04222544689693952,0.06764092528594721,0.46489596366882324,2019-06-21 13:07:32:395
-7.117852661132813,7.022086059570312,-0.1723798828125,0.020924329768481874,0.042891237169459334,0.07057040664622359,0.4700160026550293,2019-06-21 13:07:32:400
-7.090319763183594,7.041239379882812,-0.1364674072265625,0.020791171713977912,0.0447554499325148,0.07243461940927906,0.4748799800872803,2019-06-21 13:07:32:405
-7.066378112792969,7.052013122558594,-0.13527032470703124,0.018793800896418484,0.04488860798701876,0.07283409357279094,0.48000001907348633,2019-06-21 13:07:32:410
-7.062786865234375,7.0735606079101565,-0.16400030517578124,0.018261168678402637,0.045154924096026686,0.07336672579080679,0.4848639965057373,2019-06-21 13:07:32:415
-7.07715185546875,7.075954772949219,-0.21427777099609374,0.01759537840588283,0.04555439825953857,0.07483146439035036,0.48998403549194336,2019-06-21 13:07:32:420
-7.014903564453125,7.109473083496094,-0.1604090576171875,0.017462220351378864,0.04555439825953857,0.07416567411783055,0.49484801292419434,2019-06-21 13:07:32:425
-7.055604370117187,7.093911010742187,-0.158014892578125,0.016530113969851132,0.04555439825953857,0.07456514828134245,0.4999678134918213,2019-06-21 13:07:32:430
-6.983779418945312,7.140597229003906,-0.16400030517578124,0.017329062296874902,0.04701913685908215,0.0740325160633266,0.5048320293426514,2019-06-21 13:07:32:435
-6.9849765014648435,7.1322176513671875,-0.13766448974609374,0.01493221731580359,0.046885978804578184,0.0736330418998147,0.5099518299102783,2019-06-21 13:07:32:440
-6.97180859375,7.165735961914062,-0.14364990234375,0.015598007588323397,0.047418611022594044,0.07083672275523151,0.5148160457611084,2019-06-21 13:07:32:445
-6.950261108398437,7.177706787109375,-0.16160614013671876,0.015065375370307551,0.04635334658656234,0.07017093248271171,0.5199358463287354,2019-06-21 13:07:32:450
-6.96223193359375,7.174115539550781,-0.18195654296875,0.014799059261299628,0.04701913685908215,0.06830671555846703,0.5247998237609863,2019-06-21 13:07:32:455
-6.9418815307617185,7.210028015136719,-0.16280322265625,0.015864323697331324,0.048217559349617814,0.06537723835937988,0.5299198627471924,2019-06-21 13:07:32:460
-6.922728210449218,7.208830932617188,-0.13287615966796876,0.015864323697331324,0.046087030477554414,0.06337986754182044,0.5347838401794434,2019-06-21 13:07:32:465
-6.908363220214843,7.208830932617188,-0.15681781005859374,0.01493221731580359,0.04728545296809008,0.061116180615253084,0.5399038791656494,2019-06-21 13:07:32:470
-6.891604064941406,7.245940490722656,-0.13048199462890625,0.015598007588323397,0.046885978804578184,0.058586177579677816,0.5450239181518555,2019-06-21 13:07:32:475
-6.871253662109375,7.266290893554688,-0.12449658203125,0.016530113969851132,0.04661966269557026,0.05432511983555103,0.5498878955841064,2019-06-21 13:07:32:480
-6.8688594970703125,7.254320068359375,-0.119708251953125,0.016929588133363017,0.046885978804578184,0.05112932652745595,0.5550079345703125,2019-06-21 13:07:32:485
-6.882027404785156,7.280655883789063,-0.1316790771484375,0.015731165642827363,0.04555439825953857,0.047134584892337086,0.5598719120025635,2019-06-21 13:07:32:490
-6.867662414550781,7.290232543945312,-0.11372283935546874,0.016929588133363017,0.046087030477554414,0.04353931742073011,0.5649919509887695,2019-06-21 13:07:32:495
-6.835341186523437,7.271079223632812,-0.12449658203125,0.01639695591534717,0.04422281771449895,0.03861246940408353,0.5698559284210205,2019-06-21 13:07:32:500
-6.856888671875,7.245940490722656,-0.1340732421875,0.016530113969851132,0.044355975769002916,0.034884043877972594,0.5749759674072266,2019-06-21 13:07:32:505
-6.849706176757812,7.269882141113281,-0.1604090576171875,0.017861694514890752,0.044489133823506874,0.03048982807934185,0.5798399448394775,2019-06-21 13:07:32:510
-6.841326599121094,7.296217956542969,-0.12808782958984374,0.019060117005426407,0.045154924096026686,0.02582929617170318,0.5849599838256836,2019-06-21 13:07:32:515
-6.835341186523437,7.274670471191406,-0.0694307861328125,0.01972590727794622,0.044355975769002916,0.021301922318568478,0.5898239612579346,2019-06-21 13:07:32:520
-6.822173278808593,7.285444213867187,-0.09696368408203125,0.020791171713977912,0.043290711332971216,0.01717402262894566,0.5949440002441406,2019-06-21 13:07:32:525
-6.832947021484375,7.284247131347656,-0.10654034423828125,0.021723278095505647,0.042491763005947446,0.013711913211842649,0.5998079776763916,2019-06-21 13:07:32:530
-6.829355773925781,7.3057946166992185,-0.1651973876953125,0.022255910313521494,0.04142649856991575,0.00905138130420398,0.6049280166625977,2019-06-21 13:07:32:535
-6.831749938964844,7.2974150390625,-0.15202947998046876,0.023720648913065072,0.03969544386136425,0.005056639669085124,0.6097919940948486,2019-06-21 13:07:32:540
-6.826961608886719,7.322553771972656,-0.1556207275390625,0.025185387512608657,0.03783123109830878,-0.0005359986200812759,0.6149120330810547,2019-06-21 13:07:32:545
-6.8544945068359375,7.290232543945312,-0.12808782958984374,0.026783284166656197,0.03649965055326916,-0.005596004691231829,0.6197760105133057,2019-06-21 13:07:32:550
-6.832947021484375,7.271079223632812,-0.1651973876953125,0.02811486471169582,0.035967018335253315,-0.010789168816886343,0.6248960494995117,2019-06-21 13:07:32:555
-6.856888671875,7.284247131347656,-0.18554779052734374,0.030112235529255245,0.03436912168120577,-0.01558285877902897,0.6300158500671387,2019-06-21 13:07:32:560
-6.8233703613281245,7.280655883789063,-0.1556207275390625,0.031576974128798826,0.03237175086364634,-0.019977074577659716,0.6348798274993896,2019-06-21 13:07:32:565
-6.8377353515624995,7.298612121582031,-0.13527032470703124,0.03290855467383845,0.03157280253662257,-0.02330602594025876,0.6399998664855957,2019-06-21 13:07:32:570
-6.850903259277343,7.308188781738281,-0.12928491210937498,0.033574344946358255,0.03024122199158295,-0.028366032011409317,0.6448638439178467,2019-06-21 13:07:32:575
-6.842523681640625,7.310582946777344,-0.1412557373046875,0.0351722436810004,0.02930911561005522,-0.03302656391904798,0.6499838829040527,2019-06-21 13:07:32:580
-6.825764526367188,7.318962524414062,-0.14245281982421876,0.036237508117032094,0.027977535065015602,-0.03821972804470249,0.6548478603363037,2019-06-21 13:07:32:585
-6.819779113769531,7.285444213867187,-0.13527032470703124,0.03836803698909549,0.026379638410968055,-0.04101604718928569,0.6599678993225098,2019-06-21 13:07:32:590
-6.831749938964844,7.296217956542969,-0.1460440673828125,0.038767511152607376,0.024781741756920515,-0.04607605326043625,0.6648318767547607,2019-06-21 13:07:32:595
-6.836538269042968,7.284247131347656,-0.14005865478515625,0.03983277558863907,0.022784370939361084,-0.051002901277082846,0.6699519157409668,2019-06-21 13:07:32:600
-6.825764526367188,7.265093811035156,-0.13527032470703124,0.040365407806654915,0.022651212884857122,-0.05592974929372943,0.6748158931732178,2019-06-21 13:07:32:605
-6.836538269042968,7.261502563476562,-0.1412557373046875,0.040365407806654915,0.021985422612337314,-0.05992449092884829,0.6799359321594238,2019-06-21 13:07:32:610
-6.836538269042968,7.260305480957031,-0.1364674072265625,0.04143067224268661,0.020520684012793732,-0.06431870672747902,0.6847999095916748,2019-06-21 13:07:32:615
-6.8544945068359375,7.280655883789063,-0.13527032470703124,0.043028568896734155,0.02025436790378581,-0.06844660641710185,0.6899199485778809,2019-06-21 13:07:32:620
-6.886815734863281,7.2591083984375,-0.13766448974609374,0.04369435916925396,0.018523313195234304,-0.0724413438910315,0.6947839260101318,2019-06-21 13:07:32:625
-6.9143486328125,7.245940490722656,-0.114919921875,0.04475962360528565,0.01745804875920261,-0.07603661136263848,0.6999039649963379,2019-06-21 13:07:32:630
-6.8975894775390625,7.244743408203125,-0.1173140869140625,0.0452922558233015,0.017857522922714496,-0.07896608856172563,0.705024003982544,2019-06-21 13:07:32:635
-6.90477197265625,7.2483346557617185,-0.10654034423828125,0.046224362204829235,0.01692541654118676,-0.08216188186982072,0.7098879814147949,2019-06-21 13:07:32:640
-6.931107788085938,7.213619262695312,-0.14484698486328124,0.04662383636834113,0.016525942377674876,-0.08522451712341185,0.715008020401001,2019-06-21 13:07:32:645
-6.946669860839844,7.188480529785156,-0.1077374267578125,0.04822173302238867,0.016259626268666953,-0.08828715237700296,0.719871997833252,2019-06-21 13:07:32:650
-6.9263194580078125,7.186086364746093,-0.10534326171875,0.04782225885887678,0.01599331015965903,-0.09001820708555448,0.724992036819458,2019-06-21 13:07:32:655
-6.949064025878906,7.154962219238281,-0.08020452880859374,0.048088574967884705,0.015061203778131294,-0.0930808423391456,0.729856014251709,2019-06-21 13:07:32:660
-6.97180859375,7.178903869628906,-0.14364990234375,0.04835489107689263,0.014262255451107523,-0.09374663261166541,0.7349758148193359,2019-06-21 13:07:32:665
-6.953852355957031,7.187283447265624,-0.1340732421875,0.049553313567428287,0.014129097396603561,-0.09667610981075256,0.739840030670166,2019-06-21 13:07:32:670
-6.983779418945312,7.151370971679687,-0.110131591796875,0.04902068134941244,0.013463307124083751,-0.09707558397426445,0.744959831237793,2019-06-21 13:07:32:675
-6.986173583984375,7.1310205688476564,-0.158014892578125,0.04888752329490848,0.013729623233091676,-0.09880663868281594,0.749824047088623,2019-06-21 13:07:32:680
-7.012509399414062,7.138203063964844,-0.13766448974609374,0.04888752329490848,0.0139959393420996,-0.09960558700983972,0.75494384765625,2019-06-21 13:07:32:685
-7.007721069335937,7.103487670898438,-0.13766448974609374,0.04981962967643621,0.013596465178587713,-0.10040453533686351,0.759807825088501,2019-06-21 13:07:32:690
-7.0280714721679685,7.126232238769531,-0.10534326171875,0.04822173302238867,0.013063832960571866,-0.10067085144587143,0.764927864074707,2019-06-21 13:07:32:695
-7.044830627441406,7.098699340820312,-0.1651973876953125,0.04862120718590056,0.01333014906957979,-0.10240190615442293,0.769791841506958,2019-06-21 13:07:32:700
-7.049618957519531,7.0723635253906245,-0.14364990234375,0.04942015551292433,0.014395413505611484,-0.10160295782739917,0.7749118804931641,2019-06-21 13:07:32:705
-7.062786865234375,7.062786865234375,-0.17118280029296876,0.04822173302238867,0.015194361832635256,-0.10200243199091105,0.779775857925415,2019-06-21 13:07:32:710
-7.0735606079101565,7.068772277832031,-0.1364674072265625,0.049153839403916405,0.01546067794164318,-0.10226874809991898,0.7848958969116211,2019-06-21 13:07:32:715
-7.1022905883789065,7.030465637207031,-0.12449658203125,0.0474227846953649,0.016259626268666953,-0.1008040095003754,0.7900159358978271,2019-06-21 13:07:32:720
-7.122640991210937,7.01969189453125,-0.11611700439453125,0.04715646858635698,0.016392784323170914,-0.09920611284632784,0.7948799133300781,2019-06-21 13:07:32:725
-7.108276000976562,6.982582336425781,-0.138861572265625,0.04675699442284509,0.016259626268666953,-0.0982740064648001,0.7999999523162842,2019-06-21 13:07:32:730
-7.108276000976562,6.9526552734375,-0.1604090576171875,0.0452922558233015,0.014928045723627333,-0.09680926786525652,0.8048639297485352,2019-06-21 13:07:32:735
-7.135808898925781,6.9418815307617185,-0.1795623779296875,0.045824888041317346,0.015860152105155068,-0.09494505510220107,0.8099839687347412,2019-06-21 13:07:32:740
-7.127429321289062,6.9562465209960935,-0.16160614013671876,0.04515909776879754,0.016525942377674876,-0.09228189401212182,0.8148479461669922,2019-06-21 13:07:32:745
-7.137005981445312,6.96223193359375,-0.114919921875,0.04422699138726981,0.017724364868210534,-0.08975189097654655,0.8199679851531982,2019-06-21 13:07:32:750
-7.196860107421875,6.934699035644531,-0.17357696533203124,0.043161726951238114,0.016392784323170914,-0.08775452015898712,0.8248319625854492,2019-06-21 13:07:32:755
-7.196860107421875,6.92392529296875,-0.1412557373046875,0.043028568896734155,0.01692541654118676,-0.08349346241486034,0.8299520015716553,2019-06-21 13:07:32:760
-7.205239685058594,6.910757385253906,-0.138861572265625,0.0418301464061985,0.018789629304242227,-0.07936556272523752,0.8348159790039062,2019-06-21 13:07:32:765
-7.208830932617188,6.899983642578125,-0.14843823242187498,0.042362778624214344,0.018390155140730342,-0.0756371371991266,0.8399360179901123,2019-06-21 13:07:32:770
-7.208830932617188,6.861677001953125,-0.1532265625,0.04089804002467076,0.019322261522258077,-0.07190871167301566,0.8447999954223633,2019-06-21 13:07:32:775
-7.23037841796875,6.886815734863281,-0.13048199462890625,0.03943330142512718,0.020787000121801655,-0.06738134198107015,0.8499200344085693,2019-06-21 13:07:32:780
-7.223195922851563,6.829355773925781,-0.11611700439453125,0.040365407806654915,0.021186474285313544,-0.06218817785541564,0.8547840118408203,2019-06-21 13:07:32:785
-7.245940490722656,6.844917846679687,-0.100554931640625,0.0390338272616153,0.02158594844882543,-0.05806027816579282,0.8599040508270264,2019-06-21 13:07:32:790
-7.245940490722656,6.838932434082031,-0.12928491210937498,0.038101720880087564,0.022917528993865045,-0.054331852639681884,0.8650238513946533,2019-06-21 13:07:32:795
-7.235166748046875,6.8245674438476565,-0.11132867431640625,0.03783540477107964,0.023982793429896745,-0.048472898241507564,0.8698878288269043,2019-06-21 13:07:32:800
-7.226787170410156,6.826961608886719,-0.14724114990234374,0.03663698228054398,0.023583319266384854,-0.04354605022486097,0.8750078678131104,2019-06-21 13:07:32:805
-7.2339696655273436,6.800625793457031,-0.14843823242187498,0.03557171784451229,0.023583319266384854,-0.03821972804470249,0.8798718452453613,2019-06-21 13:07:32:810
-7.237560913085938,6.816187866210937,-0.12329949951171874,0.0351722436810004,0.024914899811424477,-0.0332928800280559,0.8849918842315674,2019-06-21 13:07:32:815
-7.2208017578125,6.812596618652344,-0.1268907470703125,0.03490592549139788,0.025447532029440324,-0.028232873956905356,0.8898558616638184,2019-06-21 13:07:32:820
-7.214816345214843,6.832947021484375,-0.15442364501953124,0.03477276743689391,0.026246480356464093,-0.022640235667738953,0.8949759006500244,2019-06-21 13:07:32:825
-7.253122985839844,6.82815869140625,-0.15202947998046876,0.03370750300086222,0.0269122706289839,-0.0175802295965884,0.8998398780822754,2019-06-21 13:07:32:830
-7.242349243164062,6.850903259277343,-0.1532265625,0.031976448292310715,0.027977535065015602,-0.01265338157994181,0.9049599170684814,2019-06-21 13:07:32:835
-7.225590087890625,6.870056579589844,-0.1268907470703125,0.03144381607429487,0.02944227366455918,-0.0091912721628388,0.9098238945007324,2019-06-21 13:07:32:840
-7.2040426025390625,6.862874084472656,-0.10414617919921874,0.03051170969276713,0.031040170318606727,-0.005196530527719943,0.9149439334869385,2019-06-21 13:07:32:845
-7.1896776123046875,6.8544945068359375,-0.12210241699218749,0.030112235529255245,0.03117332837311069,-0.0002696825110733521,0.9198079109191895,2019-06-21 13:07:32:850
-7.178903869628906,6.8688594970703125,-0.14005865478515625,0.02891381303871959,0.03263806697265426,0.0038582171785494666,0.9249279499053955,2019-06-21 13:07:32:855
-7.205239685058594,6.892801147460937,-0.14364990234375,0.027582232493679974,0.033570173354182,0.008785065195196057,0.9297919273376465,2019-06-21 13:07:32:860
-7.177706787109375,6.922728210449218,-0.1340732421875,0.02611749389413639,0.03490175389922162,0.012247174612299067,0.9349119663238525,2019-06-21 13:07:32:865
-7.184889282226562,6.929910705566406,-0.10175201416015625,0.026383810003144312,0.03490175389922162,0.015309809865890192,0.9397759437561035,2019-06-21 13:07:32:870
-7.177706787109375,6.915545715332031,-0.0981607666015625,0.02531854556711262,0.03689912471678104,0.018771919282993203,0.9448959827423096,2019-06-21 13:07:32:875
-7.152568054199219,6.9526552734375,-0.11851116943359374,0.024386439185584887,0.037431756934796896,0.02143508037307244,0.9500160217285156,2019-06-21 13:07:32:880
-7.177706787109375,6.935896118164062,-0.10414617919921874,0.024386439185584887,0.038230705261820666,0.024630873681167526,0.9548799991607666,2019-06-21 13:07:32:885
-7.187283447265624,6.925122375488281,-0.0885841064453125,0.023720648913065072,0.03876333747983651,0.027826666989262613,0.9600000381469727,2019-06-21 13:07:32:890
-7.163341796875,6.931107788085938,-0.08618994140625,0.02278854253153734,0.04036123413388405,0.030889302242853738,0.9648640155792236,2019-06-21 13:07:32:895
-7.150173889160156,6.927516540527344,-0.14364990234375,0.021590120041001686,0.040893866351899906,0.03421825360545278,0.9699838161468506,2019-06-21 13:07:32:900
-7.164538879394531,6.931107788085938,-0.138861572265625,0.021456961986497724,0.04155965662441971,0.037280888859043904,0.9748480319976807,2019-06-21 13:07:32:905
-7.166933044433594,6.927516540527344,-0.0957666015625,0.021057487822985835,0.04262492106045141,0.0400772080036271,0.9799678325653076,2019-06-21 13:07:32:910
-7.169327209472656,6.94307861328125,-0.110131591796875,0.019992223386954142,0.04222544689693952,0.04340615936622615,0.9848320484161377,2019-06-21 13:07:32:915
-7.159750549316406,6.946669860839844,-0.1268907470703125,0.01919327505993037,0.043290711332971216,0.04740090100134501,0.9899518489837646,2019-06-21 13:07:32:920
-7.152568054199219,6.9526552734375,-0.1077374267578125,0.01985906533245018,0.044489133823506874,0.050863010418448026,0.9948158264160156,2019-06-21 13:07:32:925
-7.120246826171875,6.9562465209960935,-0.09337243652343749,0.01972590727794622,0.04462229187801084,0.05379248761753518,0.9999358654022217,2019-06-21 13:07:32:930
-7.157356384277343,6.96223193359375,-0.08499285888671874,0.019459591168938296,0.045288082150530644,0.056855122871126304,1.0047998428344727,2019-06-21 13:07:32:935
-7.089122680664063,6.982582336425781,-0.10294909667968749,0.019592749223442257,0.045953872423050456,0.057787229252654046,1.0099198818206787,2019-06-21 13:07:32:940
-7.108276000976562,6.978991088867187,-0.09935784912109374,0.019326433114434334,0.045953872423050456,0.06005091617922139,1.0147838592529297,2019-06-21 13:07:32:945
-7.090319763183594,6.980188171386718,-0.11372283935546874,0.01852748478741056,0.04542124020503461,0.0628472353238046,1.0199038982391357,2019-06-21 13:07:32:950
-7.095108093261719,6.995750244140625,-0.09696368408203125,0.017994852569394714,0.04542124020503461,0.06457829003235609,1.0250239372253418,2019-06-21 13:07:32:955
-7.074757690429688,7.002932739257813,-0.07421911621093749,0.0183943267329066,0.04701913685908215,0.06604302863189968,1.0298879146575928,2019-06-21 13:07:32:960
-7.066378112792969,7.026874389648437,-0.17597113037109374,0.018261168678402637,0.048217559349617814,0.06764092528594721,1.0350079536437988,2019-06-21 13:07:32:965
-7.0436335449218745,7.079546020507812,-0.12928491210937498,0.018926958950922446,0.048217559349617814,0.06843987361297099,1.0398719310760498,2019-06-21 13:07:32:970
-7.0424364624023434,7.0675751953125,-0.119708251953125,0.017994852569394714,0.04795124324060989,0.06817355750396306,1.0449919700622559,2019-06-21 13:07:32:975
-7.011312316894531,7.07715185546875,-0.12090533447265625,0.017329062296874902,0.04768492713160197,0.06777408334045118,1.0498559474945068,2019-06-21 13:07:32:980
-6.992158996582031,7.111867248535156,-0.11611700439453125,0.017462220351378864,0.04715229491358612,0.0663093447409076,1.054975986480713,2019-06-21 13:07:32:985
-6.998144409179687,7.122640991210937,-0.12928491210937498,0.017462220351378864,0.04968229794916139,0.06657566084991552,1.0598399639129639,2019-06-21 13:07:32:990
-6.983779418945312,7.113064331054687,-0.14843823242187498,0.017994852569394714,0.04994861405816931,0.0656435544683878,1.06496000289917,2019-06-21 13:07:32:995
-6.951458190917968,7.145385559082031,-0.13527032470703124,0.01772853646038679,0.04928282378564951,0.06457829003235609,1.069823980331421,2019-06-21 13:07:33:000
-6.959837768554688,7.2040426025390625,-0.1412557373046875,0.017994852569394714,0.048617033513129695,0.0628472353238046,1.074944019317627,2019-06-21 13:07:33:005
-6.947866943359375,7.219604675292969,-0.16160614013671876,0.018660642841914522,0.049415981840153465,0.062181445051284784,1.079807996749878,2019-06-21 13:07:33:010
-6.9263194580078125,7.250728820800781,-0.196321533203125,0.01919327505993037,0.048617033513129695,0.06005091617922139,1.084928035736084,2019-06-21 13:07:33:015
-6.927516540527344,7.217210510253906,-0.1508323974609375,0.018793800896418484,0.04848387545862574,0.058719335634181774,1.089792013168335,2019-06-21 13:07:33:020
-6.947866943359375,7.236363830566406,-0.19273028564453124,0.01972590727794622,0.04835071740412177,0.05712143898013423,1.094911813735962,2019-06-21 13:07:33:025
-6.907166137695312,7.242349243164062,-0.19512445068359374,0.020791171713977912,0.048217559349617814,0.054857752053566876,1.099776029586792,2019-06-21 13:07:33:030
-6.919136962890625,7.271079223632812,-0.1843507080078125,0.020791171713977912,0.048217559349617814,0.05219459096348764,1.104895830154419,2019-06-21 13:07:33:035
-6.902377807617188,7.239955078125,-0.15442364501953124,0.021323803931993762,0.048617033513129695,0.049131955709896515,1.110015869140625,2019-06-21 13:07:33:040
-6.893998229980468,7.263896728515625,-0.17357696533203124,0.021456961986497724,0.046087030477554414,0.04593616240180143,1.114879846572876,2019-06-21 13:07:33:045
-6.913151550292969,7.265093811035156,-0.20470111083984374,0.022389068368025455,0.04462229187801084,0.043938791584242,1.119999885559082,2019-06-21 13:07:33:050
-6.8951953125,7.290232543945312,-0.177168212890625,0.02345433280405715,0.04342386938747518,0.0411424724396588,1.124863862991333,2019-06-21 13:07:33:055
-6.893998229980468,7.284247131347656,-0.16759155273437498,0.023720648913065072,0.04315755327846726,0.037280888859043904,1.129983901977539,2019-06-21 13:07:33:060
-6.880830322265624,7.295020874023438,-0.191533203125,0.02531854556711262,0.04275807911495537,0.03315298916942108,1.13484787940979,2019-06-21 13:07:33:065
-6.8832244873046875,7.303400451660156,-0.19033612060546876,0.02531854556711262,0.04222544689693952,0.029025089479798268,1.139967918395996,2019-06-21 13:07:33:070
-6.858085754394531,7.309385864257813,-0.1939273681640625,0.026516968057648273,0.04062755024289198,0.02569613811719922,1.144831895828247,2019-06-21 13:07:33:075
-6.852100341796874,7.293823791503906,-0.18075946044921876,0.02878065498421563,0.038230705261820666,0.021967712591088286,1.1499519348144531,2019-06-21 13:07:33:080
-6.826961608886719,7.309385864257813,-0.14963531494140625,0.028647496929711667,0.03729859888029293,0.01717402262894566,1.154815912246704,2019-06-21 13:07:33:085
-6.8090053710937495,7.317765441894531,-0.1460440673828125,0.02971276136574336,0.03649965055326916,0.013179280993826802,1.1599359512329102,2019-06-21 13:07:33:090
-6.782669555664063,7.315371276855468,-0.15681781005859374,0.03051170969276713,0.0353012280627335,0.007719800759164362,1.1647999286651611,2019-06-21 13:07:33:095
-6.758727905273437,7.357269165039062,-0.1699857177734375,0.031177499965286945,0.033570173354182,0.002526636633509848,1.1699199676513672,2019-06-21 13:07:33:100
-6.755136657714844,7.357269165039062,-0.1699857177734375,0.03210960634681467,0.03343701529967803,-0.002133895274128819,1.1747839450836182,2019-06-21 13:07:33:105
-6.726406677246094,7.369239990234375,-0.14843823242187498,0.032375922455822596,0.030108063937078988,-0.00852548189031899,1.1799039840698242,2019-06-21 13:07:33:110
-6.7371804199218746,7.382407897949219,-0.17836529541015625,0.03290855467383845,0.02957543171906314,-0.014118120179485391,1.1850240230560303,2019-06-21 13:07:33:115
-6.755136657714844,7.395575805664063,-0.191533203125,0.03330802883735033,0.027444902846999755,-0.020776022904683486,1.1898880004882812,2019-06-21 13:07:33:120
-6.747954162597656,7.391984558105468,-0.13287615966796876,0.03330802883735033,0.02664595451997598,-0.027567083684385544,1.1950080394744873,2019-06-21 13:07:33:125
-6.750348327636718,7.419517456054687,-0.1340732421875,0.03370750300086222,0.02584700619295221,-0.034358144464087595,1.1998720169067383,2019-06-21 13:07:33:130
-6.7671074829101565,7.3931816406249995,-0.12808782958984374,0.03557171784451229,0.025447532029440324,-0.040350256916765886,1.2049918174743652,2019-06-21 13:07:33:135
-6.743165832519531,7.399167053222656,-0.16759155273437498,0.036104350062528136,0.024914899811424477,-0.047407633805475864,1.2098560333251953,2019-06-21 13:07:33:140
-6.7659104003906245,7.3800137329101565,-0.1077374267578125,0.036237508117032094,0.023583319266384854,-0.05286711404013831,1.2149758338928223,2019-06-21 13:07:33:145
-6.779078308105468,7.3788166503906245,-0.14843823242187498,0.036237508117032094,0.022251738721345237,-0.05992449092884829,1.2198400497436523,2019-06-21 13:07:33:150
-6.785063720703125,7.391984558105468,-0.14963531494140625,0.03677014033504794,0.02158594844882543,-0.06644923559954242,1.2249598503112793,2019-06-21 13:07:33:155
-6.775487060546875,7.370437072753906,-0.13527032470703124,0.038101720880087564,0.02092015817630562,-0.07230818583652754,1.2298238277435303,2019-06-21 13:07:33:160
-6.806611206054687,7.324947937011719,-0.13048199462890625,0.03930014337062322,0.019322261522258077,-0.07830029828920583,1.2349438667297363,2019-06-21 13:07:33:165
-6.812596618652344,7.336918762207031,-0.12090533447265625,0.03996593364314303,0.017591206813706572,-0.08375977852386826,1.2398078441619873,2019-06-21 13:07:33:170
-6.811399536132813,7.322553771972656,-0.1460440673828125,0.04143067224268661,0.016659100432178837,-0.08908610070402674,1.2449278831481934,2019-06-21 13:07:33:175
-6.826961608886719,7.28783837890625,-0.1412557373046875,0.04209646251520642,0.015593835996147143,-0.09387979066616937,1.2497918605804443,2019-06-21 13:07:33:180
-6.8544945068359375,7.295020874023438,-0.1532265625,0.04356120111475,0.0139959393420996,-0.09973874506434369,1.2549118995666504,2019-06-21 13:07:33:185
-6.864071166992187,7.271079223632812,-0.18195654296875,0.04436014944177377,0.012131726579044133,-0.10333401253595068,1.2597758769989014,2019-06-21 13:07:33:190
-6.861677001953125,7.242349243164062,-0.1460440673828125,0.04436014944177377,0.012131726579044133,-0.10692928000755764,1.2648959159851074,2019-06-21 13:07:33:195
-6.874844909667969,7.217210510253906,-0.10654034423828125,0.04555857193230942,0.011465936306524323,-0.1105245474791646,1.2700159549713135,2019-06-21 13:07:33:200
-6.882027404785156,7.186086364746093,-0.1077374267578125,0.04662383636834113,0.010400671870492626,-0.11278823440573195,1.2748799324035645,2019-06-21 13:07:33:205
-6.913151550292969,7.198057189941406,-0.10175201416015625,0.046490678313837165,0.008669617161941121,-0.11585086965932309,1.2799999713897705,2019-06-21 13:07:33:210
-6.934699035644531,7.1609476318359375,-0.1268907470703125,0.04848804913139659,0.007870668834917351,-0.1193129790764261,1.2848639488220215,2019-06-21 13:07:33:215
-6.932304870605469,7.157356384277343,-0.11252575683593749,0.04942015551292433,0.007204878562397542,-0.1210440337849776,1.2899839878082275,2019-06-21 13:07:33:220
-6.944275695800781,7.117852661132813,-0.12808782958984374,0.04968647162193225,0.008136984943925275,-0.1217098240574974,1.2948479652404785,2019-06-21 13:07:33:225
-6.9849765014648435,7.1298234863281245,-0.1412557373046875,0.04942015551292433,0.008802775216445085,-0.12304140460253703,1.2999680042266846,2019-06-21 13:07:33:230
-7.00053857421875,7.098699340820312,-0.062248291015625,0.049553313567428287,0.007737510780413389,-0.12370719487505684,1.3048319816589355,2019-06-21 13:07:33:235
-7.0137064819335935,7.084334350585937,-0.09456951904296874,0.049153839403916405,0.00853645910743716,-0.12530509152910438,1.3099520206451416,2019-06-21 13:07:33:240
-7.031662719726563,7.0675751953125,-0.10534326171875,0.04942015551292433,0.00853645910743716,-0.12730246234666381,1.3148159980773926,2019-06-21 13:07:33:245
-7.061589782714844,7.0424364624023434,-0.07062786865234374,0.05008594578544413,0.00920224937995697,-0.12730246234666381,1.3199360370635986,2019-06-21 13:07:33:250
-7.046027709960938,7.014903564453125,-0.07541619873046874,0.04968647162193225,0.008935933270949046,-0.1262371979106321,1.3248000144958496,2019-06-21 13:07:33:255
-7.0735606079101565,7.030465637207031,-0.10414617919921874,0.049952787730940175,0.008669617161941121,-0.12357403682055287,1.3299198150634766,2019-06-21 13:07:33:260
-7.12503515625,7.005326904296875,-0.11851116943359374,0.05008594578544413,0.009335407434460931,-0.12144350794848949,1.3347840309143066,2019-06-21 13:07:33:265
-7.120246826171875,6.98138525390625,-0.090978271484375,0.05008594578544413,0.011332778252020361,-0.12237561433001722,1.3399038314819336,2019-06-21 13:07:33:270
-7.138203063964844,6.949064025878906,-0.10534326171875,0.04902068134941244,0.010666987979500551,-0.1189135049129142,1.3450238704681396,2019-06-21 13:07:33:275
-7.150173889160156,6.934699035644531,-0.10175201416015625,0.04981962967643621,0.011465936306524323,-0.11611718576833102,1.3498878479003906,2019-06-21 13:07:33:280
-7.158553466796874,6.920334045410156,-0.10893450927734374,0.05008594578544413,0.012398042688052056,-0.11372034078725969,1.3550078868865967,2019-06-21 13:07:33:285
-7.221998840332031,6.917939880371094,-0.10414617919921874,0.04848804913139659,0.013196991015075828,-0.10972559915214083,1.3598718643188477,2019-06-21 13:07:33:290
-7.212422180175781,6.9119544677734375,-0.12329949951171874,0.04888752329490848,0.014661729614619408,-0.10613033168053386,1.3649919033050537,2019-06-21 13:07:33:295
-7.186086364746093,6.866465332031249,-0.13527032470703124,0.04822173302238867,0.015860152105155068,-0.10320085448144671,1.3698558807373047,2019-06-21 13:07:33:300
-7.221998840332031,6.8544945068359375,-0.09935784912109374,0.04862120718590056,0.017191732650194684,-0.09734190008327237,1.3749759197235107,2019-06-21 13:07:33:305
-7.245940490722656,6.830552856445312,-0.12329949951171874,0.048088574967884705,0.01745804875920261,-0.09334715844815353,1.3798398971557617,2019-06-21 13:07:33:310
-7.26868505859375,6.803019958496094,-0.11851116943359374,0.047289626640860935,0.01745804875920261,-0.08881978459501881,1.3849599361419678,2019-06-21 13:07:33:315
-7.255517150878906,6.779078308105468,-0.110131591796875,0.046890152477349054,0.017724364868210534,-0.08349346241486034,1.3898239135742188,2019-06-21 13:07:33:320
-7.245940490722656,6.798231628417969,-0.10893450927734374,0.04662383636834113,0.017990680977218457,-0.07723503385317414,1.3949439525604248,2019-06-21 13:07:33:325
-7.279458801269531,6.7958374633789065,-0.1364674072265625,0.04662383636834113,0.018789629304242227,-0.07150923750950376,1.3998079299926758,2019-06-21 13:07:33:330
-7.2770646362304685,6.7946403808593745,-0.1316790771484375,0.045824888041317346,0.019588577631266,-0.06658239365404639,1.4049279689788818,2019-06-21 13:07:33:335
-7.284247131347656,6.7958374633789065,-0.11372283935546874,0.04569172998681339,0.021319632339817506,-0.060323965092360175,1.4097919464111328,2019-06-21 13:07:33:340
-7.30699169921875,6.773092895507812,-0.13287615966796876,0.04475962360528565,0.02171910650332939,-0.054198694585177926,1.4149119853973389,2019-06-21 13:07:33:345
-7.302203369140625,6.783866638183594,-0.12928491210937498,0.04422699138726981,0.021852264557833352,-0.048472898241507564,1.4197759628295898,2019-06-21 13:07:33:350
-7.274670471191406,6.783866638183594,-0.10654034423828125,0.04356120111475,0.021319632339817506,-0.04367920827936493,1.424896001815796,2019-06-21 13:07:33:355
-7.273473388671875,6.793443298339843,-0.14963531494140625,0.042362778624214344,0.0223848967758492,-0.0371544636086708,1.430016040802002,2019-06-21 13:07:33:360
-7.275867553710937,6.787457885742187,-0.15681781005859374,0.04249593667871831,0.023583319266384854,-0.030363402828968742,1.434880018234253,2019-06-21 13:07:33:365
-7.261502563476562,6.814990783691406,-0.1340732421875,0.041563830297190574,0.023982793429896745,-0.024770764539802346,1.4399998188018799,2019-06-21 13:07:33:370
-7.2770646362304685,6.807808288574218,-0.13527032470703124,0.04023224975215095,0.026113322301960132,-0.01944444235964387,1.44486403465271,2019-06-21 13:07:33:375
-7.245940490722656,6.862874084472656,-0.1532265625,0.03756908866207172,0.02851016728303145,-0.014917068506509161,1.449983835220337,2019-06-21 13:07:33:380
-7.257911315917968,6.846114929199219,-0.0790074462890625,0.03583803395352021,0.02771121895600768,-0.009324430217342762,1.454848051071167,2019-06-21 13:07:33:385
-7.251925903320313,6.838932434082031,-0.12808782958984374,0.03663698228054398,0.02864332533753541,-0.004530740255200133,1.459967851638794,2019-06-21 13:07:33:390
-7.226787170410156,6.867662414550781,-0.08499285888671874,0.0341069771643741,0.029841747828071065,0.0007955819249583431,1.464831829071045,2019-06-21 13:07:33:395
-7.219604675292969,6.884421569824219,-0.12808782958984374,0.03264223856483052,0.031040170318606727,0.005322955778093048,1.469951868057251,2019-06-21 13:07:33:400
-7.200451354980468,6.902377807617188,-0.14724114990234374,0.030911183856279015,0.032904383081662186,0.009983487685731714,1.474815845489502,2019-06-21 13:07:33:405
-7.241152160644531,6.901180725097656,-0.1556207275390625,0.028647496929711667,0.0346354377902137,0.012646648775810952,1.479935884475708,2019-06-21 13:07:33:410
-7.225590087890625,6.9143486328125,-0.15442364501953124,0.027449074439176012,0.03543438611723747,0.01677454846543377,1.484799861907959,2019-06-21 13:07:33:415
-7.219604675292969,6.888012817382812,-0.09456951904296874,0.026783284166656197,0.03649965055326916,0.019570867610016973,1.489919900894165,2019-06-21 13:07:33:420
-7.21122509765625,6.8975894775390625,-0.12210241699218749,0.024919071403600734,0.03796438915281274,0.024764031735671488,1.494783878326416,2019-06-21 13:07:33:425
-7.194465942382812,6.860479919433594,-0.12569366455078124,0.02465275529459281,0.038630179425332554,0.028758773370790344,1.499903917312622,2019-06-21 13:07:33:430
-7.219604675292969,6.849706176757812,-0.09337243652343749,0.023321174749553187,0.04076070829739594,0.03235404084239731,1.5050239562988281,2019-06-21 13:07:33:435
-7.202845520019531,6.874844909667969,-0.100554931640625,0.022389068368025455,0.041027024406403864,0.03701457275003598,1.509887933731079,2019-06-21 13:07:33:440
-7.200451354980468,6.846114929199219,-0.13287615966796876,0.021323803931993762,0.04235860495144349,0.03967773384011522,1.5150079727172852,2019-06-21 13:07:33:445
-7.188480529785156,6.865268249511718,-0.16400030517578124,0.0211906458774898,0.0419591307879316,0.04407194963874596,1.5198719501495361,2019-06-21 13:07:33:450
-7.165735961914062,6.841326599121094,-0.1364674072265625,0.01985906533245018,0.04302439522396329,0.04886563960088859,1.5249919891357422,2019-06-21 13:07:33:455
-7.1465826416015625,6.886815734863281,-0.14005865478515625,0.017994852569394714,0.044355975769002916,0.05272722318150349,1.5298559665679932,2019-06-21 13:07:33:460
-7.176509704589844,6.913151550292969,-0.138861572265625,0.017329062296874902,0.04382334355098706,0.05632249065311046,1.5349760055541992,2019-06-21 13:07:33:465
-7.168130126953125,6.909560302734375,-0.11132867431640625,0.016929588133363017,0.04382334355098706,0.06058354839723724,1.5398399829864502,2019-06-21 13:07:33:470
-7.140597229003906,6.931107788085938,-0.12569366455078124,0.01639695591534717,0.044355975769002916,0.06364618365082836,1.5449600219726562,2019-06-21 13:07:33:475
-7.1441884765624994,6.919136962890625,-0.0885841064453125,0.016130639806339248,0.04488860798701876,0.06551039641388383,1.5498239994049072,2019-06-21 13:07:33:480
-7.104684753417969,6.944275695800781,-0.0981607666015625,0.015598007588323397,0.04582071436854649,0.06950513804900268,1.5549440383911133,2019-06-21 13:07:33:485
-7.1154584960937495,6.969414428710937,-0.09337243652343749,0.014665901206795666,0.046087030477554414,0.07270093551828698,1.5598080158233643,2019-06-21 13:07:33:490
-7.09630517578125,7.002932739257813,-0.119708251953125,0.014532743152291704,0.046752820750074225,0.07576357077187809,1.5649278163909912,2019-06-21 13:07:33:495
-7.081940185546875,7.00053857421875,-0.1173140869140625,0.014266427043283781,0.046752820750074225,0.07736146742592565,1.5697920322418213,2019-06-21 13:07:33:500
-7.074757690429688,7.012509399414062,-0.1077374267578125,0.013866952879771894,0.04715229491358612,0.07802725769844546,1.5749118328094482,2019-06-21 13:07:33:505
-7.0867285156249995,7.055604370117187,-0.12210241699218749,0.014399585097787743,0.04808440129511385,0.07989147046150093,1.5797760486602783,2019-06-21 13:07:33:510
-7.068772277832031,7.0280714721679685,-0.14484698486328124,0.013201162607252084,0.04928282378564951,0.08202199933356431,1.5848958492279053,2019-06-21 13:07:33:515
-7.041239379882812,7.0879255981445315,-0.14484698486328124,0.0128016884437402,0.049016507676641584,0.08268778960608411,1.5900158882141113,2019-06-21 13:07:33:520
-7.061589782714844,7.1058818359375,-0.17118280029296876,0.012934846498244161,0.05088072043969705,0.08322042182409996,1.5948798656463623,2019-06-21 13:07:33:525
-7.0424364624023434,7.122640991210937,-0.14364990234375,0.013068004552748123,0.051413352657712894,0.0837530540421158,1.5999999046325684,2019-06-21 13:07:33:530
-7.0579985351562495,7.093911010742187,-0.12808782958984374,0.012535372334732276,0.05167966876672082,0.0841525282056277,1.6048638820648193,2019-06-21 13:07:33:535
-7.004129821777344,7.140597229003906,-0.10294909667968749,0.012668530389236238,0.052079142930232705,0.08348673793310789,1.6099839210510254,2019-06-21 13:07:33:540
-6.986173583984375,7.128626403808593,-0.12808782958984374,0.012402214280228314,0.052079142930232705,0.083087263769596,1.6148478984832764,2019-06-21 13:07:33:545
-6.98138525390625,7.171721374511718,-0.14005865478515625,0.014000110934275858,0.05247861709374459,0.08295410571509204,1.6199679374694824,2019-06-21 13:07:33:550
-6.987370666503906,7.1896776123046875,-0.12808782958984374,0.013467478716260008,0.05261177514824855,0.0813562090610445,1.6248319149017334,2019-06-21 13:07:33:555
-6.982582336425781,7.202845520019531,-0.1460440673828125,0.013733794825267931,0.05301124931176043,0.08015778657050884,1.6299519538879395,2019-06-21 13:07:33:560
-6.963429016113281,7.200451354980468,-0.16280322265625,0.015331691479315474,0.053677039584280245,0.07869304797096527,1.6348159313201904,2019-06-21 13:07:33:565
-6.986173583984375,7.214816345214843,-0.1532265625,0.015864323697331324,0.052079142930232705,0.07736146742592565,1.6399359703063965,2019-06-21 13:07:33:570
-6.946669860839844,7.247137573242187,-0.19273028564453124,0.016130639806339248,0.05327756542076836,0.07456514828134245,1.6447999477386475,2019-06-21 13:07:33:575
-6.94307861328125,7.2327725830078125,-0.17597113037109374,0.016929588133363017,0.05274493320275251,0.0740325160633266,1.6499199867248535,2019-06-21 13:07:33:580
-6.937093200683593,7.21122509765625,-0.1651973876953125,0.01772853646038679,0.05101387849420101,0.07216830330027113,1.6547839641571045,2019-06-21 13:07:33:585
-6.921531127929687,7.227984252929687,-0.16639447021484374,0.018793800896418484,0.049815456003665354,0.07003777442820774,1.6599040031433105,2019-06-21 13:07:33:590
-6.907166137695312,7.255517150878906,-0.12569366455078124,0.01972590727794622,0.04928282378564951,0.06817355750396306,1.6650240421295166,2019-06-21 13:07:33:595
-6.891604064941406,7.24953173828125,-0.13287615966796876,0.0211906458774898,0.04835071740412177,0.06524408030487591,1.6698880195617676,2019-06-21 13:07:33:600
-6.891604064941406,7.275867553710937,-0.16160614013671876,0.02052485560496999,0.04661966269557026,0.06138249672426101,1.6750078201293945,2019-06-21 13:07:33:605
-6.852100341796874,7.301006286621093,-0.2130806884765625,0.021323803931993762,0.04568755631404253,0.056855122871126304,1.6798720359802246,2019-06-21 13:07:33:610
-6.7946403808593745,7.295020874023438,-0.12210241699218749,0.02345433280405715,0.045953872423050456,0.053393013454023294,1.6849918365478516,2019-06-21 13:07:33:615
-6.804217041015625,7.330933349609375,-0.14245281982421876,0.023054858640545264,0.04355702744197914,0.04979774598241632,1.6898558139801025,2019-06-21 13:07:33:620
-6.792246215820312,7.3500866699218745,-0.16878863525390625,0.02545170362161658,0.04408965965999499,0.044870897965769735,1.6949758529663086,2019-06-21 13:07:33:625
-6.776684143066406,7.356072082519531,-0.18315362548828124,0.025851177785128465,0.041692814678923676,0.04021036605813107,1.6998398303985596,2019-06-21 13:07:33:630
-6.764713317871093,7.351283752441406,-0.1699857177734375,0.027315916384672043,0.03889649553434048,0.035682992204996364,1.7049598693847656,2019-06-21 13:07:33:635
-6.7659104003906245,7.3943787231445315,-0.18075946044921876,0.027582232493679974,0.03783123109830878,0.029690879752318076,1.7098238468170166,2019-06-21 13:07:33:640
-6.745559997558594,7.414729125976562,-0.16280322265625,0.028381180820703743,0.03836386331632463,0.02423139951765564,1.7149438858032227,2019-06-21 13:07:33:645
-6.715632934570312,7.411137878417969,-0.16160614013671876,0.029446445256735437,0.036765966662277084,0.017440338737953583,1.7198078632354736,2019-06-21 13:07:33:650
-6.7371804199218746,7.406349548339843,-0.114919921875,0.031177499965286945,0.03383648946318992,0.011980858503291144,1.7249279022216797,2019-06-21 13:07:33:655
-6.701267944335937,7.43148828125,-0.11611700439453125,0.031044341910782983,0.03277122502715823,0.00545611383259701,1.7297918796539307,2019-06-21 13:07:33:660
-6.676129211425781,7.424305786132813,-0.15202947998046876,0.03224276440131864,0.031705960591126535,-0.001601263056112971,1.7349119186401367,2019-06-21 13:07:33:665
-6.682114624023438,7.427897033691406,-0.16639447021484374,0.03304171272834241,0.030907012264102765,-0.009058114108334838,1.7397758960723877,2019-06-21 13:07:33:670
-6.659370056152343,7.448247436523437,-0.1604090576171875,0.03503908562649644,0.02877648339203937,-0.01691443932406859,1.7448959350585938,2019-06-21 13:07:33:675
-6.666552551269531,7.444656188964844,-0.16878863525390625,0.03637066617153606,0.02784437701051164,-0.024637606485298384,1.7500159740447998,2019-06-21 13:07:33:680
-6.662961303710937,7.480568664550781,-0.18794195556640625,0.03570487589901625,0.027311744792495794,-0.0326270897555361,1.7548799514770508,2019-06-21 13:07:33:685
-6.6641583862304685,7.451838684082031,-0.15921197509765625,0.03570487589901625,0.024781741756920515,-0.04061657302577381,1.7599999904632568,2019-06-21 13:07:33:690
-6.677326293945312,7.417123291015625,-0.13766448974609374,0.036237508117032094,0.022784370939361084,-0.0483397401870036,1.7648639678955078,2019-06-21 13:07:33:695
-6.691691284179687,7.414729125976562,-0.1364674072265625,0.03570487589901625,0.021985422612337314,-0.056595539566249235,1.7699840068817139,2019-06-21 13:07:33:700
-6.7072533569335935,7.43148828125,-0.15202947998046876,0.036903298389551906,0.021319632339817506,-0.06378607450946318,1.7748479843139648,2019-06-21 13:07:33:705
-6.725209594726563,7.405152465820312,-0.18075946044921876,0.0379685628255836,0.020787000121801655,-0.07031081501896812,1.779968023300171,2019-06-21 13:07:33:710
-6.731195007324218,7.382407897949219,-0.158014892578125,0.0390338272616153,0.019189103467754116,-0.07616976941714244,1.7848320007324219,2019-06-21 13:07:33:715
-6.731195007324218,7.352480834960938,-0.11132867431640625,0.04009909169764699,0.01599331015965903,-0.08349346241486034,1.789952039718628,2019-06-21 13:07:33:720
-6.77069873046875,7.3656487426757815,-0.15202947998046876,0.0418301464061985,0.015194361832635256,-0.08961873292204259,1.794816017150879,2019-06-21 13:07:33:725
-6.779078308105468,7.344101257324218,-0.17597113037109374,0.04196330446070246,0.015061203778131294,-0.09494505510220107,1.7999358177185059,2019-06-21 13:07:33:730
-6.7814724731445315,7.332130432128906,-0.158014892578125,0.04356120111475,0.011732252415532246,-0.10040453533686351,1.804800033569336,2019-06-21 13:07:33:735
-6.78985205078125,7.302203369140625,-0.1077374267578125,0.043827517223757925,0.010400671870492626,-0.10639664778954179,1.809919834136963,2019-06-21 13:07:33:740
-6.804217041015625,7.26868505859375,-0.14245281982421876,0.04515909776879754,0.010666987979500551,-0.1122556021877161,1.814784049987793,2019-06-21 13:07:33:745
-6.8401295166015625,7.2770646362304685,-0.17118280029296876,0.04662383636834113,0.009601723543468856,-0.11558455355031517,1.81990385055542,2019-06-21 13:07:33:750
-6.862874084472656,7.242349243164062,-0.158014892578125,0.04715646858635698,0.00853645910743716,-0.11984561129444195,1.825023889541626,2019-06-21 13:07:33:755
-6.860479919433594,7.237560913085938,-0.13766448974609374,0.04888752329490848,0.0074711946714054655,-0.12370719487505684,1.829887866973877,2019-06-21 13:07:33:760
-6.879633239746093,7.212422180175781,-0.1340732421875,0.04968647162193225,0.0061396141263658464,-0.12676983012864795,1.835007905960083,2019-06-21 13:07:33:765
-6.916742797851563,7.190874694824219,-0.11132867431640625,0.04942015551292433,0.005740139962853961,-0.12983246538223908,1.839871883392334,2019-06-21 13:07:33:770
-6.910757385253906,7.194465942382812,-0.119708251953125,0.05008594578544413,0.005873298017357922,-0.13249562647231833,1.84499192237854,2019-06-21 13:07:33:775
-6.935896118164062,7.13461181640625,-0.10893450927734374,0.05101805216697187,0.006405930235373771,-0.1339603650718619,1.849855899810791,2019-06-21 13:07:33:780
-6.978991088867187,7.138203063964844,-0.17118280029296876,0.050751736057963945,0.005473823853846037,-0.13489247145338965,1.854975938796997,2019-06-21 13:07:33:785
-6.994553161621093,7.107078918457031,-0.14364990234375,0.05141752633048375,0.006672246344381694,-0.13595773588942134,1.859839916229248,2019-06-21 13:07:33:790
-7.022086059570312,7.098699340820312,-0.11611700439453125,0.051950158548499596,0.006405930235373771,-0.13688984227094905,1.864959955215454,2019-06-21 13:07:33:795
-7.034056884765625,7.075954772949219,-0.13766448974609374,0.05128436827597979,0.0061396141263658464,-0.13728931643446096,1.869823932647705,2019-06-21 13:07:33:800
-7.031662719726563,7.068772277832031,-0.12329949951171874,0.051950158548499596,0.006405930235373771,-0.1374224744889649,1.8749439716339111,2019-06-21 13:07:33:805
-7.037648132324218,7.056801452636718,-0.10893450927734374,0.05248279076651544,0.006539088289877732,-0.13622405199842927,1.879807949066162,2019-06-21 13:07:33:810
-7.068772277832031,7.030465637207031,-0.100554931640625,0.05261594882101941,0.006672246344381694,-0.1360908939439253,1.8849279880523682,2019-06-21 13:07:33:815
-7.1166555786132815,7.006523986816406,-0.11611700439453125,0.05261594882101941,0.007204878562397542,-0.1360908939439253,1.8897919654846191,2019-06-21 13:07:33:820
-7.1058818359375,6.995750244140625,-0.0957666015625,0.052749106875523366,0.008669617161941121,-0.13236246841781438,1.8949120044708252,2019-06-21 13:07:33:825
-7.122640991210937,6.980188171386718,-0.110131591796875,0.05248279076651544,0.009468565488964893,-0.13076457176376682,1.8997759819030762,2019-06-21 13:07:33:830
-7.152568054199219,6.958640686035156,-0.13048199462890625,0.05128436827597979,0.00986803965247678,-0.1286340428917034,1.9048960208892822,2019-06-21 13:07:33:835
-7.15376513671875,6.939487365722656,-0.119708251953125,0.05141752633048375,0.01053382992499659,-0.12570456569261626,1.9100158214569092,2019-06-21 13:07:33:840
-7.21122509765625,6.905969055175781,-0.10893450927734374,0.05261594882101941,0.011732252415532246,-0.12224245627551325,1.9148800373077393,2019-06-21 13:07:33:845
-7.193268859863281,6.865268249511718,-0.14245281982421876,0.05261594882101941,0.013063832960571866,-0.11917982102192214,1.9199998378753662,2019-06-21 13:07:33:850
-7.223195922851563,6.8544945068359375,-0.12928491210937498,0.05141752633048375,0.01333014906957979,-0.11571771160481913,1.9248638153076172,2019-06-21 13:07:33:855
-7.23037841796875,6.88561865234375,-0.12210241699218749,0.05141752633048375,0.013196991015075828,-0.11212244413321214,1.9299838542938232,2019-06-21 13:07:33:860
-7.250728820800781,6.846114929199219,-0.10654034423828125,0.0502191038399481,0.014661729614619408,-0.10652980584404576,1.9348478317260742,2019-06-21 13:07:33:865
-7.255517150878906,6.836538269042968,-0.0981607666015625,0.04902068134941244,0.015327519887139218,-0.10213559004541502,1.9399678707122803,2019-06-21 13:07:33:870
-7.26868505859375,6.822173278808593,-0.11611700439453125,0.04875436524040452,0.015593835996147143,-0.09814084841029615,1.9448318481445312,2019-06-21 13:07:33:875
-7.263896728515625,6.806611206054687,-0.09217535400390625,0.04942015551292433,0.016259626268666953,-0.08988504903105052,1.9499518871307373,2019-06-21 13:07:33:880
-7.293823791503906,6.8090053710937495,-0.1173140869140625,0.04888752329490848,0.016259626268666953,-0.08309398825134846,1.9548158645629883,2019-06-21 13:07:33:885
-7.296217956542969,6.811399536132813,-0.12449658203125,0.04795541691338075,0.01692541654118676,-0.07856661439821375,1.9599359035491943,2019-06-21 13:07:33:890
-7.3057946166992185,6.773092895507812,-0.13287615966796876,0.047289626640860935,0.017724364868210534,-0.07177555361851169,1.9647998809814453,2019-06-21 13:07:33:895
-7.3201596069335935,6.779078308105468,-0.119708251953125,0.0474227846953649,0.01825699708622638,-0.0651176550545028,1.9699199199676514,2019-06-21 13:07:33:900
-7.299809204101562,6.758727905273437,-0.14963531494140625,0.046224362204829235,0.019588577631266,-0.059525016765336405,1.9747838973999023,2019-06-21 13:07:33:905
-7.263896728515625,6.739574584960938,-0.16160614013671876,0.04475962360528565,0.02025436790378581,-0.052600797931130386,1.9799039363861084,2019-06-21 13:07:33:910
-7.2770646362304685,6.773092895507812,-0.11372283935546874,0.04475962360528565,0.020787000121801655,-0.04674184353295606,1.9850239753723145,2019-06-21 13:07:33:915
-7.304597534179687,6.807808288574218,-0.14963531494140625,0.04396067527826188,0.021053316230809582,-0.04141552135279758,1.9898879528045654,2019-06-21 13:07:33:920
-7.281852966308594,6.788654968261719,-0.1651973876953125,0.04249593667871831,0.02318384510287297,-0.03409182835507967,1.9950079917907715,2019-06-21 13:07:33:925
-7.290232543945312,6.819779113769531,-0.138861572265625,0.04196330446070246,0.02331700315737693,-0.02849919006591328,1.9998719692230225,2019-06-21 13:07:33:930
-7.27826171875,6.819779113769531,-0.114919921875,0.03996593364314303,0.02438226759340863,-0.022773393722242914,2.0049920082092285,2019-06-21 13:07:33:935
-7.261502563476562,6.816187866210937,-0.1556207275390625,0.03823487893459153,0.024914899811424477,-0.0175802295965884,2.0098559856414795,2019-06-21 13:07:33:940
-7.272276306152343,6.855691589355469,-0.10414617919921874,0.03783540477107964,0.02677911257447994,-0.01398496212498143,2.0149760246276855,2019-06-21 13:07:33:945
-7.274670471191406,6.849706176757812,-0.11132867431640625,0.03557171784451229,0.028243851174023525,-0.00785969161779918,2.0198400020599365,2019-06-21 13:07:33:950
-7.23037841796875,6.8544945068359375,-0.10654034423828125,0.03384066105536618,0.02930911561005522,-0.0022670533286327805,2.0249600410461426,2019-06-21 13:07:33:955
-7.267487976074219,6.852100341796874,-0.14484698486328124,0.032375922455822596,0.03197227670013446,0.0022603205245019242,2.0298240184783936,2019-06-21 13:07:33:960
-7.266290893554688,6.8401295166015625,-0.15202947998046876,0.031177499965286945,0.032504908918150305,0.006521378268628706,2.0349438190460205,2019-06-21 13:07:33:965
-7.255517150878906,6.842523681640625,-0.19751861572265625,0.029446445256735437,0.03317069919067011,0.011980858503291144,2.0398080348968506,2019-06-21 13:07:33:970
-7.231575500488281,6.850903259277343,-0.1604090576171875,0.027449074439176012,0.03663280860777312,0.0170408645744417,2.0449278354644775,2019-06-21 13:07:33:975
-7.237560913085938,6.859282836914062,-0.1268907470703125,0.02625065194864035,0.03849702137082859,0.021301922318568478,2.0497920513153076,2019-06-21 13:07:33:980
-7.219604675292969,6.844917846679687,-0.16280322265625,0.02531854556711262,0.04049439218838802,0.02569613811719922,2.0549118518829346,2019-06-21 13:07:33:985
-7.216013427734375,6.843720764160156,-0.14484698486328124,0.02358749085856111,0.04076070829739594,0.030356670024837887,2.0600318908691406,2019-06-21 13:07:33:990
-7.227984252929687,6.826961608886719,-0.14724114990234374,0.021057487822985835,0.042491763005947446,0.035682992204996364,2.0648958683013916,2019-06-21 13:07:33:995
-7.199254272460937,6.838932434082031,-0.13287615966796876,0.020258539495962066,0.044355975769002916,0.04060984022164295,2.0700159072875977,2019-06-21 13:07:34:000
-7.224393005371094,6.838932434082031,-0.1532265625,0.018793800896418484,0.04382334355098706,0.04593616240180143,2.0748798847198486,2019-06-21 13:07:34:005
-7.235166748046875,6.848509094238281,-0.14963531494140625,0.017861694514890752,0.04382334355098706,0.05152880069096783,2.0799999237060547,2019-06-21 13:07:34:010
-7.236363830566406,6.852100341796874,-0.158014892578125,0.017861694514890752,0.045154924096026686,0.054857752053566876,2.0848639011383057,2019-06-21 13:07:34:015
-7.2339696655273436,6.8760419921875,-0.11851116943359374,0.017462220351378864,0.04622018853205838,0.057920387307158004,2.0899839401245117,2019-06-21 13:07:34:020
-7.201648437499999,6.8832244873046875,-0.12928491210937498,0.01719590424237094,0.04715229491358612,0.06271407726930063,2.0948479175567627,2019-06-21 13:07:34:025
-7.188480529785156,6.878436157226562,-0.10534326171875,0.01626379786084321,0.04661966269557026,0.06764092528594721,2.0999679565429688,2019-06-21 13:07:34:030
-7.1896776123046875,6.873647827148437,-0.11851116943359374,0.015198533424811513,0.04835071740412177,0.07256777746378301,2.1048319339752197,2019-06-21 13:07:34:035
-7.169327209472656,6.874844909667969,-0.1412557373046875,0.014532743152291704,0.048217559349617814,0.07602988688088602,2.109951972961426,2019-06-21 13:07:34:040
-7.177706787109375,6.877239074707031,-0.13287615966796876,0.014799059261299628,0.04848387545862574,0.07922568018898112,2.1148159503936768,2019-06-21 13:07:34:045
-7.158553466796874,6.905969055175781,-0.07781036376953125,0.014000110934275858,0.04888334962213762,0.08348673793310789,2.119935989379883,2019-06-21 13:07:34:050
-7.147779724121094,6.908363220214843,-0.06703662109375,0.013201162607252084,0.050214930167177235,0.0873483215137228,2.124799966812134,2019-06-21 13:07:34:055
-7.13461181640625,6.9418815307617185,-0.12808782958984374,0.01213589817122039,0.050614404330689124,0.09067727287632184,2.12992000579834,2019-06-21 13:07:34:060
-7.1166555786132815,6.9993414916992185,-0.11611700439453125,0.010804317626180771,0.05088072043969705,0.093606750075409,2.134783983230591,2019-06-21 13:07:34:065
-7.111867248535156,7.00053857421875,-0.1173140869140625,0.010404843462668885,0.05234545903924063,0.0960035950564803,2.139904022216797,2019-06-21 13:07:34:070
-7.091516845703125,7.0280714721679685,-0.11851116943359374,0.011203791789692656,0.05301124931176043,0.09933254641907935,2.145023822784424,2019-06-21 13:07:34:075
-7.084334350585937,7.046027709960938,-0.1077374267578125,0.010937475680684733,0.05247861709374459,0.1015962333456467,2.149888038635254,2019-06-21 13:07:34:080
-7.048421875,7.062786865234375,-0.1173140869140625,0.010937475680684733,0.05394335569328817,0.10106360112763085,2.155007839202881,2019-06-21 13:07:34:085
-7.071166442871093,7.092713928222656,-0.1364674072265625,0.011736424007708503,0.05447598791130402,0.10279465583618237,2.159871816635132,2019-06-21 13:07:34:090
-7.069969360351562,7.1010935058593745,-0.17118280029296876,0.010937475680684733,0.05460914596580799,0.10385992027221407,2.164991855621338,2019-06-21 13:07:34:095
-7.014903564453125,7.1322176513671875,-0.1268907470703125,0.012002740116716426,0.05540809429283176,0.10452571054473388,2.169855833053589,2019-06-21 13:07:34:100
-7.054407287597656,7.170524291992187,-0.15921197509765625,0.010804317626180771,0.055141778183823834,0.10532465887175765,2.174975872039795,2019-06-21 13:07:34:105
-6.993356079101562,7.176509704589844,-0.11611700439453125,0.012668530389236238,0.0559407265108476,0.10452571054473388,2.179839849472046,2019-06-21 13:07:34:110
-6.994553161621093,7.198057189941406,-0.17597113037109374,0.011336949844196618,0.05540809429283176,0.10505834276274972,2.184959888458252,2019-06-21 13:07:34:115
-7.002932739257813,7.224393005371094,-0.1843507080078125,0.013201162607252084,0.056340200674359485,0.10359360416320615,2.189823865890503,2019-06-21 13:07:34:120
-6.973005676269531,7.245940490722656,-0.17118280029296876,0.014000110934275858,0.05567441040183968,0.1030609719451903,2.194943904876709,2019-06-21 13:07:34:125
-6.961034851074219,7.247137573242187,-0.16280322265625,0.013068004552748123,0.054742304020311945,0.10106360112763085,2.19980788230896,2019-06-21 13:07:34:130
-6.94307861328125,7.2591083984375,-0.16280322265625,0.013866952879771894,0.05460914596580799,0.09840044003755162,2.204927921295166,2019-06-21 13:07:34:135
-6.961034851074219,7.283050048828125,-0.1843507080078125,0.01493221731580359,0.05394335569328817,0.09653622727449615,2.209791898727417,2019-06-21 13:07:34:140
-6.901180725097656,7.286641296386718,-0.191533203125,0.015997481751835286,0.054342829856800064,0.09427254034792881,2.214911937713623,2019-06-21 13:07:34:145
-6.898786560058594,7.281852966308594,-0.2035040283203125,0.01706274618786698,0.05354388152977628,0.09160937925784957,2.219775915145874,2019-06-21 13:07:34:150
-6.922728210449218,7.28783837890625,-0.1987156982421875,0.017861694514890752,0.05167966876672082,0.0890793762222743,2.22489595413208,2019-06-21 13:07:34:155
-6.867662414550781,7.3201596069335935,-0.18315362548828124,0.019060117005426407,0.05074756238519308,0.0862830570776911,2.230015993118286,2019-06-21 13:07:34:160
-6.853297424316406,7.332130432128906,-0.1891390380859375,0.019326433114434334,0.049016507676641584,0.08228831544257223,2.234879970550537,2019-06-21 13:07:34:165
-6.8102024536132815,7.370437072753906,-0.2035040283203125,0.021057487822985835,0.048617033513129695,0.07909252213447715,2.240000009536743,2019-06-21 13:07:34:170
-6.788654968261719,7.34529833984375,-0.22026318359375,0.021456961986497724,0.04888334962213762,0.07443199022683848,2.244863986968994,2019-06-21 13:07:34:175
-6.7958374633789065,7.385999145507812,-0.22624859619140625,0.02385380696756904,0.046752820750074225,0.0691056638854908,2.2499840259552,2019-06-21 13:07:34:180
-6.803019958496094,7.388393310546875,-0.1651973876953125,0.02358749085856111,0.04382334355098706,0.06391249975983629,2.254848003387451,2019-06-21 13:07:34:185
-6.743165832519531,7.409940795898438,-0.15442364501953124,0.025185387512608657,0.04408965965999499,0.05831986147066989,2.2599680423736572,2019-06-21 13:07:34:190
-6.708450439453125,7.375225402832031,-0.16280322265625,0.025052229458104695,0.04116018246090783,0.05206143290898368,2.264832019805908,2019-06-21 13:07:34:195
-6.727603759765625,7.433882446289062,-0.13287615966796876,0.02611749389413639,0.04076070829739594,0.04740090100134501,2.269951820373535,2019-06-21 13:07:34:200
-6.6785233764648435,7.4674007568359375,-0.1364674072265625,0.026783284166656197,0.0391628116433484,0.04047668216713899,2.2748160362243652,2019-06-21 13:07:34:205
-6.656975891113281,7.449444519042968,-0.1412557373046875,0.027315916384672043,0.03729859888029293,0.033818779441940894,2.279935836791992,2019-06-21 13:07:34:210
-6.6354284057617186,7.461415344238281,-0.1460440673828125,0.02798170665719186,0.03663280860777312,0.025296663953687334,2.284799814224243,2019-06-21 13:07:34:215
-6.618669250488281,7.46021826171875,-0.14005865478515625,0.02971276136574336,0.03343701529967803,0.01717402262894566,2.289919853210449,2019-06-21 13:07:34:220
-6.599515930175781,7.494933654785156,-0.15681781005859374,0.031044341910782983,0.032105434754638416,0.010782436012755485,2.2947838306427,2019-06-21 13:07:34:225
-6.593530517578125,7.502116149902344,-0.16280322265625,0.031044341910782983,0.03037438004608691,0.003325584960533619,2.2999038696289062,2019-06-21 13:07:34:230
-6.554026794433594,7.534437377929687,-0.15442364501953124,0.03171013218330279,0.029841747828071065,-0.005995478854743714,2.3050239086151123,2019-06-21 13:07:34:235
-6.565997619628906,7.51767822265625,-0.11372283935546874,0.03171013218330279,0.02877648339203937,-0.015050226561013123,2.3098878860473633,2019-06-21 13:07:34:240
-6.5767713623046875,7.529649047851563,-0.14245281982421876,0.03210960634681467,0.02771121895600768,-0.024238132321786496,2.3150079250335693,2019-06-21 13:07:34:245
-6.580362609863281,7.535634460449218,-0.1747740478515625,0.03304171272834241,0.026379638410968055,-0.03475761862759949,2.3198719024658203,2019-06-21 13:07:34:250
-6.575574279785156,7.551196533203125,-0.1532265625,0.034373293273382025,0.023849635375392784,-0.0427471018978372,2.3249919414520264,2019-06-21 13:07:34:255
-6.606698425292969,7.500919067382812,-0.14005865478515625,0.03570487589901625,0.023050687048369007,-0.05233448182212246,2.3298559188842773,2019-06-21 13:07:34:260
-6.6198663330078125,7.504510314941406,-0.11851116943359374,0.03677014033504794,0.021319632339817506,-0.0605902812013681,2.3349759578704834,2019-06-21 13:07:34:265
-6.630640075683593,7.490145324707031,-0.11252575683593749,0.036903298389551906,0.020653842067297694,-0.06857976447160581,2.3398399353027344,2019-06-21 13:07:34:270
-6.63662548828125,7.468597839355469,-0.1556207275390625,0.03783540477107964,0.01905594541325015,-0.07616976941714244,2.3449599742889404,2019-06-21 13:07:34:275
-6.647399230957031,7.447050354003906,-0.1508323974609375,0.039699617534135104,0.017857522922714496,-0.08482504295989995,2.3498239517211914,2019-06-21 13:07:34:280
-6.670143798828125,7.418320373535156,-0.14963531494140625,0.039699617534135104,0.016659100432178837,-0.09148294568509806,2.3549439907073975,2019-06-21 13:07:34:285
-6.691691284179687,7.387196228027344,-0.1508323974609375,0.040498565861158874,0.015194361832635256,-0.09880663868281594,2.3598079681396484,2019-06-21 13:07:34:290
-6.6928883666992185,7.3740283203125,-0.14724114990234374,0.042362778624214344,0.013729623233091676,-0.10599717362602991,2.3649280071258545,2019-06-21 13:07:34:295
-6.724012512207031,7.3943787231445315,-0.15442364501953124,0.04396067527826188,0.011998568524540171,-0.11252191829672403,2.3697919845581055,2019-06-21 13:07:34:300
-6.7515454101562495,7.372831237792969,-0.1412557373046875,0.04569172998681339,0.011465936306524323,-0.1189135049129142,2.3749120235443115,2019-06-21 13:07:34:305
-6.746757080078125,7.360860412597656,-0.158014892578125,0.04555857193230942,0.009601723543468856,-0.12570456569261626,2.3797760009765625,2019-06-21 13:07:34:310
-6.7814724731445315,7.3500866699218745,-0.13766448974609374,0.04569172998681339,0.007737510780413389,-0.13196299425430247,2.3848960399627686,2019-06-21 13:07:34:315
-6.774289978027344,7.328539184570312,-0.16400030517578124,0.04662383636834113,0.006672246344381694,-0.1360908939439253,2.3900158405303955,2019-06-21 13:07:34:320
-6.831749938964844,7.299809204101562,-0.119708251953125,0.04848804913139659,0.0061396141263658464,-0.1402187936335481,2.3948798179626465,2019-06-21 13:07:34:325
-6.855691589355469,7.290232543945312,-0.1412557373046875,0.04968647162193225,0.004009085254302456,-0.14501248359569074,2.3999998569488525,2019-06-21 13:07:34:330
-6.870056579589844,7.239955078125,-0.12329949951171874,0.050352261894452056,0.005340665799342075,-0.14914038328531357,2.4048638343811035,2019-06-21 13:07:34:335
-6.890406982421875,7.255517150878906,-0.10534326171875,0.050751736057963945,0.005207507744838113,-0.15286880881142448,2.4099838733673096,2019-06-21 13:07:34:340
-6.938290283203125,7.216013427734375,-0.114919921875,0.05128436827597979,0.004009085254302456,-0.1548661796289839,2.4148478507995605,2019-06-21 13:07:34:345
-6.951458190917968,7.196860107421875,-0.07421911621093749,0.053148581039035254,0.004674875526822266,-0.15606460211951959,2.4199678897857666,2019-06-21 13:07:34:350
-6.959837768554688,7.188480529785156,-0.10534326171875,0.05301542298453129,0.0038759271997984937,-0.15646407628303147,2.4248318672180176,2019-06-21 13:07:34:355
-7.00053857421875,7.152568054199219,-0.1077374267578125,0.05434700352957092,0.0044085594178143415,-0.15766249877356714,2.4299519062042236,2019-06-21 13:07:34:360
-7.01969189453125,7.137005981445312,-0.110131591796875,0.05541226796560261,0.004808033581326227,-0.15739618266455918,2.4348158836364746,2019-06-21 13:07:34:365
-7.032859802246094,7.117852661132813,-0.1508323974609375,0.054879635747586766,0.00494119163583019,-0.15859460515509485,2.4399359226226807,2019-06-21 13:07:34:370
-7.03884521484375,7.085531433105468,-0.14245281982421876,0.05541226796560261,0.004541717472318304,-0.15859460515509485,2.4447999000549316,2019-06-21 13:07:34:375
-7.091516845703125,7.066378112792969,-0.1268907470703125,0.05527910991109865,0.004808033581326227,-0.15739618266455918,2.4499199390411377,2019-06-21 13:07:34:380
-7.0723635253906245,7.060392700195313,-0.11372283935546874,0.05634437434713035,0.006272772180869809,-0.1559314440650156,2.4547839164733887,2019-06-21 13:07:34:385
-7.1022905883789065,7.007721069335937,-0.1460440673828125,0.05740963878316204,0.005740139962853961,-0.1532682829749364,2.4599039554595947,2019-06-21 13:07:34:390
-7.122640991210937,6.998144409179687,-0.1268907470703125,0.05740963878316204,0.006938562453389618,-0.15193670242989676,2.465023994445801,2019-06-21 13:07:34:395
-7.165735961914062,6.980188171386718,-0.1604090576171875,0.05594490018361846,0.007737510780413389,-0.14980617355783338,2.4698879718780518,2019-06-21 13:07:34:400
-7.176509704589844,6.917939880371094,-0.158014892578125,0.05674384851064223,0.007737510780413389,-0.14621090608622642,2.475008010864258,2019-06-21 13:07:34:405
-7.152568054199219,6.938290283203125,-0.14245281982421876,0.056477532401634306,0.009069091325453008,-0.14341458694164322,2.479871988296509,2019-06-21 13:07:34:410
-7.178903869628906,6.929910705566406,-0.1340732421875,0.055678584074610536,0.008669617161941121,-0.14061826779706,2.484992027282715,2019-06-21 13:07:34:415
-7.198057189941406,6.9119544677734375,-0.1173140869140625,0.05594490018361846,0.009069091325453008,-0.1360908939439253,2.489856004714966,2019-06-21 13:07:34:420
-7.213619262695312,6.877239074707031,-0.18554779052734374,0.05514595185659469,0.00986803965247678,-0.13169667814529457,2.494976043701172,2019-06-21 13:07:34:425
-7.241152160644531,6.84731201171875,-0.15921197509765625,0.054879635747586766,0.010001197706980741,-0.12783509456467965,2.499840021133423,2019-06-21 13:07:34:430
-7.2339696655273436,6.865268249511718,-0.1508323974609375,0.05514595185659469,0.009601723543468856,-0.12237561433001722,2.50495982170105,2019-06-21 13:07:34:435
-7.2339696655273436,6.865268249511718,-0.1508323974609375,0.05514595185659469,0.009601723543468856,-0.12237561433001722,2.5077760219573975,2019-06-21 13:07:34:438
-7.253122985839844,6.835341186523437,-0.18195654296875,0.055012793802090725,0.010400671870492626,-0.1122556021877161,2.514943838119507,2019-06-21 13:07:34:445
-7.253122985839844,6.835341186523437,-0.18195654296875,0.055012793802090725,0.010400671870492626,-0.1122556021877161,2.5177600383758545,2019-06-21 13:07:34:448
-7.280655883789063,6.816187866210937,-0.1556207275390625,0.05381437131155507,0.012930674906067903,-0.09920611284632784,2.524927854537964,2019-06-21 13:07:34:455
-7.280655883789063,6.816187866210937,-0.1556207275390625,0.05381437131155507,0.012930674906067903,-0.09920611284632784,2.5277438163757324,2019-06-21 13:07:34:458
-7.280655883789063,6.798231628417969,-0.1532265625,0.05168384243949167,0.014794887669123371,-0.0885534684860109,2.534911870956421,2019-06-21 13:07:34:465
-7.280655883789063,6.798231628417969,-0.1532265625,0.05168384243949167,0.014794887669123371,-0.0885534684860109,2.5377278327941895,2019-06-21 13:07:34:468
-7.292626708984375,6.801822875976562,-0.158014892578125,0.04968647162193225,0.016392784323170914,-0.0769687177441662,2.544895887374878,2019-06-21 13:07:34:475
-7.28783837890625,6.8102024536132815,-0.1651973876953125,0.049952787730940175,0.01612646821416299,-0.06937871279862959,2.550015926361084,2019-06-21 13:07:34:480
-7.314174194335937,6.774289978027344,-0.17118280029296876,0.04848804913139659,0.01732489070469865,-0.06391923256396714,2.554879903793335,2019-06-21 13:07:34:485
-7.318962524414062,6.758727905273437,-0.1460440673828125,0.046890152477349054,0.01732489070469865,-0.05686185567525716,2.559999942779541,2019-06-21 13:07:34:490
-7.308188781738281,6.769501647949219,-0.19273028564453124,0.04569172998681339,0.018789629304242227,-0.050470269059066986,2.564863920211792,2019-06-21 13:07:34:495
-7.285444213867187,6.807808288574218,-0.17357696533203124,0.04409383333276585,0.020653842067297694,-0.044877630769900596,2.569983959197998,2019-06-21 13:07:34:500
-7.28783837890625,6.774289978027344,-0.15921197509765625,0.04262909473322227,0.022651212884857122,-0.03955130858974212,2.574847936630249,2019-06-21 13:07:34:505
-7.28783837890625,6.768304565429688,-0.13527032470703124,0.042229620569710385,0.023450161211880892,-0.03302656391904798,2.579967975616455,2019-06-21 13:07:34:510
-7.28783837890625,6.768304565429688,-0.13527032470703124,0.04063172391566284,0.023716477320888822,-0.027700241738889506,2.584831953048706,2019-06-21 13:07:34:515
-7.312977111816406,6.771895812988281,-0.1460440673828125,0.03756908866207172,0.026246480356464093,-0.021441813177203298,2.589951992034912,2019-06-21 13:07:34:520
-7.293823791503906,6.7611220703125,-0.1364674072265625,0.03597119200802417,0.027311744792495794,-0.0147839104520052,2.594815969467163,2019-06-21 13:07:34:525
-7.28783837890625,6.7611220703125,-0.1508323974609375,0.03397381910987014,0.02944227366455918,-0.008259165781311067,2.599936008453369,2019-06-21 13:07:34:530
-7.267487976074219,6.762319152832031,-0.12928491210937498,0.031044341910782983,0.03157280253662257,-0.0002696825110733521,2.60479998588562,2019-06-21 13:07:34:535
-7.273473388671875,6.759924987792969,-0.110131591796875,0.03051170969276713,0.03317069919067011,0.005855587996108896,2.609920024871826,2019-06-21 13:07:34:540
-7.2591083984375,6.744362915039062,-0.1316790771484375,0.02904697109322355,0.032904383081662186,0.012912964884818875,2.614784002304077,2019-06-21 13:07:34:545
-7.274670471191406,6.7671074829101565,-0.071824951171875,0.02611749389413639,0.03423596362670181,0.019704025664520935,2.619904041290283,2019-06-21 13:07:34:550
-7.273473388671875,6.733589172363281,-0.0981607666015625,0.023720648913065072,0.03610017638975727,0.025962454226207143,2.62502384185791,2019-06-21 13:07:34:555
-7.251925903320313,6.755136657714844,-0.1077374267578125,0.022522226422529417,0.037564914989300854,0.03248719889690128,2.629887819290161,2019-06-21 13:07:34:560
-7.263896728515625,6.762319152832031,-0.08618994140625,0.02052485560496999,0.039029653588844436,0.039544575785611255,2.635007858276367,2019-06-21 13:07:34:565
-7.244743408203125,6.768304565429688,-0.14245281982421876,0.01919327505993037,0.04182597273342764,0.044870897965769735,2.639871835708618,2019-06-21 13:07:34:570
-7.255517150878906,6.7802753906249995,-0.12090533447265625,0.016929588133363017,0.044355975769002916,0.05126248458195991,2.644991874694824,2019-06-21 13:07:34:575
-7.260305480957031,6.77069873046875,-0.10654034423828125,0.015331691479315474,0.04555439825953857,0.05698828092563026,2.649855852127075,2019-06-21 13:07:34:580
-7.2626996459960935,6.783866638183594,-0.10175201416015625,0.013467478716260008,0.045154924096026686,0.06404565781434024,2.6549758911132812,2019-06-21 13:07:34:585
-7.2483346557617185,6.749151245117187,-0.09337243652343749,0.013334320661756046,0.046885978804578184,0.07110303886423944,2.6598398685455322,2019-06-21 13:07:34:590
-7.236363830566406,6.779078308105468,-0.07541619873046874,0.013068004552748123,0.04835071740412177,0.0764293610443979,2.6649599075317383,2019-06-21 13:07:34:595
-7.235166748046875,6.758727905273437,-0.05865704345703125,0.011603265953204541,0.05074756238519308,0.08082357684302865,2.6698238849639893,2019-06-21 13:07:34:600
-7.241152160644531,6.775487060546875,-0.07781036376953125,0.009605895135645113,0.050214930167177235,0.08721516345921883,2.6749439239501953,2019-06-21 13:07:34:605
-7.219604675292969,6.822173278808593,-0.11611700439453125,0.008274314590605495,0.05088072043969705,0.093606750075409,2.6798079013824463,2019-06-21 13:07:34:610
-7.2208017578125,6.844917846679687,-0.11252575683593749,0.008407472645109456,0.052878091257256475,0.09999833669159916,2.6849279403686523,2019-06-21 13:07:34:615
-7.21122509765625,6.852100341796874,-0.08978118896484374,0.009605895135645113,0.054076513747792126,0.10359360416320615,2.6897919178009033,2019-06-21 13:07:34:620
-7.194465942382812,6.913151550292969,-0.11372283935546874,0.009739053190149075,0.054342829856800064,0.11078413910642008,2.6949119567871094,2019-06-21 13:07:34:625
-7.216013427734375,6.921531127929687,-0.1651973876953125,0.009073262917629266,0.05567441040183968,0.1138467743600112,2.6997759342193604,2019-06-21 13:07:34:630
-7.2040426025390625,6.951458190917968,-0.15681781005859374,0.008940104863125305,0.05660651678336741,0.11797467404963403,2.7048959732055664,2019-06-21 13:07:34:635
-7.199254272460937,6.97180859375,-0.16400030517578124,0.008407472645109456,0.05660651678336741,0.12183625763024893,2.7100160121917725,2019-06-21 13:07:34:640
-7.168130126953125,6.994553161621093,-0.138861572265625,0.008806946808621341,0.0570059909468793,0.12423310261132023,2.7148799896240234,2019-06-21 13:07:34:645
-7.163341796875,7.053210205078125,-0.1532265625,0.009605895135645113,0.05687283289237533,0.1267631056468955,2.7200000286102295,2019-06-21 13:07:34:650
-7.152568054199219,7.055604370117187,-0.18195654296875,0.009872211244653038,0.057139149001383255,0.12836100230094305,2.7248640060424805,2019-06-21 13:07:34:655
-7.137005981445312,7.119049743652344,-0.1460440673828125,0.010005369299157,0.05740546511039118,0.1312904795000302,2.7299840450286865,2019-06-21 13:07:34:660
-7.1166555786132815,7.139400146484375,-0.18554779052734374,0.010404843462668885,0.05753862316489514,0.13262206004506985,2.7348480224609375,2019-06-21 13:07:34:665
-7.095108093261719,7.148976806640625,-0.18315362548828124,0.00933957902663719,0.05687283289237533,0.132089427827054,2.7399678230285645,2019-06-21 13:07:34:670
-7.060392700195313,7.201648437499999,-0.2106865234375,0.010671159571676808,0.05740546511039118,0.13142363755453418,2.7448320388793945,2019-06-21 13:07:34:675
-7.005326904296875,7.200451354980468,-0.158014892578125,0.012402214280228314,0.05620704261985553,0.13089100533651832,2.7499518394470215,2019-06-21 13:07:34:680
-7.012509399414062,7.239955078125,-0.2035040283203125,0.012535372334732276,0.05647335872886345,0.12889363451895888,2.7548158168792725,2019-06-21 13:07:34:685
-6.973005676269531,7.261502563476562,-0.191533203125,0.012668530389236238,0.05567441040183968,0.12689626370139948,2.7599358558654785,2019-06-21 13:07:34:690
-6.931107788085938,7.295020874023438,-0.19512445068359374,0.014665901206795666,0.054742304020311945,0.12356731233880043,2.7647998332977295,2019-06-21 13:07:34:695
-6.92392529296875,7.301006286621093,-0.20709527587890625,0.015065375370307551,0.054342829856800064,0.12037151903070534,2.7699198722839355,2019-06-21 13:07:34:700
-6.864071166992187,7.316568359375,-0.196321533203125,0.014000110934275858,0.052079142930232705,0.11784151599513007,2.7747838497161865,2019-06-21 13:07:34:705
-6.850903259277343,7.368042907714844,-0.17836529541015625,0.01493221731580359,0.051413352657712894,0.11344730019649932,2.7799038887023926,2019-06-21 13:07:34:710
-6.8090053710937495,7.359663330078125,-0.17836529541015625,0.015598007588323397,0.05101387849420101,0.10958571661588443,2.7850239276885986,2019-06-21 13:07:34:715
-6.803019958496094,7.375225402832031,-0.15921197509765625,0.016796430078859056,0.051413352657712894,0.10359360416320615,2.7898879051208496,2019-06-21 13:07:34:720
-6.768304565429688,7.368042907714844,-0.11851116943359374,0.0183943267329066,0.0503480882216812,0.09933254641907935,2.7950079441070557,2019-06-21 13:07:34:725
-6.755136657714844,7.370437072753906,-0.12329949951171874,0.019060117005426407,0.04875019156763366,0.09320727591189712,2.7998719215393066,2019-06-21 13:07:34:730
-6.733589172363281,7.4075466308593745,-0.191533203125,0.019592749223442257,0.04808440129511385,0.08708200540471486,2.8049919605255127,2019-06-21 13:07:34:735
-6.677326293945312,7.430291198730469,-0.14963531494140625,0.020125381441458104,0.04622018853205838,0.08108989295203657,2.8098559379577637,2019-06-21 13:07:34:740
-6.690494201660156,7.455429931640625,-0.12808782958984374,0.02278854253153734,0.04488860798701876,0.07336672579080679,2.8149759769439697,2019-06-21 13:07:34:745
-6.650990478515625,7.465006591796874,-0.1556207275390625,0.023321174749553187,0.04408965965999499,0.06604302863189968,2.8198399543762207,2019-06-21 13:07:34:750
-6.641413818359375,7.46021826171875,-0.19512445068359374,0.024120123076576964,0.04182597273342764,0.05805354536166197,2.8249599933624268,2019-06-21 13:07:34:755
-6.600713012695312,7.492539489746093,-0.19991278076171876,0.025185387512608657,0.04076070829739594,0.048732481546384626,2.8298239707946777,2019-06-21 13:07:34:760
-6.5624063720703125,7.509298645019531,-0.1723798828125,0.025851177785128465,0.039429127752356324,0.04074299827614691,2.834944009780884,2019-06-21 13:07:34:765
-6.560012207031249,7.561970275878906,-0.1604090576171875,0.025584861676120542,0.03876333747983651,0.03248719889690128,2.8398079872131348,2019-06-21 13:07:34:770
-6.5312822265624995,7.593094421386718,-0.1699857177734375,0.026650126112152235,0.03689912471678104,0.021701396482080363,2.844928026199341,2019-06-21 13:07:34:775
-6.543253051757812,7.553590698242187,-0.13048199462890625,0.02798170665719186,0.035168070008229545,0.010649277958251524,2.849792003631592,2019-06-21 13:07:34:780
-6.542055969238281,7.595488586425781,-0.10534326171875,0.027715390548183935,0.03343701529967803,0.0009287399794623051,2.854912042617798,2019-06-21 13:07:34:785
-6.485793090820312,7.553590698242187,-0.119708251953125,0.02984591942024732,0.03183911864563049,-0.009723904380854647,2.859776020050049,2019-06-21 13:07:34:790
-6.527690979003906,7.589503173828125,-0.11611700439453125,0.029446445256735437,0.030108063937078988,-0.020110232632163678,2.864895820617676,2019-06-21 13:07:34:795
-6.526493896484375,7.595488586425781,-0.114919921875,0.031044341910782983,0.02957543171906314,-0.030629718937976665,2.870015859603882,2019-06-21 13:07:34:800
-6.514523071289062,7.558379028320313,-0.1173140869140625,0.031576974128798826,0.027578060901503717,-0.04008394080775796,2.874879837036133,2019-06-21 13:07:34:805
-6.546844299316406,7.553590698242187,-0.08618994140625,0.03144381607429487,0.026379638410968055,-0.050470269059066986,2.879999876022339,2019-06-21 13:07:34:810
-6.574377197265624,7.541619873046875,-0.12090533447265625,0.03370750300086222,0.024115951484400707,-0.05979133287434433,2.88486385345459,2019-06-21 13:07:34:815
-6.583953857421875,7.509298645019531,-0.09456951904296874,0.03503908562649644,0.02331700315737693,-0.06857976447160581,2.889983892440796,2019-06-21 13:07:34:820
-6.609092590332031,7.4817657470703125,-0.1077374267578125,0.03650382422604002,0.02158594844882543,-0.07763450801668602,2.894847869873047,2019-06-21 13:07:34:825
-6.6055013427734375,7.4889482421875,-0.13527032470703124,0.03863435309810341,0.019854893740273924,-0.08655609766845146,2.899967908859253,2019-06-21 13:07:34:830
-6.613880920410156,7.463809509277343,-0.15681781005859374,0.03943330142512718,0.018523313195234304,-0.09547768732021691,2.904831886291504,2019-06-21 13:07:34:835
-6.633034240722656,7.420714538574218,-0.14245281982421876,0.0407648819701668,0.017591206813706572,-0.10226874809991898,2.90995192527771,2019-06-21 13:07:34:840
-6.653384643554688,7.400364135742187,-0.13048199462890625,0.042362778624214344,0.01612646821416299,-0.1081277024980933,2.914815902709961,2019-06-21 13:07:34:845
-6.679720458984375,7.4075466308593745,-0.1340732421875,0.04342804306024604,0.015327519887139218,-0.11491876327779536,2.919935941696167,2019-06-21 13:07:34:850
-6.701267944335937,7.409940795898438,-0.14245281982421876,0.04489278165978962,0.012264884633548094,-0.12184298211200137,2.924799919128418,2019-06-21 13:07:34:855
-6.7359833374023435,7.390787475585937,-0.12808782958984374,0.045824888041317346,0.012264884633548094,-0.12783509456467965,2.929919958114624,2019-06-21 13:07:34:860
-6.7671074829101565,7.344101257324218,-0.12329949951171874,0.046490678313837165,0.011865410470036208,-0.13182983619979852,2.934783935546875,2019-06-21 13:07:34:865
-6.758727905273437,7.339312927246094,-0.14843823242187498,0.04702331053185301,0.01053382992499659,-0.13582457783491736,2.939903974533081,2019-06-21 13:07:34:870
-6.788654968261719,7.299809204101562,-0.1532265625,0.0474227846953649,0.009601723543468856,-0.14088458390606792,2.945024013519287,2019-06-21 13:07:34:875
-6.836538269042968,7.318962524414062,-0.13527032470703124,0.04822173302238867,0.008136984943925275,-0.14474616748668281,2.949887990951538,2019-06-21 13:07:34:880
-6.862874084472656,7.280655883789063,-0.1939273681640625,0.05008594578544413,0.008270142998429236,-0.14780880274027394,2.955008029937744,2019-06-21 13:07:34:885
-6.886815734863281,7.2483346557617185,-0.12928491210937498,0.05141752633048375,0.007737510780413389,-0.1503388057758492,2.959872007369995,2019-06-21 13:07:34:890
-6.921531127929687,7.217210510253906,-0.14005865478515625,0.05301542298453129,0.007870668834917351,-0.15180354437539278,2.964992046356201,2019-06-21 13:07:34:895
-6.932304870605469,7.187283447265624,-0.14843823242187498,0.052749106875523366,0.006405930235373771,-0.15273565075692053,2.969856023788452,2019-06-21 13:07:34:900
-6.968217346191406,7.169327209472656,-0.12449658203125,0.05434700352957092,0.006672246344381694,-0.1535345990839443,2.974975824356079,2019-06-21 13:07:34:905
-6.987370666503906,7.145385559082031,-0.1268907470703125,0.05527910991109865,0.006539088289877732,-0.15433354741096808,2.979840040206909,2019-06-21 13:07:34:910
-7.014903564453125,7.1058818359375,-0.09696368408203125,0.05527910991109865,0.006405930235373771,-0.15380091519295222,2.984959840774536,2019-06-21 13:07:34:915
-7.048421875,7.0723635253906245,-0.14843823242187498,0.056078058238122425,0.005473823853846037,-0.15340144102944034,2.989823818206787,2019-06-21 13:07:34:920
-7.044830627441406,7.062786865234375,-0.14843823242187498,0.056078058238122425,0.005873298017357922,-0.15020564772134526,2.994943857192993,2019-06-21 13:07:34:925
-7.074757690429688,7.041239379882812,-0.12329949951171874,0.05701016461965015,0.007338036616901504,-0.14927354133981752,2.999807834625244,2019-06-21 13:07:34:930
-7.0735606079101565,7.024480224609375,-0.12090533447265625,0.05634437434713035,0.005473823853846037,-0.1472761705222581,3.00492787361145,2019-06-21 13:07:34:935
-7.085531433105468,7.0292685546875,-0.12449658203125,0.056477532401634306,0.006539088289877732,-0.14514564165019472,3.009791851043701,2019-06-21 13:07:34:940
-7.133414733886719,7.006523986816406,-0.0957666015625,0.056877006565146195,0.007604352725909427,-0.14354774499614717,3.0149118900299072,2019-06-21 13:07:34:945
-7.164538879394531,6.974202758789063,-0.0790074462890625,0.05780911294667392,0.007604352725909427,-0.13995247752454018,3.019775867462158,2019-06-21 13:07:34:950
-7.196860107421875,6.951458190917968,-0.1532265625,0.057675954892169964,0.0074711946714054655,-0.1356914197804134,3.0248959064483643,2019-06-21 13:07:34:955
-7.180100952148437,6.934699035644531,-0.16400030517578124,0.056078058238122425,0.006938562453389618,-0.13316141674483814,3.0300159454345703,2019-06-21 13:07:34:960
-7.216013427734375,6.921531127929687,-0.14843823242187498,0.05740963878316204,0.008003826889421313,-0.1279682526191836,3.0348799228668213,2019-06-21 13:07:34:965
-7.227984252929687,6.901180725097656,-0.12210241699218749,0.05661069045613827,0.008669617161941121,-0.12370719487505684,3.0399999618530273,2019-06-21 13:07:34:970
-7.227984252929687,6.8832244873046875,-0.1412557373046875,0.05701016461965015,0.008935933270949046,-0.1193129790764261,3.0448639392852783,2019-06-21 13:07:34:975
-7.24953173828125,6.889209899902344,-0.12928491210937498,0.056877006565146195,0.010400671870492626,-0.11465244716878743,3.0499839782714844,2019-06-21 13:07:34:980
-7.245940490722656,6.84731201171875,-0.1891390380859375,0.05514595185659469,0.010001197706980741,-0.10866033471610914,3.0548479557037354,2019-06-21 13:07:34:985
-7.2591083984375,6.871253662109375,-0.1939273681640625,0.05527910991109865,0.01053382992499659,-0.10360032864495859,3.0599679946899414,2019-06-21 13:07:34:990
-7.243546325683593,6.858085754394531,-0.16759155273437498,0.05527910991109865,0.011599094361028284,-0.09787453230128822,3.0648319721221924,2019-06-21 13:07:34:995
-7.271079223632812,6.822173278808593,-0.12090533447265625,0.05394752936605903,0.01266435879705998,-0.09188241984860994,3.0699520111083984,2019-06-21 13:07:35:000
-7.275867553710937,6.820976196289062,-0.1340732421875,0.05301542298453129,0.012264884633548094,-0.08682241377745939,3.0748159885406494,2019-06-21 13:07:35:005
-7.280655883789063,6.8245674438476565,-0.16639447021484374,0.05248279076651544,0.01266435879705998,-0.08056398521577318,3.0799360275268555,2019-06-21 13:07:35:010
-7.274670471191406,6.8090053710937495,-0.1316790771484375,0.05168384243949167,0.014928045723627333,-0.07337345027255923,3.0848000049591064,2019-06-21 13:07:35:015
-7.257911315917968,6.804217041015625,-0.12449658203125,0.050352261894452056,0.014528571560115446,-0.06724818392656619,3.0899200439453125,2019-06-21 13:07:35:020
-7.308188781738281,6.801822875976562,-0.1460440673828125,0.04942015551292433,0.015860152105155068,-0.060323965092360175,3.0947840213775635,2019-06-21 13:07:35:025
-7.2914296264648435,6.792246215820312,-0.15681781005859374,0.04768910080437282,0.017857522922714496,-0.053532904312658114,3.0999038219451904,2019-06-21 13:07:35:030
-7.254320068359375,6.798231628417969,-0.14843823242187498,0.046490678313837165,0.018656471249738266,-0.04780710796898775,3.1050238609313965,2019-06-21 13:07:35:035
-7.27826171875,6.811399536132813,-0.14484698486328124,0.04436014944177377,0.020121209849281847,-0.04208131162531739,3.1098878383636475,2019-06-21 13:07:35:040
-7.285444213867187,6.807808288574218,-0.11851116943359374,0.042362778624214344,0.021319632339817506,-0.03555656695462326,3.1150078773498535,2019-06-21 13:07:35:045
-7.266290893554688,6.81858203125,-0.14484698486328124,0.04129751418818265,0.022917528993865045,-0.028898664229425164,3.1198718547821045,2019-06-21 13:07:35:050
-7.28783837890625,6.826961608886719,-0.12449658203125,0.03930014337062322,0.024115951484400707,-0.021841287340715183,3.1249918937683105,2019-06-21 13:07:35:055
-7.2483346557617185,6.807808288574218,-0.110131591796875,0.03663698228054398,0.026512796465472017,-0.016381807106052745,3.1298558712005615,2019-06-21 13:07:35:060
-7.253122985839844,6.793443298339843,-0.08978118896484374,0.03450645132788599,0.027045428683487863,-0.010256536598870495,3.1349759101867676,2019-06-21 13:07:35:065
-7.245940490722656,6.7814724731445315,-0.14843823242187498,0.031976448292310715,0.02864332533753541,-0.004131266091688247,3.1398398876190186,2019-06-21 13:07:35:070
-7.242349243164062,6.801822875976562,-0.158014892578125,0.02984591942024732,0.03143964448211861,0.001061898033966267,3.1449599266052246,2019-06-21 13:07:35:075
-7.247137573242187,6.8102024536132815,-0.10534326171875,0.027715390548183935,0.03370333140868596,0.007320326595652477,3.1498239040374756,2019-06-21 13:07:35:080
-7.24953173828125,6.806611206054687,-0.12569366455078124,0.025584861676120542,0.03649965055326916,0.014111387375354533,3.1549439430236816,2019-06-21 13:07:35:085
-7.250728820800781,6.8090053710937495,-0.1077374267578125,0.024386439185584887,0.037564914989300854,0.01930455150100905,3.1598079204559326,2019-06-21 13:07:35:090
-7.247137573242187,6.793443298339843,-0.100554931640625,0.022389068368025455,0.038230705261820666,0.025562980062695258,3.1649279594421387,2019-06-21 13:07:35:095
-7.266290893554688,6.776684143066406,-0.1316790771484375,0.020924329768481874,0.04062755024289198,0.03195456667888543,3.1697919368743896,2019-06-21 13:07:35:100
-7.226787170410156,6.768304565429688,-0.12329949951171874,0.020924329768481874,0.04062755024289198,0.03195456667888543,3.1749119758605957,2019-06-21 13:07:35:105
-7.242349243164062,6.7814724731445315,-0.14484698486328124,0.020258539495962066,0.04222544689693952,0.038745627458587485,3.1797759532928467,2019-06-21 13:07:35:110
-7.24953173828125,6.8090053710937495,-0.10414617919921874,0.017329062296874902,0.043690185496483104,0.044870897965769735,3.1848959922790527,2019-06-21 13:07:35:115
-7.241152160644531,6.816187866210937,-0.09217535400390625,0.015331691479315474,0.043690185496483104,0.051795116799975754,3.190016031265259,2019-06-21 13:07:35:120
-7.225590087890625,6.830552856445312,-0.09935784912109374,0.01493221731580359,0.045953872423050456,0.057787229252654046,3.1948800086975098,2019-06-21 13:07:35:125
-7.21122509765625,6.859282836914062,-0.10534326171875,0.014532743152291704,0.04635334658656234,0.06311355143281251,3.200000047683716,2019-06-21 13:07:35:130
-7.225590087890625,6.873647827148437,-0.09696368408203125,0.012668530389236238,0.04848387545862574,0.06990461637370377,3.204864025115967,2019-06-21 13:07:35:135
-7.202845520019531,6.8760419921875,-0.1412557373046875,0.011603265953204541,0.050214930167177235,0.07523093855386224,3.2099838256835938,2019-06-21 13:07:35:140
-7.208830932617188,6.901180725097656,-0.13527032470703124,0.010937475680684733,0.050614404330689124,0.07935883824348508,3.214848041534424,2019-06-21 13:07:35:145
-7.187283447265624,6.908363220214843,-0.14005865478515625,0.011336949844196618,0.05101387849420101,0.08361989598761185,3.219967842102051,2019-06-21 13:07:35:150
-7.133414733886719,6.946669860839844,-0.16759155273437498,0.010138527353660961,0.05167966876672082,0.08774779567723467,3.2248318195343018,2019-06-21 13:07:35:155
-7.147779724121094,7.017297729492188,-0.13527032470703124,0.008407472645109456,0.05394335569328817,0.09107674703983372,3.229951858520508,2019-06-21 13:07:35:160
-7.177706787109375,6.992158996582031,-0.11372283935546874,0.00867378875411738,0.05580756845634364,0.09507148867495258,3.234815835952759,2019-06-21 13:07:35:165
-7.162144714355469,7.011312316894531,-0.12210241699218749,0.008407472645109456,0.05687283289237533,0.09840044003755162,3.239935874938965,2019-06-21 13:07:35:170
-7.147779724121094,7.062786865234375,-0.16759155273437498,0.008274314590605495,0.05607388456535156,0.10079728501862294,3.244799852371216,2019-06-21 13:07:35:175
-7.126232238769531,7.071166442871093,-0.114919921875,0.009472737081141151,0.05793809732840703,0.10292781389068634,3.249919891357422,2019-06-21 13:07:35:180
-7.099896423339843,7.103487670898438,-0.1173140869140625,0.00867378875411738,0.05740546511039118,0.10519150081725369,3.254783868789673,2019-06-21 13:07:35:185
-7.081940185546875,7.103487670898438,-0.16878863525390625,0.00933957902663719,0.05793809732840703,0.10705571358030916,3.259903907775879,2019-06-21 13:07:35:190
-7.0579985351562495,7.127429321289062,-0.1939273681640625,0.009605895135645113,0.057804939273903067,0.1069225555258052,3.265023946762085,2019-06-21 13:07:35:195
-7.050816040039062,7.1896776123046875,-0.1364674072265625,0.010671159571676808,0.057804939273903067,0.10732202968931707,3.269887924194336,2019-06-21 13:07:35:200
-7.007721069335937,7.184889282226562,-0.1604090576171875,0.011336949844196618,0.058204413437414955,0.10665623941679726,3.275007963180542,2019-06-21 13:07:35:205
-6.950261108398437,7.2327725830078125,-0.1987156982421875,0.010937475680684733,0.05847072954642288,0.10599044914427745,3.279871940612793,2019-06-21 13:07:35:210
-6.955049438476562,7.201648437499999,-0.1747740478515625,0.011070633735188695,0.05807125538291099,0.10372676221771011,3.284991979598999,2019-06-21 13:07:35:215
-6.932304870605469,7.235166748046875,-0.1556207275390625,0.01147010789870058,0.05647335872886345,0.10266149778167842,3.28985595703125,2019-06-21 13:07:35:220
-6.932304870605469,7.260305480957031,-0.13048199462890625,0.01213589817122039,0.05620704261985553,0.10093044307312689,3.294975996017456,2019-06-21 13:07:35:225
-6.861677001953125,7.27826171875,-0.16400030517578124,0.012402214280228314,0.05660651678336741,0.09786780781953577,3.299839973449707,2019-06-21 13:07:35:230
-6.865268249511718,7.286641296386718,-0.18554779052734374,0.012934846498244161,0.05607388456535156,0.09493833062044861,3.304960012435913,2019-06-21 13:07:35:235
-6.826961608886719,7.3357216796874996,-0.16759155273437498,0.013467478716260008,0.05500862012931987,0.09160937925784957,3.309823989868164,2019-06-21 13:07:35:240
-6.801822875976562,7.360860412597656,-0.16878863525390625,0.015198533424811513,0.053677039584280245,0.08881306011326637,3.31494402885437,2019-06-21 13:07:35:245
-6.8401295166015625,7.338115844726563,-0.1651973876953125,0.014665901206795666,0.05247861709374459,0.08441884431463563,3.319808006286621,2019-06-21 13:07:35:250
-6.797034545898438,7.362057495117187,-0.16280322265625,0.015731165642827363,0.05181282682122478,0.079625154352493,3.324928045272827,2019-06-21 13:07:35:255
-6.797034545898438,7.328539184570312,-0.12329949951171874,0.015864323697331324,0.05074756238519308,0.0764293610443979,3.329792022705078,2019-06-21 13:07:35:260
-6.7802753906249995,7.333327514648437,-0.16160614013671876,0.017861694514890752,0.04914966573114554,0.07030409053721566,3.334911823272705,2019-06-21 13:07:35:265
-6.773092895507812,7.357269165039062,-0.20470111083984374,0.0183943267329066,0.04848387545862574,0.06511092225037195,3.339776039123535,2019-06-21 13:07:35:270
-6.7515454101562495,7.376422485351562,-0.1891390380859375,0.01919327505993037,0.04568755631404253,0.061116180615253084,3.344895839691162,2019-06-21 13:07:35:275
-6.7216183471679685,7.3931816406249995,-0.1460440673828125,0.020791171713977912,0.04302439522396329,0.05592301648959857,3.350015878677368,2019-06-21 13:07:35:280
-6.685705871582031,7.366845825195313,-0.1412557373046875,0.022122752259017532,0.04062755024289198,0.05033037820043218,3.354879856109619,2019-06-21 13:07:35:285
-6.63662548828125,7.429094116210937,-0.12569366455078124,0.02345433280405715,0.038230705261820666,0.04407194963874596,3.359999895095825,2019-06-21 13:07:35:290
-6.6641583862304685,7.447050354003906,-0.1268907470703125,0.02385380696756904,0.03649965055326916,0.03701457275003598,3.364863872528076,2019-06-21 13:07:35:295
-6.628245910644531,7.455429931640625,-0.1412557373046875,0.02545170362161658,0.035567544171741426,0.03048982807934185,3.3699839115142822,2019-06-21 13:07:35:300
-6.612683837890625,7.4231087036132815,-0.09935784912109374,0.026516968057648273,0.033969647517693886,0.02303297702711998,3.374847888946533,2019-06-21 13:07:35:305
-6.633034240722656,7.4362766113281245,-0.090978271484375,0.028514338875207705,0.03157280253662257,0.01597560013841,3.3799679279327393,2019-06-21 13:07:35:310
-6.616275085449218,7.473386169433594,-0.11132867431640625,0.029979077474751283,0.030640696155094835,0.007986116868172285,3.3848319053649902,2019-06-21 13:07:35:315
-6.599515930175781,7.493736572265624,-0.119708251953125,0.03224276440131864,0.030108063937078988,-0.000402840565577314,3.3899519443511963,2019-06-21 13:07:35:320
-6.583953857421875,7.506904479980468,-0.10893450927734374,0.03171013218330279,0.030108063937078988,-0.009990220489862572,3.3948159217834473,2019-06-21 13:07:35:325
-6.606698425292969,7.461415344238281,-0.090978271484375,0.031044341910782983,0.02877648339203937,-0.01678128126956463,3.3999359607696533,2019-06-21 13:07:35:330
-6.610289672851563,7.430291198730469,-0.0957666015625,0.03330802883735033,0.027444902846999755,-0.023971816212778572,3.4047999382019043,2019-06-21 13:07:35:335
-6.66535546875,7.459021179199219,-0.0957666015625,0.03397381910987014,0.0251812159204324,-0.03249393170103213,3.4099199771881104,2019-06-21 13:07:35:340
-6.6641583862304685,7.465006591796874,-0.11611700439453125,0.036104350062528136,0.024648583702416554,-0.04101604718928569,3.4147839546203613,2019-06-21 13:07:35:345
-6.677326293945312,7.449444519042968,-0.15442364501953124,0.03503908562649644,0.021852264557833352,-0.048073424077995676,3.4199039936065674,2019-06-21 13:07:35:350
-6.682114624023438,7.417123291015625,-0.13527032470703124,0.036104350062528136,0.020653842067297694,-0.054997642912201695,3.4250240325927734,2019-06-21 13:07:35:355
-6.734786254882812,7.391984558105468,-0.12928491210937498,0.03743593060756775,0.020787000121801655,-0.06098975536487998,3.4298880100250244,2019-06-21 13:07:35:360
-6.672537963867187,7.352480834960938,-0.16400030517578124,0.0379685628255836,0.020520684012793732,-0.06764765809007808,3.4350080490112305,2019-06-21 13:07:35:365
-6.691691284179687,7.324947937011719,-0.2418106689453125,0.03756908866207172,0.017990680977218457,-0.07284081805454339,3.4398720264434814,2019-06-21 13:07:35:370
-6.729997924804687,7.3943787231445315,-0.11132867431640625,0.04089804002467076,0.019189103467754116,-0.07830029828920583,3.4449918270111084,2019-06-21 13:07:35:375
-6.798231628417969,7.3644516601562495,-0.07421911621093749,0.04103119807917473,0.018390155140730342,-0.0829608301968445,3.4498560428619385,2019-06-21 13:07:35:380
-6.813793701171875,7.333327514648437,-0.24779608154296875,0.04089804002467076,0.01745804875920261,-0.08695557183196335,3.4549758434295654,2019-06-21 13:07:35:385
-6.769501647949219,7.284247131347656,-0.177168212890625,0.04329488500574208,0.016392784323170914,-0.09268136817563372,3.4598398208618164,2019-06-21 13:07:35:390
-6.82815869140625,7.280655883789063,-0.01556207275390625,0.043827517223757925,0.013063832960571866,-0.09640979370174464,3.4649598598480225,2019-06-21 13:07:35:395
-6.829355773925781,7.2770646362304685,-0.07541619873046874,0.04436014944177377,0.014528571560115446,-0.09947242895533576,3.4698238372802734,2019-06-21 13:07:35:400
-6.8544945068359375,7.260305480957031,-0.1556207275390625,0.04662383636834113,0.014395413505611484,-0.1014697997728952,3.4749438762664795,2019-06-21 13:07:35:405
-6.898786560058594,7.275867553710937,-0.110131591796875,0.048088574967884705,0.01266435879705998,-0.10360032864495859,3.4798078536987305,2019-06-21 13:07:35:410
-6.913151550292969,7.243546325683593,-0.0598541259765625,0.04635752025933321,0.012264884633548094,-0.10613033168053386,3.4849278926849365,2019-06-21 13:07:35:415
-6.90477197265625,7.190874694824219,-0.14245281982421876,0.048088574967884705,0.012264884633548094,-0.1094592830431329,3.4897918701171875,2019-06-21 13:07:35:420
-6.905969055175781,7.1753126220703125,-0.21188360595703123,0.04862120718590056,0.01266435879705998,-0.11079086358817253,3.4949119091033936,2019-06-21 13:07:35:425
-6.938290283203125,7.199254272460937,-0.1173140869140625,0.050352261894452056,0.011199620197516398,-0.11079086358817253,3.4997758865356445,2019-06-21 13:07:35:430
-6.9562465209960935,7.170524291992187,-0.10294909667968749,0.05048541994895602,0.011599094361028284,-0.11265507635122798,3.5048959255218506,2019-06-21 13:07:35:435
-6.927516540527344,7.187283447265624,-0.19273028564453124,0.05048541994895602,0.010933304088508474,-0.11265507635122798,3.5100159645080566,2019-06-21 13:07:35:440
-6.976596923828125,7.193268859863281,-0.17836529541015625,0.05048541994895602,0.011465936306524323,-0.11292139246023591,3.5148799419403076,2019-06-21 13:07:35:445
-6.9849765014648435,7.196860107421875,-0.090978271484375,0.05101805216697187,0.011599094361028284,-0.11372034078725969,3.5199999809265137,2019-06-21 13:07:35:450
-6.995750244140625,7.171721374511718,-0.10414617919921874,0.04968647162193225,0.011732252415532246,-0.11372034078725969,3.5248639583587646,2019-06-21 13:07:35:455
-7.0280714721679685,7.151370971679687,-0.14843823242187498,0.05101805216697187,0.011998568524540171,-0.11278823440573195,3.5299839973449707,2019-06-21 13:07:35:460
-6.988567749023438,7.1465826416015625,-0.10534326171875,0.05101805216697187,0.011998568524540171,-0.11318770856924384,3.5348479747772217,2019-06-21 13:07:35:465
-7.0280714721679685,7.145385559082031,-0.12569366455078124,0.05061857800345998,0.011998568524540171,-0.11198928607870819,3.5399680137634277,2019-06-21 13:07:35:470
-7.014903564453125,7.117852661132813,-0.16878863525390625,0.051550684384987715,0.012797516851563941,-0.11212244413321214,3.5448319911956787,2019-06-21 13:07:35:475
-7.056801452636718,7.1154584960937495,-0.1532265625,0.05061857800345998,0.013063832960571866,-0.11172296996970026,3.5499520301818848,2019-06-21 13:07:35:480
-7.074757690429688,7.121443908691406,-0.13048199462890625,0.05061857800345998,0.013729623233091676,-0.11119033775168441,3.5548160076141357,2019-06-21 13:07:35:485
-7.07715185546875,7.095108093261719,-0.14963531494140625,0.05048541994895602,0.014661729614619408,-0.11012507331565272,3.559936046600342,2019-06-21 13:07:35:490
-7.0723635253906245,7.074757690429688,-0.1532265625,0.05008594578544413,0.015061203778131294,-0.10866033471610914,3.5648000240325928,2019-06-21 13:07:35:495
-7.110670166015625,7.093911010742187,-0.14245281982421876,0.0502191038399481,0.015327519887139218,-0.10692928000755764,3.5699198246002197,2019-06-21 13:07:35:500
-7.117852661132813,7.0675751953125,-0.17597113037109374,0.050352261894452056,0.016525942377674876,-0.1053313833535101,3.57478404045105,2019-06-21 13:07:35:505
-7.083137268066406,7.052013122558594,-0.19033612060546876,0.049952787730940175,0.016525942377674876,-0.10306769642694275,3.5799038410186768,2019-06-21 13:07:35:510
-7.104684753417969,7.012509399414062,-0.1316790771484375,0.049553313567428287,0.01599331015965903,-0.10133664171839124,3.585023880004883,2019-06-21 13:07:35:515
-7.108276000976562,7.031662719726563,-0.14245281982421876,0.049553313567428287,0.01612646821416299,-0.09987190311884767,3.589887857437134,2019-06-21 13:07:35:520
-7.1166555786132815,7.014903564453125,-0.15681781005859374,0.04848804913139659,0.01546067794164318,-0.09747505813777634,3.59500789642334,2019-06-21 13:07:35:525
-7.123838073730469,7.002932739257813,-0.1651973876953125,0.046890152477349054,0.017191732650194684,-0.0948118970476971,3.599871873855591,2019-06-21 13:07:35:530
-7.085531433105468,6.993356079101562,-0.1268907470703125,0.047289626640860935,0.01745804875920261,-0.09228189401212182,3.604991912841797,2019-06-21 13:07:35:535
-7.0867285156249995,6.977794006347656,-0.14364990234375,0.046490678313837165,0.01812383903172242,-0.09001820708555448,3.609855890274048,2019-06-21 13:07:35:540
-7.104684753417969,6.967020263671875,-0.138861572265625,0.04635752025933321,0.017857522922714496,-0.08828715237700296,3.614975929260254,2019-06-21 13:07:35:545
-7.123838073730469,6.97180859375,-0.13287615966796876,0.04555857193230942,0.01945541957676204,-0.0853576751779158,3.619839906692505,2019-06-21 13:07:35:550
-7.123838073730469,6.931107788085938,-0.12329949951171874,0.043827517223757925,0.019588577631266,-0.08229503992432469,3.624959945678711,2019-06-21 13:07:35:555
-7.133414733886719,6.940684448242187,-0.1556207275390625,0.04289541084223019,0.018390155140730342,-0.0790992466162296,3.629823923110962,2019-06-21 13:07:35:560
-7.151370971679687,6.950261108398437,-0.17118280029296876,0.04249593667871831,0.018789629304242227,-0.07603661136263848,3.634943962097168,2019-06-21 13:07:35:565
-7.162144714355469,6.944275695800781,-0.17357696533203124,0.04262909473322227,0.02038752595828977,-0.07204186972751961,3.639807939529419,2019-06-21 13:07:35:570
-7.170524291992187,6.934699035644531,-0.18075946044921876,0.0418301464061985,0.02038752595828977,-0.06951187085313354,3.644927978515625,2019-06-21 13:07:35:575
-7.158553466796874,6.917939880371094,-0.14724114990234374,0.04023224975215095,0.021186474285313544,-0.06538397116351072,3.649791955947876,2019-06-21 13:07:35:580
-7.156159301757812,6.919136962890625,-0.1364674072265625,0.03916698531611926,0.021452790394321467,-0.061921861746407715,3.654911994934082,2019-06-21 13:07:35:585
-7.205239685058594,6.890406982421875,-0.119708251953125,0.03850119504359945,0.0223848967758492,-0.05819343622029679,3.659775972366333,2019-06-21 13:07:35:590
-7.183692199707031,6.905969055175781,-0.16400030517578124,0.0379685628255836,0.022251738721345237,-0.05606290734823339,3.664896011352539,2019-06-21 13:07:35:595
-7.152568054199219,6.910757385253906,-0.13287615966796876,0.03677014033504794,0.022917528993865045,-0.051136059331586804,3.670016050338745,2019-06-21 13:07:35:600
-7.164538879394531,6.915545715332031,-0.10654034423828125,0.03597119200802417,0.023450161211880892,-0.046608685478452094,3.674880027770996,2019-06-21 13:07:35:605
-7.154962219238281,6.90477197265625,-0.12329949951171874,0.03477276743689391,0.024515425647912592,-0.04288025995234116,3.679999828338623,2019-06-21 13:07:35:610
-7.1609476318359375,6.893998229980468,-0.1316790771484375,0.0341069771643741,0.025447532029440324,-0.039950782753254,3.684864044189453,2019-06-21 13:07:35:615
