ACCELEROMETER X (m/s²),ACCELEROMETER Y (m/s²),ACCELEROMETER Z (m/s²),GYROSCOPE X (rad/s),GYROSCOPE Y (rad/s),GYROSCOPE Z (rad/s),Time since start in ms ,YYYY-MO-DD HH-MI-SS_SSS
-8.615402893066406,-2.9196842651367185,1.1934912719726563,0.0327755443415512,0.04262740945159495,0.016916854894401076,0.0,2019-06-20 15:06:36:461
-8.618994140625,-2.9316550903320313,1.1875058593749999,0.03250922823254328,0.0420947772335791,0.017316329057912964,0.004864215850830078,2019-06-20 15:06:36:466
-8.646527038574218,-2.925669677734375,1.2102504272460937,0.03210975406903139,0.04049688057953156,0.01771580322142485,0.009984016418457031,2019-06-20 15:06:36:471
-8.6381474609375,-2.9304580078124998,1.2258125,0.03250922823254328,0.041562145015563254,0.017316329057912964,0.01484823226928711,2019-06-20 15:06:36:476
-8.629767883300781,-2.9316550903320313,1.2198270874023438,0.031177647687503654,0.041562145015563254,0.01651738073088919,0.019968032836914062,2019-06-20 15:06:36:481
-8.601037902832031,-2.910107604980469,1.1899000244140625,0.03317501850506309,0.039964248361515714,0.017582645166920888,0.02483201026916504,2019-06-20 15:06:36:486
-8.60941748046875,-2.9196842651367185,1.2138416748046874,0.03344133461407101,0.040763196688539484,0.016650538785393153,0.029952049255371094,2019-06-20 15:06:36:491
-8.615402893066406,-2.925669677734375,1.182717529296875,0.033840808777582894,0.040763196688539484,0.015318958240353535,0.03481602668762207,2019-06-20 15:06:36:496
-8.618994140625,-2.94003466796875,1.1695496215820311,0.03437344099559874,0.040630038634035526,0.015851590458369383,0.039936065673828125,2019-06-20 15:06:36:501
-8.642935791015624,-2.9615821533203124,1.153987548828125,0.03330817655956705,0.04129582890655533,0.017316329057912964,0.0448000431060791,2019-06-20 15:06:36:506
-8.623782470703125,-2.9304580078124998,1.1875058593749999,0.033707650723078936,0.03943161614349987,0.01638422267638523,0.049920082092285156,2019-06-20 15:06:36:511
-8.654906616210937,-2.9328521728515624,1.1695496215820311,0.03410712488659082,0.040763196688539484,0.01638422267638523,0.05478405952453613,2019-06-20 15:06:36:516
-8.66687744140625,-2.9172901000976563,1.1647612915039063,0.03317501850506309,0.039964248361515714,0.015984748512873345,0.05990409851074219,2019-06-20 15:06:36:521
-8.641738708496094,-2.910107604980469,1.1910971069335938,0.0327755443415512,0.03916530003449194,0.01638422267638523,0.06476807594299316,2019-06-20 15:06:36:526
-8.653709533691407,-2.9041221923828124,1.1731408691406249,0.03237607017803931,0.038898983925484014,0.015585274349361458,0.06988811492919922,2019-06-20 15:06:36:531
-8.615402893066406,-2.912501770019531,1.21623583984375,0.03317501850506309,0.03916530003449194,0.015585274349361458,0.0747520923614502,2019-06-20 15:06:36:536
-8.616599975585938,-2.90172802734375,1.2377833251953125,0.03250922823254328,0.03849950976197213,0.014520009913329761,0.07987213134765625,2019-06-20 15:06:36:541
-8.646527038574218,-2.9041221923828124,1.201870849609375,0.03171027990551951,0.038765825870980056,0.014919484076841646,0.0849921703338623,2019-06-20 15:06:36:546
-8.616599975585938,-2.9089105224609373,1.1875058593749999,0.031843437960023466,0.03903214197998798,0.01305527131378618,0.08985614776611328,2019-06-20 15:06:36:551
-8.639344543457032,-2.893348449707031,1.2030679321289062,0.03397396683208686,0.03863266781647609,0.013321587422794106,0.09497618675231934,2019-06-20 15:06:36:556
-8.622585388183593,-2.9232755126953123,1.2186300048828125,0.033707650723078936,0.03943161614349987,0.013721061586305991,0.09984016418457031,2019-06-20 15:06:36:561
-8.617797058105468,-2.9113046875,1.1707467041015625,0.0327755443415512,0.03969793225250779,0.01305527131378618,0.10496020317077637,2019-06-20 15:06:36:566
-8.62857080078125,-2.9316550903320313,1.1683525390625,0.032642386287047236,0.03863266781647609,0.011856848823250525,0.10982418060302734,2019-06-20 15:06:36:571
-8.607023315429688,-2.9184871826171874,1.1599729614257812,0.03250922823254328,0.03969793225250779,0.011590532714242601,0.1149442195892334,2019-06-20 15:06:36:576
-8.617797058105468,-2.9148959350585937,1.1887029418945312,0.030511857414983846,0.03916530003449194,0.011590532714242601,0.11980819702148438,2019-06-20 15:06:36:581
-8.601037902832031,-2.9089105224609373,1.1791262817382813,0.031044489632999692,0.03863266781647609,0.011856848823250525,0.12492823600769043,2019-06-20 15:06:36:586
-8.608220397949218,-2.9292609252929687,1.2066591796875,0.03157712185101554,0.03823319365296421,0.012788955204778256,0.1297922134399414,2019-06-20 15:06:36:591
-8.587869995117188,-2.9089105224609373,1.1659583740234374,0.03237607017803931,0.03916530003449194,0.01225632298676241,0.13491201400756836,2019-06-20 15:06:36:596
-8.613008728027344,-2.9184871826171874,1.1755350341796875,0.03197659601452743,0.03836635170746817,0.01145737465973864,0.13977622985839844,2019-06-20 15:06:36:601
-8.617797058105468,-2.907713439941406,1.1707467041015625,0.03091133157849573,0.037301087271436474,0.011856848823250525,0.1448960304260254,2019-06-20 15:06:36:606
-8.617797058105468,-2.907713439941406,1.1611700439453125,0.030511857414983846,0.038765825870980056,0.010791584387218828,0.14976000785827637,2019-06-20 15:06:36:611
-8.636950378417968,-2.9304580078124998,1.2102504272460937,0.030378699360479884,0.03903214197998798,0.011590532714242601,0.15488004684448242,2019-06-20 15:06:36:616
-8.615402893066406,-2.912501770019531,1.201870849609375,0.029846067142464038,0.03770056143494836,0.011990006877754486,0.16000008583068848,2019-06-20 15:06:36:621
-8.602234985351563,-2.9136988525390626,1.192294189453125,0.031443963796511584,0.038765825870980056,0.013321587422794106,0.16486406326293945,2019-06-20 15:06:36:626
-8.608220397949218,-2.9280638427734376,1.1863087768554688,0.031843437960023466,0.038100035598460244,0.011990006877754486,0.1699841022491455,2019-06-20 15:06:36:631
-8.60941748046875,-2.9328521728515624,1.1946883544921876,0.031044489632999692,0.03836635170746817,0.011324216605234675,0.17484807968139648,2019-06-20 15:06:36:636
-8.624979553222657,-2.92088134765625,1.2054620971679688,0.031443963796511584,0.03916530003449194,0.011856848823250525,0.17996811866760254,2019-06-20 15:06:36:641
-8.629767883300781,-2.9328521728515624,1.2042650146484375,0.031177647687503654,0.038898983925484014,0.012123164932258448,0.18483209609985352,2019-06-20 15:06:36:646
-8.633359130859375,-2.9113046875,1.2090533447265626,0.031044489632999692,0.03836635170746817,0.012123164932258448,0.18995213508605957,2019-06-20 15:06:36:651
-8.621388305664063,-2.9340492553710935,1.230600830078125,0.032242912123535354,0.03943161614349987,0.011191058550730713,0.19481611251831055,2019-06-20 15:06:36:656
-8.621388305664063,-2.9184871826171874,1.1958854370117187,0.03171027990551951,0.03849950976197213,0.011856848823250525,0.1999361515045166,2019-06-20 15:06:36:661
-8.60941748046875,-2.9436259155273437,1.1994766845703124,0.030645015469487807,0.038765825870980056,0.01145737465973864,0.20480012893676758,2019-06-20 15:06:36:666
-8.608220397949218,-2.983129638671875,1.2174329223632812,0.029979225196968,0.038898983925484014,0.012123164932258448,0.20992016792297363,2019-06-20 15:06:36:671
-8.62857080078125,-2.9424288330078125,1.182717529296875,0.03077817352399177,0.038100035598460244,0.011191058550730713,0.2147841453552246,2019-06-20 15:06:36:676
-8.604629150390625,-2.9328521728515624,1.2174329223632812,0.032242912123535354,0.03770056143494836,0.011324216605234675,0.21990418434143066,2019-06-20 15:06:36:681
-8.60941748046875,-2.9448229980468748,1.1982796020507813,0.03157712185101554,0.03770056143494836,0.011590532714242601,0.22476816177368164,2019-06-20 15:06:36:686
-8.597446655273437,-2.938837585449219,1.21623583984375,0.031177647687503654,0.03823319365296421,0.011324216605234675,0.2298882007598877,2019-06-20 15:06:36:691
-8.634556213378906,-2.9316550903320313,1.163564208984375,0.031843437960023466,0.03783371948945232,0.01225632298676241,0.23500800132751465,2019-06-20 15:06:36:696
-8.62019122314453,-2.9436259155273437,1.19708251953125,0.031177647687503654,0.03823319365296421,0.01305527131378618,0.23987221717834473,2019-06-20 15:06:36:701
-8.621388305664063,-2.9232755126953123,1.1899000244140625,0.03131080574200762,0.03916530003449194,0.011990006877754486,0.24499201774597168,2019-06-20 15:06:36:706
-8.633359130859375,-2.9316550903320313,1.1994766845703124,0.03077817352399177,0.03943161614349987,0.012655797150274295,0.24985623359680176,2019-06-20 15:06:36:711
-8.598643737792969,-2.9005309448242187,1.1887029418945312,0.031044489632999692,0.03916530003449194,0.012123164932258448,0.2549760341644287,2019-06-20 15:06:36:716
-8.615402893066406,-2.9567938232421875,1.1887029418945312,0.030378699360479884,0.03903214197998798,0.011191058550730713,0.2598400115966797,2019-06-20 15:06:36:721
-8.611811645507812,-2.9627792358398435,1.1946883544921876,0.03210975406903139,0.03863266781647609,0.009992636060195056,0.26496005058288574,2019-06-20 15:06:36:726
-8.60941748046875,-2.9448229980468748,1.153987548828125,0.031443963796511584,0.0375674033804444,0.010392110223706943,0.2698240280151367,2019-06-20 15:06:36:731
-8.605826232910156,-2.9472171630859374,1.1910971069335938,0.03210975406903139,0.03849950976197213,0.011324216605234675,0.2749440670013428,2019-06-20 15:06:36:736
-8.627373718261719,-2.9232755126953123,1.221024169921875,0.031044489632999692,0.03943161614349987,0.012389481041266371,0.27980804443359375,2019-06-20 15:06:36:741
-8.629767883300781,-2.9304580078124998,1.1611700439453125,0.030245541305975922,0.0392984580889959,0.013188429368290141,0.2849280834197998,2019-06-20 15:06:36:746
-8.5998408203125,-2.94003466796875,1.17792919921875,0.031177647687503654,0.03903214197998798,0.012123164932258448,0.2897920608520508,2019-06-20 15:06:36:751
-8.617797058105468,-2.9687646484375,1.1946883544921876,0.03250922823254328,0.038765825870980056,0.011856848823250525,0.29491209983825684,2019-06-20 15:06:36:756
-8.601037902832031,-2.953202575683594,1.1659583740234374,0.031843437960023466,0.03863266781647609,0.011990006877754486,0.2997760772705078,2019-06-20 15:06:36:761
-8.617797058105468,-2.94003466796875,1.1875058593749999,0.033041860450559124,0.040630038634035526,0.012123164932258448,0.30489611625671387,2019-06-20 15:06:36:766
-8.602234985351563,-2.9196842651367185,1.1707467041015625,0.03237607017803931,0.04023056447052364,0.01225632298676241,0.30976009368896484,2019-06-20 15:06:36:771
-8.586672912597656,-2.912501770019531,1.1432138061523438,0.03197659601452743,0.03969793225250779,0.010791584387218828,0.3148801326751709,2019-06-20 15:06:36:776
-8.5998408203125,-2.9711588134765625,1.182717529296875,0.032242912123535354,0.03836635170746817,0.012655797150274295,0.32000017166137695,2019-06-20 15:06:36:781
-8.602234985351563,-2.963976318359375,1.2054620971679688,0.033041860450559124,0.038898983925484014,0.012522639095770333,0.32486414909362793,2019-06-20 15:06:36:786
-8.630964965820313,-2.9436259155273437,1.19708251953125,0.034639757104606664,0.039564774198003826,0.012922113259282218,0.329984188079834,2019-06-20 15:06:36:791
-8.622585388183593,-2.9436259155273437,1.1839146118164061,0.035305547377126476,0.040763196688539484,0.012655797150274295,0.33484816551208496,2019-06-20 15:06:36:796
-8.617797058105468,-2.941231750488281,1.2078562622070312,0.03490607321361459,0.03916530003449194,0.012922113259282218,0.339968204498291,2019-06-20 15:06:36:801
-8.605826232910156,-2.953202575683594,1.2353891601562499,0.03410712488659082,0.040763196688539484,0.012123164932258448,0.344832181930542,2019-06-20 15:06:36:806
-8.615402893066406,-2.953202575683594,1.1958854370117187,0.03344133461407101,0.04102951279754741,0.012522639095770333,0.34995222091674805,2019-06-20 15:06:36:811
-8.622585388183593,-2.9376405029296873,1.2126445922851563,0.034506599050102706,0.039564774198003826,0.011191058550730713,0.354816198348999,2019-06-20 15:06:36:816
-8.60941748046875,-2.941231750488281,1.1982796020507813,0.03330817655956705,0.039564774198003826,0.014120535749817876,0.3599362373352051,2019-06-20 15:06:36:821
-8.5998408203125,-2.936443420410156,1.1839146118164061,0.03357449266857497,0.039964248361515714,0.014520009913329761,0.36480021476745605,2019-06-20 15:06:36:826
-8.626176635742187,-2.9340492553710935,1.17792919921875,0.034506599050102706,0.04089635474304345,0.013987377695313915,0.369920015335083,2019-06-20 15:06:36:831
-8.621388305664063,-2.94003466796875,1.1875058593749999,0.03490607321361459,0.0403637225250276,0.012788955204778256,0.37504005432128906,2019-06-20 15:06:36:836
-8.614205810546874,-2.926866760253906,1.1946883544921876,0.03437344099559874,0.039564774198003826,0.012522639095770333,0.37990403175354004,2019-06-20 15:06:36:841
-8.617797058105468,-2.941231750488281,1.17792919921875,0.03424028294109478,0.04023056447052364,0.012922113259282218,0.384768009185791,2019-06-20 15:06:36:846
-8.605826232910156,-2.9172901000976563,1.1456079711914062,0.033041860450559124,0.03943161614349987,0.01358790353180203,0.38988804817199707,2019-06-20 15:06:36:851
-8.608220397949218,-2.9448229980468748,1.1851116943359374,0.033707650723078936,0.03916530003449194,0.012788955204778256,0.39475202560424805,2019-06-20 15:06:36:856
-8.616599975585938,-2.9328521728515624,1.2222212524414062,0.03490607321361459,0.03943161614349987,0.01305527131378618,0.3998720645904541,2019-06-20 15:06:36:861
-8.62857080078125,-2.9328521728515624,1.1863087768554688,0.035305547377126476,0.039964248361515714,0.013454745477298068,0.40499210357666016,2019-06-20 15:06:36:866
-8.589067077636718,-2.9304580078124998,1.1910971069335938,0.03490607321361459,0.03903214197998798,0.0143868518588258,0.40985608100891113,2019-06-20 15:06:36:871
-8.597446655273437,-2.9615821533203124,1.1707467041015625,0.034506599050102706,0.04049688057953156,0.014653167967833723,0.4149761199951172,2019-06-20 15:06:36:876
-8.585475830078124,-2.9567938232421875,1.2102504272460937,0.03424028294109478,0.04102951279754741,0.013987377695313915,0.41984009742736816,2019-06-20 15:06:36:881
-8.605826232910156,-2.9723558959960936,1.192294189453125,0.03477291515911063,0.04089635474304345,0.014786326022337684,0.4249601364135742,2019-06-20 15:06:36:886
-8.587869995117188,-2.9675675659179688,1.1731408691406249,0.033840808777582894,0.04049688057953156,0.0143868518588258,0.4298241138458252,2019-06-20 15:06:36:891
-8.595052490234375,-2.9711588134765625,1.1575787963867188,0.034506599050102706,0.03969793225250779,0.014253693804321838,0.43494415283203125,2019-06-20 15:06:36:896
-8.623782470703125,-2.954399658203125,1.1815204467773437,0.034639757104606664,0.03969793225250779,0.015452116294857496,0.4398081302642822,2019-06-20 15:06:36:901
-8.62857080078125,-2.938837585449219,1.1875058593749999,0.03437344099559874,0.039564774198003826,0.016251064621881268,0.4449281692504883,2019-06-20 15:06:36:906
-8.607023315429688,-2.935246337890625,1.1994766845703124,0.034639757104606664,0.0392984580889959,0.017582645166920888,0.44979214668273926,2019-06-20 15:06:36:911
-8.613008728027344,-2.9340492553710935,1.221024169921875,0.03490607321361459,0.04049688057953156,0.018248435439440696,0.4549121856689453,2019-06-20 15:06:36:916
-8.589067077636718,-2.9340492553710935,1.19708251953125,0.034639757104606664,0.04009740641601968,0.017449487112416926,0.4597761631011963,2019-06-20 15:06:36:921
-8.616599975585938,-2.925669677734375,1.240177490234375,0.03477291515911063,0.04023056447052364,0.017449487112416926,0.46489620208740234,2019-06-20 15:06:36:926
-8.608220397949218,-2.924472595214844,1.2066591796875,0.03317501850506309,0.039564774198003826,0.018248435439440696,0.4697601795196533,2019-06-20 15:06:36:931
-8.630964965820313,-2.9292609252929687,1.17792919921875,0.033707650723078936,0.039964248361515714,0.017582645166920888,0.4748802185058594,2019-06-20 15:06:36:936
-8.623782470703125,-2.9472171630859374,1.2078562622070312,0.033840808777582894,0.03916530003449194,0.018115277384936734,0.48000001907348633,2019-06-20 15:06:36:941
-8.642935791015624,-2.9172901000976563,1.1839146118164061,0.03357449266857497,0.04023056447052364,0.018781067657456543,0.4848642349243164,2019-06-20 15:06:36:946
-8.634556213378906,-2.912501770019531,1.1934912719726563,0.033041860450559124,0.04023056447052364,0.01851475154844862,0.48998403549194336,2019-06-20 15:06:36:951
-8.629767883300781,-2.953202575683594,1.1946883544921876,0.03290870239605516,0.03943161614349987,0.016916854894401076,0.49484801292419434,2019-06-20 15:06:36:956
-8.630964965820313,-2.9292609252929687,1.1527904663085937,0.03290870239605516,0.0392984580889959,0.017050012948905038,0.4999680519104004,2019-06-20 15:06:36:961
-8.629767883300781,-2.92088134765625,1.1803233642578124,0.0327755443415512,0.039564774198003826,0.017050012948905038,0.5048320293426514,2019-06-20 15:06:36:966
-8.615402893066406,-2.9520054931640622,1.192294189453125,0.03250922823254328,0.04009740641601968,0.016916854894401076,0.5099520683288574,2019-06-20 15:06:36:971
-8.616599975585938,-2.9041221923828124,1.1863087768554688,0.03197659601452743,0.04049688057953156,0.018248435439440696,0.5148160457611084,2019-06-20 15:06:36:976
-8.610614562988282,-2.8993338623046876,1.1671554565429687,0.03157712185101554,0.03943161614349987,0.016251064621881268,0.5199360847473145,2019-06-20 15:06:36:981
-8.633359130859375,-2.9136988525390626,1.1575787963867188,0.03197659601452743,0.038898983925484014,0.016251064621881268,0.5248000621795654,2019-06-20 15:06:36:986
-8.617797058105468,-2.9113046875,1.1875058593749999,0.03171027990551951,0.03903214197998798,0.015585274349361458,0.5299201011657715,2019-06-20 15:06:36:991
-8.624979553222657,-2.9005309448242187,1.2054620971679688,0.03197659601452743,0.03823319365296421,0.016117906567377306,0.5347840785980225,2019-06-20 15:06:36:996
-8.621388305664063,-2.9148959350585937,1.1671554565429687,0.03157712185101554,0.04009740641601968,0.01651738073088919,0.5399041175842285,2019-06-20 15:06:37:001
-8.623782470703125,-2.926866760253906,1.1659583740234374,0.031443963796511584,0.03903214197998798,0.014786326022337684,0.5447680950164795,2019-06-20 15:06:37:006
-8.616599975585938,-2.9196842651367185,1.1851116943359374,0.030378699360479884,0.03916530003449194,0.014786326022337684,0.5498881340026855,2019-06-20 15:06:37:011
-8.611811645507812,-2.941231750488281,1.2078562622070312,0.030378699360479884,0.03983109030701175,0.014786326022337684,0.5547521114349365,2019-06-20 15:06:37:016
-8.629767883300781,-2.9328521728515624,1.2138416748046874,0.03011238325147196,0.03983109030701175,0.014120535749817876,0.5598721504211426,2019-06-20 15:06:37:021
-8.621388305664063,-2.938837585449219,1.2138416748046874,0.030645015469487807,0.038765825870980056,0.013188429368290141,0.5649921894073486,2019-06-20 15:06:37:026
-8.629767883300781,-2.92088134765625,1.1611700439453125,0.03077817352399177,0.039564774198003826,0.013987377695313915,0.5698561668395996,2019-06-20 15:06:37:031
-8.621388305664063,-2.924472595214844,1.1731408691406249,0.030511857414983846,0.03863266781647609,0.014520009913329761,0.5749762058258057,2019-06-20 15:06:37:036
-8.602234985351563,-2.907713439941406,1.2102504272460937,0.030645015469487807,0.038765825870980056,0.01305527131378618,0.5798401832580566,2019-06-20 15:06:37:041
-8.617797058105468,-2.898136779785156,1.2329949951171875,0.030245541305975922,0.03903214197998798,0.013854219640809953,0.5849602222442627,2019-06-20 15:06:37:046
-8.5806875,-2.925669677734375,1.1731408691406249,0.030378699360479884,0.03836635170746817,0.012922113259282218,0.5898241996765137,2019-06-20 15:06:37:051
-8.623782470703125,-2.912501770019531,1.2126445922851563,0.031443963796511584,0.038898983925484014,0.012922113259282218,0.5949440002441406,2019-06-20 15:06:37:056
-8.62857080078125,-2.910107604980469,1.1755350341796875,0.031443963796511584,0.03783371948945232,0.013454745477298068,0.5998082160949707,2019-06-20 15:06:37:061
-8.634556213378906,-2.9340492553710935,1.211447509765625,0.032642386287047236,0.03849950976197213,0.013321587422794106,0.6049280166625977,2019-06-20 15:06:37:066
-8.611811645507812,-2.926866760253906,1.1707467041015625,0.03091133157849573,0.037167929216932516,0.01225632298676241,0.6097922325134277,2019-06-20 15:06:37:071
-8.622585388183593,-2.90172802734375,1.134834228515625,0.030645015469487807,0.0392984580889959,0.013188429368290141,0.6149120330810547,2019-06-20 15:06:37:076
-8.629767883300781,-2.9041221923828124,1.1934912719726563,0.031443963796511584,0.039564774198003826,0.013321587422794106,0.6197760105133057,2019-06-20 15:06:37:081
-8.615402893066406,-2.9340492553710935,1.1743379516601562,0.03171027990551951,0.03836635170746817,0.011856848823250525,0.6248960494995117,2019-06-20 15:06:37:086
-8.635753295898438,-2.9603850708007813,1.1934912719726563,0.03157712185101554,0.03863266781647609,0.01092474244172279,0.6297600269317627,2019-06-20 15:06:37:091
-8.611811645507812,-2.9627792358398435,1.1994766845703124,0.03131080574200762,0.03863266781647609,0.010658426332714866,0.6348800659179688,2019-06-20 15:06:37:096
-8.614205810546874,-2.9172901000976563,1.1982796020507813,0.029047118815440268,0.038100035598460244,0.011324216605234675,0.6400001049041748,2019-06-20 15:06:37:101
-8.615402893066406,-2.925669677734375,1.2078562622070312,0.03011238325147196,0.03849950976197213,0.01145737465973864,0.6448640823364258,2019-06-20 15:06:37:106
-8.636950378417968,-2.949611328125,1.1910971069335938,0.029712909087960076,0.03916530003449194,0.011057900496226753,0.6499841213226318,2019-06-20 15:06:37:111
-8.656103698730469,-2.936443420410156,1.182717529296875,0.03131080574200762,0.03903214197998798,0.010791584387218828,0.6548480987548828,2019-06-20 15:06:37:116
-8.633359130859375,-2.9196842651367185,1.2054620971679688,0.031443963796511584,0.037966877543956286,0.01092474244172279,0.6599681377410889,2019-06-20 15:06:37:121
-8.64772412109375,-2.922078430175781,1.192294189453125,0.03131080574200762,0.037966877543956286,0.010525268278210905,0.6648321151733398,2019-06-20 15:06:37:126
-8.635753295898438,-2.938837585449219,1.1755350341796875,0.031044489632999692,0.03943161614349987,0.011590532714242601,0.6699521541595459,2019-06-20 15:06:37:131
-8.627373718261719,-2.9340492553710935,1.1863087768554688,0.030645015469487807,0.04023056447052364,0.011590532714242601,0.6748161315917969,2019-06-20 15:06:37:136
-8.616599975585938,-2.9280638427734376,1.2270095825195313,0.030511857414983846,0.038898983925484014,0.011856848823250525,0.6799361705780029,2019-06-20 15:06:37:141
-8.617797058105468,-2.9627792358398435,1.1899000244140625,0.03077817352399177,0.03823319365296421,0.011191058550730713,0.6848001480102539,2019-06-20 15:06:37:146
-8.593855407714843,-2.9627792358398435,1.192294189453125,0.03131080574200762,0.03836635170746817,0.011324216605234675,0.68992018699646,2019-06-20 15:06:37:151
-8.617797058105468,-2.938837585449219,1.1743379516601562,0.03077817352399177,0.03849950976197213,0.010791584387218828,0.6947841644287109,2019-06-20 15:06:37:156
-8.64892120361328,-2.9472171630859374,1.2138416748046874,0.03210975406903139,0.039564774198003826,0.010658426332714866,0.699904203414917,2019-06-20 15:06:37:161
-8.651315368652343,-2.9304580078124998,1.2138416748046874,0.03210975406903139,0.037966877543956286,0.010658426332714866,0.704768180847168,2019-06-20 15:06:37:166
-8.642935791015624,-2.9376405029296873,1.2042650146484375,0.032642386287047236,0.03969793225250779,0.009726319951187133,0.709888219833374,2019-06-20 15:06:37:171
-8.642935791015624,-2.938837585449219,1.2102504272460937,0.031443963796511584,0.03916530003449194,0.009992636060195056,0.714752197265625,2019-06-20 15:06:37:176
-8.627373718261719,-2.9376405029296873,1.2030679321289062,0.030645015469487807,0.03943161614349987,0.011324216605234675,0.719872236251831,2019-06-20 15:06:37:181
-8.62019122314453,-2.9472171630859374,1.1695496215820311,0.029712909087960076,0.03943161614349987,0.011057900496226753,0.724992036819458,2019-06-20 15:06:37:186
-8.627373718261719,-2.9340492553710935,1.1755350341796875,0.030645015469487807,0.03903214197998798,0.010791584387218828,0.729856014251709,2019-06-20 15:06:37:191
-8.617797058105468,-2.9328521728515624,1.2042650146484375,0.031177647687503654,0.03983109030701175,0.009992636060195056,0.734976053237915,2019-06-20 15:06:37:196
-8.62857080078125,-2.9579909057617186,1.2341920776367188,0.03237607017803931,0.03903214197998798,0.010525268278210905,0.739840030670166,2019-06-20 15:06:37:201
-8.597446655273437,-2.9292609252929687,1.2126445922851563,0.03131080574200762,0.03916530003449194,0.009992636060195056,0.7449600696563721,2019-06-20 15:06:37:206
-8.60941748046875,-2.9316550903320313,1.2246154174804686,0.029712909087960076,0.038765825870980056,0.011191058550730713,0.749824047088623,2019-06-20 15:06:37:211
-8.62019122314453,-2.9567938232421875,1.201870849609375,0.029712909087960076,0.03903214197998798,0.012123164932258448,0.7549440860748291,2019-06-20 15:06:37:216
-8.621388305664063,-2.955596740722656,1.1982796020507813,0.03011238325147196,0.03849950976197213,0.011590532714242601,0.7598080635070801,2019-06-20 15:06:37:221
-8.574702087402343,-2.9460200805664063,1.1875058593749999,0.03011238325147196,0.03916530003449194,0.010791584387218828,0.7649281024932861,2019-06-20 15:06:37:226
-8.62857080078125,-2.950808410644531,1.2126445922851563,0.029846067142464038,0.038898983925484014,0.011057900496226753,0.7697920799255371,2019-06-20 15:06:37:231
-8.613008728027344,-2.9472171630859374,1.1803233642578124,0.030245541305975922,0.0392984580889959,0.011590532714242601,0.7749121189117432,2019-06-20 15:06:37:236
-8.605826232910156,-2.936443420410156,1.1503963012695313,0.030645015469487807,0.03969793225250779,0.009859478005691095,0.7797760963439941,2019-06-20 15:06:37:241
-8.626176635742187,-2.9603850708007813,1.2006737670898437,0.030378699360479884,0.03916530003449194,0.009593161896683172,0.7848961353302002,2019-06-20 15:06:37:246
-8.586672912597656,-2.955596740722656,1.2174329223632812,0.03091133157849573,0.038765825870980056,0.009726319951187133,0.7897601127624512,2019-06-20 15:06:37:251
-8.621388305664063,-2.935246337890625,1.1695496215820311,0.03131080574200762,0.039564774198003826,0.01092474244172279,0.7948801517486572,2019-06-20 15:06:37:256
-8.614205810546874,-2.950808410644531,1.17792919921875,0.03131080574200762,0.039964248361515714,0.011590532714242601,0.8000001907348633,2019-06-20 15:06:37:261
-8.640541625976562,-2.9675675659179688,1.17792919921875,0.031044489632999692,0.03916530003449194,0.01145737465973864,0.8048641681671143,2019-06-20 15:06:37:266
-8.605826232910156,-2.969961730957031,1.1887029418945312,0.030645015469487807,0.037966877543956286,0.011723690768746563,0.8099842071533203,2019-06-20 15:06:37:271
-8.605826232910156,-2.9484142456054685,1.2030679321289062,0.031843437960023466,0.038100035598460244,0.011723690768746563,0.8148481845855713,2019-06-20 15:06:37:276
-8.602234985351563,-2.926866760253906,1.2030679321289062,0.03171027990551951,0.037966877543956286,0.011856848823250525,0.8199682235717773,2019-06-20 15:06:37:281
-8.601037902832031,-2.950808410644531,1.1839146118164061,0.031843437960023466,0.03849950976197213,0.012522639095770333,0.8248322010040283,2019-06-20 15:06:37:286
-8.613008728027344,-2.9340492553710935,1.2066591796875,0.03077817352399177,0.038765825870980056,0.013987377695313915,0.8299520015716553,2019-06-20 15:06:37:291
-8.656103698730469,-2.9376405029296873,1.2090533447265626,0.031177647687503654,0.0392984580889959,0.014653167967833723,0.8348162174224854,2019-06-20 15:06:37:296
-8.613008728027344,-2.9603850708007813,1.1994766845703124,0.03171027990551951,0.03983109030701175,0.012788955204778256,0.8399360179901123,2019-06-20 15:06:37:301
-8.614205810546874,-2.916093017578125,1.1719437866210938,0.030378699360479884,0.040630038634035526,0.012389481041266371,0.8448002338409424,2019-06-20 15:06:37:306
-8.618994140625,-2.941231750488281,1.14919921875,0.029979225196968,0.039964248361515714,0.01305527131378618,0.8499200344085693,2019-06-20 15:06:37:311
-8.613008728027344,-2.926866760253906,1.1767321166992186,0.029979225196968,0.0392984580889959,0.012522639095770333,0.8547840118408203,2019-06-20 15:06:37:316
-8.636950378417968,-2.9328521728515624,1.17792919921875,0.030245541305975922,0.039964248361515714,0.013454745477298068,0.8599040508270264,2019-06-20 15:06:37:321
-8.605826232910156,-2.922078430175781,1.2102504272460937,0.029979225196968,0.03916530003449194,0.012922113259282218,0.8647680282592773,2019-06-20 15:06:37:326
-8.597446655273437,-2.949611328125,1.19708251953125,0.030511857414983846,0.03916530003449194,0.01225632298676241,0.8698880672454834,2019-06-20 15:06:37:331
-8.60941748046875,-2.941231750488281,1.211447509765625,0.03131080574200762,0.03916530003449194,0.012123164932258448,0.8747520446777344,2019-06-20 15:06:37:336
-8.611811645507812,-2.965173400878906,1.2030679321289062,0.03011238325147196,0.03916530003449194,0.012655797150274295,0.8798720836639404,2019-06-20 15:06:37:341
-8.595052490234375,-2.949611328125,1.211447509765625,0.03011238325147196,0.04023056447052364,0.01305527131378618,0.8849921226501465,2019-06-20 15:06:37:346
-8.610614562988282,-2.925669677734375,1.2258125,0.029712909087960076,0.04129582890655533,0.01305527131378618,0.8898561000823975,2019-06-20 15:06:37:351
-8.62019122314453,-2.953202575683594,1.1815204467773437,0.03077817352399177,0.0392984580889959,0.012922113259282218,0.8949761390686035,2019-06-20 15:06:37:356
-8.610614562988282,-2.9460200805664063,1.17792919921875,0.030511857414983846,0.03983109030701175,0.012522639095770333,0.8998401165008545,2019-06-20 15:06:37:361
-8.617797058105468,-2.9603850708007813,1.1659583740234374,0.03131080574200762,0.04049688057953156,0.01305527131378618,0.9049601554870605,2019-06-20 15:06:37:366
-8.613008728027344,-2.950808410644531,1.1863087768554688,0.031843437960023466,0.039564774198003826,0.013454745477298068,0.9098241329193115,2019-06-20 15:06:37:371
-8.602234985351563,-2.9627792358398435,1.17792919921875,0.030511857414983846,0.0392984580889959,0.013454745477298068,0.9149441719055176,2019-06-20 15:06:37:376
-8.633359130859375,-2.9591879882812497,1.1839146118164061,0.03210975406903139,0.03969793225250779,0.01358790353180203,0.9198081493377686,2019-06-20 15:06:37:381
-8.607023315429688,-2.9962975463867187,1.1899000244140625,0.03290870239605516,0.039564774198003826,0.013854219640809953,0.9249281883239746,2019-06-20 15:06:37:386
-8.607023315429688,-2.9376405029296873,1.1934912719726563,0.03250922823254328,0.03969793225250779,0.013188429368290141,0.9297921657562256,2019-06-20 15:06:37:391
-8.608220397949218,-2.9460200805664063,1.19708251953125,0.0327755443415512,0.039564774198003826,0.012788955204778256,0.9349122047424316,2019-06-20 15:06:37:396
-8.5806875,-2.935246337890625,1.182717529296875,0.03330817655956705,0.03969793225250779,0.013987377695313915,0.9397761821746826,2019-06-20 15:06:37:401
-8.623782470703125,-2.949611328125,1.2150387573242187,0.03317501850506309,0.03863266781647609,0.014253693804321838,0.9448962211608887,2019-06-20 15:06:37:406
-8.645329956054688,-2.9436259155273437,1.2006737670898437,0.033041860450559124,0.039964248361515714,0.014786326022337684,0.9497601985931396,2019-06-20 15:06:37:411
-8.635753295898438,-2.935246337890625,1.1671554565429687,0.03317501850506309,0.03969793225250779,0.015585274349361458,0.9548802375793457,2019-06-20 15:06:37:416
-8.610614562988282,-2.9579909057617186,1.1480021362304687,0.03357449266857497,0.0403637225250276,0.015318958240353535,0.9600000381469727,2019-06-20 15:06:37:421
-8.574702087402343,-2.9579909057617186,1.1958854370117187,0.03317501850506309,0.040763196688539484,0.015452116294857496,0.9648640155792236,2019-06-20 15:06:37:426
-8.5806875,-2.953202575683594,1.2042650146484375,0.033041860450559124,0.039564774198003826,0.014786326022337684,0.9699840545654297,2019-06-20 15:06:37:431
-8.59146124267578,-2.950808410644531,1.2413745727539063,0.03290870239605516,0.04089635474304345,0.013987377695313915,0.9748480319976807,2019-06-20 15:06:37:436
-8.616599975585938,-2.9328521728515624,1.2317979125976561,0.03330817655956705,0.04049688057953156,0.013987377695313915,0.9799680709838867,2019-06-20 15:06:37:441
-8.62857080078125,-2.936443420410156,1.192294189453125,0.033041860450559124,0.039964248361515714,0.014786326022337684,0.9848320484161377,2019-06-20 15:06:37:446
-8.621388305664063,-2.949611328125,1.1994766845703124,0.032242912123535354,0.03983109030701175,0.014253693804321838,0.9899520874023438,2019-06-20 15:06:37:451
-8.610614562988282,-2.9304580078124998,1.2198270874023438,0.032642386287047236,0.039564774198003826,0.014653167967833723,0.9948160648345947,2019-06-20 15:06:37:456
-8.59146124267578,-2.9316550903320313,1.1863087768554688,0.03317501850506309,0.0403637225250276,0.014253693804321838,0.9999361038208008,2019-06-20 15:06:37:461
-8.62857080078125,-2.9472171630859374,1.15877587890625,0.033707650723078936,0.04009740641601968,0.0143868518588258,1.0048000812530518,2019-06-20 15:06:37:466
-8.62857080078125,-2.9520054931640622,1.192294189453125,0.03330817655956705,0.03969793225250779,0.013854219640809953,1.0099201202392578,2019-06-20 15:06:37:471
-8.613008728027344,-2.9615821533203124,1.1910971069335938,0.033041860450559124,0.03969793225250779,0.0143868518588258,1.0147840976715088,2019-06-20 15:06:37:476
-8.604629150390625,-2.9304580078124998,1.1815204467773437,0.03290870239605516,0.03916530003449194,0.014253693804321838,1.0199041366577148,2019-06-20 15:06:37:481
-8.60941748046875,-2.954399658203125,1.1910971069335938,0.033041860450559124,0.03983109030701175,0.014253693804321838,1.0247681140899658,2019-06-20 15:06:37:486
-8.623782470703125,-2.9567938232421875,1.2066591796875,0.0327755443415512,0.04023056447052364,0.013987377695313915,1.0298881530761719,2019-06-20 15:06:37:491
-8.614205810546874,-2.925669677734375,1.1958854370117187,0.03330817655956705,0.04009740641601968,0.014120535749817876,1.0347521305084229,2019-06-20 15:06:37:496
-8.610614562988282,-2.949611328125,1.1887029418945312,0.03410712488659082,0.03916530003449194,0.014786326022337684,1.039872169494629,2019-06-20 15:06:37:501
-8.629767883300781,-2.9759471435546874,1.1623671264648436,0.03477291515911063,0.039564774198003826,0.014120535749817876,1.044992208480835,2019-06-20 15:06:37:506
-8.653709533691407,-2.9627792358398435,1.1767321166992186,0.03490607321361459,0.03943161614349987,0.014919484076841646,1.049856185913086,2019-06-20 15:06:37:511
-8.618994140625,-2.9424288330078125,1.1863087768554688,0.034639757104606664,0.0392984580889959,0.015052642131345608,1.054976224899292,2019-06-20 15:06:37:516
-8.622585388183593,-2.941231750488281,1.1755350341796875,0.03490607321361459,0.03943161614349987,0.015318958240353535,1.059840202331543,2019-06-20 15:06:37:521
-8.615402893066406,-2.9615821533203124,1.2042650146484375,0.03543870543163044,0.03943161614349987,0.014253693804321838,1.06496000289917,2019-06-20 15:06:37:526
-8.630964965820313,-2.9567938232421875,1.1994766845703124,0.034506599050102706,0.039964248361515714,0.013987377695313915,1.06982421875,2019-06-20 15:06:37:531
-8.641738708496094,-2.9615821533203124,1.182717529296875,0.03410712488659082,0.039964248361515714,0.015052642131345608,1.074944019317627,2019-06-20 15:06:37:536
-8.629767883300781,-2.954399658203125,1.1515933837890624,0.033707650723078936,0.03943161614349987,0.015851590458369383,1.079808235168457,2019-06-20 15:06:37:541
-8.603432067871093,-2.9520054931640622,1.1791262817382813,0.03344133461407101,0.0392984580889959,0.015585274349361458,1.084928035736084,2019-06-20 15:06:37:546
-8.60941748046875,-2.963976318359375,1.1994766845703124,0.03424028294109478,0.03863266781647609,0.015318958240353535,1.089792013168335,2019-06-20 15:06:37:551
-8.629767883300781,-2.941231750488281,1.1875058593749999,0.03543870543163044,0.04023056447052364,0.013987377695313915,1.094912052154541,2019-06-20 15:06:37:556
-8.626176635742187,-2.9184871826171874,1.1551846313476561,0.03517238932262252,0.03983109030701175,0.014786326022337684,1.099776029586792,2019-06-20 15:06:37:561
-8.60941748046875,-2.9316550903320313,1.1899000244140625,0.03490607321361459,0.039564774198003826,0.014120535749817876,1.104896068572998,2019-06-20 15:06:37:566
-8.639344543457032,-2.9304580078124998,1.17792919921875,0.033707650723078936,0.03743424532594044,0.013854219640809953,1.109760046005249,2019-06-20 15:06:37:571
-8.629767883300781,-2.9148959350585937,1.1755350341796875,0.033840808777582894,0.037301087271436474,0.013854219640809953,1.114880084991455,2019-06-20 15:06:37:576
-8.596249572753907,-2.9053192749023435,1.1982796020507813,0.03503923126811855,0.038898983925484014,0.013188429368290141,1.1200001239776611,2019-06-20 15:06:37:581
-8.611811645507812,-2.9232755126953123,1.2258125,0.03477291515911063,0.0392984580889959,0.01358790353180203,1.124864101409912,2019-06-20 15:06:37:586
-8.621388305664063,-2.924472595214844,1.2042650146484375,0.03357449266857497,0.03849950976197213,0.013188429368290141,1.1299841403961182,2019-06-20 15:06:37:591
-8.640541625976562,-2.926866760253906,1.1863087768554688,0.03477291515911063,0.038765825870980056,0.013188429368290141,1.1348481178283691,2019-06-20 15:06:37:596
-8.597446655273437,-2.9196842651367185,1.1851116943359374,0.0355718634861344,0.03916530003449194,0.012389481041266371,1.1399681568145752,2019-06-20 15:06:37:601
-8.5998408203125,-2.926866760253906,1.21623583984375,0.03490607321361459,0.038898983925484014,0.013188429368290141,1.1448321342468262,2019-06-20 15:06:37:606
-8.603432067871093,-2.9316550903320313,1.2294037475585937,0.03424028294109478,0.0392984580889959,0.01225632298676241,1.1499521732330322,2019-06-20 15:06:37:611
-8.611811645507812,-2.936443420410156,1.2282066650390624,0.03437344099559874,0.03916530003449194,0.012922113259282218,1.1548161506652832,2019-06-20 15:06:37:616
-8.617797058105468,-2.949611328125,1.201870849609375,0.03410712488659082,0.03916530003449194,0.01305527131378618,1.1599361896514893,2019-06-20 15:06:37:621
-8.630964965820313,-2.9448229980468748,1.2138416748046874,0.03410712488659082,0.03916530003449194,0.011723690768746563,1.1648001670837402,2019-06-20 15:06:37:626
-8.62857080078125,-2.926866760253906,1.2473599853515625,0.03290870239605516,0.038100035598460244,0.012389481041266371,1.1699202060699463,2019-06-20 15:06:37:631
-8.605826232910156,-2.926866760253906,1.1875058593749999,0.033041860450559124,0.037966877543956286,0.012522639095770333,1.1747841835021973,2019-06-20 15:06:37:636
-8.615402893066406,-2.9089105224609373,1.201870849609375,0.03210975406903139,0.037966877543956286,0.01225632298676241,1.1799042224884033,2019-06-20 15:06:37:641
-8.604629150390625,-2.896939697265625,1.2353891601562499,0.03091133157849573,0.038765825870980056,0.01305527131378618,1.1847681999206543,2019-06-20 15:06:37:646
-8.601037902832031,-2.8909542846679686,1.1875058593749999,0.032242912123535354,0.03836635170746817,0.013188429368290141,1.1898880004882812,2019-06-20 15:06:37:651
-8.614205810546874,-2.9113046875,1.1671554565429687,0.033041860450559124,0.03849950976197213,0.013987377695313915,1.1947522163391113,2019-06-20 15:06:37:656
-8.60941748046875,-2.912501770019531,1.2246154174804686,0.031443963796511584,0.037966877543956286,0.01225632298676241,1.1998720169067383,2019-06-20 15:06:37:661
-8.611811645507812,-2.9148959350585937,1.2126445922851563,0.031443963796511584,0.037301087271436474,0.01225632298676241,1.2049920558929443,2019-06-20 15:06:37:666
-8.615402893066406,-2.9376405029296873,1.201870849609375,0.031443963796511584,0.038100035598460244,0.010258952169202981,1.2098560333251953,2019-06-20 15:06:37:671
-8.601037902832031,-2.941231750488281,1.182717529296875,0.03091133157849573,0.03969793225250779,0.010791584387218828,1.2149760723114014,2019-06-20 15:06:37:676
-8.613008728027344,-2.9436259155273437,1.1839146118164061,0.031044489632999692,0.0392984580889959,0.011324216605234675,1.2198400497436523,2019-06-20 15:06:37:681
-8.585475830078124,-2.9603850708007813,1.2054620971679688,0.03011238325147196,0.04009740641601968,0.011191058550730713,1.2249600887298584,2019-06-20 15:06:37:686
-8.595052490234375,-2.963976318359375,1.1887029418945312,0.02851448659742442,0.04009740641601968,0.011590532714242601,1.2298240661621094,2019-06-20 15:06:37:691
-8.601037902832031,-2.9579909057617186,1.1599729614257812,0.029579751033456114,0.03836635170746817,0.011990006877754486,1.2349441051483154,2019-06-20 15:06:37:696
-8.623782470703125,-2.9615821533203124,1.2054620971679688,0.029446592978952153,0.03849950976197213,0.011990006877754486,1.2398080825805664,2019-06-20 15:06:37:701
-8.589067077636718,-2.9603850708007813,1.17792919921875,0.03131080574200762,0.04009740641601968,0.013721061586305991,1.2449281215667725,2019-06-20 15:06:37:706
-8.630964965820313,-2.9484142456054685,1.1755350341796875,0.031843437960023466,0.038898983925484014,0.01358790353180203,1.2497920989990234,2019-06-20 15:06:37:711
-8.616599975585938,-2.9663704833984372,1.2198270874023438,0.031843437960023466,0.039564774198003826,0.013721061586305991,1.2549121379852295,2019-06-20 15:06:37:716
-8.597446655273437,-2.9903121337890624,1.1791262817382813,0.03171027990551951,0.04089635474304345,0.013721061586305991,1.2597761154174805,2019-06-20 15:06:37:721
-8.587869995117188,-2.97834130859375,1.1839146118164061,0.03157712185101554,0.04116267085205137,0.013987377695313915,1.2648961544036865,2019-06-20 15:06:37:726
-8.615402893066406,-2.9484142456054685,1.1503963012695313,0.03171027990551951,0.038898983925484014,0.0143868518588258,1.2697601318359375,2019-06-20 15:06:37:731
-8.621388305664063,-2.9472171630859374,1.1623671264648436,0.032242912123535354,0.03943161614349987,0.014120535749817876,1.2748801708221436,2019-06-20 15:06:37:736
-8.60941748046875,-2.935246337890625,1.1910971069335938,0.031443963796511584,0.039964248361515714,0.015318958240353535,1.2800002098083496,2019-06-20 15:06:37:741
-8.604629150390625,-2.9280638427734376,1.1755350341796875,0.032642386287047236,0.039964248361515714,0.01638422267638523,1.2848641872406006,2019-06-20 15:06:37:746
-8.62857080078125,-2.9472171630859374,1.1887029418945312,0.032242912123535354,0.039964248361515714,0.015851590458369383,1.2899842262268066,2019-06-20 15:06:37:751
-8.616599975585938,-2.9484142456054685,1.2102504272460937,0.031443963796511584,0.04023056447052364,0.015318958240353535,1.2948482036590576,2019-06-20 15:06:37:756
-8.621388305664063,-2.9855238037109375,1.2006737670898437,0.03157712185101554,0.0392984580889959,0.015185800185849573,1.2999680042266846,2019-06-20 15:06:37:761
-8.62019122314453,-2.953202575683594,1.1599729614257812,0.031443963796511584,0.03943161614349987,0.015452116294857496,1.3048322200775146,2019-06-20 15:06:37:766
-8.614205810546874,-2.9567938232421875,1.2030679321289062,0.03131080574200762,0.03863266781647609,0.015585274349361458,1.3099520206451416,2019-06-20 15:06:37:771
-8.624979553222657,-2.9591879882812497,1.192294189453125,0.03077817352399177,0.039564774198003826,0.014653167967833723,1.3148162364959717,2019-06-20 15:06:37:776
-8.634556213378906,-2.9472171630859374,1.192294189453125,0.03290870239605516,0.04102951279754741,0.015851590458369383,1.3199360370635986,2019-06-20 15:06:37:781
-8.611811645507812,-2.953202575683594,1.2078562622070312,0.031177647687503654,0.04116267085205137,0.016783696839897114,1.3248000144958496,2019-06-20 15:06:37:786
-8.60941748046875,-2.926866760253906,1.1767321166992186,0.03131080574200762,0.04116267085205137,0.016916854894401076,1.3299200534820557,2019-06-20 15:06:37:791
-8.5998408203125,-2.949611328125,1.1755350341796875,0.0327755443415512,0.04009740641601968,0.017050012948905038,1.3347840309143066,2019-06-20 15:06:37:796
-8.608220397949218,-2.941231750488281,1.1910971069335938,0.032642386287047236,0.039964248361515714,0.015851590458369383,1.3399040699005127,2019-06-20 15:06:37:801
-8.5998408203125,-2.9340492553710935,1.1851116943359374,0.03210975406903139,0.03823319365296421,0.015318958240353535,1.3447680473327637,2019-06-20 15:06:37:806
-8.616599975585938,-2.954399658203125,1.1803233642578124,0.03197659601452743,0.04009740641601968,0.01571843240386542,1.3498880863189697,2019-06-20 15:06:37:811
-8.645329956054688,-2.9328521728515624,1.1755350341796875,0.032642386287047236,0.04009740641601968,0.01651738073088919,1.3547520637512207,2019-06-20 15:06:37:816
-8.640541625976562,-2.9520054931640622,1.1671554565429687,0.03197659601452743,0.04049688057953156,0.01638422267638523,1.3598721027374268,2019-06-20 15:06:37:821
-8.626176635742187,-2.9663704833984372,1.1958854370117187,0.03210975406903139,0.04089635474304345,0.016783696839897114,1.3649921417236328,2019-06-20 15:06:37:826
-8.611811645507812,-2.936443420410156,1.2246154174804686,0.032242912123535354,0.04049688057953156,0.01571843240386542,1.3698561191558838,2019-06-20 15:06:37:831
-8.604629150390625,-2.9472171630859374,1.1803233642578124,0.031177647687503654,0.04009740641601968,0.01571843240386542,1.3749761581420898,2019-06-20 15:06:37:836
-8.602234985351563,-2.9460200805664063,1.153987548828125,0.031843437960023466,0.039964248361515714,0.015984748512873345,1.3798401355743408,2019-06-20 15:06:37:841
-8.635753295898438,-2.9280638427734376,1.2030679321289062,0.03290870239605516,0.03969793225250779,0.015452116294857496,1.3849601745605469,2019-06-20 15:06:37:846
-8.608220397949218,-2.9591879882812497,1.1815204467773437,0.0327755443415512,0.03836635170746817,0.015984748512873345,1.3898241519927979,2019-06-20 15:06:37:851
-8.608220397949218,-2.9436259155273437,1.1910971069335938,0.03317501850506309,0.03863266781647609,0.016251064621881268,1.394944190979004,2019-06-20 15:06:37:856
-8.59146124267578,-2.916093017578125,1.2102504272460937,0.032642386287047236,0.04009740641601968,0.015984748512873345,1.3998081684112549,2019-06-20 15:06:37:861
-8.586672912597656,-2.9484142456054685,1.201870849609375,0.032642386287047236,0.04102951279754741,0.014786326022337684,1.404928207397461,2019-06-20 15:06:37:866
-8.615402893066406,-2.9148959350585937,1.1815204467773437,0.03250922823254328,0.038898983925484014,0.013854219640809953,1.409792184829712,2019-06-20 15:06:37:871
-8.605826232910156,-2.9340492553710935,1.2138416748046874,0.03210975406903139,0.03863266781647609,0.014919484076841646,1.414912223815918,2019-06-20 15:06:37:876
-8.632162048339843,-2.9196842651367185,1.17792919921875,0.031843437960023466,0.03849950976197213,0.013854219640809953,1.419776201248169,2019-06-20 15:06:37:881
-8.615402893066406,-2.938837585449219,1.1899000244140625,0.031177647687503654,0.03849950976197213,0.012922113259282218,1.424896001815796,2019-06-20 15:06:37:886
-8.602234985351563,-2.941231750488281,1.1946883544921876,0.03197659601452743,0.03849950976197213,0.012922113259282218,1.429760217666626,2019-06-20 15:06:37:891
-8.611811645507812,-2.94003466796875,1.1839146118164061,0.031044489632999692,0.03849950976197213,0.01305527131378618,1.434880018234253,2019-06-20 15:06:37:896
-8.607023315429688,-2.922078430175781,1.1910971069335938,0.03077817352399177,0.039564774198003826,0.013854219640809953,1.440000057220459,2019-06-20 15:06:37:901
-8.633359130859375,-2.9280638427734376,1.2042650146484375,0.031443963796511584,0.037966877543956286,0.012655797150274295,1.44486403465271,2019-06-20 15:06:37:906
-8.596249572753907,-2.925669677734375,1.1934912719726563,0.031443963796511584,0.03823319365296421,0.012922113259282218,1.449984073638916,2019-06-20 15:06:37:911
-8.597446655273437,-2.9340492553710935,1.1887029418945312,0.031044489632999692,0.03849950976197213,0.012655797150274295,1.454848051071167,2019-06-20 15:06:37:916
-8.623782470703125,-2.949611328125,1.1994766845703124,0.03077817352399177,0.038765825870980056,0.013188429368290141,1.459968090057373,2019-06-20 15:06:37:921
-8.622585388183593,-2.9603850708007813,1.1456079711914062,0.03171027990551951,0.03836635170746817,0.012788955204778256,1.464832067489624,2019-06-20 15:06:37:926
-8.626176635742187,-2.9759471435546874,1.1480021362304687,0.031443963796511584,0.03863266781647609,0.012522639095770333,1.46995210647583,2019-06-20 15:06:37:931
-8.62857080078125,-2.965173400878906,1.163564208984375,0.032242912123535354,0.0392984580889959,0.012655797150274295,1.474816083908081,2019-06-20 15:06:37:936
-8.608220397949218,-2.9627792358398435,1.1910971069335938,0.031044489632999692,0.03903214197998798,0.013854219640809953,1.479936122894287,2019-06-20 15:06:37:941
-8.611811645507812,-2.9663704833984372,1.1910971069335938,0.03197659601452743,0.04023056447052364,0.013188429368290141,1.484800100326538,2019-06-20 15:06:37:946
-8.617797058105468,-2.9340492553710935,1.201870849609375,0.030378699360479884,0.04049688057953156,0.012389481041266371,1.4899201393127441,2019-06-20 15:06:37:951
-8.615402893066406,-2.9136988525390626,1.2258125,0.030378699360479884,0.04089635474304345,0.01305527131378618,1.4947841167449951,2019-06-20 15:06:37:956
-8.621388305664063,-2.9472171630859374,1.2234183349609375,0.03157712185101554,0.04102951279754741,0.012922113259282218,1.4999041557312012,2019-06-20 15:06:37:961
-8.629767883300781,-2.935246337890625,1.211447509765625,0.03131080574200762,0.04089635474304345,0.013987377695313915,1.5047681331634521,2019-06-20 15:06:37:966
-8.60941748046875,-2.9328521728515624,1.2006737670898437,0.03077817352399177,0.03969793225250779,0.014120535749817876,1.5098881721496582,2019-06-20 15:06:37:971
-8.59146124267578,-2.9663704833984372,1.1863087768554688,0.03197659601452743,0.03943161614349987,0.012788955204778256,1.5147521495819092,2019-06-20 15:06:37:976
-8.610614562988282,-2.9615821533203124,1.2078562622070312,0.032642386287047236,0.0392984580889959,0.012922113259282218,1.5198721885681152,2019-06-20 15:06:37:981
-8.624979553222657,-2.9472171630859374,1.1839146118164061,0.03197659601452743,0.03849950976197213,0.013321587422794106,1.5249922275543213,2019-06-20 15:06:37:986
-8.604629150390625,-2.9603850708007813,1.1994766845703124,0.03290870239605516,0.037966877543956286,0.013987377695313915,1.5298562049865723,2019-06-20 15:06:37:991
-8.595052490234375,-2.9567938232421875,1.1671554565429687,0.03317501850506309,0.03943161614349987,0.013721061586305991,1.5349760055541992,2019-06-20 15:06:37:996
-8.604629150390625,-2.9771442260742185,1.2066591796875,0.031177647687503654,0.03916530003449194,0.013854219640809953,1.5398402214050293,2019-06-20 15:06:38:001
-8.634556213378906,-2.9520054931640622,1.2006737670898437,0.03210975406903139,0.03943161614349987,0.013454745477298068,1.5449600219726562,2019-06-20 15:06:38:006
-8.6381474609375,-2.941231750488281,1.2054620971679688,0.03237607017803931,0.03849950976197213,0.014120535749817876,1.5498242378234863,2019-06-20 15:06:38:011
-8.635753295898438,-2.950808410644531,1.1982796020507813,0.03330817655956705,0.03836635170746817,0.01358790353180203,1.5549440383911133,2019-06-20 15:06:38:016
-8.617797058105468,-2.9603850708007813,1.2246154174804686,0.033840808777582894,0.03916530003449194,0.014253693804321838,1.5598080158233643,2019-06-20 15:06:38:021
-8.622585388183593,-2.9292609252929687,1.1875058593749999,0.03330817655956705,0.03969793225250779,0.01571843240386542,1.5649280548095703,2019-06-20 15:06:38:026
-8.626176635742187,-2.9484142456054685,1.1982796020507813,0.03210975406903139,0.04009740641601968,0.015984748512873345,1.5697920322418213,2019-06-20 15:06:38:031
-8.613008728027344,-2.9340492553710935,1.2042650146484375,0.03330817655956705,0.0403637225250276,0.015318958240353535,1.5749120712280273,2019-06-20 15:06:38:036
-8.5998408203125,-2.9448229980468748,1.1863087768554688,0.03503923126811855,0.039564774198003826,0.015052642131345608,1.5797760486602783,2019-06-20 15:06:38:041
-8.589067077636718,-2.9304580078124998,1.1803233642578124,0.03437344099559874,0.04102951279754741,0.015185800185849573,1.5848960876464844,2019-06-20 15:06:38:046
-8.618994140625,-2.9328521728515624,1.2174329223632812,0.033840808777582894,0.04169530307006722,0.015984748512873345,1.5897600650787354,2019-06-20 15:06:38:051
-8.635753295898438,-2.9472171630859374,1.2054620971679688,0.03424028294109478,0.040630038634035526,0.016650538785393153,1.5948801040649414,2019-06-20 15:06:38:056
-8.641738708496094,-2.9340492553710935,1.2317979125976561,0.033041860450559124,0.03983109030701175,0.016251064621881268,1.6000001430511475,2019-06-20 15:06:38:061
-8.5998408203125,-2.9089105224609373,1.1899000244140625,0.03503923126811855,0.04023056447052364,0.016117906567377306,1.6048641204833984,2019-06-20 15:06:38:066
-8.593855407714843,-2.9460200805664063,1.1946883544921876,0.03543870543163044,0.04116267085205137,0.017316329057912964,1.6099841594696045,2019-06-20 15:06:38:071
-8.597446655273437,-2.9603850708007813,1.1851116943359374,0.03437344099559874,0.04102951279754741,0.016783696839897114,1.6148481369018555,2019-06-20 15:06:38:076
-8.597446655273437,-2.94003466796875,1.2054620971679688,0.033840808777582894,0.03983109030701175,0.015185800185849573,1.6199681758880615,2019-06-20 15:06:38:081
-8.616599975585938,-2.916093017578125,1.21623583984375,0.03424028294109478,0.03916530003449194,0.015052642131345608,1.6248321533203125,2019-06-20 15:06:38:086
-8.615402893066406,-2.935246337890625,1.2186300048828125,0.032642386287047236,0.03969793225250779,0.016117906567377306,1.6299521923065186,2019-06-20 15:06:38:091
-8.62019122314453,-2.936443420410156,1.1791262817382813,0.03290870239605516,0.03943161614349987,0.01638422267638523,1.6348161697387695,2019-06-20 15:06:38:096
-8.62857080078125,-2.9615821533203124,1.2234183349609375,0.03397396683208686,0.03863266781647609,0.017183171003409,1.6399362087249756,2019-06-20 15:06:38:101
-8.616599975585938,-2.9280638427734376,1.1839146118164061,0.034506599050102706,0.03969793225250779,0.01651738073088919,1.6448001861572266,2019-06-20 15:06:38:106
-8.622585388183593,-2.9448229980468748,1.1934912719726563,0.03397396683208686,0.039564774198003826,0.015185800185849573,1.6499202251434326,2019-06-20 15:06:38:111
-8.624979553222657,-2.955596740722656,1.2198270874023438,0.03424028294109478,0.03983109030701175,0.0143868518588258,1.6547842025756836,2019-06-20 15:06:38:116
-8.623782470703125,-2.9627792358398435,1.2425716552734374,0.033707650723078936,0.03969793225250779,0.016117906567377306,1.6599040031433105,2019-06-20 15:06:38:121
-8.603432067871093,-2.9711588134765625,1.2282066650390624,0.03437344099559874,0.04049688057953156,0.01571843240386542,1.6647682189941406,2019-06-20 15:06:38:126
-8.60941748046875,-2.941231750488281,1.2030679321289062,0.0355718634861344,0.039564774198003826,0.016117906567377306,1.6698880195617676,2019-06-20 15:06:38:131
-8.593855407714843,-2.9136988525390626,1.163564208984375,0.033840808777582894,0.04089635474304345,0.016916854894401076,1.6747522354125977,2019-06-20 15:06:38:136
-8.626176635742187,-2.9579909057617186,1.2078562622070312,0.03344133461407101,0.04089635474304345,0.015984748512873345,1.6798720359802246,2019-06-20 15:06:38:141
-8.627373718261719,-2.9567938232421875,1.2090533447265626,0.03357449266857497,0.03943161614349987,0.018381593493944658,1.6849920749664307,2019-06-20 15:06:38:146
-8.62019122314453,-2.950808410644531,1.2066591796875,0.03357449266857497,0.039564774198003826,0.017050012948905038,1.6898560523986816,2019-06-20 15:06:38:151
-8.610614562988282,-2.9615821533203124,1.1839146118164061,0.03424028294109478,0.03836635170746817,0.017582645166920888,1.6949760913848877,2019-06-20 15:06:38:156
-8.605826232910156,-2.9520054931640622,1.201870849609375,0.033707650723078936,0.03849950976197213,0.017449487112416926,1.6998400688171387,2019-06-20 15:06:38:161
-8.614205810546874,-2.916093017578125,1.182717529296875,0.03410712488659082,0.03969793225250779,0.018248435439440696,1.7049601078033447,2019-06-20 15:06:38:166
-8.615402893066406,-2.922078430175781,1.1611700439453125,0.034506599050102706,0.0392984580889959,0.01771580322142485,1.7098240852355957,2019-06-20 15:06:38:171
-8.618994140625,-2.9113046875,1.2030679321289062,0.033840808777582894,0.03969793225250779,0.01771580322142485,1.7149441242218018,2019-06-20 15:06:38:176
-8.608220397949218,-2.9041221923828124,1.2258125,0.03477291515911063,0.039964248361515714,0.018115277384936734,1.7198081016540527,2019-06-20 15:06:38:181
-8.614205810546874,-2.9089105224609373,1.2090533447265626,0.03490607321361459,0.03903214197998798,0.017316329057912964,1.7249281406402588,2019-06-20 15:06:38:186
-8.641738708496094,-2.925669677734375,1.2030679321289062,0.034639757104606664,0.03983109030701175,0.01638422267638523,1.7297921180725098,2019-06-20 15:06:38:191
-8.618994140625,-2.916093017578125,1.2102504272460937,0.03490607321361459,0.039564774198003826,0.017050012948905038,1.7349121570587158,2019-06-20 15:06:38:196
-8.603432067871093,-2.9113046875,1.1707467041015625,0.03424028294109478,0.03916530003449194,0.015851590458369383,1.7397761344909668,2019-06-20 15:06:38:201
-8.614205810546874,-2.9172901000976563,1.1623671264648436,0.03330817655956705,0.039564774198003826,0.014919484076841646,1.7448961734771729,2019-06-20 15:06:38:206
-8.634556213378906,-2.9113046875,1.1743379516601562,0.03330817655956705,0.039564774198003826,0.015185800185849573,1.7497601509094238,2019-06-20 15:06:38:211
-8.614205810546874,-2.9232755126953123,1.21623583984375,0.03424028294109478,0.0392984580889959,0.015052642131345608,1.7548801898956299,2019-06-20 15:06:38:216
-8.616599975585938,-2.9328521728515624,1.2425716552734374,0.03330817655956705,0.04049688057953156,0.014653167967833723,1.760000228881836,2019-06-20 15:06:38:221
-8.639344543457032,-2.9460200805664063,1.2413745727539063,0.032242912123535354,0.04129582890655533,0.013721061586305991,1.764864206314087,2019-06-20 15:06:38:226
-8.635753295898438,-2.9436259155273437,1.2246154174804686,0.032242912123535354,0.04049688057953156,0.015185800185849573,1.7699840068817139,2019-06-20 15:06:38:231
-8.633359130859375,-2.9627792358398435,1.1958854370117187,0.033041860450559124,0.039564774198003826,0.0143868518588258,1.774848222732544,2019-06-20 15:06:38:236
-8.65730078125,-2.979538391113281,1.1958854370117187,0.031443963796511584,0.039564774198003826,0.014253693804321838,1.779968023300171,2019-06-20 15:06:38:241
-8.646527038574218,-2.9615821533203124,1.201870849609375,0.031443963796511584,0.039564774198003826,0.013188429368290141,1.7848320007324219,2019-06-20 15:06:38:246
-8.660892028808593,-2.94003466796875,1.2042650146484375,0.033041860450559124,0.0392984580889959,0.014120535749817876,1.789952039718628,2019-06-20 15:06:38:251
-8.617797058105468,-2.916093017578125,1.2186300048828125,0.03317501850506309,0.03916530003449194,0.015052642131345608,1.794816017150879,2019-06-20 15:06:38:256
-8.626176635742187,-2.922078430175781,1.17792919921875,0.032242912123535354,0.039564774198003826,0.013854219640809953,1.799936056137085,2019-06-20 15:06:38:261
-8.610614562988282,-2.8921513671875,1.2186300048828125,0.031044489632999692,0.039564774198003826,0.014520009913329761,1.804800033569336,2019-06-20 15:06:38:266
-8.615402893066406,-2.90172802734375,1.1994766845703124,0.030511857414983846,0.03903214197998798,0.012788955204778256,1.809920072555542,2019-06-20 15:06:38:271
-8.60941748046875,-2.925669677734375,1.2066591796875,0.030378699360479884,0.03916530003449194,0.013188429368290141,1.814784049987793,2019-06-20 15:06:38:276
-8.598643737792969,-2.9472171630859374,1.2198270874023438,0.031044489632999692,0.038898983925484014,0.013854219640809953,1.819904088973999,2019-06-20 15:06:38:281
-8.608220397949218,-2.9184871826171874,1.1946883544921876,0.03131080574200762,0.03969793225250779,0.01358790353180203,1.82476806640625,2019-06-20 15:06:38:286
-8.632162048339843,-2.9436259155273437,1.1910971069335938,0.031443963796511584,0.039564774198003826,0.01305527131378618,1.829888105392456,2019-06-20 15:06:38:291
-8.608220397949218,-2.9196842651367185,1.1695496215820311,0.030378699360479884,0.03943161614349987,0.01358790353180203,1.834752082824707,2019-06-20 15:06:38:296
-8.59026416015625,-2.9376405029296873,1.2030679321289062,0.030511857414983846,0.03916530003449194,0.012522639095770333,1.839872121810913,2019-06-20 15:06:38:301
-8.644132873535156,-2.9292609252929687,1.2054620971679688,0.031044489632999692,0.037966877543956286,0.012389481041266371,1.8449921607971191,2019-06-20 15:06:38:306
-8.641738708496094,-2.8921513671875,1.2258125,0.030645015469487807,0.03863266781647609,0.01225632298676241,1.8498561382293701,2019-06-20 15:06:38:311
-8.62857080078125,-2.9172901000976563,1.1910971069335938,0.03077817352399177,0.04049688057953156,0.01225632298676241,1.8549761772155762,2019-06-20 15:06:38:316
-8.660892028808593,-2.9304580078124998,1.2066591796875,0.029846067142464038,0.04009740641601968,0.012123164932258448,1.8598401546478271,2019-06-20 15:06:38:321
-8.654906616210937,-2.9340492553710935,1.192294189453125,0.029846067142464038,0.039564774198003826,0.013188429368290141,1.8649601936340332,2019-06-20 15:06:38:326
-8.634556213378906,-2.9340492553710935,1.221024169921875,0.029446592978952153,0.04009740641601968,0.012389481041266371,1.8698241710662842,2019-06-20 15:06:38:331
-8.629767883300781,-2.953202575683594,1.2461629028320311,0.029446592978952153,0.039564774198003826,0.01305527131378618,1.8749442100524902,2019-06-20 15:06:38:336
-8.624979553222657,-2.9136988525390626,1.1875058593749999,0.03091133157849573,0.039564774198003826,0.011057900496226753,1.8798081874847412,2019-06-20 15:06:38:341
-8.616599975585938,-2.9280638427734376,1.19708251953125,0.02918027686994423,0.040763196688539484,0.011057900496226753,1.8849282264709473,2019-06-20 15:06:38:346
-8.630964965820313,-2.9448229980468748,1.1934912719726563,0.02918027686994423,0.038765825870980056,0.01092474244172279,1.8900480270385742,2019-06-20 15:06:38:351
-8.633359130859375,-2.936443420410156,1.2222212524414062,0.029979225196968,0.0392984580889959,0.009593161896683172,1.8949120044708252,2019-06-20 15:06:38:356
-8.624979553222657,-2.9460200805664063,1.2090533447265626,0.030245541305975922,0.03903214197998798,0.010392110223706943,1.8997762203216553,2019-06-20 15:06:38:361
-8.634556213378906,-2.950808410644531,1.1719437866210938,0.030378699360479884,0.04009740641601968,0.010392110223706943,1.9048960208892822,2019-06-20 15:06:38:366
-8.622585388183593,-2.965173400878906,1.1934912719726563,0.030245541305975922,0.039564774198003826,0.01092474244172279,1.9097602367401123,2019-06-20 15:06:38:371
-8.592658325195313,-2.94003466796875,1.1910971069335938,0.031177647687503654,0.03823319365296421,0.010791584387218828,1.9148800373077393,2019-06-20 15:06:38:376
-8.624979553222657,-2.924472595214844,1.1958854370117187,0.03250922823254328,0.038898983925484014,0.011324216605234675,1.9200000762939453,2019-06-20 15:06:38:381
-8.587869995117188,-2.953202575683594,1.2186300048828125,0.03197659601452743,0.03903214197998798,0.010658426332714866,1.9248640537261963,2019-06-20 15:06:38:386
-8.616599975585938,-2.941231750488281,1.19708251953125,0.031044489632999692,0.03863266781647609,0.009593161896683172,1.9299840927124023,2019-06-20 15:06:38:391
-8.610614562988282,-2.9615821533203124,1.1719437866210938,0.031177647687503654,0.03916530003449194,0.009326845787675248,1.9348480701446533,2019-06-20 15:06:38:396
-8.62019122314453,-2.965173400878906,1.1875058593749999,0.03157712185101554,0.03863266781647609,0.009593161896683172,1.9399681091308594,2019-06-20 15:06:38:401
-8.634556213378906,-2.9436259155273437,1.221024169921875,0.03197659601452743,0.03903214197998798,0.009593161896683172,1.9448320865631104,2019-06-20 15:06:38:406
-8.659694946289063,-2.924472595214844,1.182717529296875,0.03131080574200762,0.03943161614349987,0.010392110223706943,1.9499521255493164,2019-06-20 15:06:38:411
-8.644132873535156,-2.8945455322265623,1.2066591796875,0.031177647687503654,0.03983109030701175,0.009326845787675248,1.9548161029815674,2019-06-20 15:06:38:416
-8.603432067871093,-2.9172901000976563,1.1815204467773437,0.03091133157849573,0.039564774198003826,0.010392110223706943,1.9599361419677734,2019-06-20 15:06:38:421
-8.621388305664063,-2.910107604980469,1.1946883544921876,0.03131080574200762,0.03849950976197213,0.008927371624163362,1.9648001194000244,2019-06-20 15:06:38:426
-8.617797058105468,-2.9340492553710935,1.2198270874023438,0.030245541305975922,0.03903214197998798,0.009593161896683172,1.9699201583862305,2019-06-20 15:06:38:431
-8.618994140625,-2.9424288330078125,1.1910971069335938,0.029846067142464038,0.038898983925484014,0.009060529678667323,1.9747841358184814,2019-06-20 15:06:38:436
-8.610614562988282,-2.9304580078124998,1.1863087768554688,0.03077817352399177,0.03836635170746817,0.01012579411469902,1.9799041748046875,2019-06-20 15:06:38:441
-8.603432067871093,-2.9172901000976563,1.1755350341796875,0.030645015469487807,0.03836635170746817,0.009326845787675248,1.9847681522369385,2019-06-20 15:06:38:446
-8.622585388183593,-2.9472171630859374,1.1946883544921876,0.03131080574200762,0.03770056143494836,0.0087942135696594,1.9898881912231445,2019-06-20 15:06:38:451
-8.598643737792969,-2.9280638427734376,1.1958854370117187,0.0327755443415512,0.039564774198003826,0.01012579411469902,1.9947521686553955,2019-06-20 15:06:38:456
-8.59146124267578,-2.954399658203125,1.1695496215820311,0.031177647687503654,0.039964248361515714,0.010658426332714866,1.9998722076416016,2019-06-20 15:06:38:461
-8.59026416015625,-2.936443420410156,1.1958854370117187,0.03091133157849573,0.03903214197998798,0.011590532714242601,2.0049920082092285,2019-06-20 15:06:38:466
-8.602234985351563,-2.954399658203125,1.1791262817382813,0.03091133157849573,0.038898983925484014,0.010525268278210905,2.0098562240600586,2019-06-20 15:06:38:471
-8.613008728027344,-2.9615821533203124,1.1910971069335938,0.030645015469487807,0.0392984580889959,0.01092474244172279,2.0149760246276855,2019-06-20 15:06:38:476
-8.60941748046875,-2.9855238037109375,1.1863087768554688,0.030645015469487807,0.038898983925484014,0.011324216605234675,2.0198400020599365,2019-06-20 15:06:38:481
-8.596249572753907,-2.9998887939453125,1.2102504272460937,0.03091133157849573,0.03863266781647609,0.012389481041266371,2.0249600410461426,2019-06-20 15:06:38:486
-8.5806875,-2.9603850708007813,1.2042650146484375,0.03171027990551951,0.03849950976197213,0.01092474244172279,2.0298240184783936,2019-06-20 15:06:38:491
-8.585475830078124,-2.936443420410156,1.1887029418945312,0.031443963796511584,0.038898983925484014,0.012123164932258448,2.0349440574645996,2019-06-20 15:06:38:496
-8.592658325195313,-2.9687646484375,1.221024169921875,0.03197659601452743,0.039564774198003826,0.013454745477298068,2.0398080348968506,2019-06-20 15:06:38:501
-8.601037902832031,-2.9723558959960936,1.2222212524414062,0.03197659601452743,0.04023056447052364,0.012788955204778256,2.0449280738830566,2019-06-20 15:06:38:506
-8.616599975585938,-2.963976318359375,1.1887029418945312,0.03077817352399177,0.04049688057953156,0.013854219640809953,2.0497920513153076,2019-06-20 15:06:38:511
-8.607023315429688,-2.969961730957031,1.192294189453125,0.033041860450559124,0.04023056447052364,0.014120535749817876,2.0549120903015137,2019-06-20 15:06:38:516
-8.614205810546874,-2.9675675659179688,1.2054620971679688,0.03357449266857497,0.03916530003449194,0.013854219640809953,2.0597760677337646,2019-06-20 15:06:38:521
-8.577096252441406,-3.0154508666992186,1.1695496215820311,0.03290870239605516,0.0392984580889959,0.015052642131345608,2.0648961067199707,2019-06-20 15:06:38:526
-8.569913757324219,-2.9711588134765625,1.1910971069335938,0.0327755443415512,0.04049688057953156,0.014253693804321838,2.0697600841522217,2019-06-20 15:06:38:531
-8.581884582519532,-2.9747500610351563,1.182717529296875,0.03290870239605516,0.04023056447052364,0.015052642131345608,2.0748801231384277,2019-06-20 15:06:38:536
-8.595052490234375,-2.979538391113281,1.1527904663085937,0.032242912123535354,0.03943161614349987,0.01638422267638523,2.080000162124634,2019-06-20 15:06:38:541
-8.613008728027344,-2.9436259155273437,1.211447509765625,0.0327755443415512,0.038765825870980056,0.015851590458369383,2.0848641395568848,2019-06-20 15:06:38:546
-8.605826232910156,-2.9460200805664063,1.19708251953125,0.03237607017803931,0.0392984580889959,0.016650538785393153,2.089984178543091,2019-06-20 15:06:38:551
-8.603432067871093,-2.9340492553710935,1.1839146118164061,0.031843437960023466,0.039964248361515714,0.01651738073088919,2.094848155975342,2019-06-20 15:06:38:556
-8.597446655273437,-2.949611328125,1.2150387573242187,0.03210975406903139,0.038765825870980056,0.017050012948905038,2.099968194961548,2019-06-20 15:06:38:561
-8.622585388183593,-2.9436259155273437,1.2234183349609375,0.03330817655956705,0.03863266781647609,0.016251064621881268,2.104832172393799,2019-06-20 15:06:38:566
-8.636950378417968,-2.969961730957031,1.192294189453125,0.032642386287047236,0.038765825870980056,0.016251064621881268,2.109952211380005,2019-06-20 15:06:38:571
-8.632162048339843,-2.9771442260742185,1.21623583984375,0.0327755443415512,0.038100035598460244,0.015984748512873345,2.114816188812256,2019-06-20 15:06:38:576
-8.613008728027344,-2.9520054931640622,1.2090533447265626,0.03237607017803931,0.03983109030701175,0.01651738073088919,2.119936227798462,2019-06-20 15:06:38:581
-8.627373718261719,-2.9591879882812497,1.1994766845703124,0.0327755443415512,0.039564774198003826,0.016916854894401076,2.124800205230713,2019-06-20 15:06:38:586
-8.626176635742187,-2.936443420410156,1.1743379516601562,0.03317501850506309,0.04009740641601968,0.016783696839897114,2.12992000579834,2019-06-20 15:06:38:591
-8.603432067871093,-2.949611328125,1.1994766845703124,0.03157712185101554,0.040630038634035526,0.017316329057912964,2.13478422164917,2019-06-20 15:06:38:596
-8.59146124267578,-2.953202575683594,1.1958854370117187,0.032642386287047236,0.03943161614349987,0.016916854894401076,2.139904022216797,2019-06-20 15:06:38:601
-8.614205810546874,-2.9376405029296873,1.1503963012695313,0.031843437960023466,0.038765825870980056,0.016650538785393153,2.144768238067627,2019-06-20 15:06:38:606
-8.630964965820313,-2.941231750488281,1.1851116943359374,0.03197659601452743,0.038100035598460244,0.018381593493944658,2.149888038635254,2019-06-20 15:06:38:611
-8.635753295898438,-2.907713439941406,1.1899000244140625,0.031843437960023466,0.03863266781647609,0.01651738073088919,2.154752016067505,2019-06-20 15:06:38:616
-8.62019122314453,-2.926866760253906,1.2138416748046874,0.033041860450559124,0.03849950976197213,0.017183171003409,2.159872055053711,2019-06-20 15:06:38:621
-8.615402893066406,-2.9196842651367185,1.192294189453125,0.03317501850506309,0.038898983925484014,0.017316329057912964,2.164992094039917,2019-06-20 15:06:38:626
-8.62019122314453,-2.92088134765625,1.1958854370117187,0.03317501850506309,0.038765825870980056,0.016117906567377306,2.169856071472168,2019-06-20 15:06:38:631
-8.596249572753907,-2.922078430175781,1.1958854370117187,0.03197659601452743,0.04023056447052364,0.015585274349361458,2.174976110458374,2019-06-20 15:06:38:636
-8.601037902832031,-2.9292609252929687,1.1839146118164061,0.03250922823254328,0.03943161614349987,0.01571843240386542,2.179840087890625,2019-06-20 15:06:38:641
-8.626176635742187,-2.912501770019531,1.2138416748046874,0.03290870239605516,0.04089635474304345,0.014653167967833723,2.184960126876831,2019-06-20 15:06:38:646
-8.608220397949218,-2.9280638427734376,1.19708251953125,0.03317501850506309,0.04009740641601968,0.013987377695313915,2.189824104309082,2019-06-20 15:06:38:651
-8.650118286132813,-2.9136988525390626,1.2030679321289062,0.033840808777582894,0.03916530003449194,0.01638422267638523,2.194944143295288,2019-06-20 15:06:38:656
-8.632162048339843,-2.9136988525390626,1.2365862426757812,0.033041860450559124,0.03916530003449194,0.015318958240353535,2.199808120727539,2019-06-20 15:06:38:661
-8.605826232910156,-2.90172802734375,1.1934912719726563,0.03290870239605516,0.03969793225250779,0.015052642131345608,2.204928159713745,2019-06-20 15:06:38:666
-8.621388305664063,-2.936443420410156,1.2054620971679688,0.031443963796511584,0.03969793225250779,0.0143868518588258,2.209792137145996,2019-06-20 15:06:38:671
-8.624979553222657,-2.941231750488281,1.2138416748046874,0.03171027990551951,0.03943161614349987,0.01358790353180203,2.214912176132202,2019-06-20 15:06:38:676
-8.598643737792969,-2.9340492553710935,1.2090533447265626,0.03171027990551951,0.04023056447052364,0.012522639095770333,2.219776153564453,2019-06-20 15:06:38:681
-8.608220397949218,-2.925669677734375,1.2054620971679688,0.031843437960023466,0.04009740641601968,0.012123164932258448,2.224896192550659,2019-06-20 15:06:38:686
-8.62019122314453,-2.9340492553710935,1.2138416748046874,0.0327755443415512,0.03903214197998798,0.01225632298676241,2.22976016998291,2019-06-20 15:06:38:691
-8.626176635742187,-2.938837585449219,1.1946883544921876,0.03357449266857497,0.03770056143494836,0.012123164932258448,2.234880208969116,2019-06-20 15:06:38:696
-8.614205810546874,-2.925669677734375,1.1982796020507813,0.03290870239605516,0.037966877543956286,0.012522639095770333,2.240000009536743,2019-06-20 15:06:38:701
-8.634556213378906,-2.9436259155273437,1.1683525390625,0.03290870239605516,0.038898983925484014,0.01305527131378618,2.2448642253875732,2019-06-20 15:06:38:706
-8.614205810546874,-2.9460200805664063,1.17792919921875,0.033041860450559124,0.03943161614349987,0.013721061586305991,2.2499840259552,2019-06-20 15:06:38:711
-8.636950378417968,-2.9448229980468748,1.1910971069335938,0.03210975406903139,0.03943161614349987,0.013721061586305991,2.254848003387451,2019-06-20 15:06:38:716
-8.636950378417968,-2.9304580078124998,1.19708251953125,0.03157712185101554,0.039964248361515714,0.013454745477298068,2.2599680423736572,2019-06-20 15:06:38:721
-8.615402893066406,-2.9136988525390626,1.2078562622070312,0.03290870239605516,0.038765825870980056,0.013454745477298068,2.264832019805908,2019-06-20 15:06:38:726
-8.617797058105468,-2.953202575683594,1.1982796020507813,0.033041860450559124,0.039964248361515714,0.011856848823250525,2.2699520587921143,2019-06-20 15:06:38:731
-8.611811645507812,-2.94003466796875,1.240177490234375,0.033041860450559124,0.03903214197998798,0.012123164932258448,2.2748160362243652,2019-06-20 15:06:38:736
-8.610614562988282,-2.9472171630859374,1.2030679321289062,0.03397396683208686,0.038898983925484014,0.013188429368290141,2.2799360752105713,2019-06-20 15:06:38:741
-8.603432067871093,-2.9448229980468748,1.1755350341796875,0.03330817655956705,0.038898983925484014,0.014120535749817876,2.2848000526428223,2019-06-20 15:06:38:746
-8.617797058105468,-2.936443420410156,1.1719437866210938,0.03344133461407101,0.038898983925484014,0.015052642131345608,2.2899200916290283,2019-06-20 15:06:38:751
-8.636950378417968,-2.9376405029296873,1.2258125,0.03290870239605516,0.03903214197998798,0.014253693804321838,2.2947840690612793,2019-06-20 15:06:38:756
-8.62019122314453,-2.9328521728515624,1.2150387573242187,0.03317501850506309,0.037966877543956286,0.01358790353180203,2.2999041080474854,2019-06-20 15:06:38:761
-8.5998408203125,-2.907713439941406,1.2126445922851563,0.03237607017803931,0.03849950976197213,0.013321587422794106,2.3047680854797363,2019-06-20 15:06:38:766
-8.607023315429688,-2.9448229980468748,1.1839146118164061,0.03290870239605516,0.03916530003449194,0.014520009913329761,2.3098881244659424,2019-06-20 15:06:38:771
-8.611811645507812,-2.9579909057617186,1.2078562622070312,0.03330817655956705,0.039564774198003826,0.014653167967833723,2.3147521018981934,2019-06-20 15:06:38:776
-8.611811645507812,-2.9579909057617186,1.2078562622070312,0.03330817655956705,0.039564774198003826,0.014653167967833723,2.317824125289917,2019-06-20 15:06:38:779
-8.65730078125,-2.9903121337890624,1.2006737670898437,0.0327755443415512,0.04009740641601968,0.014520009913329761,2.3249921798706055,2019-06-20 15:06:38:786
-8.65730078125,-2.9903121337890624,1.2006737670898437,0.0327755443415512,0.04009740641601968,0.014520009913329761,2.327808141708374,2019-06-20 15:06:38:789
-8.605826232910156,-2.924472595214844,1.1899000244140625,0.03210975406903139,0.037966877543956286,0.0143868518588258,2.3349761962890625,2019-06-20 15:06:38:796
-8.605826232910156,-2.924472595214844,1.1899000244140625,0.03210975406903139,0.037966877543956286,0.0143868518588258,2.337792158126831,2019-06-20 15:06:38:799
-8.632162048339843,-2.938837585449219,1.211447509765625,0.0327755443415512,0.039564774198003826,0.0143868518588258,2.3449602127075195,2019-06-20 15:06:38:806
-8.618994140625,-2.9484142456054685,1.1946883544921876,0.03250922823254328,0.04023056447052364,0.014253693804321838,2.3498241901397705,2019-06-20 15:06:38:811
-8.642935791015624,-2.9196842651367185,1.2222212524414062,0.03437344099559874,0.03916530003449194,0.013721061586305991,2.3549442291259766,2019-06-20 15:06:38:816
-8.630964965820313,-2.9280638427734376,1.1875058593749999,0.03477291515911063,0.0375674033804444,0.013721061586305991,2.3598082065582275,2019-06-20 15:06:38:821
-8.642935791015624,-2.9436259155273437,1.2030679321289062,0.03397396683208686,0.03863266781647609,0.014120535749817876,2.3649280071258545,2019-06-20 15:06:38:826
-8.627373718261719,-2.9340492553710935,1.2270095825195313,0.034506599050102706,0.03969793225250779,0.014520009913329761,2.3697922229766846,2019-06-20 15:06:38:831
-8.615402893066406,-2.9304580078124998,1.2258125,0.03437344099559874,0.040630038634035526,0.013854219640809953,2.3749120235443115,2019-06-20 15:06:38:836
-8.615402893066406,-2.9520054931640622,1.2102504272460937,0.03210975406903139,0.04009740641601968,0.01358790353180203,2.3797760009765625,2019-06-20 15:06:38:841
-8.615402893066406,-2.9520054931640622,1.2102504272460937,0.03317501850506309,0.038898983925484014,0.01358790353180203,2.3848960399627686,2019-06-20 15:06:38:846
-8.598643737792969,-2.936443420410156,1.192294189453125,0.03344133461407101,0.038765825870980056,0.014786326022337684,2.3897600173950195,2019-06-20 15:06:38:851
-8.581884582519532,-2.9376405029296873,1.192294189453125,0.03344133461407101,0.03943161614349987,0.015318958240353535,2.3948800563812256,2019-06-20 15:06:38:856
-8.613008728027344,-2.963976318359375,1.1803233642578124,0.034506599050102706,0.039564774198003826,0.014653167967833723,2.4000000953674316,2019-06-20 15:06:38:861
-8.621388305664063,-2.94003466796875,1.2126445922851563,0.032642386287047236,0.039564774198003826,0.014653167967833723,2.4048640727996826,2019-06-20 15:06:38:866
-8.597446655273437,-2.9424288330078125,1.2174329223632812,0.033707650723078936,0.0392984580889959,0.014653167967833723,2.4099841117858887,2019-06-20 15:06:38:871
-8.626176635742187,-2.94003466796875,1.2246154174804686,0.033041860450559124,0.039564774198003826,0.014120535749817876,2.4148480892181396,2019-06-20 15:06:38:876
-8.645329956054688,-2.9184871826171874,1.2258125,0.03330817655956705,0.03983109030701175,0.013987377695313915,2.4199681282043457,2019-06-20 15:06:38:881
-8.624979553222657,-2.936443420410156,1.1839146118164061,0.03397396683208686,0.03863266781647609,0.0143868518588258,2.4248321056365967,2019-06-20 15:06:38:886
-8.60941748046875,-2.9232755126953123,1.2138416748046874,0.03330817655956705,0.03943161614349987,0.014786326022337684,2.4299521446228027,2019-06-20 15:06:38:891
-8.632162048339843,-2.9053192749023435,1.2353891601562499,0.03237607017803931,0.03849950976197213,0.01358790353180203,2.4348161220550537,2019-06-20 15:06:38:896
-8.607023315429688,-2.9232755126953123,1.2186300048828125,0.032642386287047236,0.0392984580889959,0.014653167967833723,2.4399361610412598,2019-06-20 15:06:38:901
-8.636950378417968,-2.9292609252929687,1.2365862426757812,0.03290870239605516,0.0392984580889959,0.014120535749817876,2.4448001384735107,2019-06-20 15:06:38:906
-8.641738708496094,-2.9472171630859374,1.201870849609375,0.03357449266857497,0.03969793225250779,0.013987377695313915,2.449920177459717,2019-06-20 15:06:38:911
-8.626176635742187,-2.9484142456054685,1.2006737670898437,0.03290870239605516,0.038898983925484014,0.013721061586305991,2.4547841548919678,2019-06-20 15:06:38:916
-8.632162048339843,-2.9520054931640622,1.211447509765625,0.033041860450559124,0.0392984580889959,0.014653167967833723,2.459904193878174,2019-06-20 15:06:38:921
-8.636950378417968,-2.941231750488281,1.2258125,0.0327755443415512,0.03943161614349987,0.014653167967833723,2.464768171310425,2019-06-20 15:06:38:926
-8.614205810546874,-2.9484142456054685,1.2174329223632812,0.03197659601452743,0.03943161614349987,0.014120535749817876,2.469888210296631,2019-06-20 15:06:38:931
-8.608220397949218,-2.9448229980468748,1.2282066650390624,0.032242912123535354,0.03916530003449194,0.013321587422794106,2.474752187728882,2019-06-20 15:06:38:936
-8.632162048339843,-2.9292609252929687,1.2066591796875,0.03237607017803931,0.04009740641601968,0.014253693804321838,2.479872226715088,2019-06-20 15:06:38:941
-8.629767883300781,-2.9579909057617186,1.1910971069335938,0.032242912123535354,0.038765825870980056,0.013721061586305991,2.484992027282715,2019-06-20 15:06:38:946
-8.615402893066406,-2.9687646484375,1.2138416748046874,0.03290870239605516,0.038898983925484014,0.0143868518588258,2.489856004714966,2019-06-20 15:06:38:951
-8.614205810546874,-2.9520054931640622,1.1671554565429687,0.032642386287047236,0.0403637225250276,0.014120535749817876,2.494976043701172,2019-06-20 15:06:38:956
-8.59026416015625,-2.936443420410156,1.1480021362304687,0.03210975406903139,0.038898983925484014,0.013454745477298068,2.499840021133423,2019-06-20 15:06:38:961
-8.621388305664063,-2.935246337890625,1.134834228515625,0.03171027990551951,0.03823319365296421,0.013321587422794106,2.504960060119629,2019-06-20 15:06:38:966
-8.644132873535156,-2.9675675659179688,1.14919921875,0.03171027990551951,0.037966877543956286,0.013321587422794106,2.50982403755188,2019-06-20 15:06:38:971
-8.651315368652343,-2.94003466796875,1.1899000244140625,0.03171027990551951,0.038765825870980056,0.012655797150274295,2.514944076538086,2019-06-20 15:06:38:976
-8.624979553222657,-2.9520054931640622,1.211447509765625,0.031177647687503654,0.03783371948945232,0.013721061586305991,2.519808053970337,2019-06-20 15:06:38:981
-8.632162048339843,-2.9567938232421875,1.1958854370117187,0.031044489632999692,0.0392984580889959,0.013987377695313915,2.524928092956543,2019-06-20 15:06:38:986
-8.623782470703125,-2.9567938232421875,1.2186300048828125,0.03317501850506309,0.03943161614349987,0.014120535749817876,2.529792070388794,2019-06-20 15:06:38:991
-8.602234985351563,-2.953202575683594,1.19708251953125,0.031044489632999692,0.03903214197998798,0.015452116294857496,2.534912109375,2019-06-20 15:06:38:996
-8.604629150390625,-2.9472171630859374,1.2138416748046874,0.03131080574200762,0.03983109030701175,0.015185800185849573,2.539776086807251,2019-06-20 15:06:39:001
-8.596249572753907,-2.9340492553710935,1.2006737670898437,0.032642386287047236,0.03983109030701175,0.014653167967833723,2.544896125793457,2019-06-20 15:06:39:006
-8.603432067871093,-2.94003466796875,1.2006737670898437,0.03091133157849573,0.03969793225250779,0.014120535749817876,2.549760103225708,2019-06-20 15:06:39:011
-8.614205810546874,-2.969961730957031,1.211447509765625,0.03157712185101554,0.03849950976197213,0.015452116294857496,2.554880142211914,2019-06-20 15:06:39:016
-8.629767883300781,-2.97834130859375,1.2389804077148436,0.032242912123535354,0.038898983925484014,0.0143868518588258,2.56000018119812,2019-06-20 15:06:39:021
-8.633359130859375,-2.935246337890625,1.1946883544921876,0.031443963796511584,0.03903214197998798,0.013854219640809953,2.564864158630371,2019-06-20 15:06:39:026
-8.605826232910156,-2.926866760253906,1.211447509765625,0.03131080574200762,0.03969793225250779,0.014120535749817876,2.569984197616577,2019-06-20 15:06:39:031
-8.618994140625,-2.9460200805664063,1.182717529296875,0.031443963796511584,0.040763196688539484,0.015452116294857496,2.574848175048828,2019-06-20 15:06:39:036
-8.636950378417968,-2.9520054931640622,1.1551846313476561,0.031843437960023466,0.04009740641601968,0.015052642131345608,2.579968214035034,2019-06-20 15:06:39:041
-8.65730078125,-2.9316550903320313,1.14919921875,0.031044489632999692,0.0403637225250276,0.014520009913329761,2.584832191467285,2019-06-20 15:06:39:046
-8.632162048339843,-2.9448229980468748,1.1743379516601562,0.031843437960023466,0.039564774198003826,0.013321587422794106,2.589952230453491,2019-06-20 15:06:39:051
-8.62019122314453,-2.9472171630859374,1.1958854370117187,0.03197659601452743,0.03969793225250779,0.013987377695313915,2.594816207885742,2019-06-20 15:06:39:056
-8.587869995117188,-2.9567938232421875,1.2353891601562499,0.032242912123535354,0.03943161614349987,0.013987377695313915,2.599936008453369,2019-06-20 15:06:39:061
-8.615402893066406,-2.953202575683594,1.2473599853515625,0.03290870239605516,0.03916530003449194,0.013454745477298068,2.604800224304199,2019-06-20 15:06:39:066
-8.614205810546874,-2.9615821533203124,1.2222212524414062,0.03317501850506309,0.03983109030701175,0.014919484076841646,2.609920024871826,2019-06-20 15:06:39:071
-8.614205810546874,-2.950808410644531,1.211447509765625,0.03357449266857497,0.03983109030701175,0.015851590458369383,2.614784002304077,2019-06-20 15:06:39:076
-8.605826232910156,-2.935246337890625,1.2042650146484375,0.033707650723078936,0.0392984580889959,0.014786326022337684,2.619904041290283,2019-06-20 15:06:39:081
-8.587869995117188,-2.9340492553710935,1.1791262817382813,0.03210975406903139,0.03849950976197213,0.01571843240386542,2.624768018722534,2019-06-20 15:06:39:086
-8.604629150390625,-2.980735473632812,1.1803233642578124,0.03157712185101554,0.03969793225250779,0.014786326022337684,2.6298880577087402,2019-06-20 15:06:39:091
-8.607023315429688,-2.955596740722656,1.2006737670898437,0.03317501850506309,0.03916530003449194,0.014786326022337684,2.634752035140991,2019-06-20 15:06:39:096
-8.604629150390625,-2.9627792358398435,1.1994766845703124,0.03424028294109478,0.03836635170746817,0.01571843240386542,2.6398720741271973,2019-06-20 15:06:39:101
-8.581884582519532,-2.9304580078124998,1.1994766845703124,0.03477291515911063,0.03943161614349987,0.015052642131345608,2.6449921131134033,2019-06-20 15:06:39:106
-8.593855407714843,-2.9340492553710935,1.182717529296875,0.034506599050102706,0.0403637225250276,0.01638422267638523,2.6498560905456543,2019-06-20 15:06:39:111
-8.615402893066406,-2.9472171630859374,1.1887029418945312,0.03503923126811855,0.040630038634035526,0.01571843240386542,2.6549761295318604,2019-06-20 15:06:39:116
-8.598643737792969,-2.938837585449219,1.2126445922851563,0.0355718634861344,0.03983109030701175,0.016251064621881268,2.6598401069641113,2019-06-20 15:06:39:121
-8.608220397949218,-2.936443420410156,1.2521483154296875,0.034639757104606664,0.038100035598460244,0.015452116294857496,2.6649601459503174,2019-06-20 15:06:39:126
-8.641738708496094,-2.9184871826171874,1.211447509765625,0.03424028294109478,0.03916530003449194,0.015585274349361458,2.6698241233825684,2019-06-20 15:06:39:131
-8.602234985351563,-2.92088134765625,1.21623583984375,0.03317501850506309,0.03943161614349987,0.017183171003409,2.6749441623687744,2019-06-20 15:06:39:136
-8.602234985351563,-2.906516357421875,1.2150387573242187,0.03344133461407101,0.038898983925484014,0.01571843240386542,2.6798081398010254,2019-06-20 15:06:39:141
-8.60941748046875,-2.9232755126953123,1.1887029418945312,0.03357449266857497,0.03969793225250779,0.015318958240353535,2.6849281787872314,2019-06-20 15:06:39:146
-8.623782470703125,-2.935246337890625,1.2138416748046874,0.034506599050102706,0.03836635170746817,0.015318958240353535,2.6897921562194824,2019-06-20 15:06:39:151
-8.601037902832031,-2.9328521728515624,1.1899000244140625,0.034506599050102706,0.038898983925484014,0.015318958240353535,2.6949121952056885,2019-06-20 15:06:39:156
-8.60941748046875,-2.938837585449219,1.182717529296875,0.03410712488659082,0.03983109030701175,0.015452116294857496,2.6997761726379395,2019-06-20 15:06:39:161
-8.611811645507812,-2.9316550903320313,1.1803233642578124,0.03330817655956705,0.04102951279754741,0.015052642131345608,2.7048962116241455,2019-06-20 15:06:39:166
-8.62019122314453,-2.941231750488281,1.2413745727539063,0.03157712185101554,0.041428986961059296,0.014253693804321838,2.7097601890563965,2019-06-20 15:06:39:171
-8.627373718261719,-2.94003466796875,1.2234183349609375,0.031443963796511584,0.03943161614349987,0.014253693804321838,2.7148802280426025,2019-06-20 15:06:39:176
-8.602234985351563,-2.9615821533203124,1.1755350341796875,0.03317501850506309,0.0403637225250276,0.015052642131345608,2.7200000286102295,2019-06-20 15:06:39:181
-8.615402893066406,-2.936443420410156,1.1480021362304687,0.033840808777582894,0.040763196688539484,0.01571843240386542,2.7248640060424805,2019-06-20 15:06:39:186
-8.650118286132813,-2.9304580078124998,1.182717529296875,0.03250922823254328,0.040630038634035526,0.015585274349361458,2.7299840450286865,2019-06-20 15:06:39:191
-8.618994140625,-2.94003466796875,1.1755350341796875,0.03131080574200762,0.03983109030701175,0.01651738073088919,2.7348480224609375,2019-06-20 15:06:39:196
-8.613008728027344,-2.949611328125,1.1659583740234374,0.03077817352399177,0.0403637225250276,0.015851590458369383,2.7399680614471436,2019-06-20 15:06:39:201
-8.593855407714843,-2.9448229980468748,1.1599729614257812,0.03237607017803931,0.03983109030701175,0.015585274349361458,2.7448320388793945,2019-06-20 15:06:39:206
-8.617797058105468,-2.9484142456054685,1.19708251953125,0.03197659601452743,0.03969793225250779,0.016650538785393153,2.7499520778656006,2019-06-20 15:06:39:211
-8.629767883300781,-2.955596740722656,1.17792919921875,0.0327755443415512,0.04009740641601968,0.01651738073088919,2.7548160552978516,2019-06-20 15:06:39:216
-8.613008728027344,-2.969961730957031,1.2270095825195313,0.03237607017803931,0.04009740641601968,0.017316329057912964,2.7599360942840576,2019-06-20 15:06:39:221
-8.618994140625,-2.936443420410156,1.182717529296875,0.0327755443415512,0.04023056447052364,0.016251064621881268,2.7648000717163086,2019-06-20 15:06:39:226
-8.621388305664063,-2.9627792358398435,1.1994766845703124,0.0327755443415512,0.0403637225250276,0.015318958240353535,2.7699201107025146,2019-06-20 15:06:39:231
-8.632162048339843,-2.9603850708007813,1.182717529296875,0.03317501850506309,0.03943161614349987,0.01638422267638523,2.7747840881347656,2019-06-20 15:06:39:236
-8.623782470703125,-2.9292609252929687,1.1887029418945312,0.03330817655956705,0.04009740641601968,0.017449487112416926,2.7799041271209717,2019-06-20 15:06:39:241
-8.617797058105468,-2.955596740722656,1.1803233642578124,0.03317501850506309,0.03916530003449194,0.018248435439440696,2.7847681045532227,2019-06-20 15:06:39:246
-8.618994140625,-2.9328521728515624,1.1946883544921876,0.03290870239605516,0.03943161614349987,0.01864790960295258,2.7898881435394287,2019-06-20 15:06:39:251
-8.623782470703125,-2.941231750488281,1.2246154174804686,0.03157712185101554,0.04102951279754741,0.018248435439440696,2.7947521209716797,2019-06-20 15:06:39:256
-8.624979553222657,-2.954399658203125,1.2174329223632812,0.03131080574200762,0.040630038634035526,0.018381593493944658,2.7998721599578857,2019-06-20 15:06:39:261
-8.627373718261719,-2.953202575683594,1.1695496215820311,0.03344133461407101,0.0392984580889959,0.018914225711960504,2.804992198944092,2019-06-20 15:06:39:266
-8.614205810546874,-2.9663704833984372,1.1503963012695313,0.03397396683208686,0.039964248361515714,0.018381593493944658,2.8098561763763428,2019-06-20 15:06:39:271
-8.602234985351563,-2.9376405029296873,1.1719437866210938,0.033707650723078936,0.04049688057953156,0.01918054182096843,2.814976215362549,2019-06-20 15:06:39:276
-8.616599975585938,-2.912501770019531,1.1791262817382813,0.03357449266857497,0.040763196688539484,0.01918054182096843,2.8198401927948,2019-06-20 15:06:39:281
-8.617797058105468,-2.8861659545898437,1.1791262817382813,0.03317501850506309,0.040630038634035526,0.01864790960295258,2.824960231781006,2019-06-20 15:06:39:286
-8.627373718261719,-2.9376405029296873,1.1527904663085937,0.031843437960023466,0.03823319365296421,0.01638422267638523,2.829824209213257,2019-06-20 15:06:39:291
-8.629767883300781,-2.9340492553710935,1.1288488159179688,0.0327755443415512,0.03903214197998798,0.01784896127592881,2.834944009780884,2019-06-20 15:06:39:296
-8.608220397949218,-2.9172901000976563,1.1647612915039063,0.03330817655956705,0.039564774198003826,0.018248435439440696,2.839808225631714,2019-06-20 15:06:39:301
-8.624979553222657,-2.9089105224609373,1.201870849609375,0.034506599050102706,0.0392984580889959,0.018381593493944658,2.844928026199341,2019-06-20 15:06:39:306
-8.629767883300781,-2.88257470703125,1.1887029418945312,0.03517238932262252,0.03916530003449194,0.017582645166920888,2.849792003631592,2019-06-20 15:06:39:311
-8.613008728027344,-2.9148959350585937,1.1982796020507813,0.03317501850506309,0.03863266781647609,0.01638422267638523,2.854912042617798,2019-06-20 15:06:39:316
-8.629767883300781,-2.9316550903320313,1.17792919921875,0.03317501850506309,0.038898983925484014,0.015318958240353535,2.859776020050049,2019-06-20 15:06:39:321
-8.62857080078125,-2.926866760253906,1.2078562622070312,0.0327755443415512,0.03849950976197213,0.015185800185849573,2.864896059036255,2019-06-20 15:06:39:326
-8.635753295898438,-2.922078430175781,1.1910971069335938,0.03317501850506309,0.03943161614349987,0.014253693804321838,2.869760036468506,2019-06-20 15:06:39:331
-8.608220397949218,-2.9053192749023435,1.2066591796875,0.03477291515911063,0.03849950976197213,0.013987377695313915,2.874880075454712,2019-06-20 15:06:39:336
-8.615402893066406,-2.895742614746094,1.1851116943359374,0.03424028294109478,0.038100035598460244,0.013987377695313915,2.880000114440918,2019-06-20 15:06:39:341
-8.616599975585938,-2.9089105224609373,1.1791262817382813,0.03344133461407101,0.039964248361515714,0.012788955204778256,2.884864091873169,2019-06-20 15:06:39:346
-8.616599975585938,-2.8945455322265623,1.1803233642578124,0.03317501850506309,0.03969793225250779,0.011723690768746563,2.889984130859375,2019-06-20 15:06:39:351
-8.618994140625,-2.8897572021484375,1.163564208984375,0.032242912123535354,0.04009740641601968,0.012655797150274295,2.894848108291626,2019-06-20 15:06:39:356
-8.604629150390625,-2.895742614746094,1.1503963012695313,0.03077817352399177,0.039964248361515714,0.01225632298676241,2.899968147277832,2019-06-20 15:06:39:361
-8.59026416015625,-2.896939697265625,1.1563817138671875,0.03131080574200762,0.039564774198003826,0.01145737465973864,2.904832124710083,2019-06-20 15:06:39:366
-8.610614562988282,-2.9041221923828124,1.1815204467773437,0.031843437960023466,0.038898983925484014,0.011590532714242601,2.909952163696289,2019-06-20 15:06:39:371
-8.624979553222657,-2.9232755126953123,1.2413745727539063,0.03250922823254328,0.03823319365296421,0.011191058550730713,2.91481614112854,2019-06-20 15:06:39:376
-8.618994140625,-2.922078430175781,1.2138416748046874,0.03131080574200762,0.038898983925484014,0.010525268278210905,2.919936180114746,2019-06-20 15:06:39:381
-8.626176635742187,-2.90172802734375,1.21623583984375,0.03131080574200762,0.038898983925484014,0.010525268278210905,2.924800157546997,2019-06-20 15:06:39:386
-8.624979553222657,-2.8945455322265623,1.2246154174804686,0.030378699360479884,0.03863266781647609,0.00946000384217921,2.929920196533203,2019-06-20 15:06:39:391
-8.622585388183593,-2.9148959350585937,1.2090533447265626,0.029979225196968,0.03916530003449194,0.007862107188131667,2.934784173965454,2019-06-20 15:06:39:396
-8.62019122314453,-2.9172901000976563,1.2353891601562499,0.030511857414983846,0.0392984580889959,0.007862107188131667,2.93990421295166,2019-06-20 15:06:39:401
-8.634556213378906,-2.9172901000976563,1.1958854370117187,0.03197659601452743,0.038100035598460244,0.007862107188131667,2.944768190383911,2019-06-20 15:06:39:406
-8.634556213378906,-2.9340492553710935,1.1899000244140625,0.031044489632999692,0.03836635170746817,0.007462633024619782,2.949888229370117,2019-06-20 15:06:39:411
-8.635753295898438,-2.941231750488281,1.1563817138671875,0.029846067142464038,0.039564774198003826,0.007329474970115818,2.954752206802368,2019-06-20 15:06:39:416
-8.614205810546874,-2.9376405029296873,1.1551846313476561,0.028780802706432344,0.03903214197998798,0.007462633024619782,2.959872007369995,2019-06-20 15:06:39:421
-8.639344543457032,-2.938837585449219,1.1875058593749999,0.029846067142464038,0.038898983925484014,0.007728949133627705,2.964992046356201,2019-06-20 15:06:39:426
-8.635753295898438,-2.9292609252929687,1.1994766845703124,0.029579751033456114,0.03943161614349987,0.007329474970115818,2.969856023788452,2019-06-20 15:06:39:431
-8.618994140625,-2.9196842651367185,1.2066591796875,0.029579751033456114,0.03943161614349987,0.006530526643092048,2.974976062774658,2019-06-20 15:06:39:436
-8.610614562988282,-2.950808410644531,1.2198270874023438,0.02918027686994423,0.03783371948945232,0.006397368588588085,2.979840040206909,2019-06-20 15:06:39:441
-8.616599975585938,-2.954399658203125,1.2294037475585937,0.029712909087960076,0.038100035598460244,0.006930000806603933,2.9849600791931152,2019-06-20 15:06:39:446
-8.641738708496094,-2.92088134765625,1.2066591796875,0.02931343492444819,0.037167929216932516,0.006264210534084123,2.989824056625366,2019-06-20 15:06:39:451
-8.615402893066406,-2.953202575683594,1.1887029418945312,0.02931343492444819,0.03903214197998798,0.007595791079123743,2.9949440956115723,2019-06-20 15:06:39:456
-8.615402893066406,-2.9184871826171874,1.1719437866210938,0.030245541305975922,0.03983109030701175,0.007995265242635628,2.9998080730438232,2019-06-20 15:06:39:461
-8.622585388183593,-2.953202575683594,1.1803233642578124,0.030378699360479884,0.038898983925484014,0.007063158861107895,3.0049281120300293,2019-06-20 15:06:39:466
-8.59146124267578,-2.941231750488281,1.1934912719726563,0.029712909087960076,0.03943161614349987,0.006397368588588085,3.0097920894622803,2019-06-20 15:06:39:471
-8.592658325195313,-2.955596740722656,1.201870849609375,0.028913960760936306,0.03969793225250779,0.008261581351643552,3.0149121284484863,2019-06-20 15:06:39:476
-8.577096252441406,-2.938837585449219,1.2270095825195313,0.02918027686994423,0.03916530003449194,0.008394739406147515,3.0197761058807373,2019-06-20 15:06:39:481
-8.586672912597656,-2.9603850708007813,1.2282066650390624,0.02931343492444819,0.0392984580889959,0.0087942135696594,3.0248961448669434,2019-06-20 15:06:39:486
-8.596249572753907,-2.9627792358398435,1.2222212524414062,0.02931343492444819,0.03863266781647609,0.009060529678667323,3.0297601222991943,2019-06-20 15:06:39:491
-8.601037902832031,-2.963976318359375,1.2030679321289062,0.029446592978952153,0.03916530003449194,0.009992636060195056,3.0348801612854004,2019-06-20 15:06:39:496
-8.608220397949218,-2.9603850708007813,1.2030679321289062,0.029712909087960076,0.03836635170746817,0.011324216605234675,3.0400002002716064,2019-06-20 15:06:39:501
-8.601037902832031,-2.9591879882812497,1.2030679321289062,0.030378699360479884,0.03849950976197213,0.01092474244172279,3.0448641777038574,2019-06-20 15:06:39:506
-8.62019122314453,-2.9747500610351563,1.2042650146484375,0.029712909087960076,0.03836635170746817,0.011324216605234675,3.0499842166900635,2019-06-20 15:06:39:511
-8.604629150390625,-2.9735529785156247,1.192294189453125,0.028780802706432344,0.03863266781647609,0.012123164932258448,3.0548481941223145,2019-06-20 15:06:39:516
-8.626176635742187,-2.9723558959960936,1.1887029418945312,0.029047118815440268,0.0392984580889959,0.01092474244172279,3.0599682331085205,2019-06-20 15:06:39:521
-8.629767883300781,-2.9759471435546874,1.1839146118164061,0.028780802706432344,0.03849950976197213,0.011191058550730713,3.0648322105407715,2019-06-20 15:06:39:526
-8.613008728027344,-2.9627792358398435,1.1815204467773437,0.02931343492444819,0.037966877543956286,0.011590532714242601,3.0699520111083984,2019-06-20 15:06:39:531
-8.601037902832031,-2.9484142456054685,1.2150387573242187,0.03011238325147196,0.03743424532594044,0.011191058550730713,3.0748162269592285,2019-06-20 15:06:39:536
-8.622585388183593,-2.9735529785156247,1.1863087768554688,0.029712909087960076,0.037167929216932516,0.011590532714242601,3.0799360275268555,2019-06-20 15:06:39:541
-8.604629150390625,-2.969961730957031,1.182717529296875,0.03171027990551951,0.0375674033804444,0.01225632298676241,3.0848000049591064,2019-06-20 15:06:39:546
-8.596249572753907,-2.9627792358398435,1.15877587890625,0.031044489632999692,0.03823319365296421,0.01145737465973864,3.0899200439453125,2019-06-20 15:06:39:551
-8.622585388183593,-2.9867208862304686,1.1958854370117187,0.029846067142464038,0.03943161614349987,0.011723690768746563,3.0947840213775635,2019-06-20 15:06:39:556
-8.610614562988282,-2.9747500610351563,1.1875058593749999,0.030378699360479884,0.03849950976197213,0.012522639095770333,3.0999040603637695,2019-06-20 15:06:39:561
-8.593855407714843,-2.9627792358398435,1.1839146118164061,0.030645015469487807,0.03983109030701175,0.013854219640809953,3.1047680377960205,2019-06-20 15:06:39:566
-8.592658325195313,-2.9687646484375,1.2054620971679688,0.030378699360479884,0.04089635474304345,0.014253693804321838,3.1098880767822266,2019-06-20 15:06:39:571
-8.592658325195313,-2.992706298828125,1.2413745727539063,0.031843437960023466,0.04049688057953156,0.013321587422794106,3.1147520542144775,2019-06-20 15:06:39:576
-8.617797058105468,-2.9903121337890624,1.2042650146484375,0.03157712185101554,0.04089635474304345,0.014653167967833723,3.1198720932006836,2019-06-20 15:06:39:581
-8.62857080078125,-2.955596740722656,1.2353891601562499,0.03077817352399177,0.039964248361515714,0.014653167967833723,3.1249921321868896,2019-06-20 15:06:39:586
-8.616599975585938,-2.9723558959960936,1.1887029418945312,0.03157712185101554,0.03969793225250779,0.015318958240353535,3.1298561096191406,2019-06-20 15:06:39:591
-8.574702087402343,-2.9771442260742185,1.1839146118164061,0.03157712185101554,0.04009740641601968,0.015318958240353535,3.1349761486053467,2019-06-20 15:06:39:596
-8.622585388183593,-2.9891150512695313,1.2102504272460937,0.031443963796511584,0.03903214197998798,0.015585274349361458,3.1398401260375977,2019-06-20 15:06:39:601
-8.604629150390625,-2.9891150512695313,1.1551846313476561,0.031843437960023466,0.03943161614349987,0.016251064621881268,3.1449601650238037,2019-06-20 15:06:39:606
-8.613008728027344,-2.9855238037109375,1.1515933837890624,0.032242912123535354,0.03943161614349987,0.01651738073088919,3.1498241424560547,2019-06-20 15:06:39:611
-8.579490417480468,-2.980735473632812,1.163564208984375,0.033041860450559124,0.039564774198003826,0.017183171003409,3.1549441814422607,2019-06-20 15:06:39:616
-8.589067077636718,-2.9663704833984372,1.1671554565429687,0.03290870239605516,0.039964248361515714,0.017582645166920888,3.1598081588745117,2019-06-20 15:06:39:621
-8.60941748046875,-2.963976318359375,1.2054620971679688,0.03397396683208686,0.0392984580889959,0.018248435439440696,3.1649281978607178,2019-06-20 15:06:39:626
-8.589067077636718,-2.9819325561523438,1.1863087768554688,0.034639757104606664,0.03863266781647609,0.018381593493944658,3.1697921752929688,2019-06-20 15:06:39:631
-8.605826232910156,-2.9663704833984372,1.192294189453125,0.03397396683208686,0.039564774198003826,0.018381593493944658,3.174912214279175,2019-06-20 15:06:39:636
-8.603432067871093,-2.9292609252929687,1.1863087768554688,0.033707650723078936,0.04023056447052364,0.018914225711960504,3.179776191711426,2019-06-20 15:06:39:641
-8.607023315429688,-2.9436259155273437,1.1887029418945312,0.034639757104606664,0.04023056447052364,0.01918054182096843,3.184896230697632,2019-06-20 15:06:39:646
-8.622585388183593,-2.925669677734375,1.2150387573242187,0.03437344099559874,0.0403637225250276,0.01918054182096843,3.189760208129883,2019-06-20 15:06:39:651
-8.626176635742187,-2.90172802734375,1.19708251953125,0.034639757104606664,0.03983109030701175,0.01904738376646447,3.1948800086975098,2019-06-20 15:06:39:656
-8.598643737792969,-2.9328521728515624,1.2030679321289062,0.033707650723078936,0.0392984580889959,0.019713174038984278,3.200000047683716,2019-06-20 15:06:39:661
-8.62857080078125,-2.907713439941406,1.1623671264648436,0.033707650723078936,0.038765825870980056,0.01984633209348824,3.204864025115967,2019-06-20 15:06:39:666
-8.632162048339843,-2.92088134765625,1.1839146118164061,0.03330817655956705,0.038898983925484014,0.018381593493944658,3.209984064102173,2019-06-20 15:06:39:671
-8.608220397949218,-2.9041221923828124,1.2198270874023438,0.033840808777582894,0.04023056447052364,0.018248435439440696,3.214848041534424,2019-06-20 15:06:39:676
-8.610614562988282,-2.907713439941406,1.2317979125976561,0.03344133461407101,0.03903214197998798,0.016916854894401076,3.21996808052063,2019-06-20 15:06:39:681
-8.624979553222657,-2.936443420410156,1.2138416748046874,0.03357449266857497,0.0392984580889959,0.018781067657456543,3.224832057952881,2019-06-20 15:06:39:686
-8.617797058105468,-2.9184871826171874,1.17792919921875,0.03477291515911063,0.03823319365296421,0.016783696839897114,3.229952096939087,2019-06-20 15:06:39:691
-8.62019122314453,-2.9089105224609373,1.1599729614257812,0.033840808777582894,0.038765825870980056,0.01651738073088919,3.234816074371338,2019-06-20 15:06:39:696
-8.633359130859375,-2.938837585449219,1.19708251953125,0.03397396683208686,0.03969793225250779,0.016251064621881268,3.239936113357544,2019-06-20 15:06:39:701
-8.624979553222657,-2.910107604980469,1.1851116943359374,0.033840808777582894,0.039564774198003826,0.016783696839897114,3.244800090789795,2019-06-20 15:06:39:706
-8.621388305664063,-2.9113046875,1.1755350341796875,0.033840808777582894,0.03849950976197213,0.01651738073088919,3.249920129776001,2019-06-20 15:06:39:711
-8.62019122314453,-2.9029251098632813,1.2365862426757812,0.034506599050102706,0.03836635170746817,0.014786326022337684,3.254784107208252,2019-06-20 15:06:39:716
-8.640541625976562,-2.9136988525390626,1.2150387573242187,0.03317501850506309,0.03849950976197213,0.015052642131345608,3.259904146194458,2019-06-20 15:06:39:721
-8.639344543457032,-2.912501770019531,1.2126445922851563,0.03290870239605516,0.03916530003449194,0.014120535749817876,3.264768123626709,2019-06-20 15:06:39:726
-8.613008728027344,-2.9316550903320313,1.2186300048828125,0.03344133461407101,0.03969793225250779,0.015052642131345608,3.269888162612915,2019-06-20 15:06:39:731
-8.613008728027344,-2.9280638427734376,1.2258125,0.034506599050102706,0.039564774198003826,0.013721061586305991,3.274752140045166,2019-06-20 15:06:39:736
-8.618994140625,-2.9424288330078125,1.2425716552734374,0.033041860450559124,0.03969793225250779,0.013321587422794106,3.279872179031372,2019-06-20 15:06:39:741
-8.623782470703125,-2.906516357421875,1.2078562622070312,0.03290870239605516,0.0392984580889959,0.013987377695313915,3.284992218017578,2019-06-20 15:06:39:746
-8.618994140625,-2.922078430175781,1.1839146118164061,0.03250922823254328,0.03969793225250779,0.014520009913329761,3.289856195449829,2019-06-20 15:06:39:751
-8.605826232910156,-2.9136988525390626,1.182717529296875,0.0327755443415512,0.038765825870980056,0.014520009913329761,3.294976234436035,2019-06-20 15:06:39:756
-8.621388305664063,-2.936443420410156,1.1910971069335938,0.03290870239605516,0.04009740641601968,0.01358790353180203,3.299840211868286,2019-06-20 15:06:39:761
-8.639344543457032,-2.926866760253906,1.1839146118164061,0.03210975406903139,0.0403637225250276,0.01305527131378618,3.304960012435913,2019-06-20 15:06:39:766
-8.603432067871093,-2.9292609252929687,1.2174329223632812,0.032242912123535354,0.03916530003449194,0.011856848823250525,3.309824228286743,2019-06-20 15:06:39:771
-8.602234985351563,-2.949611328125,1.2150387573242187,0.03317501850506309,0.03943161614349987,0.012123164932258448,3.31494402885437,2019-06-20 15:06:39:776
-8.634556213378906,-2.935246337890625,1.2006737670898437,0.03357449266857497,0.03903214197998798,0.013454745477298068,3.319808006286621,2019-06-20 15:06:39:781
-8.629767883300781,-2.9484142456054685,1.1420167236328125,0.03290870239605516,0.04009740641601968,0.01358790353180203,3.324928045272827,2019-06-20 15:06:39:786
-8.6381474609375,-2.950808410644531,1.1599729614257812,0.03410712488659082,0.03983109030701175,0.013321587422794106,3.329792022705078,2019-06-20 15:06:39:791
-8.617797058105468,-2.949611328125,1.1910971069335938,0.033707650723078936,0.040763196688539484,0.013454745477298068,3.334912061691284,2019-06-20 15:06:39:796
-8.624979553222657,-2.9292609252929687,1.2174329223632812,0.03410712488659082,0.040763196688539484,0.01358790353180203,3.339776039123535,2019-06-20 15:06:39:801
-8.624979553222657,-2.896939697265625,1.1815204467773437,0.03397396683208686,0.04023056447052364,0.012522639095770333,3.344896078109741,2019-06-20 15:06:39:806
-8.62019122314453,-2.90172802734375,1.221024169921875,0.03250922823254328,0.039564774198003826,0.012922113259282218,3.349760055541992,2019-06-20 15:06:39:811
-8.618994140625,-2.9340492553710935,1.1958854370117187,0.03197659601452743,0.0403637225250276,0.012522639095770333,3.3548800945281982,2019-06-20 15:06:39:816
-8.62857080078125,-2.9196842651367185,1.19708251953125,0.03357449266857497,0.03823319365296421,0.013721061586305991,3.3600001335144043,2019-06-20 15:06:39:821
-8.605826232910156,-2.9436259155273437,1.1551846313476561,0.03330817655956705,0.03863266781647609,0.012922113259282218,3.3648641109466553,2019-06-20 15:06:39:826
-8.5998408203125,-2.9376405029296873,1.1910971069335938,0.03290870239605516,0.03823319365296421,0.011856848823250525,3.3699841499328613,2019-06-20 15:06:39:831
-8.607023315429688,-2.935246337890625,1.1623671264648436,0.033041860450559124,0.03916530003449194,0.011856848823250525,3.3748481273651123,2019-06-20 15:06:39:836
-8.630964965820313,-2.9292609252929687,1.201870849609375,0.03157712185101554,0.03836635170746817,0.013454745477298068,3.3799681663513184,2019-06-20 15:06:39:841
-8.623782470703125,-2.9304580078124998,1.163564208984375,0.03197659601452743,0.03903214197998798,0.01305527131378618,3.3848321437835693,2019-06-20 15:06:39:846
-8.597446655273437,-2.94003466796875,1.1719437866210938,0.033707650723078936,0.03943161614349987,0.012522639095770333,3.3899521827697754,2019-06-20 15:06:39:851
-8.59026416015625,-2.9484142456054685,1.1707467041015625,0.03317501850506309,0.03916530003449194,0.013854219640809953,3.3948161602020264,2019-06-20 15:06:39:856
-8.604629150390625,-2.9579909057617186,1.1982796020507813,0.033041860450559124,0.03969793225250779,0.013321587422794106,3.3999361991882324,2019-06-20 15:06:39:861
-8.611811645507812,-2.924472595214844,1.1683525390625,0.03490607321361459,0.0392984580889959,0.013454745477298068,3.4050562381744385,2019-06-20 15:06:39:866
-8.618994140625,-2.950808410644531,1.1623671264648436,0.03357449266857497,0.0403637225250276,0.013188429368290141,3.4099202156066895,2019-06-20 15:06:39:871
-8.630964965820313,-2.9472171630859374,1.17792919921875,0.03317501850506309,0.04129582890655533,0.012522639095770333,3.4147841930389404,2019-06-20 15:06:39:876
-8.645329956054688,-2.9567938232421875,1.182717529296875,0.03410712488659082,0.03969793225250779,0.013454745477298068,3.4199042320251465,2019-06-20 15:06:39:881
-8.616599975585938,-2.941231750488281,1.1875058593749999,0.03357449266857497,0.038898983925484014,0.012655797150274295,3.4247682094573975,2019-06-20 15:06:39:886
-8.593855407714843,-2.949611328125,1.1899000244140625,0.03397396683208686,0.039564774198003826,0.012922113259282218,3.4298880100250244,2019-06-20 15:06:39:891
-8.618994140625,-2.9232755126953123,1.2078562622070312,0.033041860450559124,0.04009740641601968,0.013854219640809953,3.4347522258758545,2019-06-20 15:06:39:896
-8.610614562988282,-2.9340492553710935,1.2030679321289062,0.031843437960023466,0.039564774198003826,0.013321587422794106,3.4398720264434814,2019-06-20 15:06:39:901
-8.610614562988282,-2.9484142456054685,1.2126445922851563,0.031843437960023466,0.038898983925484014,0.013188429368290141,3.4449920654296875,2019-06-20 15:06:39:906
-8.586672912597656,-2.926866760253906,1.1910971069335938,0.0327755443415512,0.039964248361515714,0.012655797150274295,3.4498560428619385,2019-06-20 15:06:39:911
-8.621388305664063,-2.94003466796875,1.2282066650390624,0.03250922823254328,0.03849950976197213,0.012788955204778256,3.4549760818481445,2019-06-20 15:06:39:916
-8.604629150390625,-2.9472171630859374,1.1887029418945312,0.03290870239605516,0.038898983925484014,0.01225632298676241,3.4598400592803955,2019-06-20 15:06:39:921
-8.613008728027344,-2.92088134765625,1.19708251953125,0.0327755443415512,0.039964248361515714,0.011723690768746563,3.4649600982666016,2019-06-20 15:06:39:926
-8.613008728027344,-2.953202575683594,1.2030679321289062,0.03237607017803931,0.03943161614349987,0.011324216605234675,3.4698240756988525,2019-06-20 15:06:39:931
-8.633359130859375,-2.9316550903320313,1.2090533447265626,0.03091133157849573,0.03983109030701175,0.011057900496226753,3.4749441146850586,2019-06-20 15:06:39:936
-8.626176635742187,-2.926866760253906,1.19708251953125,0.03157712185101554,0.03863266781647609,0.011723690768746563,3.4798080921173096,2019-06-20 15:06:39:941
-8.596249572753907,-2.941231750488281,1.1982796020507813,0.031443963796511584,0.03836635170746817,0.012522639095770333,3.4849281311035156,2019-06-20 15:06:39:946
-8.610614562988282,-2.950808410644531,1.201870849609375,0.031443963796511584,0.03916530003449194,0.01305527131378618,3.4897921085357666,2019-06-20 15:06:39:951
-8.614205810546874,-2.925669677734375,1.182717529296875,0.030378699360479884,0.03916530003449194,0.012922113259282218,3.4949121475219727,2019-06-20 15:06:39:956
-8.624979553222657,-2.9484142456054685,1.2126445922851563,0.030245541305975922,0.03903214197998798,0.013721061586305991,3.4997761249542236,2019-06-20 15:06:39:961
-8.64772412109375,-2.9603850708007813,1.1958854370117187,0.03077817352399177,0.03916530003449194,0.01225632298676241,3.5048961639404297,2019-06-20 15:06:39:966
-8.622585388183593,-2.916093017578125,1.1994766845703124,0.03091133157849573,0.038765825870980056,0.01145737465973864,3.5097601413726807,2019-06-20 15:06:39:971
-8.623782470703125,-2.9424288330078125,1.1910971069335938,0.029846067142464038,0.03863266781647609,0.01225632298676241,3.5148801803588867,2019-06-20 15:06:39:976
-8.605826232910156,-2.9376405029296873,1.2389804077148436,0.029047118815440268,0.038765825870980056,0.012655797150274295,3.5200002193450928,2019-06-20 15:06:39:981
-8.604629150390625,-2.9687646484375,1.2138416748046874,0.029446592978952153,0.04009740641601968,0.01225632298676241,3.5248641967773438,2019-06-20 15:06:39:986
-8.614205810546874,-2.936443420410156,1.1803233642578124,0.029579751033456114,0.03849950976197213,0.011723690768746563,3.52998423576355,2019-06-20 15:06:39:991
-8.610614562988282,-2.926866760253906,1.1863087768554688,0.02918027686994423,0.03969793225250779,0.012655797150274295,3.534848213195801,2019-06-20 15:06:39:996
-8.626176635742187,-2.950808410644531,1.201870849609375,0.028780802706432344,0.039964248361515714,0.011990006877754486,3.5399680137634277,2019-06-20 15:06:40:001
-8.613008728027344,-2.9376405029296873,1.1934912719726563,0.028913960760936306,0.039564774198003826,0.012123164932258448,3.544832229614258,2019-06-20 15:06:40:006
-8.608220397949218,-2.953202575683594,1.1791262817382813,0.029846067142464038,0.038765825870980056,0.0143868518588258,3.5499520301818848,2019-06-20 15:06:40:011
-8.602234985351563,-2.9472171630859374,1.2042650146484375,0.029446592978952153,0.03916530003449194,0.012922113259282218,3.5548160076141357,2019-06-20 15:06:40:016
-8.630964965820313,-2.9615821533203124,1.1887029418945312,0.029047118815440268,0.038898983925484014,0.012123164932258448,3.559936046600342,2019-06-20 15:06:40:021
-8.595052490234375,-2.9328521728515624,1.2150387573242187,0.03077817352399177,0.038898983925484014,0.012389481041266371,3.5648000240325928,2019-06-20 15:06:40:026
-8.605826232910156,-2.955596740722656,1.211447509765625,0.030378699360479884,0.03903214197998798,0.011723690768746563,3.569920063018799,2019-06-20 15:06:40:031
-8.610614562988282,-2.9627792358398435,1.2090533447265626,0.03091133157849573,0.03836635170746817,0.012788955204778256,3.57478404045105,2019-06-20 15:06:40:036
-8.616599975585938,-2.9615821533203124,1.2090533447265626,0.030245541305975922,0.038765825870980056,0.012655797150274295,3.579904079437256,2019-06-20 15:06:40:041
-8.62019122314453,-2.924472595214844,1.1875058593749999,0.030378699360479884,0.03703477116242855,0.01305527131378618,3.584768056869507,2019-06-20 15:06:40:046
-8.611811645507812,-2.94003466796875,1.1611700439453125,0.03171027990551951,0.038100035598460244,0.01225632298676241,3.589888095855713,2019-06-20 15:06:40:051
-8.585475830078124,-2.9292609252929687,1.1599729614257812,0.03171027990551951,0.03863266781647609,0.012655797150274295,3.594752073287964,2019-06-20 15:06:40:056
-8.583081665039062,-2.9436259155273437,1.182717529296875,0.03131080574200762,0.03969793225250779,0.013854219640809953,3.59987211227417,2019-06-20 15:06:40:061
-8.59026416015625,-2.950808410644531,1.1982796020507813,0.029979225196968,0.03983109030701175,0.014253693804321838,3.604992151260376,2019-06-20 15:06:40:066
-8.605826232910156,-2.9567938232421875,1.2198270874023438,0.03091133157849573,0.04009740641601968,0.014520009913329761,3.609856128692627,2019-06-20 15:06:40:071
-8.592658325195313,-2.9567938232421875,1.2078562622070312,0.03077817352399177,0.03903214197998798,0.013854219640809953,3.614976167678833,2019-06-20 15:06:40:076
-8.623782470703125,-2.9460200805664063,1.19708251953125,0.031044489632999692,0.03916530003449194,0.013721061586305991,3.619840145111084,2019-06-20 15:06:40:081
-8.633359130859375,-2.9448229980468748,1.17792919921875,0.03171027990551951,0.039964248361515714,0.014653167967833723,3.62496018409729,2019-06-20 15:06:40:086
-8.615402893066406,-2.9603850708007813,1.1934912719726563,0.03091133157849573,0.0392984580889959,0.014919484076841646,3.629824161529541,2019-06-20 15:06:40:091
-8.595052490234375,-2.9472171630859374,1.2066591796875,0.03197659601452743,0.0392984580889959,0.014919484076841646,3.634944200515747,2019-06-20 15:06:40:096
-8.618994140625,-2.9771442260742185,1.1887029418945312,0.03250922823254328,0.03916530003449194,0.015984748512873345,3.639808177947998,2019-06-20 15:06:40:101
-8.617797058105468,-2.980735473632812,1.17792919921875,0.033041860450559124,0.0392984580889959,0.016251064621881268,3.644928216934204,2019-06-20 15:06:40:106
-8.629767883300781,-2.9998887939453125,1.1899000244140625,0.0327755443415512,0.038898983925484014,0.016650538785393153,3.649792194366455,2019-06-20 15:06:40:111
-8.622585388183593,-2.9579909057617186,1.1683525390625,0.03330817655956705,0.03863266781647609,0.017050012948905038,3.654912233352661,2019-06-20 15:06:40:116
-8.59146124267578,-2.9591879882812497,1.2234183349609375,0.033041860450559124,0.039564774198003826,0.016251064621881268,3.659776210784912,2019-06-20 15:06:40:121
-8.608220397949218,-2.963976318359375,1.1875058593749999,0.0327755443415512,0.0392984580889959,0.017582645166920888,3.664896011352539,2019-06-20 15:06:40:126
-8.630964965820313,-2.984326721191406,1.21623583984375,0.033707650723078936,0.03969793225250779,0.018248435439440696,3.669760227203369,2019-06-20 15:06:40:131
-8.627373718261719,-2.9448229980468748,1.2198270874023438,0.034506599050102706,0.03903214197998798,0.018248435439440696,3.674880027770996,2019-06-20 15:06:40:136
-8.626176635742187,-2.941231750488281,1.1803233642578124,0.033840808777582894,0.03916530003449194,0.017582645166920888,3.680000066757202,2019-06-20 15:06:40:141
-8.616599975585938,-2.9484142456054685,1.1839146118164061,0.03517238932262252,0.03983109030701175,0.017449487112416926,3.684864044189453,2019-06-20 15:06:40:146
-8.635753295898438,-2.9113046875,1.1934912719726563,0.03357449266857497,0.03983109030701175,0.016783696839897114,3.689984083175659,2019-06-20 15:06:40:151
-8.615402893066406,-2.950808410644531,1.2006737670898437,0.03330817655956705,0.03943161614349987,0.01638422267638523,3.69484806060791,2019-06-20 15:06:40:156
-8.62857080078125,-2.9328521728515624,1.1887029418945312,0.033840808777582894,0.039564774198003826,0.017050012948905038,3.699968099594116,2019-06-20 15:06:40:161
