ACCELEROMETER X (m/s²),ACCELEROMETER Y (m/s²),ACCELEROMETER Z (m/s²),GYROSCOPE X (rad/s),GYROSCOPE Y (rad/s),GYROSCOPE Z (rad/s),Time since start in ms ,YYYY-MO-DD HH-MI-SS_SSS
7.274670471191406,-7.342904174804687,1.2341920776367188,0.03357449266857497,0.038765825870980056,0.020245806257000124,0.0,2019-06-20 15:03:34:184
7.265093811035156,-7.32614501953125,1.2042650146484375,0.032242912123535354,0.03849950976197213,0.021444228747535782,0.0048639774322509766,2019-06-20 15:03:34:189
7.2914296264648435,-7.2974150390625,1.2174329223632812,0.031177647687503654,0.03903214197998798,0.0227758092925754,0.009984016418457031,2019-06-20 15:03:34:194
7.308188781738281,-7.332130432128906,1.2294037475585937,0.030645015469487807,0.03983109030701175,0.02344159956509521,0.014847993850708008,2019-06-20 15:03:34:199
7.314174194335937,-7.330933349609375,1.2054620971679688,0.031044489632999692,0.04116267085205137,0.02543897038265464,0.019968032836914062,2019-06-20 15:03:34:204
7.324947937011719,-7.312977111816406,1.2186300048828125,0.030511857414983846,0.04049688057953156,0.027303183145710105,0.02483201026916504,2019-06-20 15:03:34:209
7.324947937011719,-7.310582946777344,1.2102504272460937,0.029579751033456114,0.04182846112457118,0.02970002812678142,0.029952049255371094,2019-06-20 15:03:34:214
7.286641296386718,-7.311780029296875,1.2198270874023438,0.029446592978952153,0.04262740945159495,0.032363189216860655,0.03481602668762207,2019-06-20 15:03:34:219
7.2914296264648435,-7.296217956542969,1.2198270874023438,0.030378699360479884,0.04276056750609891,0.03342845365289235,0.039936065673828125,2019-06-20 15:03:34:224
7.2914296264648435,-7.311780029296875,1.2365862426757812,0.029446592978952153,0.04289372556060288,0.03489319225243594,0.0448000431060791,2019-06-20 15:03:34:229
7.280655883789063,-7.34529833984375,1.1623671264648436,0.02918027686994423,0.0431600416696108,0.03702372320509393,0.049920082092285156,2019-06-20 15:03:34:234
7.266290893554688,-7.346495422363281,1.17792919921875,0.02918027686994423,0.04329319972411476,0.038355303750133546,0.05478405952453613,2019-06-20 15:03:34:239
7.2626996459960935,-7.354875,1.2509512329101562,0.029047118815440268,0.041562145015563254,0.039154252077157316,0.05990409851074219,2019-06-20 15:03:34:244
7.2339696655273436,-7.368042907714844,1.2581337280273437,0.02918027686994423,0.0431600416696108,0.041151622894716744,0.06502413749694824,2019-06-20 15:03:34:249
7.2208017578125,-7.333327514648437,1.2258125,0.028913960760936306,0.04449162221465042,0.04221688733074844,0.06988811492919922,2019-06-20 15:03:34:254
7.219604675292969,-7.3644516601562495,1.221024169921875,0.030245541305975922,0.0431600416696108,0.042749519548764284,0.07500791549682617,2019-06-20 15:03:34:259
7.210028015136719,-7.357269165039062,1.2497541503906249,0.029979225196968,0.04276056750609891,0.04328215176678014,0.07987213134765625,2019-06-20 15:03:34:264
7.200451354980468,-7.3656487426757815,1.25454248046875,0.030245541305975922,0.04182846112457118,0.043814783984795984,0.0849919319152832,2019-06-20 15:03:34:269
7.188480529785156,-7.368042907714844,1.2365862426757812,0.031044489632999692,0.04249425139709099,0.04394794203929995,0.08985590934753418,2019-06-20 15:03:34:274
7.188480529785156,-7.397969970703125,1.1707467041015625,0.029579751033456114,0.04182846112457118,0.04368162593029202,0.09497594833374023,2019-06-20 15:03:34:279
7.176509704589844,-7.390787475585937,1.1958854370117187,0.03091133157849573,0.04102951279754741,0.04408110009380391,0.09983992576599121,2019-06-20 15:03:34:284
7.174115539550781,-7.395575805664063,1.240177490234375,0.03157712185101554,0.03983109030701175,0.045013206475331635,0.10495996475219727,2019-06-20 15:03:34:289
7.201648437499999,-7.363254577636718,1.2605278930664061,0.032242912123535354,0.03783371948945232,0.04581215480235542,0.10982394218444824,2019-06-20 15:03:34:294
7.196860107421875,-7.352480834960938,1.2138416748046874,0.033041860450559124,0.03903214197998798,0.04607847091136334,0.1149439811706543,2019-06-20 15:03:34:299
7.181298034667969,-7.395575805664063,1.2377833251953125,0.033041860450559124,0.037301087271436474,0.04567899674785145,0.11980795860290527,2019-06-20 15:03:34:304
7.1896776123046875,-7.384802062988281,1.2365862426757812,0.033707650723078936,0.03623582283540478,0.04701057729289107,0.12492799758911133,2019-06-20 15:03:34:309
7.190874694824219,-7.3800137329101565,1.268907470703125,0.03330817655956705,0.03503740034486912,0.04607847091136334,0.1297919750213623,2019-06-20 15:03:34:314
7.168130126953125,-7.3656487426757815,1.268907470703125,0.0355718634861344,0.03437161007234931,0.047276893401898994,0.13491201400756836,2019-06-20 15:03:34:319
7.157356384277343,-7.3644516601562495,1.259330810546875,0.03503923126811855,0.03397213590883743,0.04847531589243465,0.13977599143981934,2019-06-20 15:03:34:324
7.193268859863281,-7.368042907714844,1.2365862426757812,0.03517238932262252,0.03250739730929385,0.05047268670999408,0.1448960304260254,2019-06-20 15:03:34:329
7.174115539550781,-7.391984558105468,1.2557395629882813,0.03503923126811855,0.03330634563631762,0.04980689643747427,0.15001606941223145,2019-06-20 15:03:34:334
7.188480529785156,-7.400364135742187,1.2198270874023438,0.03517238932262252,0.03490424229036516,0.04927426421945842,0.15488004684448242,2019-06-20 15:03:34:339
7.177706787109375,-7.415926208496094,1.1899000244140625,0.0366371279221661,0.03330634563631762,0.049940054491978234,0.16000008583068848,2019-06-20 15:03:34:344
7.168130126953125,-7.3788166503906245,1.2138416748046874,0.03637081181315817,0.03170844898227007,0.051138476982513885,0.16486406326293945,2019-06-20 15:03:34:349
7.162144714355469,-7.369239990234375,1.1982796020507813,0.03690344403117402,0.031974765091277994,0.05140479309152181,0.1699841022491455,2019-06-20 15:03:34:354
7.1465826416015625,-7.400364135742187,1.2557395629882813,0.03756923430369383,0.03250739730929385,0.049940054491978234,0.17484807968139648,2019-06-20 15:03:34:359
7.180100952148437,-7.429094116210937,1.221024169921875,0.036104495704150245,0.03317318758181366,0.05047268670999408,0.17996811866760254,2019-06-20 15:03:34:364
7.177706787109375,-7.415926208496094,1.2341920776367188,0.037169760140181946,0.030909500655246305,0.051937425309537655,0.18483209609985352,2019-06-20 15:03:34:369
7.152568054199219,-7.444656188964844,1.1946883544921876,0.037968708467205715,0.03064318454623838,0.05153795114602577,0.18995213508605957,2019-06-20 15:03:34:374
7.141794311523437,-7.40275830078125,1.17792919921875,0.03783555041270175,0.02931160400119876,0.05153795114602577,0.19481611251831055,2019-06-20 15:03:34:379
7.174115539550781,-7.4123349609375,1.2030679321289062,0.03703660208567798,0.02798002345615914,0.05020637060098616,0.1999359130859375,2019-06-20 15:03:34:384
7.180100952148437,-7.418320373535156,1.2365862426757812,0.03690344403117402,0.029977394273718573,0.05100531892800993,0.20480012893676758,2019-06-20 15:03:34:389
7.195663024902344,-7.411137878417969,1.230600830078125,0.03690344403117402,0.02864581372867895,0.050339528655490115,0.20991992950439453,2019-06-20 15:03:34:394
7.195663024902344,-7.456627014160156,1.2174329223632812,0.038767656794229485,0.028379497619671026,0.05167110920052973,0.2147841453552246,2019-06-20 15:03:34:399
7.208830932617188,-7.429094116210937,1.1755350341796875,0.037968708467205715,0.028912129837686873,0.052603215582057467,0.21990394592285156,2019-06-20 15:03:34:404
7.193268859863281,-7.439867858886719,1.2437687377929687,0.038101866521709674,0.02984423621921461,0.052736373636561425,0.22502398490905762,2019-06-20 15:03:34:409
7.206436767578125,-7.4231087036132815,1.2078562622070312,0.03703660208567798,0.02931160400119876,0.05127163503701785,0.2298879623413086,2019-06-20 15:03:34:414
7.170524291992187,-7.4231087036132815,1.2054620971679688,0.037302918194685904,0.030110552328222535,0.0524700575275535,0.23500800132751465,2019-06-20 15:03:34:419
7.141794311523437,-7.437473693847656,1.201870849609375,0.03743607624918987,0.03064318454623838,0.05233689947304954,0.23987197875976562,2019-06-20 15:03:34:424
7.176509704589844,-7.427897033691406,1.1695496215820311,0.03703660208567798,0.03130897481875819,0.054067954181601055,0.24499201774597168,2019-06-20 15:03:34:429
7.190874694824219,-7.4530357666015625,1.2126445922851563,0.03690344403117402,0.03250739730929385,0.05353532196358521,0.24985599517822266,2019-06-20 15:03:34:434
7.166933044433594,-7.417123291015625,1.19708251953125,0.035705021540638364,0.031841607036774036,0.05286953169106539,0.2549760341644287,2019-06-20 15:03:34:439
7.166933044433594,-7.4075466308593745,1.19708251953125,0.035305547377126476,0.031974765091277994,0.05380163807259313,0.2598400115966797,2019-06-20 15:03:34:444
7.159750549316406,-7.414729125976562,1.1910971069335938,0.03543870543163044,0.032906871472805736,0.054467428345112937,0.26496005058288574,2019-06-20 15:03:34:449
7.165735961914062,-7.444656188964844,1.1432138061523438,0.034639757104606664,0.03343950369082158,0.05420111223610501,0.2698240280151367,2019-06-20 15:03:34:454
7.196860107421875,-7.433882446289062,1.1659583740234374,0.03424028294109478,0.034637926181357234,0.05500006056312878,0.2749440670013428,2019-06-20 15:03:34:459
7.196860107421875,-7.427897033691406,1.1887029418945312,0.03397396683208686,0.03623582283540478,0.05513321861763275,0.27980804443359375,2019-06-20 15:03:34:464
7.200451354980468,-7.442262023925781,1.163564208984375,0.033840808777582894,0.03676845505342063,0.055266376672136706,0.2849280834197998,2019-06-20 15:03:34:469
7.1896776123046875,-7.4530357666015625,1.1851116943359374,0.0327755443415512,0.03836635170746817,0.05553269278114463,0.2897920608520508,2019-06-20 15:03:34:474
7.201648437499999,-7.449444519042968,1.1611700439453125,0.03237607017803931,0.03943161614349987,0.054866902508624825,0.29491209983825684,2019-06-20 15:03:34:479
7.201648437499999,-7.445853271484375,1.1659583740234374,0.03197659601452743,0.0403637225250276,0.05593216694465652,0.2997760772705078,2019-06-20 15:03:34:484
7.210028015136719,-7.429094116210937,1.1719437866210938,0.031443963796511584,0.04089635474304345,0.056464799162672365,0.30489611625671387,2019-06-20 15:03:34:489
7.1824951171875,-7.415926208496094,1.1851116943359374,0.03091133157849573,0.043426357778618724,0.05753006359870406,0.3100159168243408,2019-06-20 15:03:34:494
7.180100952148437,-7.396772888183594,1.230600830078125,0.030511857414983846,0.044225306105642494,0.059527434416263486,0.3148801326751709,2019-06-20 15:03:34:499
7.174115539550781,-7.413532043457031,1.163564208984375,0.02931343492444819,0.04648899303220985,0.06006006663427933,0.31999993324279785,2019-06-20 15:03:34:504
7.194465942382812,-7.426699951171875,1.1707467041015625,0.02918027686994423,0.0487526799587772,0.05979375052527141,0.32486391067504883,2019-06-20 15:03:34:509
7.162144714355469,-7.432685363769531,1.1731408691406249,0.028913960760936306,0.04901899606778512,0.06006006663427933,0.3299839496612549,2019-06-20 15:03:34:514
7.152568054199219,-7.449444519042968,1.1288488159179688,0.027981854379408574,0.05114952493984851,0.06112533107031103,0.33484792709350586,2019-06-20 15:03:34:519
7.151370971679687,-7.475780334472656,1.1875058593749999,0.027715538270400644,0.05181531521236832,0.06085901496130311,0.3399679660797119,2019-06-20 15:03:34:524
7.156159301757812,-7.435079528808593,1.2042650146484375,0.027049747997880836,0.05248110548488813,0.060592698852295186,0.3448319435119629,2019-06-20 15:03:34:529
7.121443908691406,-7.4362766113281245,1.1515933837890624,0.02425342885329764,0.052880579648400025,0.06165796328832688,0.34995198249816895,2019-06-20 15:03:34:534
7.1310205688476564,-7.476977416992187,1.221024169921875,0.02385395468978575,0.05581005684748718,0.06232375356084669,0.3548159599304199,2019-06-20 15:03:34:539
7.107078918457031,-7.494933654785156,1.19708251953125,0.025451851343833296,0.056475847120006986,0.0619242793973348,0.359935998916626,2019-06-20 15:03:34:544
7.061589782714844,-7.473386169433594,1.182717529296875,0.02505237718032141,0.056742163229014916,0.06205743745183877,0.36479997634887695,2019-06-20 15:03:34:549
7.108276000976562,-7.502116149902344,1.2521483154296875,0.025318693289329335,0.0571416373925268,0.06325585994237443,0.369920015335083,2019-06-20 15:03:34:554
7.0723635253906245,-7.487751159667969,1.2581337280273437,0.02398711274428971,0.05700847933802284,0.06152480523382292,0.37504005432128906,2019-06-20 15:03:34:559
7.126232238769531,-7.518875305175781,1.2126445922851563,0.02385395468978575,0.05873953404657434,0.06045954079779123,0.37990403175354004,2019-06-20 15:03:34:564
7.093911010742187,-7.509298645019531,1.1982796020507813,0.022655532199250095,0.0588726921010783,0.05979375052527141,0.3850240707397461,2019-06-20 15:03:34:569
7.089122680664063,-7.5104957275390625,1.1875058593749999,0.023587638580777826,0.05993795653711,0.059527434416263486,0.38988804817199707,2019-06-20 15:03:34:574
7.020888977050781,-7.503313232421875,1.2557395629882813,0.023321322471769903,0.059804798482606045,0.0591279602527516,0.3950080871582031,2019-06-20 15:03:34:579
7.050816040039062,-7.505707397460937,1.2317979125976561,0.02398711274428971,0.060603746809629815,0.05819585387122387,0.3998720645904541,2019-06-20 15:03:34:584
7.03884521484375,-7.51767822265625,1.2150387573242187,0.02318816441726594,0.06007111459161397,0.057130589435192176,0.40499210357666016,2019-06-20 15:03:34:589
7.001735656738281,-7.5404227905273435,1.211447509765625,0.021989741926730286,0.058340059883062456,0.055665850835648595,0.40985608100891113,2019-06-20 15:03:34:594
6.9706115112304685,-7.518875305175781,1.2341920776367188,0.02398711274428971,0.058473217937566414,0.05380163807259313,0.4149761199951172,2019-06-20 15:03:34:599
6.96223193359375,-7.545211120605469,1.2497541503906249,0.024652903016809526,0.057674269610542644,0.0524700575275535,0.41984009742736816,2019-06-20 15:03:34:604
6.968217346191406,-7.552393615722656,1.2952432861328125,0.024519744962305565,0.0571416373925268,0.05047268670999408,0.4249601364135742,2019-06-20 15:03:34:609
6.951458190917968,-7.579926513671875,1.2760899658203124,0.024652903016809526,0.056742163229014916,0.047942683674418805,0.4298241138458252,2019-06-20 15:03:34:614
6.94307861328125,-7.559576110839844,1.2581337280273437,0.025451851343833296,0.05461163435695152,0.04607847091136334,0.43494391441345215,2019-06-20 15:03:34:619
6.9562465209960935,-7.535634460449218,1.2772870483398437,0.02651711577986499,0.05314689575740795,0.04421425814830787,0.4398081302642822,2019-06-20 15:03:34:624
6.9418815307617185,-7.549999450683593,1.3143966064453125,0.02651711577986499,0.05341321186641587,0.04354846787578806,0.4449279308319092,2019-06-20 15:03:34:629
6.920334045410156,-7.563167358398437,1.3491119995117187,0.02665027383436895,0.05008426050381682,0.04155109705822863,0.44979214668273926,2019-06-20 15:03:34:634
6.920334045410156,-7.589503173828125,1.264119140625,0.027848696324904613,0.04808688968625739,0.03742319736860581,0.4549119472503662,2019-06-20 15:03:34:639
6.946669860839844,-7.564364440917968,1.2617249755859374,0.027715538270400644,0.04662215108671381,0.03436056003442009,0.4597759246826172,2019-06-20 15:03:34:644
6.944275695800781,-7.577532348632812,1.2329949951171875,0.02918027686994423,0.04542372859617816,0.03382792781640424,0.46489596366882324,2019-06-20 15:03:34:649
6.925122375488281,-7.572744018554688,1.2413745727539063,0.028248170488416498,0.044092148051138536,0.0328958214348765,0.4700160026550293,2019-06-20 15:03:34:654
6.931107788085938,-7.551196533203125,1.2449658203125,0.030645015469487807,0.0420947772335791,0.029966344235789342,0.4748799800872803,2019-06-20 15:03:34:659
6.958640686035156,-7.55598486328125,1.2701045532226563,0.029979225196968,0.041562145015563254,0.027436341200214067,0.48000001907348633,2019-06-20 15:03:34:664
6.967020263671875,-7.547605285644531,1.2437687377929687,0.029446592978952153,0.04102951279754741,0.025305812328150677,0.4848639965057373,2019-06-20 15:03:34:669
6.967020263671875,-7.582320678710937,1.2629220581054688,0.029846067142464038,0.03969793225250779,0.02410738983761502,0.48998403549194336,2019-06-20 15:03:34:674
6.98138525390625,-7.539225708007812,1.2102504272460937,0.030511857414983846,0.03783371948945232,0.022376335129063514,0.49484801292419434,2019-06-20 15:03:34:679
6.9993414916992185,-7.529649047851563,1.2102504272460937,0.03250922823254328,0.03690161310792459,0.020512122366008047,0.4999680519104004,2019-06-20 15:03:34:684
7.011312316894531,-7.552393615722656,1.2437687377929687,0.03317501850506309,0.03503740034486912,0.01784896127592881,0.5048320293426514,2019-06-20 15:03:34:689
7.01969189453125,-7.538028625488281,1.2066591796875,0.032242912123535354,0.03503740034486912,0.015984748512873345,0.5099520683288574,2019-06-20 15:03:34:694
7.032859802246094,-7.535634460449218,1.21623583984375,0.03237607017803931,0.033838977854333464,0.015185800185849573,0.5148160457611084,2019-06-20 15:03:34:699
7.0436335449218745,-7.544014038085938,1.2174329223632812,0.032642386287047236,0.0347710842358612,0.015052642131345608,0.5199360847473145,2019-06-20 15:03:34:704
7.044830627441406,-7.512889892578125,1.2677103881835938,0.03330817655956705,0.03423845201784535,0.013721061586305991,0.5248000621795654,2019-06-20 15:03:34:709
7.054407287597656,-7.528451965332031,1.2713016357421876,0.03410712488659082,0.034504768126853276,0.01305527131378618,0.5299201011657715,2019-06-20 15:03:34:714
7.071166442871093,-7.53683154296875,1.2090533447265626,0.03424028294109478,0.03343950369082158,0.01225632298676241,0.5347840785980225,2019-06-20 15:03:34:719
7.060392700195313,-7.512889892578125,1.1755350341796875,0.03410712488659082,0.03343950369082158,0.012389481041266371,0.5399041175842285,2019-06-20 15:03:34:724
7.050816040039062,-7.515284057617188,1.1851116943359374,0.03317501850506309,0.03357266174532554,0.011856848823250525,0.5450239181518555,2019-06-20 15:03:34:729
7.049618957519531,-7.497327819824219,1.1659583740234374,0.03410712488659082,0.03317318758181366,0.012123164932258448,0.5498881340026855,2019-06-20 15:03:34:734
7.079546020507812,-7.487751159667969,1.201870849609375,0.03437344099559874,0.033838977854333464,0.011723690768746563,0.5550079345703125,2019-06-20 15:03:34:739
7.0723635253906245,-7.512889892578125,1.1982796020507813,0.033840808777582894,0.03410529396334139,0.011723690768746563,0.5598719120025635,2019-06-20 15:03:34:744
7.07715185546875,-7.484159912109375,1.1791262817382813,0.03317501850506309,0.032906871472805736,0.011057900496226753,0.5649919509887695,2019-06-20 15:03:34:749
7.0867285156249995,-7.509298645019531,1.1719437866210938,0.033840808777582894,0.03210792314578196,0.010658426332714866,0.5698559284210205,2019-06-20 15:03:34:754
7.0579985351562495,-7.512889892578125,1.2030679321289062,0.035705021540638364,0.03397213590883743,0.009326845787675248,0.5749759674072266,2019-06-20 15:03:34:759
7.056801452636718,-7.514086975097656,1.1719437866210938,0.033041860450559124,0.033705819799829506,0.009992636060195056,0.5798399448394775,2019-06-20 15:03:34:764
7.068772277832031,-7.529649047851563,1.2078562622070312,0.033041860450559124,0.033040029527309694,0.009193687733171287,0.5849599838256836,2019-06-20 15:03:34:769
7.0723635253906245,-7.502116149902344,1.2174329223632812,0.033840808777582894,0.03357266174532554,0.009193687733171287,0.5898239612579346,2019-06-20 15:03:34:774
7.092713928222656,-7.502116149902344,1.1982796020507813,0.03397396683208686,0.03330634563631762,0.007728949133627705,0.5949440002441406,2019-06-20 15:03:34:779
7.0735606079101565,-7.533240295410156,1.2042650146484375,0.03424028294109478,0.03357266174532554,0.007995265242635628,0.5998079776763916,2019-06-20 15:03:34:784
7.0879255981445315,-7.512889892578125,1.1910971069335938,0.03317501850506309,0.0347710842358612,0.007462633024619782,0.6049280166625977,2019-06-20 15:03:34:789
7.068772277832031,-7.511692810058594,1.2078562622070312,0.033840808777582894,0.03423845201784535,0.006530526643092048,0.6097919940948486,2019-06-20 15:03:34:794
7.085531433105468,-7.512889892578125,1.2006737670898437,0.03357449266857497,0.03570319061738893,0.007196316915611857,0.6149120330810547,2019-06-20 15:03:34:799
7.084334350585937,-7.515284057617188,1.2174329223632812,0.03344133461407101,0.036368980889908746,0.007462633024619782,0.6197760105133057,2019-06-20 15:03:34:804
7.0867285156249995,-7.4817657470703125,1.1731408691406249,0.03317501850506309,0.03676845505342063,0.007462633024619782,0.6248960494995117,2019-06-20 15:03:34:809
7.0867285156249995,-7.491342407226562,1.1982796020507813,0.03357449266857497,0.038100035598460244,0.007196316915611857,0.6300160884857178,2019-06-20 15:03:34:814
7.098699340820312,-7.4817657470703125,1.221024169921875,0.03250922823254328,0.038898983925484014,0.006397368588588085,0.6348800659179688,2019-06-20 15:03:34:819
7.075954772949219,-7.490145324707031,1.2102504272460937,0.032242912123535354,0.03823319365296421,0.0059978944250762,0.6400001049041748,2019-06-20 15:03:34:824
7.1022905883789065,-7.476977416992187,1.1851116943359374,0.03250922823254328,0.03916530003449194,0.005065788043548467,0.6448640823364258,2019-06-20 15:03:34:829
7.069969360351562,-7.473386169433594,1.2066591796875,0.033041860450559124,0.04023056447052364,0.006264210534084123,0.6499841213226318,2019-06-20 15:03:34:834
7.07715185546875,-7.470992004394531,1.2569366455078124,0.03250922823254328,0.041562145015563254,0.005065788043548467,0.6548480987548828,2019-06-20 15:03:34:839
7.081940185546875,-7.4961307373046875,1.2617249755859374,0.031177647687503654,0.041428986961059296,0.005065788043548467,0.6599681377410889,2019-06-20 15:03:34:844
7.062786865234375,-7.487751159667969,1.2090533447265626,0.03210975406903139,0.041428986961059296,0.005731578316068277,0.6648321151733398,2019-06-20 15:03:34:849
7.075954772949219,-7.466203674316406,1.1719437866210938,0.03157712185101554,0.04169530307006722,0.005731578316068277,0.6699519157409668,2019-06-20 15:03:34:854
7.061589782714844,-7.4889482421875,1.1863087768554688,0.030645015469487807,0.041428986961059296,0.006264210534084123,0.6748161315917969,2019-06-20 15:03:34:859
7.089122680664063,-7.497327819824219,1.2246154174804686,0.03091133157849573,0.0420947772335791,0.0059978944250762,0.6799359321594238,2019-06-20 15:03:34:864
7.084334350585937,-7.504510314941406,1.221024169921875,0.031044489632999692,0.041428986961059296,0.005731578316068277,0.6847999095916748,2019-06-20 15:03:34:869
7.097502258300781,-7.482962829589844,1.1575787963867188,0.030378699360479884,0.043026883615106835,0.004799471934540543,0.6899199485778809,2019-06-20 15:03:34:874
7.084334350585937,-7.463809509277343,1.1958854370117187,0.030245541305975922,0.0431600416696108,0.004799471934540543,0.6947839260101318,2019-06-20 15:03:34:879
7.089122680664063,-7.479371582031249,1.2150387573242187,0.03077817352399177,0.04196161917907514,0.003601049444004886,0.6999039649963379,2019-06-20 15:03:34:884
7.090319763183594,-7.4961307373046875,1.2341920776367188,0.031177647687503654,0.04196161917907514,0.00533210415255639,0.705024003982544,2019-06-20 15:03:34:889
7.111867248535156,-7.485356994628906,1.2341920776367188,0.03171027990551951,0.0420947772335791,0.004932629989044505,0.7098879814147949,2019-06-20 15:03:34:894
7.090319763183594,-7.470992004394531,1.2234183349609375,0.030645015469487807,0.042361093342587024,0.0032015752804930003,0.715008020401001,2019-06-20 15:03:34:899
7.098699340820312,-7.4817657470703125,1.2258125,0.030511857414983846,0.043426357778618724,0.0032015752804930003,0.719871997833252,2019-06-20 15:03:34:904
7.108276000976562,-7.475780334472656,1.2066591796875,0.031177647687503654,0.04276056750609891,0.004932629989044505,0.724992036819458,2019-06-20 15:03:34:909
7.098699340820312,-7.482962829589844,1.21623583984375,0.031843437960023466,0.04289372556060288,0.004533155825532619,0.729856014251709,2019-06-20 15:03:34:914
7.071166442871093,-7.502116149902344,1.2102504272460937,0.031843437960023466,0.043026883615106835,0.004666313880036581,0.734976053237915,2019-06-20 15:03:34:919
7.080743103027344,-7.503313232421875,1.2294037475585937,0.03250922823254328,0.0420947772335791,0.0022694688989652666,0.739840030670166,2019-06-20 15:03:34:924
7.085531433105468,-7.499721984863281,1.2509512329101562,0.03171027990551951,0.0431600416696108,0.002935259171485076,0.7449600696563721,2019-06-20 15:03:34:929
7.0591956176757815,-7.474583251953125,1.2102504272460937,0.03197659601452743,0.0420947772335791,0.003601049444004886,0.749824047088623,2019-06-20 15:03:34:934
7.0591956176757815,-7.49852490234375,1.2078562622070312,0.03171027990551951,0.04116267085205137,0.004399997771028657,0.7549440860748291,2019-06-20 15:03:34:939
7.0867285156249995,-7.492539489746093,1.2270095825195313,0.03210975406903139,0.04089635474304345,0.0038673655530128094,0.7598080635070801,2019-06-20 15:03:34:944
7.071166442871093,-7.482962829589844,1.2234183349609375,0.03250922823254328,0.040763196688539484,0.0030684172259890377,0.7649281024932861,2019-06-20 15:03:34:949
7.097502258300781,-7.475780334472656,1.2294037475585937,0.031843437960023466,0.04102951279754741,0.0041336816620207335,0.7697920799255371,2019-06-20 15:03:34:954
7.081940185546875,-7.474583251953125,1.1994766845703124,0.03171027990551951,0.04089635474304345,0.0026689430624771524,0.7749121189117432,2019-06-20 15:03:34:959
7.092713928222656,-7.461415344238281,1.2509512329101562,0.03210975406903139,0.0403637225250276,0.0032015752804930003,0.7797760963439941,2019-06-20 15:03:34:964
7.1154584960937495,-7.485356994628906,1.2581337280273437,0.0327755443415512,0.039964248361515714,0.001603678626445457,0.7848961353302002,2019-06-20 15:03:34:969
7.108276000976562,-7.4817657470703125,1.2270095825195313,0.03250922823254328,0.04089635474304345,0.0008047302994216857,0.7900159358978271,2019-06-20 15:03:34:974
7.1166555786132815,-7.479371582031249,1.25454248046875,0.031177647687503654,0.04009740641601968,0.0005384141904137619,0.7948799133300781,2019-06-20 15:03:34:979
7.090319763183594,-7.503313232421875,1.2377833251953125,0.031044489632999692,0.039964248361515714,0.0013373625174375333,0.7999999523162842,2019-06-20 15:03:34:984
7.098699340820312,-7.465006591796874,1.2629220581054688,0.03290870239605516,0.038898983925484014,0.0028021011169811144,0.8048639297485352,2019-06-20 15:03:34:989
7.068772277832031,-7.468597839355469,1.2270095825195313,0.032642386287047236,0.03983109030701175,0.002003152789957343,0.8099839687347412,2019-06-20 15:03:34:994
7.081940185546875,-7.487751159667969,1.264119140625,0.03330817655956705,0.040630038634035526,0.0024026269534692286,0.8148479461669922,2019-06-20 15:03:34:999
7.1022905883789065,-7.491342407226562,1.221024169921875,0.03397396683208686,0.03863266781647609,0.0026689430624771524,0.8199679851531982,2019-06-20 15:03:35:004
7.084334350585937,-7.49852490234375,1.2186300048828125,0.034639757104606664,0.03743424532594044,0.001603678626445457,0.8248319625854492,2019-06-20 15:03:35:009
7.0867285156249995,-7.490145324707031,1.211447509765625,0.03424028294109478,0.03663529699891667,0.002136310844461305,0.8299520015716553,2019-06-20 15:03:35:014
7.084334350585937,-7.487751159667969,1.2449658203125,0.03437344099559874,0.03663529699891667,0.0028021011169811144,0.8348159790039062,2019-06-20 15:03:35:019
7.084334350585937,-7.493736572265624,1.2389804077148436,0.03344133461407101,0.03557003256288497,0.0028021011169811144,0.8399360179901123,2019-06-20 15:03:35:024
7.090319763183594,-7.474583251953125,1.230600830078125,0.033707650723078936,0.03623582283540478,0.0034678913895009236,0.8447999954223633,2019-06-20 15:03:35:029
7.1058818359375,-7.468597839355469,1.2090533447265626,0.033840808777582894,0.03690161310792459,0.0028021011169811144,0.8499200344085693,2019-06-20 15:03:35:034
7.099896423339843,-7.478174499511718,1.21623583984375,0.033707650723078936,0.03570319061738893,0.002136310844461305,0.8547840118408203,2019-06-20 15:03:35:039
7.1022905883789065,-7.472189086914062,1.21623583984375,0.03437344099559874,0.03623582283540478,0.0024026269534692286,0.8599040508270264,2019-06-20 15:03:35:044
7.126232238769531,-7.466203674316406,1.2174329223632812,0.034639757104606664,0.036368980889908746,0.0022694688989652666,0.8650240898132324,2019-06-20 15:03:35:049
7.1322176513671875,-7.479371582031249,1.2138416748046874,0.03397396683208686,0.03623582283540478,0.002003152789957343,0.8698880672454834,2019-06-20 15:03:35:054
7.126232238769531,-7.433882446289062,1.2282066650390624,0.033840808777582894,0.03623582283540478,0.0022694688989652666,0.8750081062316895,2019-06-20 15:03:35:059
7.121443908691406,-7.447050354003906,1.2174329223632812,0.03317501850506309,0.03517055839937308,0.003601049444004886,0.8798720836639404,2019-06-20 15:03:35:064
7.166933044433594,-7.439867858886719,1.2174329223632812,0.03424028294109478,0.03583634867189289,0.0037342074985088477,0.8849921226501465,2019-06-20 15:03:35:069
7.135808898925781,-7.442262023925781,1.2102504272460937,0.03357449266857497,0.035436874508381004,0.003601049444004886,0.8898561000823975,2019-06-20 15:03:35:074
7.123838073730469,-7.4362766113281245,1.2138416748046874,0.03357449266857497,0.035436874508381004,0.0037342074985088477,0.8949761390686035,2019-06-20 15:03:35:079
7.121443908691406,-7.432685363769531,1.240177490234375,0.03344133461407101,0.03557003256288497,0.005864736370572238,0.8998401165008545,2019-06-20 15:03:35:084
7.122640991210937,-7.448247436523437,1.2497541503906249,0.033840808777582894,0.03743424532594044,0.004533155825532619,0.9049599170684814,2019-06-20 15:03:35:089
7.137005981445312,-7.443459106445312,1.2234183349609375,0.03357449266857497,0.03770056143494836,0.005598420261564315,0.9098241329193115,2019-06-20 15:03:35:094
7.1058818359375,-7.449444519042968,1.2449658203125,0.0327755443415512,0.03783371948945232,0.007329474970115818,0.9149439334869385,2019-06-20 15:03:35:099
7.098699340820312,-7.468597839355469,1.2066591796875,0.03344133461407101,0.03770056143494836,0.007329474970115818,0.9198079109191895,2019-06-20 15:03:35:104
7.104684753417969,-7.466203674316406,1.1958854370117187,0.03330817655956705,0.03836635170746817,0.006930000806603933,0.9249279499053955,2019-06-20 15:03:35:109
7.127429321289062,-7.486554077148437,1.19708251953125,0.03250922823254328,0.0403637225250276,0.005864736370572238,0.9297919273376465,2019-06-20 15:03:35:114
7.1310205688476564,-7.491342407226562,1.1875058593749999,0.03317501850506309,0.0403637225250276,0.007462633024619782,0.9349119663238525,2019-06-20 15:03:35:119
7.108276000976562,-7.451838684082031,1.1875058593749999,0.035705021540638364,0.04089635474304345,0.008927371624163362,0.9397759437561035,2019-06-20 15:03:35:124
7.066378112792969,-7.433882446289062,1.2138416748046874,0.03317501850506309,0.04009740641601968,0.008261581351643552,0.9448959827423096,2019-06-20 15:03:35:129
7.099896423339843,-7.476977416992187,1.2294037475585937,0.030245541305975922,0.0403637225250276,0.006131052479580162,0.9500160217285156,2019-06-20 15:03:35:134
7.1609476318359375,-7.493736572265624,1.1994766845703124,0.03197659601452743,0.03969793225250779,0.006131052479580162,0.9548799991607666,2019-06-20 15:03:35:139
7.126232238769531,-7.465006591796874,1.19708251953125,0.03197659601452743,0.03983109030701175,0.006397368588588085,0.9600000381469727,2019-06-20 15:03:35:144
7.089122680664063,-7.444656188964844,1.192294189453125,0.032642386287047236,0.040630038634035526,0.006796842752099972,0.9648640155792236,2019-06-20 15:03:35:149
7.09630517578125,-7.429094116210937,1.240177490234375,0.03197659601452743,0.041428986961059296,0.007329474970115818,0.9699840545654297,2019-06-20 15:03:35:154
7.12503515625,-7.4530357666015625,1.2365862426757812,0.032242912123535354,0.0420947772335791,0.0059978944250762,0.9748480319976807,2019-06-20 15:03:35:159
7.117852661132813,-7.492539489746093,1.2341920776367188,0.031044489632999692,0.042361093342587024,0.00666368469759601,0.9799680709838867,2019-06-20 15:03:35:164
7.1166555786132815,-7.4961307373046875,1.221024169921875,0.03131080574200762,0.04196161917907514,0.007329474970115818,0.9848320484161377,2019-06-20 15:03:35:169
7.135808898925781,-7.490145324707031,1.2317979125976561,0.031044489632999692,0.040763196688539484,0.008527897460651477,0.9899520874023438,2019-06-20 15:03:35:174
7.117852661132813,-7.463809509277343,1.2437687377929687,0.031443963796511584,0.03983109030701175,0.007728949133627705,0.9948160648345947,2019-06-20 15:03:35:179
7.135808898925781,-7.4889482421875,1.2617249755859374,0.03171027990551951,0.04102951279754741,0.008527897460651477,0.9999361038208008,2019-06-20 15:03:35:184
7.107078918457031,-7.468597839355469,1.2222212524414062,0.030378699360479884,0.04089635474304345,0.008261581351643552,1.0048000812530518,2019-06-20 15:03:35:189
7.099896423339843,-7.455429931640625,1.1946883544921876,0.03077817352399177,0.04023056447052364,0.007595791079123743,1.0099201202392578,2019-06-20 15:03:35:194
7.1022905883789065,-7.473386169433594,1.2174329223632812,0.031177647687503654,0.04169530307006722,0.007462633024619782,1.0147840976715088,2019-06-20 15:03:35:199
7.110670166015625,-7.450641601562499,1.2473599853515625,0.033707650723078936,0.041428986961059296,0.007728949133627705,1.0199041366577148,2019-06-20 15:03:35:204
7.114261413574218,-7.475780334472656,1.2282066650390624,0.032642386287047236,0.03983109030701175,0.007196316915611857,1.0250239372253418,2019-06-20 15:03:35:209
7.117852661132813,-7.451838684082031,1.1887029418945312,0.032242912123535354,0.040630038634035526,0.007728949133627705,1.0298879146575928,2019-06-20 15:03:35:214
7.140597229003906,-7.4889482421875,1.2126445922851563,0.03210975406903139,0.04182846112457118,0.008927371624163362,1.0350079536437988,2019-06-20 15:03:35:219
7.113064331054687,-7.494933654785156,1.2485570678710938,0.032242912123535354,0.042361093342587024,0.009326845787675248,1.0398719310760498,2019-06-20 15:03:35:224
7.1010935058593745,-7.46021826171875,1.2952432861328125,0.033041860450559124,0.04049688057953156,0.009859478005691095,1.0449919700622559,2019-06-20 15:03:35:229
7.089122680664063,-7.439867858886719,1.2413745727539063,0.03077817352399177,0.03983109030701175,0.008661055515155438,1.0498559474945068,2019-06-20 15:03:35:234
7.089122680664063,-7.470992004394531,1.221024169921875,0.031843437960023466,0.039564774198003826,0.008394739406147515,1.054975986480713,2019-06-20 15:03:35:239
7.1022905883789065,-7.490145324707031,1.2341920776367188,0.032242912123535354,0.0392984580889959,0.008261581351643552,1.0598399639129639,2019-06-20 15:03:35:244
7.1166555786132815,-7.504510314941406,1.19708251953125,0.03237607017803931,0.04089635474304345,0.007862107188131667,1.06496000289917,2019-06-20 15:03:35:249
7.093911010742187,-7.4889482421875,1.2389804077148436,0.03237607017803931,0.0392984580889959,0.007862107188131667,1.069823980331421,2019-06-20 15:03:35:254
7.080743103027344,-7.454232849121094,1.2353891601562499,0.03344133461407101,0.03823319365296421,0.00666368469759601,1.074944019317627,2019-06-20 15:03:35:259
7.099896423339843,-7.480568664550781,1.1851116943359374,0.03290870239605516,0.037966877543956286,0.006397368588588085,1.079807996749878,2019-06-20 15:03:35:264
7.103487670898438,-7.5081015625,1.1899000244140625,0.03330817655956705,0.03823319365296421,0.006796842752099972,1.084928035736084,2019-06-20 15:03:35:269
7.12503515625,-7.492539489746093,1.221024169921875,0.03357449266857497,0.037167929216932516,0.005465262207060353,1.089792013168335,2019-06-20 15:03:35:274
7.107078918457031,-7.474583251953125,1.2413745727539063,0.03397396683208686,0.03823319365296421,0.005731578316068277,1.094912052154541,2019-06-20 15:03:35:279
7.1058818359375,-7.461415344238281,1.2473599853515625,0.033707650723078936,0.037301087271436474,0.0051989460980524285,1.099776029586792,2019-06-20 15:03:35:284
7.104684753417969,-7.456627014160156,1.2365862426757812,0.03330817655956705,0.03863266781647609,0.004666313880036581,1.104896068572998,2019-06-20 15:03:35:289
7.133414733886719,-7.439867858886719,1.1839146118164061,0.03437344099559874,0.037301087271436474,0.005864736370572238,1.110016107559204,2019-06-20 15:03:35:294
7.122640991210937,-7.472189086914062,1.2150387573242187,0.03490607321361459,0.03743424532594044,0.004932629989044505,1.114880084991455,2019-06-20 15:03:35:299
7.098699340820312,-7.447050354003906,1.2270095825195313,0.03397396683208686,0.03596950672639686,0.006530526643092048,1.1200001239776611,2019-06-20 15:03:35:304
7.107078918457031,-7.448247436523437,1.2066591796875,0.03357449266857497,0.03570319061738893,0.006264210534084123,1.124864101409912,2019-06-20 15:03:35:309
7.1154584960937495,-7.461415344238281,1.2473599853515625,0.03330817655956705,0.03690161310792459,0.005731578316068277,1.1299841403961182,2019-06-20 15:03:35:314
7.109473083496094,-7.463809509277343,1.2102504272460937,0.03290870239605516,0.037167929216932516,0.005731578316068277,1.1348481178283691,2019-06-20 15:03:35:319
7.119049743652344,-7.447050354003906,1.2365862426757812,0.03250922823254328,0.03676845505342063,0.004799471934540543,1.139967918395996,2019-06-20 15:03:35:324
7.140597229003906,-7.457824096679687,1.264119140625,0.03250922823254328,0.037966877543956286,0.006264210534084123,1.1448321342468262,2019-06-20 15:03:35:329
7.108276000976562,-7.445853271484375,1.2772870483398437,0.032642386287047236,0.037301087271436474,0.006264210534084123,1.1499519348144531,2019-06-20 15:03:35:334
7.145385559082031,-7.443459106445312,1.2701045532226563,0.03344133461407101,0.03783371948945232,0.007196316915611857,1.154815912246704,2019-06-20 15:03:35:339
7.123838073730469,-7.492539489746093,1.201870849609375,0.033041860450559124,0.037167929216932516,0.006796842752099972,1.1599359512329102,2019-06-20 15:03:35:344
7.126232238769531,-7.456627014160156,1.2150387573242187,0.0327755443415512,0.03703477116242855,0.006397368588588085,1.1647999286651611,2019-06-20 15:03:35:349
7.123838073730469,-7.473386169433594,1.2126445922851563,0.03197659601452743,0.037301087271436474,0.0059978944250762,1.1699199676513672,2019-06-20 15:03:35:354
7.119049743652344,-7.447050354003906,1.2126445922851563,0.03157712185101554,0.037301087271436474,0.00666368469759601,1.1747839450836182,2019-06-20 15:03:35:359
7.103487670898438,-7.445853271484375,1.2078562622070312,0.03210975406903139,0.03849950976197213,0.007063158861107895,1.1799039840698242,2019-06-20 15:03:35:364
7.1010935058593745,-7.449444519042968,1.2533453979492186,0.0327755443415512,0.03676845505342063,0.005864736370572238,1.1850240230560303,2019-06-20 15:03:35:369
7.141794311523437,-7.43148828125,1.211447509765625,0.032642386287047236,0.03663529699891667,0.007329474970115818,1.1898880004882812,2019-06-20 15:03:35:374
7.154962219238281,-7.444656188964844,1.1958854370117187,0.031443963796511584,0.03783371948945232,0.006796842752099972,1.1950080394744873,2019-06-20 15:03:35:379
7.137005981445312,-7.4231087036132815,1.2198270874023438,0.03131080574200762,0.038898983925484014,0.007196316915611857,1.1998720169067383,2019-06-20 15:03:35:384
7.139400146484375,-7.442262023925781,1.2270095825195313,0.03171027990551951,0.03783371948945232,0.007862107188131667,1.2049920558929443,2019-06-20 15:03:35:389
7.147779724121094,-7.442262023925781,1.2030679321289062,0.031443963796511584,0.03836635170746817,0.007862107188131667,1.2098560333251953,2019-06-20 15:03:35:394
7.180100952148437,-7.445853271484375,1.1887029418945312,0.031177647687503654,0.03916530003449194,0.0087942135696594,1.2149760723114014,2019-06-20 15:03:35:399
7.163341796875,-7.444656188964844,1.211447509765625,0.031177647687503654,0.04049688057953156,0.010258952169202981,1.2198400497436523,2019-06-20 15:03:35:404
7.1753126220703125,-7.4530357666015625,1.2521483154296875,0.031843437960023466,0.04049688057953156,0.011324216605234675,1.2249600887298584,2019-06-20 15:03:35:409
7.142991394042968,-7.4386707763671875,1.2329949951171875,0.031044489632999692,0.039964248361515714,0.01225632298676241,1.2298240661621094,2019-06-20 15:03:35:414
7.121443908691406,-7.427897033691406,1.201870849609375,0.030245541305975922,0.04049688057953156,0.011191058550730713,1.2349441051483154,2019-06-20 15:03:35:419
7.135808898925781,-7.44106494140625,1.2246154174804686,0.030645015469487807,0.04049688057953156,0.010525268278210905,1.2398080825805664,2019-06-20 15:03:35:424
7.1465826416015625,-7.461415344238281,1.240177490234375,0.029446592978952153,0.0392984580889959,0.011324216605234675,1.2449281215667725,2019-06-20 15:03:35:429
7.128626403808593,-7.445853271484375,1.2294037475585937,0.03091133157849573,0.04009740641601968,0.011191058550730713,1.2497920989990234,2019-06-20 15:03:35:434
7.110670166015625,-7.4386707763671875,1.2473599853515625,0.03077817352399177,0.04196161917907514,0.011590532714242601,1.2549121379852295,2019-06-20 15:03:35:439
7.121443908691406,-7.4362766113281245,1.201870849609375,0.031443963796511584,0.039964248361515714,0.01305527131378618,1.2597761154174805,2019-06-20 15:03:35:444
7.1298234863281245,-7.424305786132813,1.2258125,0.030645015469487807,0.039564774198003826,0.013454745477298068,1.2648959159851074,2019-06-20 15:03:35:449
7.121443908691406,-7.448247436523437,1.2006737670898437,0.030645015469487807,0.03983109030701175,0.013854219640809953,1.2700159549713135,2019-06-20 15:03:35:454
7.120246826171875,-7.4889482421875,1.2078562622070312,0.03197659601452743,0.04009740641601968,0.013188429368290141,1.2748799324035645,2019-06-20 15:03:35:459
7.1298234863281245,-7.497327819824219,1.2222212524414062,0.03157712185101554,0.0392984580889959,0.013321587422794106,1.2799999713897705,2019-06-20 15:03:35:464
7.135808898925781,-7.468597839355469,1.2270095825195313,0.031177647687503654,0.039964248361515714,0.01358790353180203,1.2848639488220215,2019-06-20 15:03:35:469
7.138203063964844,-7.444656188964844,1.2174329223632812,0.03131080574200762,0.04049688057953156,0.013987377695313915,1.2899839878082275,2019-06-20 15:03:35:474
7.1154584960937495,-7.429094116210937,1.1982796020507813,0.031044489632999692,0.0403637225250276,0.013987377695313915,1.2948479652404785,2019-06-20 15:03:35:479
7.111867248535156,-7.430291198730469,1.2282066650390624,0.03250922823254328,0.04023056447052364,0.014120535749817876,1.2999680042266846,2019-06-20 15:03:35:484
7.123838073730469,-7.468597839355469,1.2581337280273437,0.03077817352399177,0.04049688057953156,0.013188429368290141,1.3048319816589355,2019-06-20 15:03:35:489
7.147779724121094,-7.474583251953125,1.2449658203125,0.03171027990551951,0.04089635474304345,0.013987377695313915,1.3099520206451416,2019-06-20 15:03:35:494
7.122640991210937,-7.473386169433594,1.1994766845703124,0.03131080574200762,0.040630038634035526,0.014786326022337684,1.3148159980773926,2019-06-20 15:03:35:499
7.1310205688476564,-7.459021179199219,1.2126445922851563,0.03237607017803931,0.040763196688539484,0.012788955204778256,1.3199360370635986,2019-06-20 15:03:35:504
7.090319763183594,-7.470992004394531,1.1803233642578124,0.031843437960023466,0.040630038634035526,0.0143868518588258,1.3248000144958496,2019-06-20 15:03:35:509
7.107078918457031,-7.482962829589844,1.2234183349609375,0.031843437960023466,0.0403637225250276,0.015452116294857496,1.3299200534820557,2019-06-20 15:03:35:514
7.093911010742187,-7.482962829589844,1.230600830078125,0.031177647687503654,0.03983109030701175,0.01358790353180203,1.3347840309143066,2019-06-20 15:03:35:519
7.1310205688476564,-7.469794921875,1.2341920776367188,0.031044489632999692,0.04129582890655533,0.013854219640809953,1.3399040699005127,2019-06-20 15:03:35:524
7.151370971679687,-7.469794921875,1.2078562622070312,0.03131080574200762,0.041562145015563254,0.014786326022337684,1.3450241088867188,2019-06-20 15:03:35:529
7.159750549316406,-7.475780334472656,1.2246154174804686,0.03171027990551951,0.0392984580889959,0.014253693804321838,1.3498880863189697,2019-06-20 15:03:35:534
7.138203063964844,-7.437473693847656,1.2246154174804686,0.031443963796511584,0.038898983925484014,0.01358790353180203,1.3550081253051758,2019-06-20 15:03:35:539
7.139400146484375,-7.4386707763671875,1.25454248046875,0.03171027990551951,0.0392984580889959,0.012655797150274295,1.3598721027374268,2019-06-20 15:03:35:544
7.1166555786132815,-7.46021826171875,1.2258125,0.03210975406903139,0.03916530003449194,0.013321587422794106,1.3649921417236328,2019-06-20 15:03:35:549
7.139400146484375,-7.443459106445312,1.2126445922851563,0.032242912123535354,0.03849950976197213,0.013188429368290141,1.3698561191558838,2019-06-20 15:03:35:554
7.172918457031249,-7.448247436523437,1.1767321166992186,0.03210975406903139,0.03783371948945232,0.013454745477298068,1.3749759197235107,2019-06-20 15:03:35:559
7.148976806640625,-7.448247436523437,1.1982796020507813,0.03344133461407101,0.03849950976197213,0.0143868518588258,1.3798401355743408,2019-06-20 15:03:35:564
7.140597229003906,-7.3931816406249995,1.2078562622070312,0.0327755443415512,0.038765825870980056,0.014919484076841646,1.3849599361419678,2019-06-20 15:03:35:569
7.193268859863281,-7.482962829589844,1.2748928833007813,0.03317501850506309,0.03863266781647609,0.015585274349361458,1.3898239135742188,2019-06-20 15:03:35:574
7.171721374511718,-7.4674007568359375,1.2449658203125,0.031443963796511584,0.03770056143494836,0.015452116294857496,1.3949439525604248,2019-06-20 15:03:35:579
7.1310205688476564,-7.459021179199219,1.1671554565429687,0.03011238325147196,0.03823319365296421,0.015984748512873345,1.3998079299926758,2019-06-20 15:03:35:584
7.1154584960937495,-7.409940795898438,1.2078562622070312,0.03410712488659082,0.03903214197998798,0.016783696839897114,1.4049279689788818,2019-06-20 15:03:35:589
7.158553466796874,-7.427897033691406,1.2186300048828125,0.03210975406903139,0.038898983925484014,0.015452116294857496,1.4097919464111328,2019-06-20 15:03:35:594
7.169327209472656,-7.4530357666015625,1.264119140625,0.03357449266857497,0.0375674033804444,0.015851590458369383,1.4149119853973389,2019-06-20 15:03:35:599
7.195663024902344,-7.474583251953125,1.2844695434570312,0.033041860450559124,0.03943161614349987,0.01638422267638523,1.4197759628295898,2019-06-20 15:03:35:604
7.154962219238281,-7.435079528808593,1.1432138061523438,0.03237607017803931,0.040763196688539484,0.017582645166920888,1.424896001815796,2019-06-20 15:03:35:609
7.120246826171875,-7.468597839355469,1.1731408691406249,0.03290870239605516,0.038765825870980056,0.018115277384936734,1.430016040802002,2019-06-20 15:03:35:614
7.148976806640625,-7.4386707763671875,1.2078562622070312,0.03330817655956705,0.038898983925484014,0.01784896127592881,1.434880018234253,2019-06-20 15:03:35:619
7.15376513671875,-7.485356994628906,1.264119140625,0.033707650723078936,0.03849950976197213,0.017582645166920888,1.440000057220459,2019-06-20 15:03:35:624
7.139400146484375,-7.482962829589844,1.259330810546875,0.034506599050102706,0.03916530003449194,0.01904738376646447,1.44486403465271,2019-06-20 15:03:35:629
7.12503515625,-7.470992004394531,1.2102504272460937,0.031843437960023466,0.039964248361515714,0.019580015984480316,1.449984073638916,2019-06-20 15:03:35:634
7.148976806640625,-7.425502868652344,1.2258125,0.032242912123535354,0.038765825870980056,0.01864790960295258,1.454848051071167,2019-06-20 15:03:35:639
7.156159301757812,-7.44106494140625,1.2174329223632812,0.03237607017803931,0.039564774198003826,0.020911596529519936,1.459968090057373,2019-06-20 15:03:35:644
7.157356384277343,-7.43148828125,1.2581337280273437,0.03290870239605516,0.03943161614349987,0.021577386802039744,1.464832067489624,2019-06-20 15:03:35:649
7.126232238769531,-7.447050354003906,1.2258125,0.032242912123535354,0.03863266781647609,0.02117791263852786,1.46995210647583,2019-06-20 15:03:35:654
7.1441884765624994,-7.424305786132813,1.2174329223632812,0.032242912123535354,0.03916530003449194,0.021044754584023898,1.474816083908081,2019-06-20 15:03:35:659
7.1441884765624994,-7.454232849121094,1.2497541503906249,0.03330817655956705,0.037966877543956286,0.021710544856543706,1.479936122894287,2019-06-20 15:03:35:664
7.1298234863281245,-7.466203674316406,1.2006737670898437,0.033707650723078936,0.03916530003449194,0.021044754584023898,1.484800100326538,2019-06-20 15:03:35:669
7.150173889160156,-7.454232849121094,1.2030679321289062,0.03330817655956705,0.03969793225250779,0.021044754584023898,1.4899201393127441,2019-06-20 15:03:35:674
7.120246826171875,-7.444656188964844,1.2282066650390624,0.03424028294109478,0.038765825870980056,0.022509493183567476,1.4947841167449951,2019-06-20 15:03:35:679
7.13461181640625,-7.461415344238281,1.2138416748046874,0.03250922823254328,0.03916530003449194,0.02197686096555163,1.499903917312622,2019-06-20 15:03:35:684
7.1310205688476564,-7.476977416992187,1.2270095825195313,0.0327755443415512,0.0392984580889959,0.022243177074559552,1.5050239562988281,2019-06-20 15:03:35:689
7.141794311523437,-7.465006591796874,1.2521483154296875,0.03237607017803931,0.03903214197998798,0.02211001902005559,1.509887933731079,2019-06-20 15:03:35:694
7.145385559082031,-7.437473693847656,1.2389804077148436,0.03171027990551951,0.038898983925484014,0.023042125401583322,1.5150079727172852,2019-06-20 15:03:35:699
7.1298234863281245,-7.445853271484375,1.2270095825195313,0.03131080574200762,0.03983109030701175,0.023042125401583322,1.5198719501495361,2019-06-20 15:03:35:704
7.12503515625,-7.46021826171875,1.2234183349609375,0.03171027990551951,0.03916530003449194,0.022509493183567476,1.5249919891357422,2019-06-20 15:03:35:709
7.145385559082031,-7.451838684082031,1.1934912719726563,0.03210975406903139,0.03916530003449194,0.023042125401583322,1.5298559665679932,2019-06-20 15:03:35:714
7.152568054199219,-7.478174499511718,1.1899000244140625,0.032242912123535354,0.03969793225250779,0.022509493183567476,1.5349760055541992,2019-06-20 15:03:35:719
7.107078918457031,-7.480568664550781,1.2557395629882813,0.03197659601452743,0.04049688057953156,0.02344159956509521,1.5398399829864502,2019-06-20 15:03:35:724
7.107078918457031,-7.466203674316406,1.240177490234375,0.03250922823254328,0.03943161614349987,0.023042125401583322,1.5449600219726562,2019-06-20 15:03:35:729
7.107078918457031,-7.478174499511718,1.2090533447265626,0.03197659601452743,0.038100035598460244,0.022243177074559552,1.5498239994049072,2019-06-20 15:03:35:734
7.097502258300781,-7.466203674316406,1.2102504272460937,0.032242912123535354,0.03916530003449194,0.023042125401583322,1.5549440383911133,2019-06-20 15:03:35:739
7.097502258300781,-7.469794921875,1.21623583984375,0.03290870239605516,0.039564774198003826,0.02290896734707936,1.5598080158233643,2019-06-20 15:03:35:744
7.097502258300781,-7.4674007568359375,1.19708251953125,0.03344133461407101,0.04023056447052364,0.023707915674103134,1.5649280548095703,2019-06-20 15:03:35:749
7.092713928222656,-7.447050354003906,1.2006737670898437,0.0327755443415512,0.03969793225250779,0.022243177074559552,1.5697920322418213,2019-06-20 15:03:35:754
7.099896423339843,-7.466203674316406,1.201870849609375,0.03210975406903139,0.03969793225250779,0.022243177074559552,1.5749120712280273,2019-06-20 15:03:35:759
7.1322176513671875,-7.49852490234375,1.221024169921875,0.03237607017803931,0.03969793225250779,0.02117791263852786,1.5797760486602783,2019-06-20 15:03:35:764
7.103487670898438,-7.487751159667969,1.2413745727539063,0.03197659601452743,0.03836635170746817,0.02211001902005559,1.5848960876464844,2019-06-20 15:03:35:769
7.099896423339843,-7.485356994628906,1.2138416748046874,0.03171027990551951,0.03916530003449194,0.021044754584023898,1.5900161266326904,2019-06-20 15:03:35:774
7.069969360351562,-7.482962829589844,1.2078562622070312,0.032642386287047236,0.039564774198003826,0.021577386802039744,1.5948801040649414,2019-06-20 15:03:35:779
7.099896423339843,-7.4889482421875,1.2186300048828125,0.0327755443415512,0.04049688057953156,0.021444228747535782,1.6000001430511475,2019-06-20 15:03:35:784
7.1022905883789065,-7.455429931640625,1.1958854370117187,0.031843437960023466,0.03969793225250779,0.021577386802039744,1.6048641204833984,2019-06-20 15:03:35:789
7.1022905883789065,-7.473386169433594,1.2437687377929687,0.03171027990551951,0.03903214197998798,0.021044754584023898,1.6099839210510254,2019-06-20 15:03:35:794
7.117852661132813,-7.486554077148437,1.2138416748046874,0.033041860450559124,0.04009740641601968,0.020378964311504086,1.6148481369018555,2019-06-20 15:03:35:799
7.078348937988281,-7.473386169433594,1.2102504272460937,0.03157712185101554,0.040763196688539484,0.021044754584023898,1.6199679374694824,2019-06-20 15:03:35:804
7.0879255981445315,-7.465006591796874,1.2138416748046874,0.031044489632999692,0.04129582890655533,0.02197686096555163,1.6248319149017334,2019-06-20 15:03:35:809
7.080743103027344,-7.466203674316406,1.2042650146484375,0.030378699360479884,0.04169530307006722,0.021843702911047667,1.6299519538879395,2019-06-20 15:03:35:814
7.078348937988281,-7.470992004394531,1.2186300048828125,0.03210975406903139,0.04009740641601968,0.021044754584023898,1.6348159313201904,2019-06-20 15:03:35:819
7.081940185546875,-7.463809509277343,1.2581337280273437,0.03210975406903139,0.0392984580889959,0.02064528042051201,1.6399359703063965,2019-06-20 15:03:35:824
7.0735606079101565,-7.49852490234375,1.221024169921875,0.031443963796511584,0.039564774198003826,0.0199794901479922,1.6447999477386475,2019-06-20 15:03:35:829
7.1058818359375,-7.482962829589844,1.2294037475585937,0.031443963796511584,0.04009740641601968,0.019580015984480316,1.6499199867248535,2019-06-20 15:03:35:834
7.091516845703125,-7.485356994628906,1.2497541503906249,0.03197659601452743,0.039564774198003826,0.018381593493944658,1.6547839641571045,2019-06-20 15:03:35:839
7.0879255981445315,-7.4961307373046875,1.1934912719726563,0.031177647687503654,0.04023056447052364,0.018914225711960504,1.6599040031433105,2019-06-20 15:03:35:844
7.111867248535156,-7.490145324707031,1.2222212524414062,0.03157712185101554,0.038100035598460244,0.0199794901479922,1.6650240421295166,2019-06-20 15:03:35:849
7.081940185546875,-7.466203674316406,1.2461629028320311,0.03237607017803931,0.03863266781647609,0.018248435439440696,1.6698880195617676,2019-06-20 15:03:35:854
7.068772277832031,-7.463809509277343,1.2234183349609375,0.03290870239605516,0.04049688057953156,0.01904738376646447,1.6750080585479736,2019-06-20 15:03:35:859
7.071166442871093,-7.480568664550781,1.2413745727539063,0.033041860450559124,0.03943161614349987,0.018115277384936734,1.6798720359802246,2019-06-20 15:03:35:864
7.084334350585937,-7.486554077148437,1.2282066650390624,0.03237607017803931,0.03916530003449194,0.017050012948905038,1.6849920749664307,2019-06-20 15:03:35:869
7.098699340820312,-7.491342407226562,1.2234183349609375,0.032242912123535354,0.038765825870980056,0.018115277384936734,1.6898560523986816,2019-06-20 15:03:35:874
7.081940185546875,-7.4674007568359375,1.2509512329101562,0.0327755443415512,0.03836635170746817,0.018248435439440696,1.6949760913848877,2019-06-20 15:03:35:879
7.108276000976562,-7.479371582031249,1.2198270874023438,0.03197659601452743,0.0392984580889959,0.017449487112416926,1.6998400688171387,2019-06-20 15:03:35:884
7.1058818359375,-7.469794921875,1.2054620971679688,0.03157712185101554,0.04009740641601968,0.016916854894401076,1.7049601078033447,2019-06-20 15:03:35:889
7.1154584960937495,-7.456627014160156,1.21623583984375,0.031843437960023466,0.039964248361515714,0.01651738073088919,1.7098240852355957,2019-06-20 15:03:35:894
7.121443908691406,-7.480568664550781,1.21623583984375,0.03330817655956705,0.03969793225250779,0.015318958240353535,1.7149441242218018,2019-06-20 15:03:35:899
7.117852661132813,-7.480568664550781,1.2365862426757812,0.03171027990551951,0.039564774198003826,0.015585274349361458,1.7198081016540527,2019-06-20 15:03:35:904
7.117852661132813,-7.450641601562499,1.2365862426757812,0.031443963796511584,0.0403637225250276,0.01638422267638523,1.7249281406402588,2019-06-20 15:03:35:909
7.104684753417969,-7.470992004394531,1.2030679321289062,0.03210975406903139,0.03916530003449194,0.016783696839897114,1.7297921180725098,2019-06-20 15:03:35:914
7.0879255981445315,-7.484159912109375,1.2234183349609375,0.03210975406903139,0.039964248361515714,0.016251064621881268,1.7349119186401367,2019-06-20 15:03:35:919
7.0867285156249995,-7.474583251953125,1.2282066650390624,0.03210975406903139,0.03863266781647609,0.017050012948905038,1.7397761344909668,2019-06-20 15:03:35:924
7.061589782714844,-7.474583251953125,1.2449658203125,0.032642386287047236,0.03849950976197213,0.015185800185849573,1.7448959350585938,2019-06-20 15:03:35:929
7.052013122558594,-7.478174499511718,1.2329949951171875,0.032242912123535354,0.038898983925484014,0.015185800185849573,1.7500159740447998,2019-06-20 15:03:35:934
7.075954772949219,-7.497327819824219,1.2042650146484375,0.03237607017803931,0.039564774198003826,0.015185800185849573,1.7548799514770508,2019-06-20 15:03:35:939
7.084334350585937,-7.491342407226562,1.1934912719726563,0.0327755443415512,0.03983109030701175,0.014120535749817876,1.7599999904632568,2019-06-20 15:03:35:944
7.091516845703125,-7.494933654785156,1.192294189453125,0.032242912123535354,0.04129582890655533,0.014919484076841646,1.7648639678955078,2019-06-20 15:03:35:949
7.091516845703125,-7.503313232421875,1.2294037475585937,0.03250922823254328,0.040630038634035526,0.014520009913329761,1.7699840068817139,2019-06-20 15:03:35:954
7.117852661132813,-7.521269470214843,1.1934912719726563,0.032242912123535354,0.0403637225250276,0.014120535749817876,1.7748479843139648,2019-06-20 15:03:35:959
7.1022905883789065,-7.486554077148437,1.1803233642578124,0.03131080574200762,0.040763196688539484,0.0143868518588258,1.779968023300171,2019-06-20 15:03:35:964
7.091516845703125,-7.497327819824219,1.2365862426757812,0.03197659601452743,0.04129582890655533,0.014520009913329761,1.7848320007324219,2019-06-20 15:03:35:969
7.1010935058593745,-7.487751159667969,1.2258125,0.031443963796511584,0.04089635474304345,0.014520009913329761,1.789952039718628,2019-06-20 15:03:35:974
7.103487670898438,-7.478174499511718,1.2030679321289062,0.030645015469487807,0.04116267085205137,0.012389481041266371,1.794816017150879,2019-06-20 15:03:35:979
7.097502258300781,-7.450641601562499,1.1946883544921876,0.03197659601452743,0.03903214197998798,0.013321587422794106,1.799936056137085,2019-06-20 15:03:35:984
7.113064331054687,-7.457824096679687,1.2365862426757812,0.03210975406903139,0.03943161614349987,0.013721061586305991,1.804800033569336,2019-06-20 15:03:35:989
7.108276000976562,-7.473386169433594,1.2186300048828125,0.03131080574200762,0.0403637225250276,0.013188429368290141,1.809920072555542,2019-06-20 15:03:35:994
7.103487670898438,-7.449444519042968,1.1958854370117187,0.03091133157849573,0.039564774198003826,0.012655797150274295,1.814784049987793,2019-06-20 15:03:35:999
7.091516845703125,-7.479371582031249,1.2102504272460937,0.03171027990551951,0.03983109030701175,0.01358790353180203,1.819904088973999,2019-06-20 15:03:36:004
7.133414733886719,-7.478174499511718,1.2030679321289062,0.03077817352399177,0.04023056447052364,0.013721061586305991,1.825024127960205,2019-06-20 15:03:36:009
7.119049743652344,-7.485356994628906,1.2413745727539063,0.031443963796511584,0.04049688057953156,0.013321587422794106,1.829888105392456,2019-06-20 15:03:36:014
7.12503515625,-7.484159912109375,1.2150387573242187,0.03210975406903139,0.04009740641601968,0.014120535749817876,1.835008144378662,2019-06-20 15:03:36:019
7.122640991210937,-7.463809509277343,1.2294037475585937,0.03210975406903139,0.039964248361515714,0.01358790353180203,1.839872121810913,2019-06-20 15:03:36:024
7.117852661132813,-7.454232849121094,1.2413745727539063,0.031177647687503654,0.03969793225250779,0.01358790353180203,1.84499192237854,2019-06-20 15:03:36:029
7.1010935058593745,-7.466203674316406,1.2377833251953125,0.031843437960023466,0.04049688057953156,0.01358790353180203,1.8498561382293701,2019-06-20 15:03:36:034
7.120246826171875,-7.479371582031249,1.2353891601562499,0.031044489632999692,0.038898983925484014,0.014253693804321838,1.854975938796997,2019-06-20 15:03:36:039
7.109473083496094,-7.4674007568359375,1.1994766845703124,0.031177647687503654,0.03836635170746817,0.0143868518588258,1.859839916229248,2019-06-20 15:03:36:044
7.113064331054687,-7.46021826171875,1.2174329223632812,0.03091133157849573,0.04023056447052364,0.014653167967833723,1.864959955215454,2019-06-20 15:03:36:049
7.104684753417969,-7.451838684082031,1.2365862426757812,0.031044489632999692,0.04049688057953156,0.013188429368290141,1.869823932647705,2019-06-20 15:03:36:054
7.113064331054687,-7.466203674316406,1.2317979125976561,0.031443963796511584,0.03943161614349987,0.012123164932258448,1.8749439716339111,2019-06-20 15:03:36:059
7.1166555786132815,-7.462612426757812,1.2234183349609375,0.03171027990551951,0.038765825870980056,0.01358790353180203,1.879807949066162,2019-06-20 15:03:36:064
7.085531433105468,-7.476977416992187,1.240177490234375,0.03237607017803931,0.0392984580889959,0.013454745477298068,1.8849279880523682,2019-06-20 15:03:36:069
7.091516845703125,-7.463809509277343,1.2078562622070312,0.03237607017803931,0.03943161614349987,0.01225632298676241,1.8900480270385742,2019-06-20 15:03:36:074
7.099896423339843,-7.4674007568359375,1.2294037475585937,0.03171027990551951,0.03849950976197213,0.013321587422794106,1.8949120044708252,2019-06-20 15:03:36:079
7.108276000976562,-7.484159912109375,1.2198270874023438,0.032642386287047236,0.03863266781647609,0.013321587422794106,1.8997759819030762,2019-06-20 15:03:36:084
7.078348937988281,-7.466203674316406,1.211447509765625,0.03317501850506309,0.03836635170746817,0.013321587422794106,1.9048960208892822,2019-06-20 15:03:36:089
7.103487670898438,-7.4674007568359375,1.2461629028320311,0.032642386287047236,0.0375674033804444,0.012123164932258448,1.9100160598754883,2019-06-20 15:03:36:094
7.0735606079101565,-7.490145324707031,1.2437687377929687,0.032642386287047236,0.036368980889908746,0.011590532714242601,1.9148800373077393,2019-06-20 15:03:36:099
7.1022905883789065,-7.451838684082031,1.2174329223632812,0.03330817655956705,0.03690161310792459,0.011990006877754486,1.9200000762939453,2019-06-20 15:03:36:104
7.110670166015625,-7.462612426757812,1.211447509765625,0.03317501850506309,0.03743424532594044,0.010392110223706943,1.9248640537261963,2019-06-20 15:03:36:109
7.098699340820312,-7.4889482421875,1.2294037475585937,0.03330817655956705,0.037301087271436474,0.011324216605234675,1.9299840927124023,2019-06-20 15:03:36:114
7.108276000976562,-7.478174499511718,1.2294037475585937,0.03357449266857497,0.03863266781647609,0.011324216605234675,1.9348480701446533,2019-06-20 15:03:36:119
7.104684753417969,-7.473386169433594,1.2054620971679688,0.03344133461407101,0.03783371948945232,0.012788955204778256,1.9399681091308594,2019-06-20 15:03:36:124
7.103487670898438,-7.4386707763671875,1.1815204467773437,0.03237607017803931,0.038100035598460244,0.013321587422794106,1.9448320865631104,2019-06-20 15:03:36:129
7.121443908691406,-7.456627014160156,1.2270095825195313,0.032242912123535354,0.03823319365296421,0.012522639095770333,1.9499521255493164,2019-06-20 15:03:36:134
7.122640991210937,-7.429094116210937,1.230600830078125,0.03344133461407101,0.03903214197998798,0.011990006877754486,1.9548161029815674,2019-06-20 15:03:36:139
7.104684753417969,-7.459021179199219,1.2042650146484375,0.03237607017803931,0.03943161614349987,0.012123164932258448,1.9599361419677734,2019-06-20 15:03:36:144
7.117852661132813,-7.46021826171875,1.2042650146484375,0.03197659601452743,0.03823319365296421,0.012788955204778256,1.9648001194000244,2019-06-20 15:03:36:149
7.1298234863281245,-7.454232849121094,1.2353891601562499,0.03237607017803931,0.03903214197998798,0.012655797150274295,1.9699199199676514,2019-06-20 15:03:36:154
7.120246826171875,-7.454232849121094,1.2234183349609375,0.03250922823254328,0.03916530003449194,0.01358790353180203,1.9747841358184814,2019-06-20 15:03:36:159
7.121443908691406,-7.4530357666015625,1.2521483154296875,0.03210975406903139,0.038765825870980056,0.012389481041266371,1.9799039363861084,2019-06-20 15:03:36:164
7.117852661132813,-7.480568664550781,1.2294037475585937,0.0327755443415512,0.03836635170746817,0.011990006877754486,1.9850239753723145,2019-06-20 15:03:36:169
7.138203063964844,-7.451838684082031,1.2473599853515625,0.03237607017803931,0.03743424532594044,0.012522639095770333,1.9898879528045654,2019-06-20 15:03:36:174
7.117852661132813,-7.470992004394531,1.2629220581054688,0.03157712185101554,0.03863266781647609,0.01305527131378618,1.9950079917907715,2019-06-20 15:03:36:179
7.1010935058593745,-7.468597839355469,1.2042650146484375,0.032642386287047236,0.039964248361515714,0.01225632298676241,1.9998719692230225,2019-06-20 15:03:36:184
7.1010935058593745,-7.473386169433594,1.2126445922851563,0.03237607017803931,0.039964248361515714,0.01358790353180203,2.0049920082092285,2019-06-20 15:03:36:189
7.111867248535156,-7.468597839355469,1.2294037475585937,0.03210975406903139,0.03969793225250779,0.01358790353180203,2.0098559856414795,2019-06-20 15:03:36:194
7.121443908691406,-7.463809509277343,1.2126445922851563,0.03237607017803931,0.039964248361515714,0.012922113259282218,2.0149760246276855,2019-06-20 15:03:36:199
7.108276000976562,-7.449444519042968,1.2234183349609375,0.03237607017803931,0.03903214197998798,0.013188429368290141,2.0198400020599365,2019-06-20 15:03:36:204
7.1010935058593745,-7.470992004394531,1.2389804077148436,0.031843437960023466,0.039564774198003826,0.01225632298676241,2.0249600410461426,2019-06-20 15:03:36:209
7.107078918457031,-7.475780334472656,1.2078562622070312,0.031843437960023466,0.040763196688539484,0.012655797150274295,2.0298240184783936,2019-06-20 15:03:36:214
7.1010935058593745,-7.4530357666015625,1.211447509765625,0.031443963796511584,0.040630038634035526,0.012788955204778256,2.0349440574645996,2019-06-20 15:03:36:219
7.12503515625,-7.455429931640625,1.2234183349609375,0.03250922823254328,0.038898983925484014,0.01358790353180203,2.0398080348968506,2019-06-20 15:03:36:224
7.119049743652344,-7.449444519042968,1.2425716552734374,0.03171027990551951,0.03849950976197213,0.014786326022337684,2.0449280738830566,2019-06-20 15:03:36:229
7.121443908691406,-7.449444519042968,1.1982796020507813,0.032242912123535354,0.03983109030701175,0.013321587422794106,2.0497920513153076,2019-06-20 15:03:36:234
7.110670166015625,-7.450641601562499,1.2246154174804686,0.03157712185101554,0.039564774198003826,0.013454745477298068,2.0549120903015137,2019-06-20 15:03:36:239
7.119049743652344,-7.482962829589844,1.2042650146484375,0.03197659601452743,0.03863266781647609,0.014520009913329761,2.0597760677337646,2019-06-20 15:03:36:244
7.152568054199219,-7.4674007568359375,1.2066591796875,0.03197659601452743,0.0392984580889959,0.015052642131345608,2.0648961067199707,2019-06-20 15:03:36:249
7.145385559082031,-7.476977416992187,1.1803233642578124,0.03290870239605516,0.03983109030701175,0.014786326022337684,2.0700161457061768,2019-06-20 15:03:36:254
7.1058818359375,-7.448247436523437,1.240177490234375,0.03197659601452743,0.04102951279754741,0.016117906567377306,2.0748801231384277,2019-06-20 15:03:36:259
7.121443908691406,-7.443459106445312,1.2270095825195313,0.031044489632999692,0.041428986961059296,0.015318958240353535,2.0799999237060547,2019-06-20 15:03:36:264
7.109473083496094,-7.4674007568359375,1.2317979125976561,0.03077817352399177,0.04102951279754741,0.015185800185849573,2.0848641395568848,2019-06-20 15:03:36:269
7.103487670898438,-7.484159912109375,1.230600830078125,0.03171027990551951,0.04023056447052364,0.014120535749817876,2.0899839401245117,2019-06-20 15:03:36:274
7.09630517578125,-7.472189086914062,1.2497541503906249,0.03250922823254328,0.039964248361515714,0.014786326022337684,2.0948479175567627,2019-06-20 15:03:36:279
7.091516845703125,-7.456627014160156,1.2377833251953125,0.03237607017803931,0.0392984580889959,0.014253693804321838,2.0999679565429688,2019-06-20 15:03:36:284
7.080743103027344,-7.472189086914062,1.2282066650390624,0.032242912123535354,0.04049688057953156,0.013854219640809953,2.1048319339752197,2019-06-20 15:03:36:289
7.080743103027344,-7.468597839355469,1.2341920776367188,0.032642386287047236,0.03969793225250779,0.01358790353180203,2.109951972961426,2019-06-20 15:03:36:294
7.1154584960937495,-7.4674007568359375,1.21623583984375,0.03317501850506309,0.04049688057953156,0.01225632298676241,2.1148159503936768,2019-06-20 15:03:36:299
7.098699340820312,-7.482962829589844,1.2270095825195313,0.032642386287047236,0.04049688057953156,0.012655797150274295,2.119935989379883,2019-06-20 15:03:36:304
7.1154584960937495,-7.466203674316406,1.1899000244140625,0.03237607017803931,0.04089635474304345,0.013987377695313915,2.124799966812134,2019-06-20 15:03:36:309
7.107078918457031,-7.450641601562499,1.2509512329101562,0.033041860450559124,0.0403637225250276,0.013321587422794106,2.12992000579834,2019-06-20 15:03:36:314
7.083137268066406,-7.447050354003906,1.2665133056640625,0.03237607017803931,0.04089635474304345,0.012655797150274295,2.134783983230591,2019-06-20 15:03:36:319
7.093911010742187,-7.476977416992187,1.25454248046875,0.032242912123535354,0.040630038634035526,0.011723690768746563,2.139904022216797,2019-06-20 15:03:36:324
7.108276000976562,-7.466203674316406,1.201870849609375,0.03171027990551951,0.04023056447052364,0.01305527131378618,2.145024061203003,2019-06-20 15:03:36:329
7.078348937988281,-7.478174499511718,1.2186300048828125,0.03237607017803931,0.040763196688539484,0.013321587422794106,2.149888038635254,2019-06-20 15:03:36:334
7.121443908691406,-7.456627014160156,1.2270095825195313,0.03250922823254328,0.04023056447052364,0.013188429368290141,2.15500807762146,2019-06-20 15:03:36:339
7.09630517578125,-7.4817657470703125,1.1910971069335938,0.0327755443415512,0.03916530003449194,0.011324216605234675,2.159872055053711,2019-06-20 15:03:36:344
7.074757690429688,-7.46021826171875,1.2473599853515625,0.032242912123535354,0.038100035598460244,0.012123164932258448,2.164992094039917,2019-06-20 15:03:36:349
7.089122680664063,-7.480568664550781,1.2234183349609375,0.032642386287047236,0.03823319365296421,0.011990006877754486,2.169856071472168,2019-06-20 15:03:36:354
7.1022905883789065,-7.462612426757812,1.2102504272460937,0.03397396683208686,0.03903214197998798,0.01225632298676241,2.174976110458374,2019-06-20 15:03:36:359
7.080743103027344,-7.462612426757812,1.2282066650390624,0.0327755443415512,0.03943161614349987,0.013321587422794106,2.179840087890625,2019-06-20 15:03:36:364
7.080743103027344,-7.480568664550781,1.2150387573242187,0.032642386287047236,0.0392984580889959,0.01145737465973864,2.184960126876831,2019-06-20 15:03:36:369
7.090319763183594,-7.4961307373046875,1.2365862426757812,0.033707650723078936,0.03943161614349987,0.01145737465973864,2.189824104309082,2019-06-20 15:03:36:374
7.0879255981445315,-7.462612426757812,1.2138416748046874,0.033041860450559124,0.03943161614349987,0.01145737465973864,2.194944143295288,2019-06-20 15:03:36:379
7.1166555786132815,-7.462612426757812,1.2294037475585937,0.0327755443415512,0.039564774198003826,0.010258952169202981,2.199808120727539,2019-06-20 15:03:36:384
7.095108093261719,-7.472189086914062,1.2437687377929687,0.03424028294109478,0.03903214197998798,0.011191058550730713,2.204927921295166,2019-06-20 15:03:36:389
7.09630517578125,-7.484159912109375,1.211447509765625,0.03357449266857497,0.03903214197998798,0.011324216605234675,2.209792137145996,2019-06-20 15:03:36:394
7.107078918457031,-7.4889482421875,1.2521483154296875,0.03290870239605516,0.0375674033804444,0.010258952169202981,2.214911937713623,2019-06-20 15:03:36:399
7.113064331054687,-7.4674007568359375,1.2377833251953125,0.03210975406903139,0.03690161310792459,0.009726319951187133,2.219775915145874,2019-06-20 15:03:36:404
7.1058818359375,-7.479371582031249,1.2150387573242187,0.033041860450559124,0.03770056143494836,0.011191058550730713,2.22489595413208,2019-06-20 15:03:36:409
7.119049743652344,-7.475780334472656,1.2066591796875,0.033041860450559124,0.03783371948945232,0.01092474244172279,2.230015993118286,2019-06-20 15:03:36:414
7.122640991210937,-7.492539489746093,1.2389804077148436,0.03344133461407101,0.038765825870980056,0.010658426332714866,2.234879970550537,2019-06-20 15:03:36:419
7.1310205688476564,-7.462612426757812,1.2150387573242187,0.033041860450559124,0.03823319365296421,0.011723690768746563,2.240000009536743,2019-06-20 15:03:36:424
7.128626403808593,-7.462612426757812,1.21623583984375,0.03344133461407101,0.03836635170746817,0.011990006877754486,2.244863986968994,2019-06-20 15:03:36:429
7.123838073730469,-7.445853271484375,1.2198270874023438,0.03210975406903139,0.03916530003449194,0.011856848823250525,2.2499840259552,2019-06-20 15:03:36:434
7.119049743652344,-7.486554077148437,1.2066591796875,0.032642386287047236,0.038898983925484014,0.011191058550730713,2.254848003387451,2019-06-20 15:03:36:439
7.135808898925781,-7.478174499511718,1.211447509765625,0.03250922823254328,0.038765825870980056,0.012123164932258448,2.2599680423736572,2019-06-20 15:03:36:444
7.135808898925781,-7.465006591796874,1.221024169921875,0.03197659601452743,0.039564774198003826,0.011856848823250525,2.264832019805908,2019-06-20 15:03:36:449
7.135808898925781,-7.480568664550781,1.2617249755859374,0.03197659601452743,0.04009740641601968,0.013454745477298068,2.2699520587921143,2019-06-20 15:03:36:454
7.135808898925781,-7.468597839355469,1.2078562622070312,0.030645015469487807,0.03969793225250779,0.013721061586305991,2.2748160362243652,2019-06-20 15:03:36:459
7.120246826171875,-7.457824096679687,1.1994766845703124,0.031443963796511584,0.0392984580889959,0.013321587422794106,2.2799360752105713,2019-06-20 15:03:36:464
7.111867248535156,-7.429094116210937,1.221024169921875,0.03157712185101554,0.03943161614349987,0.01358790353180203,2.2848000526428223,2019-06-20 15:03:36:469
7.099896423339843,-7.4362766113281245,1.211447509765625,0.03131080574200762,0.03983109030701175,0.013454745477298068,2.2899200916290283,2019-06-20 15:03:36:474
7.09630517578125,-7.439867858886719,1.2234183349609375,0.031044489632999692,0.038765825870980056,0.014120535749817876,2.2947840690612793,2019-06-20 15:03:36:479
7.109473083496094,-7.466203674316406,1.2317979125976561,0.03131080574200762,0.03969793225250779,0.015585274349361458,2.2999041080474854,2019-06-20 15:03:36:484
7.099896423339843,-7.454232849121094,1.1743379516601562,0.03077817352399177,0.040763196688539484,0.015585274349361458,2.3050239086151123,2019-06-20 15:03:36:489
7.109473083496094,-7.465006591796874,1.2150387573242187,0.03091133157849573,0.040763196688539484,0.015585274349361458,2.3098881244659424,2019-06-20 15:03:36:494
7.1010935058593745,-7.473386169433594,1.2150387573242187,0.03077817352399177,0.04049688057953156,0.015851590458369383,2.3150079250335693,2019-06-20 15:03:36:499
7.128626403808593,-7.4530357666015625,1.2353891601562499,0.030511857414983846,0.040630038634035526,0.016251064621881268,2.3198721408843994,2019-06-20 15:03:36:504
7.1166555786132815,-7.475780334472656,1.211447509765625,0.031177647687503654,0.03983109030701175,0.015052642131345608,2.3249919414520264,2019-06-20 15:03:36:509
7.113064331054687,-7.4674007568359375,1.1910971069335938,0.031044489632999692,0.04049688057953156,0.015318958240353535,2.3298559188842773,2019-06-20 15:03:36:514
7.085531433105468,-7.469794921875,1.2102504272460937,0.03237607017803931,0.04009740641601968,0.014520009913329761,2.3349759578704834,2019-06-20 15:03:36:519
7.108276000976562,-7.478174499511718,1.2174329223632812,0.03237607017803931,0.03943161614349987,0.015851590458369383,2.3398399353027344,2019-06-20 15:03:36:524
7.1154584960937495,-7.486554077148437,1.21623583984375,0.03250922823254328,0.03943161614349987,0.016251064621881268,2.3449599742889404,2019-06-20 15:03:36:529
7.098699340820312,-7.465006591796874,1.2126445922851563,0.03171027990551951,0.039564774198003826,0.01571843240386542,2.3498239517211914,2019-06-20 15:03:36:534
7.098699340820312,-7.478174499511718,1.2353891601562499,0.03171027990551951,0.04102951279754741,0.015851590458369383,2.3549439907073975,2019-06-20 15:03:36:539
7.098699340820312,-7.468597839355469,1.2102504272460937,0.03250922823254328,0.03943161614349987,0.016117906567377306,2.3598079681396484,2019-06-20 15:03:36:544
7.108276000976562,-7.484159912109375,1.2425716552734374,0.03171027990551951,0.038898983925484014,0.01571843240386542,2.3649280071258545,2019-06-20 15:03:36:549
7.099896423339843,-7.475780334472656,1.2317979125976561,0.0327755443415512,0.0392984580889959,0.01638422267638523,2.3697919845581055,2019-06-20 15:03:36:554
7.0867285156249995,-7.463809509277343,1.2509512329101562,0.032242912123535354,0.03916530003449194,0.016650538785393153,2.3749120235443115,2019-06-20 15:03:36:559
7.084334350585937,-7.450641601562499,1.2198270874023438,0.03210975406903139,0.039564774198003826,0.016650538785393153,2.3797760009765625,2019-06-20 15:03:36:564
7.104684753417969,-7.46021826171875,1.2605278930664061,0.03131080574200762,0.03943161614349987,0.015984748512873345,2.3848960399627686,2019-06-20 15:03:36:569
7.1010935058593745,-7.459021179199219,1.2413745727539063,0.03197659601452743,0.0403637225250276,0.016117906567377306,2.3900160789489746,2019-06-20 15:03:36:574
7.1010935058593745,-7.465006591796874,1.2066591796875,0.0327755443415512,0.03903214197998798,0.014919484076841646,2.3948800563812256,2019-06-20 15:03:36:579
7.1058818359375,-7.445853271484375,1.1910971069335938,0.03210975406903139,0.03903214197998798,0.014919484076841646,2.4000000953674316,2019-06-20 15:03:36:584
7.119049743652344,-7.459021179199219,1.2377833251953125,0.031443963796511584,0.03823319365296421,0.015185800185849573,2.4048640727996826,2019-06-20 15:03:36:589
7.1322176513671875,-7.497327819824219,1.2174329223632812,0.03250922823254328,0.0392984580889959,0.013721061586305991,2.4099841117858887,2019-06-20 15:03:36:594
7.12503515625,-7.4817657470703125,1.2222212524414062,0.031843437960023466,0.03969793225250779,0.013987377695313915,2.4148480892181396,2019-06-20 15:03:36:599
7.135808898925781,-7.494933654785156,1.2042650146484375,0.03250922823254328,0.04023056447052364,0.01305527131378618,2.4199681282043457,2019-06-20 15:03:36:604
7.1166555786132815,-7.469794921875,1.2246154174804686,0.03237607017803931,0.03836635170746817,0.01305527131378618,2.4248321056365967,2019-06-20 15:03:36:609
7.113064331054687,-7.4817657470703125,1.2294037475585937,0.03197659601452743,0.038898983925484014,0.0143868518588258,2.4299521446228027,2019-06-20 15:03:36:614
7.108276000976562,-7.474583251953125,1.2150387573242187,0.031843437960023466,0.039964248361515714,0.015318958240353535,2.4348161220550537,2019-06-20 15:03:36:619
7.108276000976562,-7.486554077148437,1.2317979125976561,0.032242912123535354,0.03943161614349987,0.015052642131345608,2.4399359226226807,2019-06-20 15:03:36:624
7.122640991210937,-7.432685363769531,1.2186300048828125,0.033041860450559124,0.039564774198003826,0.015585274349361458,2.4448001384735107,2019-06-20 15:03:36:629
7.1154584960937495,-7.461415344238281,1.2006737670898437,0.03210975406903139,0.039564774198003826,0.014253693804321838,2.4499199390411377,2019-06-20 15:03:36:634
7.089122680664063,-7.5104957275390625,1.2186300048828125,0.03210975406903139,0.04023056447052364,0.014653167967833723,2.4547839164733887,2019-06-20 15:03:36:639
7.07715185546875,-7.482962829589844,1.2150387573242187,0.03237607017803931,0.040630038634035526,0.014520009913329761,2.4599039554595947,2019-06-20 15:03:36:644
7.1010935058593745,-7.474583251953125,1.2234183349609375,0.0327755443415512,0.03969793225250779,0.016251064621881268,2.465023994445801,2019-06-20 15:03:36:649
7.1154584960937495,-7.46021826171875,1.2234183349609375,0.032242912123535354,0.038765825870980056,0.014653167967833723,2.4698879718780518,2019-06-20 15:03:36:654
7.110670166015625,-7.499721984863281,1.2329949951171875,0.03357449266857497,0.039564774198003826,0.015052642131345608,2.475008010864258,2019-06-20 15:03:36:659
7.110670166015625,-7.485356994628906,1.2329949951171875,0.033041860450559124,0.03903214197998798,0.016117906567377306,2.479871988296509,2019-06-20 15:03:36:664
7.098699340820312,-7.476977416992187,1.2294037475585937,0.03344133461407101,0.03823319365296421,0.01571843240386542,2.484992027282715,2019-06-20 15:03:36:669
7.128626403808593,-7.475780334472656,1.2294037475585937,0.03250922823254328,0.039964248361515714,0.014919484076841646,2.489856004714966,2019-06-20 15:03:36:674
7.114261413574218,-7.470992004394531,1.2054620971679688,0.03237607017803931,0.03969793225250779,0.014520009913329761,2.494976043701172,2019-06-20 15:03:36:679
7.093911010742187,-7.4530357666015625,1.1899000244140625,0.03237607017803931,0.039964248361515714,0.014919484076841646,2.499840021133423,2019-06-20 15:03:36:684
7.108276000976562,-7.451838684082031,1.2150387573242187,0.032242912123535354,0.04023056447052364,0.015318958240353535,2.504960060119629,2019-06-20 15:03:36:689
7.120246826171875,-7.465006591796874,1.2377833251953125,0.032242912123535354,0.03969793225250779,0.014919484076841646,2.50982403755188,2019-06-20 15:03:36:694
7.128626403808593,-7.470992004394531,1.230600830078125,0.032642386287047236,0.038898983925484014,0.014653167967833723,2.514944076538086,2019-06-20 15:03:36:699
7.127429321289062,-7.463809509277343,1.221024169921875,0.033041860450559124,0.03916530003449194,0.015585274349361458,2.519808053970337,2019-06-20 15:03:36:704
7.104684753417969,-7.476977416992187,1.2389804077148436,0.03250922823254328,0.03916530003449194,0.015851590458369383,2.524928092956543,2019-06-20 15:03:36:709
7.1058818359375,-7.487751159667969,1.2473599853515625,0.032642386287047236,0.03943161614349987,0.015452116294857496,2.529792070388794,2019-06-20 15:03:36:714
7.109473083496094,-7.486554077148437,1.2126445922851563,0.033707650723078936,0.03863266781647609,0.014520009913329761,2.534912109375,2019-06-20 15:03:36:719
7.113064331054687,-7.455429931640625,1.2150387573242187,0.03410712488659082,0.039564774198003826,0.015585274349361458,2.539776086807251,2019-06-20 15:03:36:724
7.1166555786132815,-7.4530357666015625,1.19708251953125,0.03237607017803931,0.040630038634035526,0.015185800185849573,2.544896125793457,2019-06-20 15:03:36:729
7.109473083496094,-7.455429931640625,1.2126445922851563,0.033707650723078936,0.04116267085205137,0.014786326022337684,2.550015926361084,2019-06-20 15:03:36:734
7.103487670898438,-7.463809509277343,1.2437687377929687,0.03250922823254328,0.04089635474304345,0.013721061586305991,2.554880142211914,2019-06-20 15:03:36:739
7.128626403808593,-7.479371582031249,1.2581337280273437,0.03197659601452743,0.03943161614349987,0.014653167967833723,2.559999942779541,2019-06-20 15:03:36:744
7.114261413574218,-7.484159912109375,1.2030679321289062,0.03171027990551951,0.04116267085205137,0.015318958240353535,2.564863920211792,2019-06-20 15:03:36:749
7.113064331054687,-7.494933654785156,1.201870849609375,0.031044489632999692,0.04023056447052364,0.015185800185849573,2.569983959197998,2019-06-20 15:03:36:754
7.103487670898438,-7.492539489746093,1.1946883544921876,0.03091133157849573,0.03983109030701175,0.015984748512873345,2.574847936630249,2019-06-20 15:03:36:759
7.1010935058593745,-7.49852490234375,1.2006737670898437,0.03237607017803931,0.038898983925484014,0.01638422267638523,2.579967975616455,2019-06-20 15:03:36:764
7.090319763183594,-7.468597839355469,1.230600830078125,0.03330817655956705,0.03943161614349987,0.016650538785393153,2.584831953048706,2019-06-20 15:03:36:769
7.108276000976562,-7.451838684082031,1.2246154174804686,0.033840808777582894,0.03969793225250779,0.0143868518588258,2.589951992034912,2019-06-20 15:03:36:774
7.098699340820312,-7.479371582031249,1.2437687377929687,0.032242912123535354,0.03983109030701175,0.015052642131345608,2.594815969467163,2019-06-20 15:03:36:779
7.0735606079101565,-7.469794921875,1.2389804077148436,0.0327755443415512,0.03916530003449194,0.014520009913329761,2.599936008453369,2019-06-20 15:03:36:784
7.069969360351562,-7.456627014160156,1.2557395629882813,0.03357449266857497,0.0403637225250276,0.014786326022337684,2.60479998588562,2019-06-20 15:03:36:789
7.081940185546875,-7.454232849121094,1.2437687377929687,0.032642386287047236,0.0403637225250276,0.015318958240353535,2.609920024871826,2019-06-20 15:03:36:794
7.09630517578125,-7.461415344238281,1.240177490234375,0.03250922823254328,0.038765825870980056,0.015984748512873345,2.614784002304077,2019-06-20 15:03:36:799
7.108276000976562,-7.470992004394531,1.1719437866210938,0.033707650723078936,0.03903214197998798,0.017050012948905038,2.619904041290283,2019-06-20 15:03:36:804
7.084334350585937,-7.512889892578125,1.1994766845703124,0.03131080574200762,0.03916530003449194,0.015185800185849573,2.6250240802764893,2019-06-20 15:03:36:809
7.084334350585937,-7.512889892578125,1.1994766845703124,0.03131080574200762,0.03916530003449194,0.015185800185849573,2.627840042114258,2019-06-20 15:03:36:812
7.119049743652344,-7.482962829589844,1.2353891601562499,0.030645015469487807,0.03969793225250779,0.015851590458369383,2.6350080966949463,2019-06-20 15:03:36:819
7.119049743652344,-7.482962829589844,1.2353891601562499,0.030645015469487807,0.03969793225250779,0.015851590458369383,2.637824058532715,2019-06-20 15:03:36:822
7.079546020507812,-7.485356994628906,1.182717529296875,0.03171027990551951,0.03849950976197213,0.013721061586305991,2.6449921131134033,2019-06-20 15:03:36:829
7.079546020507812,-7.485356994628906,1.182717529296875,0.03171027990551951,0.03849950976197213,0.013721061586305991,2.647808074951172,2019-06-20 15:03:36:832
7.09630517578125,-7.502116149902344,1.2030679321289062,0.03171027990551951,0.04023056447052364,0.015052642131345608,2.6549761295318604,2019-06-20 15:03:36:839
7.081940185546875,-7.476977416992187,1.221024169921875,0.03131080574200762,0.0392984580889959,0.015185800185849573,2.6598401069641113,2019-06-20 15:03:36:844
7.078348937988281,-7.49852490234375,1.2186300048828125,0.03157712185101554,0.038100035598460244,0.014786326022337684,2.6649601459503174,2019-06-20 15:03:36:849
7.104684753417969,-7.500919067382812,1.2485570678710938,0.03237607017803931,0.03743424532594044,0.014253693804321838,2.6698241233825684,2019-06-20 15:03:36:854
7.135808898925781,-7.478174499511718,1.2246154174804686,0.03290870239605516,0.037966877543956286,0.015052642131345608,2.6749439239501953,2019-06-20 15:03:36:859
7.108276000976562,-7.468597839355469,1.2198270874023438,0.03171027990551951,0.0392984580889959,0.015052642131345608,2.6798081398010254,2019-06-20 15:03:36:864
7.091516845703125,-7.468597839355469,1.2377833251953125,0.031443963796511584,0.03823319365296421,0.015052642131345608,2.6849279403686523,2019-06-20 15:03:36:869
7.1022905883789065,-7.449444519042968,1.2449658203125,0.03171027990551951,0.03836635170746817,0.014520009913329761,2.6897919178009033,2019-06-20 15:03:36:874
7.1022905883789065,-7.449444519042968,1.2449658203125,0.03237607017803931,0.038100035598460244,0.014120535749817876,2.6949119567871094,2019-06-20 15:03:36:879
7.1022905883789065,-7.479371582031249,1.211447509765625,0.03210975406903139,0.038765825870980056,0.013188429368290141,2.7000319957733154,2019-06-20 15:03:36:884
7.099896423339843,-7.476977416992187,1.2389804077148436,0.03290870239605516,0.03836635170746817,0.013854219640809953,2.7048959732055664,2019-06-20 15:03:36:889
7.097502258300781,-7.468597839355469,1.2066591796875,0.03197659601452743,0.03903214197998798,0.014253693804321838,2.7100160121917725,2019-06-20 15:03:36:894
7.109473083496094,-7.457824096679687,1.2317979125976561,0.03210975406903139,0.03903214197998798,0.014520009913329761,2.7148799896240234,2019-06-20 15:03:36:899
7.09630517578125,-7.484159912109375,1.2365862426757812,0.032242912123535354,0.03916530003449194,0.0143868518588258,2.7200000286102295,2019-06-20 15:03:36:904
7.1058818359375,-7.472189086914062,1.2150387573242187,0.03210975406903139,0.03849950976197213,0.013987377695313915,2.7248640060424805,2019-06-20 15:03:36:909
7.133414733886719,-7.474583251953125,1.2198270874023438,0.031843437960023466,0.03969793225250779,0.0143868518588258,2.7299840450286865,2019-06-20 15:03:36:914
7.085531433105468,-7.469794921875,1.2365862426757812,0.033041860450559124,0.039964248361515714,0.013987377695313915,2.7348480224609375,2019-06-20 15:03:36:919
7.1154584960937495,-7.491342407226562,1.2054620971679688,0.03357449266857497,0.03983109030701175,0.014120535749817876,2.7399680614471436,2019-06-20 15:03:36:924
7.098699340820312,-7.470992004394531,1.2282066650390624,0.031443963796511584,0.03983109030701175,0.013854219640809953,2.7448320388793945,2019-06-20 15:03:36:929
7.097502258300781,-7.476977416992187,1.21623583984375,0.032242912123535354,0.039564774198003826,0.01358790353180203,2.7499520778656006,2019-06-20 15:03:36:934
7.1022905883789065,-7.479371582031249,1.2174329223632812,0.03171027990551951,0.03836635170746817,0.013454745477298068,2.7548160552978516,2019-06-20 15:03:36:939
7.092713928222656,-7.484159912109375,1.2365862426757812,0.03250922823254328,0.03863266781647609,0.01305527131378618,2.7599360942840576,2019-06-20 15:03:36:944
7.104684753417969,-7.470992004394531,1.2186300048828125,0.03290870239605516,0.0392984580889959,0.01305527131378618,2.7648000717163086,2019-06-20 15:03:36:949
7.09630517578125,-7.504510314941406,1.2485570678710938,0.032642386287047236,0.039564774198003826,0.013854219640809953,2.7699201107025146,2019-06-20 15:03:36:954
7.0867285156249995,-7.485356994628906,1.2557395629882813,0.03210975406903139,0.038100035598460244,0.013188429368290141,2.7747840881347656,2019-06-20 15:03:36:959
7.093911010742187,-7.500919067382812,1.2258125,0.031843437960023466,0.03863266781647609,0.011191058550730713,2.7799041271209717,2019-06-20 15:03:36:964
7.099896423339843,-7.497327819824219,1.2246154174804686,0.03091133157849573,0.03849950976197213,0.01145737465973864,2.7850239276885986,2019-06-20 15:03:36:969
7.085531433105468,-7.463809509277343,1.21623583984375,0.03157712185101554,0.04009740641601968,0.012522639095770333,2.7898881435394287,2019-06-20 15:03:36:974
7.079546020507812,-7.466203674316406,1.2090533447265626,0.032242912123535354,0.03969793225250779,0.01305527131378618,2.7950079441070557,2019-06-20 15:03:36:979
7.07715185546875,-7.475780334472656,1.2341920776367188,0.031443963796511584,0.038898983925484014,0.01145737465973864,2.7998719215393066,2019-06-20 15:03:36:984
7.1010935058593745,-7.490145324707031,1.2377833251953125,0.031843437960023466,0.04023056447052364,0.010791584387218828,2.8049919605255127,2019-06-20 15:03:36:989
7.095108093261719,-7.493736572265624,1.2030679321289062,0.03157712185101554,0.04049688057953156,0.01145737465973864,2.8098559379577637,2019-06-20 15:03:36:994
7.097502258300781,-7.466203674316406,1.2449658203125,0.03197659601452743,0.0392984580889959,0.011856848823250525,2.8149759769439697,2019-06-20 15:03:36:999
7.1058818359375,-7.465006591796874,1.2078562622070312,0.03210975406903139,0.03969793225250779,0.01358790353180203,2.8198399543762207,2019-06-20 15:03:37:004
7.107078918457031,-7.443459106445312,1.21623583984375,0.03131080574200762,0.03849950976197213,0.012522639095770333,2.8249599933624268,2019-06-20 15:03:37:009
7.097502258300781,-7.447050354003906,1.2186300048828125,0.031443963796511584,0.03903214197998798,0.012522639095770333,2.8298239707946777,2019-06-20 15:03:37:014
7.107078918457031,-7.419517456054687,1.2294037475585937,0.03290870239605516,0.03743424532594044,0.012922113259282218,2.834944009780884,2019-06-20 15:03:37:019
7.1058818359375,-7.454232849121094,1.21623583984375,0.03210975406903139,0.039564774198003826,0.013188429368290141,2.8398079872131348,2019-06-20 15:03:37:024
7.1022905883789065,-7.449444519042968,1.240177490234375,0.03171027990551951,0.0392984580889959,0.012788955204778256,2.844928026199341,2019-06-20 15:03:37:029
7.114261413574218,-7.437473693847656,1.2198270874023438,0.031843437960023466,0.038765825870980056,0.01305527131378618,2.849792003631592,2019-06-20 15:03:37:034
7.0879255981445315,-7.449444519042968,1.2126445922851563,0.032242912123535354,0.03903214197998798,0.01358790353180203,2.854912042617798,2019-06-20 15:03:37:039
7.104684753417969,-7.479371582031249,1.2365862426757812,0.03131080574200762,0.037966877543956286,0.011856848823250525,2.859776020050049,2019-06-20 15:03:37:044
7.098699340820312,-7.474583251953125,1.2389804077148436,0.031443963796511584,0.03903214197998798,0.012922113259282218,2.864896059036255,2019-06-20 15:03:37:049
7.091516845703125,-7.454232849121094,1.2222212524414062,0.030511857414983846,0.039564774198003826,0.013854219640809953,2.870016098022461,2019-06-20 15:03:37:054
7.104684753417969,-7.4674007568359375,1.1946883544921876,0.031443963796511584,0.0392984580889959,0.012788955204778256,2.874880075454712,2019-06-20 15:03:37:059
7.085531433105468,-7.44106494140625,1.1958854370117187,0.033041860450559124,0.03916530003449194,0.013854219640809953,2.880000114440918,2019-06-20 15:03:37:064
7.1166555786132815,-7.451838684082031,1.2317979125976561,0.03344133461407101,0.0392984580889959,0.013854219640809953,2.884864091873169,2019-06-20 15:03:37:069
7.126232238769531,-7.462612426757812,1.2473599853515625,0.03344133461407101,0.0392984580889959,0.012522639095770333,2.889984130859375,2019-06-20 15:03:37:074
7.103487670898438,-7.485356994628906,1.211447509765625,0.032642386287047236,0.04116267085205137,0.013454745477298068,2.894848108291626,2019-06-20 15:03:37:079
7.128626403808593,-7.479371582031249,1.2126445922851563,0.03157712185101554,0.03969793225250779,0.013454745477298068,2.899967908859253,2019-06-20 15:03:37:084
7.117852661132813,-7.459021179199219,1.2270095825195313,0.031843437960023466,0.04009740641601968,0.013854219640809953,2.904832124710083,2019-06-20 15:03:37:089
7.142991394042968,-7.468597839355469,1.2222212524414062,0.03197659601452743,0.0392984580889959,0.014253693804321838,2.90995192527771,2019-06-20 15:03:37:094
7.1310205688476564,-7.484159912109375,1.2246154174804686,0.03091133157849573,0.03983109030701175,0.01571843240386542,2.91481614112854,2019-06-20 15:03:37:099
7.1310205688476564,-7.451838684082031,1.2329949951171875,0.03250922823254328,0.03916530003449194,0.015185800185849573,2.919935941696167,2019-06-20 15:03:37:104
7.119049743652344,-7.444656188964844,1.2282066650390624,0.031443963796511584,0.03836635170746817,0.014786326022337684,2.924799919128418,2019-06-20 15:03:37:109
7.1322176513671875,-7.432685363769531,1.2365862426757812,0.031443963796511584,0.03863266781647609,0.0143868518588258,2.929919958114624,2019-06-20 15:03:37:114
7.140597229003906,-7.455429931640625,1.2102504272460937,0.031843437960023466,0.04009740641601968,0.0143868518588258,2.934783935546875,2019-06-20 15:03:37:119
7.145385559082031,-7.457824096679687,1.1803233642578124,0.03250922823254328,0.04023056447052364,0.015585274349361458,2.939903974533081,2019-06-20 15:03:37:124
7.13461181640625,-7.4817657470703125,1.1899000244140625,0.031177647687503654,0.039564774198003826,0.017183171003409,2.945024013519287,2019-06-20 15:03:37:129
7.1154584960937495,-7.474583251953125,1.2174329223632812,0.03157712185101554,0.04129582890655533,0.015984748512873345,2.949887990951538,2019-06-20 15:03:37:134
7.098699340820312,-7.486554077148437,1.2437687377929687,0.0327755443415512,0.0403637225250276,0.014786326022337684,2.955008029937744,2019-06-20 15:03:37:139
7.099896423339843,-7.485356994628906,1.2377833251953125,0.031443963796511584,0.038765825870980056,0.014919484076841646,2.959872007369995,2019-06-20 15:03:37:144
7.128626403808593,-7.46021826171875,1.1875058593749999,0.03197659601452743,0.039964248361515714,0.015185800185849573,2.964992046356201,2019-06-20 15:03:37:149
7.107078918457031,-7.451838684082031,1.1767321166992186,0.03210975406903139,0.040763196688539484,0.01571843240386542,2.969856023788452,2019-06-20 15:03:37:154
7.1166555786132815,-7.466203674316406,1.2030679321289062,0.032642386287047236,0.03983109030701175,0.017183171003409,2.974976062774658,2019-06-20 15:03:37:159
7.108276000976562,-7.462612426757812,1.2222212524414062,0.03237607017803931,0.039964248361515714,0.017183171003409,2.979840040206909,2019-06-20 15:03:37:164
7.1058818359375,-7.443459106445312,1.1994766845703124,0.031843437960023466,0.0403637225250276,0.01638422267638523,2.9849600791931152,2019-06-20 15:03:37:169
7.110670166015625,-7.451838684082031,1.2341920776367188,0.032642386287047236,0.04049688057953156,0.015984748512873345,2.989824056625366,2019-06-20 15:03:37:174
7.1322176513671875,-7.472189086914062,1.230600830078125,0.03197659601452743,0.04089635474304345,0.015851590458369383,2.9949440956115723,2019-06-20 15:03:37:179
7.114261413574218,-7.49852490234375,1.2258125,0.031843437960023466,0.040630038634035526,0.016650538785393153,2.9998080730438232,2019-06-20 15:03:37:184
7.137005981445312,-7.473386169433594,1.2258125,0.032242912123535354,0.04116267085205137,0.017582645166920888,3.0049281120300293,2019-06-20 15:03:37:189
7.104684753417969,-7.4530357666015625,1.2605278930664061,0.0327755443415512,0.0403637225250276,0.01651738073088919,3.0097920894622803,2019-06-20 15:03:37:194
7.099896423339843,-7.479371582031249,1.240177490234375,0.032642386287047236,0.04009740641601968,0.01571843240386542,3.0149121284484863,2019-06-20 15:03:37:199
7.0867285156249995,-7.470992004394531,1.2437687377929687,0.03197659601452743,0.039964248361515714,0.017183171003409,3.0197761058807373,2019-06-20 15:03:37:204
7.079546020507812,-7.463809509277343,1.2629220581054688,0.03317501850506309,0.041562145015563254,0.017449487112416926,3.0248961448669434,2019-06-20 15:03:37:209
7.098699340820312,-7.4889482421875,1.2234183349609375,0.0327755443415512,0.04089635474304345,0.01571843240386542,3.0300159454345703,2019-06-20 15:03:37:214
7.111867248535156,-7.487751159667969,1.2329949951171875,0.0327755443415512,0.040630038634035526,0.015185800185849573,3.0348799228668213,2019-06-20 15:03:37:219
7.09630517578125,-7.484159912109375,1.1958854370117187,0.03410712488659082,0.04023056447052364,0.01571843240386542,3.0399999618530273,2019-06-20 15:03:37:224
7.093911010742187,-7.484159912109375,1.2222212524414062,0.03410712488659082,0.04049688057953156,0.014786326022337684,3.0448639392852783,2019-06-20 15:03:37:229
7.109473083496094,-7.491342407226562,1.2497541503906249,0.03424028294109478,0.039564774198003826,0.015318958240353535,3.0499839782714844,2019-06-20 15:03:37:234
7.0867285156249995,-7.487751159667969,1.2294037475585937,0.03410712488659082,0.04009740641601968,0.015452116294857496,3.0548479557037354,2019-06-20 15:03:37:239
7.1058818359375,-7.490145324707031,1.2329949951171875,0.03424028294109478,0.04009740641601968,0.013854219640809953,3.0599679946899414,2019-06-20 15:03:37:244
7.107078918457031,-7.473386169433594,1.2246154174804686,0.03357449266857497,0.03916530003449194,0.013321587422794106,3.0648319721221924,2019-06-20 15:03:37:249
7.113064331054687,-7.473386169433594,1.2365862426757812,0.03250922823254328,0.039564774198003826,0.014120535749817876,3.0699520111083984,2019-06-20 15:03:37:254
7.099896423339843,-7.461415344238281,1.2246154174804686,0.032242912123535354,0.038898983925484014,0.014653167967833723,3.0748159885406494,2019-06-20 15:03:37:259
7.111867248535156,-7.433882446289062,1.2521483154296875,0.03250922823254328,0.039964248361515714,0.014253693804321838,3.0799360275268555,2019-06-20 15:03:37:264
7.095108093261719,-7.466203674316406,1.19708251953125,0.0327755443415512,0.0392984580889959,0.014520009913329761,3.0848000049591064,2019-06-20 15:03:37:269
7.1058818359375,-7.451838684082031,1.1887029418945312,0.03330817655956705,0.038100035598460244,0.013854219640809953,3.0899200439453125,2019-06-20 15:03:37:274
7.099896423339843,-7.469794921875,1.2353891601562499,0.03290870239605516,0.03836635170746817,0.013721061586305991,3.0947840213775635,2019-06-20 15:03:37:279
7.119049743652344,-7.456627014160156,1.2030679321289062,0.031843437960023466,0.0392984580889959,0.014520009913329761,3.0999040603637695,2019-06-20 15:03:37:284
7.103487670898438,-7.473386169433594,1.2353891601562499,0.03317501850506309,0.0392984580889959,0.014919484076841646,3.1050240993499756,2019-06-20 15:03:37:289
7.12503515625,-7.469794921875,1.2353891601562499,0.033041860450559124,0.03849950976197213,0.0143868518588258,3.1098880767822266,2019-06-20 15:03:37:294
7.120246826171875,-7.454232849121094,1.2329949951171875,0.031843437960023466,0.03849950976197213,0.01571843240386542,3.1150081157684326,2019-06-20 15:03:37:299
7.133414733886719,-7.462612426757812,1.2329949951171875,0.03197659601452743,0.03903214197998798,0.015851590458369383,3.1198720932006836,2019-06-20 15:03:37:304
7.113064331054687,-7.4362766113281245,1.2090533447265626,0.03171027990551951,0.038898983925484014,0.015984748512873345,3.1249921321868896,2019-06-20 15:03:37:309
7.1166555786132815,-7.459021179199219,1.2341920776367188,0.033041860450559124,0.03969793225250779,0.015585274349361458,3.1298561096191406,2019-06-20 15:03:37:314
7.092713928222656,-7.455429931640625,1.2413745727539063,0.032642386287047236,0.03983109030701175,0.015318958240353535,3.1349759101867676,2019-06-20 15:03:37:319
7.078348937988281,-7.466203674316406,1.2234183349609375,0.033041860450559124,0.03969793225250779,0.015585274349361458,3.1398401260375977,2019-06-20 15:03:37:324
7.090319763183594,-7.4530357666015625,1.25454248046875,0.03210975406903139,0.03916530003449194,0.016783696839897114,3.1449599266052246,2019-06-20 15:03:37:329
7.121443908691406,-7.473386169433594,1.240177490234375,0.03091133157849573,0.03849950976197213,0.016783696839897114,3.1498241424560547,2019-06-20 15:03:37:334
7.12503515625,-7.444656188964844,1.2042650146484375,0.031843437960023466,0.039564774198003826,0.016916854894401076,3.1549439430236816,2019-06-20 15:03:37:339
7.1166555786132815,-7.466203674316406,1.2246154174804686,0.03157712185101554,0.0403637225250276,0.01638422267638523,3.1598079204559326,2019-06-20 15:03:37:344
7.093911010742187,-7.499721984863281,1.2377833251953125,0.03157712185101554,0.03969793225250779,0.018248435439440696,3.1649279594421387,2019-06-20 15:03:37:349
7.121443908691406,-7.462612426757812,1.211447509765625,0.03077817352399177,0.0392984580889959,0.01784896127592881,3.1697919368743896,2019-06-20 15:03:37:354
7.169327209472656,-7.450641601562499,1.2102504272460937,0.031843437960023466,0.03983109030701175,0.017582645166920888,3.1749119758605957,2019-06-20 15:03:37:359
7.139400146484375,-7.4674007568359375,1.2341920776367188,0.03344133461407101,0.039964248361515714,0.017316329057912964,3.1797759532928467,2019-06-20 15:03:37:364
7.098699340820312,-7.478174499511718,1.2341920776367188,0.03317501850506309,0.03943161614349987,0.017316329057912964,3.1848959922790527,2019-06-20 15:03:37:369
7.098699340820312,-7.459021179199219,1.2198270874023438,0.03330817655956705,0.03916530003449194,0.018115277384936734,3.190016031265259,2019-06-20 15:03:37:374
7.126232238769531,-7.451838684082031,1.2270095825195313,0.032642386287047236,0.03863266781647609,0.01771580322142485,3.1948800086975098,2019-06-20 15:03:37:379
7.114261413574218,-7.455429931640625,1.2066591796875,0.03197659601452743,0.038765825870980056,0.018115277384936734,3.200000047683716,2019-06-20 15:03:37:384
7.122640991210937,-7.4889482421875,1.2042650146484375,0.03171027990551951,0.03983109030701175,0.017582645166920888,3.204864025115967,2019-06-20 15:03:37:389
7.095108093261719,-7.490145324707031,1.201870849609375,0.03210975406903139,0.04023056447052364,0.017982119330432773,3.209984064102173,2019-06-20 15:03:37:394
7.0879255981445315,-7.518875305175781,1.201870849609375,0.03210975406903139,0.038765825870980056,0.017316329057912964,3.214848041534424,2019-06-20 15:03:37:399
7.097502258300781,-7.482962829589844,1.1982796020507813,0.030511857414983846,0.03849950976197213,0.01771580322142485,3.21996808052063,2019-06-20 15:03:37:404
7.108276000976562,-7.473386169433594,1.2090533447265626,0.030511857414983846,0.03969793225250779,0.017582645166920888,3.224832057952881,2019-06-20 15:03:37:409
7.075954772949219,-7.4817657470703125,1.2270095825195313,0.03091133157849573,0.03983109030701175,0.01784896127592881,3.229952096939087,2019-06-20 15:03:37:414
7.099896423339843,-7.480568664550781,1.2329949951171875,0.03077817352399177,0.038898983925484014,0.016916854894401076,3.234816074371338,2019-06-20 15:03:37:419
7.09630517578125,-7.462612426757812,1.2341920776367188,0.03077817352399177,0.04023056447052364,0.017982119330432773,3.239936113357544,2019-06-20 15:03:37:424
7.09630517578125,-7.476977416992187,1.2246154174804686,0.03077817352399177,0.04023056447052364,0.017982119330432773,3.244800090789795,2019-06-20 15:03:37:429
7.098699340820312,-7.472189086914062,1.2317979125976561,0.031044489632999692,0.0403637225250276,0.017316329057912964,3.249920129776001,2019-06-20 15:03:37:434
7.09630517578125,-7.455429931640625,1.2150387573242187,0.031177647687503654,0.039964248361515714,0.017316329057912964,3.254784107208252,2019-06-20 15:03:37:439
7.113064331054687,-7.4817657470703125,1.2329949951171875,0.032242912123535354,0.04049688057953156,0.017582645166920888,3.259904146194458,2019-06-20 15:03:37:444
7.1058818359375,-7.482962829589844,1.2569366455078124,0.03210975406903139,0.04009740641601968,0.017582645166920888,3.265023946762085,2019-06-20 15:03:37:449
7.098699340820312,-7.4817657470703125,1.2365862426757812,0.032242912123535354,0.0403637225250276,0.01651738073088919,3.269887924194336,2019-06-20 15:03:37:454
7.098699340820312,-7.472189086914062,1.1719437866210938,0.032642386287047236,0.04102951279754741,0.016916854894401076,3.275007963180542,2019-06-20 15:03:37:459
7.107078918457031,-7.463809509277343,1.19708251953125,0.03237607017803931,0.040630038634035526,0.017050012948905038,3.279871940612793,2019-06-20 15:03:37:464
7.091516845703125,-7.448247436523437,1.2078562622070312,0.033041860450559124,0.04049688057953156,0.016916854894401076,3.284991979598999,2019-06-20 15:03:37:469
7.0735606079101565,-7.466203674316406,1.192294189453125,0.03290870239605516,0.0392984580889959,0.01638422267638523,3.28985595703125,2019-06-20 15:03:37:474
7.061589782714844,-7.479371582031249,1.230600830078125,0.03197659601452743,0.039564774198003826,0.01638422267638523,3.294975996017456,2019-06-20 15:03:37:479
7.066378112792969,-7.49852490234375,1.2198270874023438,0.03237607017803931,0.03863266781647609,0.015851590458369383,3.299839973449707,2019-06-20 15:03:37:484
7.091516845703125,-7.468597839355469,1.2282066650390624,0.031843437960023466,0.04009740641601968,0.015984748512873345,3.304960012435913,2019-06-20 15:03:37:489
7.093911010742187,-7.448247436523437,1.2581337280273437,0.032642386287047236,0.039964248361515714,0.01571843240386542,3.309823989868164,2019-06-20 15:03:37:494
7.103487670898438,-7.476977416992187,1.230600830078125,0.031843437960023466,0.04049688057953156,0.01638422267638523,3.31494402885437,2019-06-20 15:03:37:499
7.097502258300781,-7.469794921875,1.2138416748046874,0.031443963796511584,0.0392984580889959,0.015984748512873345,3.319808006286621,2019-06-20 15:03:37:504
7.07715185546875,-7.486554077148437,1.2329949951171875,0.03344133461407101,0.03916530003449194,0.01571843240386542,3.324928045272827,2019-06-20 15:03:37:509
7.0735606079101565,-7.472189086914062,1.2258125,0.03357449266857497,0.03903214197998798,0.015452116294857496,3.329792022705078,2019-06-20 15:03:37:514
7.069969360351562,-7.459021179199219,1.2066591796875,0.03317501850506309,0.03943161614349987,0.014520009913329761,3.334912061691284,2019-06-20 15:03:37:519
7.085531433105468,-7.478174499511718,1.2042650146484375,0.033041860450559124,0.03916530003449194,0.014653167967833723,3.339776039123535,2019-06-20 15:03:37:524
7.068772277832031,-7.499721984863281,1.2174329223632812,0.033041860450559124,0.039964248361515714,0.013454745477298068,3.344896078109741,2019-06-20 15:03:37:529
7.081940185546875,-7.454232849121094,1.2042650146484375,0.03330817655956705,0.038765825870980056,0.014520009913329761,3.3500161170959473,2019-06-20 15:03:37:534
7.097502258300781,-7.468597839355469,1.2006737670898437,0.03317501850506309,0.03903214197998798,0.013321587422794106,3.3548800945281982,2019-06-20 15:03:37:539
7.085531433105468,-7.472189086914062,1.259330810546875,0.033840808777582894,0.038898983925484014,0.012922113259282218,3.3600001335144043,2019-06-20 15:03:37:544
7.113064331054687,-7.485356994628906,1.2270095825195313,0.032642386287047236,0.03863266781647609,0.013188429368290141,3.3648641109466553,2019-06-20 15:03:37:549
7.111867248535156,-7.470992004394531,1.2533453979492186,0.03290870239605516,0.03916530003449194,0.014253693804321838,3.3699839115142822,2019-06-20 15:03:37:554
7.109473083496094,-7.476977416992187,1.2341920776367188,0.0327755443415512,0.03823319365296421,0.0143868518588258,3.3748481273651123,2019-06-20 15:03:37:559
7.117852661132813,-7.474583251953125,1.2521483154296875,0.03290870239605516,0.03903214197998798,0.014253693804321838,3.3799679279327393,2019-06-20 15:03:37:564
7.0879255981445315,-7.462612426757812,1.2294037475585937,0.033840808777582894,0.037966877543956286,0.0143868518588258,3.3848321437835693,2019-06-20 15:03:37:569
7.09630517578125,-7.4817657470703125,1.2234183349609375,0.032642386287047236,0.037301087271436474,0.014253693804321838,3.3899519443511963,2019-06-20 15:03:37:574
7.089122680664063,-7.491342407226562,1.2150387573242187,0.03250922823254328,0.03836635170746817,0.014653167967833723,3.3948159217834473,2019-06-20 15:03:37:579
7.1022905883789065,-7.512889892578125,1.211447509765625,0.03317501850506309,0.038765825870980056,0.014653167967833723,3.3999359607696533,2019-06-20 15:03:37:584
7.090319763183594,-7.4961307373046875,1.1863087768554688,0.03237607017803931,0.03916530003449194,0.014520009913329761,3.4050559997558594,2019-06-20 15:03:37:589
7.1154584960937495,-7.487751159667969,1.2126445922851563,0.033041860450559124,0.038765825870980056,0.012922113259282218,3.4099199771881104,2019-06-20 15:03:37:594
7.103487670898438,-7.4674007568359375,1.2485570678710938,0.03197659601452743,0.0392984580889959,0.012522639095770333,3.4147839546203613,2019-06-20 15:03:37:599
7.083137268066406,-7.4817657470703125,1.201870849609375,0.03131080574200762,0.038898983925484014,0.012655797150274295,3.4199039936065674,2019-06-20 15:03:37:604
7.12503515625,-7.468597839355469,1.2126445922851563,0.03197659601452743,0.04009740641601968,0.014120535749817876,3.4250240325927734,2019-06-20 15:03:37:609
7.107078918457031,-7.470992004394531,1.2126445922851563,0.033041860450559124,0.03943161614349987,0.013454745477298068,3.4298880100250244,2019-06-20 15:03:37:614
7.114261413574218,-7.4817657470703125,1.2353891601562499,0.033041860450559124,0.03916530003449194,0.013854219640809953,3.4350080490112305,2019-06-20 15:03:37:619
7.097502258300781,-7.46021826171875,1.2449658203125,0.03250922823254328,0.03969793225250779,0.013987377695313915,3.4398720264434814,2019-06-20 15:03:37:624
7.0867285156249995,-7.4530357666015625,1.264119140625,0.03250922823254328,0.03943161614349987,0.013854219640809953,3.4449920654296875,2019-06-20 15:03:37:629
7.093911010742187,-7.479371582031249,1.2030679321289062,0.03171027990551951,0.039964248361515714,0.01358790353180203,3.4498560428619385,2019-06-20 15:03:37:634
7.085531433105468,-7.451838684082031,1.1432138061523438,0.03197659601452743,0.0403637225250276,0.012788955204778256,3.4549760818481445,2019-06-20 15:03:37:639
7.089122680664063,-7.480568664550781,1.2102504272460937,0.032242912123535354,0.038898983925484014,0.013987377695313915,3.4598400592803955,2019-06-20 15:03:37:644
7.079546020507812,-7.479371582031249,1.2329949951171875,0.03210975406903139,0.03903214197998798,0.01358790353180203,3.4649600982666016,2019-06-20 15:03:37:649
7.080743103027344,-7.491342407226562,1.2258125,0.032242912123535354,0.04049688057953156,0.012655797150274295,3.4698240756988525,2019-06-20 15:03:37:654
7.079546020507812,-7.482962829589844,1.2365862426757812,0.031177647687503654,0.03916530003449194,0.012788955204778256,3.4749441146850586,2019-06-20 15:03:37:659
7.104684753417969,-7.485356994628906,1.2174329223632812,0.031177647687503654,0.038898983925484014,0.013321587422794106,3.4798080921173096,2019-06-20 15:03:37:664
7.080743103027344,-7.4889482421875,1.19708251953125,0.03197659601452743,0.038100035598460244,0.012123164932258448,3.4849281311035156,2019-06-20 15:03:37:669
7.0867285156249995,-7.4889482421875,1.2569366455078124,0.032242912123535354,0.038765825870980056,0.012389481041266371,3.4897921085357666,2019-06-20 15:03:37:674
7.093911010742187,-7.4674007568359375,1.2150387573242187,0.032242912123535354,0.039964248361515714,0.012655797150274295,3.4949119091033936,2019-06-20 15:03:37:679
7.103487670898438,-7.468597839355469,1.201870849609375,0.03077817352399177,0.03983109030701175,0.011723690768746563,3.4997761249542236,2019-06-20 15:03:37:684
7.103487670898438,-7.499721984863281,1.2521483154296875,0.031177647687503654,0.03903214197998798,0.011856848823250525,3.5048959255218506,2019-06-20 15:03:37:689
7.092713928222656,-7.503313232421875,1.2377833251953125,0.03210975406903139,0.03903214197998798,0.012123164932258448,3.5100159645080566,2019-06-20 15:03:37:694
7.07715185546875,-7.529649047851563,1.182717529296875,0.03250922823254328,0.04009740641601968,0.011723690768746563,3.5148799419403076,2019-06-20 15:03:37:699
7.07715185546875,-7.521269470214843,1.21623583984375,0.031843437960023466,0.04023056447052364,0.010791584387218828,3.5199999809265137,2019-06-20 15:03:37:704
7.084334350585937,-7.486554077148437,1.2270095825195313,0.031443963796511584,0.03836635170746817,0.01092474244172279,3.5248639583587646,2019-06-20 15:03:37:709
7.091516845703125,-7.490145324707031,1.2413745727539063,0.03290870239605516,0.03823319365296421,0.011191058550730713,3.5299839973449707,2019-06-20 15:03:37:714
7.1022905883789065,-7.478174499511718,1.2473599853515625,0.032242912123535354,0.03849950976197213,0.011723690768746563,3.5348479747772217,2019-06-20 15:03:37:719
7.104684753417969,-7.462612426757812,1.2126445922851563,0.032642386287047236,0.039564774198003826,0.01092474244172279,3.5399680137634277,2019-06-20 15:03:37:724
7.111867248535156,-7.485356994628906,1.2150387573242187,0.032242912123535354,0.03916530003449194,0.011723690768746563,3.5448319911956787,2019-06-20 15:03:37:729
7.122640991210937,-7.466203674316406,1.2186300048828125,0.03171027990551951,0.03983109030701175,0.011856848823250525,3.5499520301818848,2019-06-20 15:03:37:734
7.080743103027344,-7.457824096679687,1.2437687377929687,0.03210975406903139,0.03983109030701175,0.010525268278210905,3.5548160076141357,2019-06-20 15:03:37:739
7.0735606079101565,-7.459021179199219,1.2126445922851563,0.033041860450559124,0.04089635474304345,0.009992636060195056,3.559936046600342,2019-06-20 15:03:37:744
7.0879255981445315,-7.447050354003906,1.2461629028320311,0.03171027990551951,0.04023056447052364,0.011191058550730713,3.5648000240325928,2019-06-20 15:03:37:749
7.0867285156249995,-7.454232849121094,1.2341920776367188,0.0327755443415512,0.0392984580889959,0.011191058550730713,3.569920063018799,2019-06-20 15:03:37:754
7.089122680664063,-7.469794921875,1.2557395629882813,0.03237607017803931,0.03983109030701175,0.010525268278210905,3.57478404045105,2019-06-20 15:03:37:759
7.1166555786132815,-7.450641601562499,1.230600830078125,0.033041860450559124,0.039964248361515714,0.008927371624163362,3.579904079437256,2019-06-20 15:03:37:764
7.108276000976562,-7.444656188964844,1.2138416748046874,0.032642386287047236,0.039564774198003826,0.009859478005691095,3.585024118423462,2019-06-20 15:03:37:769
7.1058818359375,-7.4817657470703125,1.2030679321289062,0.03290870239605516,0.03943161614349987,0.010392110223706943,3.589888095855713,2019-06-20 15:03:37:774
7.1058818359375,-7.466203674316406,1.221024169921875,0.031843437960023466,0.03983109030701175,0.009326845787675248,3.595008134841919,2019-06-20 15:03:37:779
7.120246826171875,-7.463809509277343,1.1934912719726563,0.03290870239605516,0.03916530003449194,0.010392110223706943,3.59987211227417,2019-06-20 15:03:37:784
7.12503515625,-7.484159912109375,1.2258125,0.03237607017803931,0.03969793225250779,0.009326845787675248,3.604991912841797,2019-06-20 15:03:37:789
7.109473083496094,-7.469794921875,1.1934912719726563,0.03210975406903139,0.038765825870980056,0.0087942135696594,3.609856128692627,2019-06-20 15:03:37:794
7.109473083496094,-7.4674007568359375,1.2270095825195313,0.03210975406903139,0.03863266781647609,0.01012579411469902,3.614975929260254,2019-06-20 15:03:37:799
7.098699340820312,-7.492539489746093,1.2413745727539063,0.03210975406903139,0.038765825870980056,0.01012579411469902,3.619840145111084,2019-06-20 15:03:37:804
7.099896423339843,-7.456627014160156,1.2234183349609375,0.03197659601452743,0.03770056143494836,0.009992636060195056,3.624959945678711,2019-06-20 15:03:37:809
7.091516845703125,-7.465006591796874,1.1910971069335938,0.03237607017803931,0.037966877543956286,0.009193687733171287,3.629823923110962,2019-06-20 15:03:37:814
7.095108093261719,-7.457824096679687,1.1803233642578124,0.03317501850506309,0.03770056143494836,0.009726319951187133,3.634943962097168,2019-06-20 15:03:37:819
7.1010935058593745,-7.485356994628906,1.2102504272460937,0.03250922823254328,0.03836635170746817,0.010525268278210905,3.639807939529419,2019-06-20 15:03:37:824
7.084334350585937,-7.4817657470703125,1.221024169921875,0.03091133157849573,0.03903214197998798,0.011191058550730713,3.644927978515625,2019-06-20 15:03:37:829
7.103487670898438,-7.473386169433594,1.2473599853515625,0.03157712185101554,0.04049688057953156,0.011191058550730713,3.649791955947876,2019-06-20 15:03:37:834
7.089122680664063,-7.474583251953125,1.2497541503906249,0.031044489632999692,0.038898983925484014,0.011590532714242601,3.654911994934082,2019-06-20 15:03:37:839
7.1154584960937495,-7.475780334472656,1.201870849609375,0.030645015469487807,0.039564774198003826,0.01225632298676241,3.659775972366333,2019-06-20 15:03:37:844
7.1154584960937495,-7.478174499511718,1.2174329223632812,0.03171027990551951,0.0392984580889959,0.012522639095770333,3.664896011352539,2019-06-20 15:03:37:849
7.1058818359375,-7.493736572265624,1.2030679321289062,0.03210975406903139,0.03783371948945232,0.011590532714242601,3.670016050338745,2019-06-20 15:03:37:854
7.128626403808593,-7.486554077148437,1.2437687377929687,0.032642386287047236,0.038100035598460244,0.01092474244172279,3.674880027770996,2019-06-20 15:03:37:859
7.123838073730469,-7.486554077148437,1.2425716552734374,0.03210975406903139,0.038765825870980056,0.008661055515155438,3.680000066757202,2019-06-20 15:03:37:864
7.120246826171875,-7.484159912109375,1.201870849609375,0.032642386287047236,0.03903214197998798,0.011324216605234675,3.684864044189453,2019-06-20 15:03:37:869
7.123838073730469,-7.468597839355469,1.2198270874023438,0.032642386287047236,0.038898983925484014,0.011191058550730713,3.689984083175659,2019-06-20 15:03:37:874
7.103487670898438,-7.4530357666015625,1.2581337280273437,0.03250922823254328,0.03836635170746817,0.010525268278210905,3.69484806060791,2019-06-20 15:03:37:879
7.098699340820312,-7.443459106445312,1.2509512329101562,0.03290870239605516,0.03916530003449194,0.010525268278210905,3.699968099594116,2019-06-20 15:03:37:884
7.109473083496094,-7.4386707763671875,1.2030679321289062,0.03330817655956705,0.03783371948945232,0.011723690768746563,3.704832077026367,2019-06-20 15:03:37:889
7.075954772949219,-7.454232849121094,1.2078562622070312,0.03357449266857497,0.03916530003449194,0.011191058550730713,3.7099521160125732,2019-06-20 15:03:37:894
7.09630517578125,-7.451838684082031,1.2138416748046874,0.03197659601452743,0.03969793225250779,0.011990006877754486,3.714816093444824,2019-06-20 15:03:37:899
7.095108093261719,-7.463809509277343,1.2569366455078124,0.03197659601452743,0.037966877543956286,0.011723690768746563,3.7199361324310303,2019-06-20 15:03:37:904
7.113064331054687,-7.470992004394531,1.2282066650390624,0.032642386287047236,0.03969793225250779,0.011590532714242601,3.7248001098632812,2019-06-20 15:03:37:909
