ACCELEROMETER X (m/s²),ACCELEROMETER Y (m/s²),ACCELEROMETER Z (m/s²),GYROSCOPE X (rad/s),GYROSCOPE Y (rad/s),GYROSCOPE Z (rad/s),Time since start in ms ,YYYY-MO-DD HH-MI-SS_SSS
-4.1179638671875,-8.592658325195313,1.1288488159179688,0.03131080574200762,0.040763196688539484,0.02410738983761502,0.0,2019-06-20 15:09:02:194
-4.06050390625,-8.535198364257813,1.086950927734375,0.03317501850506309,0.042227935288083066,0.024240547892118984,0.005120038986206055,2019-06-20 15:09:02:199
-4.115569702148437,-8.502877136230468,1.0270968017578124,0.03344133461407101,0.0420947772335791,0.02410738983761502,0.009984016418457031,2019-06-20 15:09:02:204
-4.097613464355469,-8.496891723632812,1.0761771850585937,0.03237607017803931,0.04116267085205137,0.023574757619599172,0.015104055404663086,2019-06-20 15:09:02:209
-4.084445556640625,-8.499285888671874,1.1503963012695313,0.03237607017803931,0.03983109030701175,0.023042125401583322,0.019968032836914062,2019-06-20 15:09:02:214
-4.111978454589844,-8.517242126464843,1.1144838256835938,0.033041860450559124,0.038898983925484014,0.023841073728607096,0.025088071823120117,2019-06-20 15:09:02:219
-4.0664893188476565,-8.526818786621094,1.0749801025390624,0.03344133461407101,0.03969793225250779,0.023707915674103134,0.030208110809326172,2019-06-20 15:09:02:224
-4.083248474121094,-8.511256713867187,1.0522355346679688,0.03317501850506309,0.04049688057953156,0.023707915674103134,0.03507208824157715,2019-06-20 15:09:02:229
-4.1227521972656245,-8.520833374023438,1.0642063598632812,0.03330817655956705,0.04023056447052364,0.022376335129063514,0.0401918888092041,2019-06-20 15:09:02:234
-4.091628051757812,-8.536395446777343,1.1180750732421876,0.03424028294109478,0.03969793225250779,0.02197686096555163,0.04505610466003418,2019-06-20 15:09:02:239
-4.1179638671875,-8.502877136230468,1.0917392578125,0.03330817655956705,0.038765825870980056,0.022243177074559552,0.05017590522766113,2019-06-20 15:09:02:244
-4.053321411132813,-8.49449755859375,1.0510384521484375,0.03210975406903139,0.039564774198003826,0.02117791263852786,0.05503988265991211,2019-06-20 15:09:02:249
-4.064095153808593,-8.518439208984375,1.067797607421875,0.03357449266857497,0.03943161614349987,0.020512122366008047,0.060159921646118164,2019-06-20 15:09:02:254
-4.098810546875,-8.50527130126953,1.0618121948242187,0.03410712488659082,0.039564774198003826,0.021577386802039744,0.06502389907836914,2019-06-20 15:09:02:259
-3.9922702026367185,-8.507665466308593,1.0654034423828125,0.03410712488659082,0.04182846112457118,0.021577386802039744,0.0701439380645752,2019-06-20 15:09:02:264
-4.12754052734375,-8.610614562988282,1.0893450927734374,0.03344133461407101,0.03983109030701175,0.022642651238071437,0.07500791549682617,2019-06-20 15:09:02:269
-4.1826063232421875,-8.572307922363281,1.1372283935546874,0.03210975406903139,0.040630038634035526,0.021577386802039744,0.08012795448303223,2019-06-20 15:09:02:274
-4.076065979003906,-8.510059631347657,1.0857538452148436,0.031443963796511584,0.04249425139709099,0.02197686096555163,0.0849919319152832,2019-06-20 15:09:02:279
-4.096416381835938,-8.405913452148438,1.0558267822265626,0.03437344099559874,0.03823319365296421,0.0227758092925754,0.09011197090148926,2019-06-20 15:09:02:284
-4.022197265625,-8.468161743164062,1.0366734619140625,0.03197659601452743,0.04023056447052364,0.021577386802039744,0.09497594833374023,2019-06-20 15:09:02:289
-4.090430969238281,-8.499285888671874,1.0929363403320311,0.031443963796511584,0.037966877543956286,0.020378964311504086,0.10009598731994629,2019-06-20 15:09:02:294
-4.135920104980468,-8.557942932128906,1.125257568359375,0.031177647687503654,0.04129582890655533,0.02117791263852786,0.10495996475219727,2019-06-20 15:09:02:299
-4.072474731445312,-8.543577941894531,1.0366734619140625,0.033840808777582894,0.04249425139709099,0.020778438475015974,0.11008000373840332,2019-06-20 15:09:02:304
-4.141905517578125,-8.510059631347657,1.0031551513671875,0.033840808777582894,0.03823319365296421,0.02117791263852786,0.11520004272460938,2019-06-20 15:09:02:309
-4.113175537109375,-8.49449755859375,1.10131591796875,0.031443963796511584,0.038898983925484014,0.02117791263852786,0.12006402015686035,2019-06-20 15:09:02:314
-4.074868896484375,-8.524424621582032,1.1563817138671875,0.031843437960023466,0.03703477116242855,0.021710544856543706,0.1251840591430664,2019-06-20 15:09:02:319
-4.105993041992187,-8.522030456542968,1.0498413696289062,0.031044489632999692,0.03690161310792459,0.020378964311504086,0.13004803657531738,2019-06-20 15:09:02:324
-4.053321411132813,-8.507665466308593,1.0019580688476561,0.03091133157849573,0.03983109030701175,0.01984633209348824,0.13516807556152344,2019-06-20 15:09:02:329
-4.0940222167968745,-8.531607116699218,1.0402647094726563,0.030511857414983846,0.03849950976197213,0.020512122366008047,0.14003205299377441,2019-06-20 15:09:02:334
-4.131131774902344,-8.510059631347657,1.077374267578125,0.03011238325147196,0.03916530003449194,0.020245806257000124,0.14515209197998047,2019-06-20 15:09:02:339
-4.101204711914062,-8.50407421875,1.1192721557617187,0.03171027990551951,0.03983109030701175,0.02117791263852786,0.15001606941223145,2019-06-20 15:09:02:344
-4.125146362304688,-8.507665466308593,1.0654034423828125,0.03157712185101554,0.037167929216932516,0.01904738376646447,0.1551361083984375,2019-06-20 15:09:02:349
-4.111978454589844,-8.514847961425781,1.0330822143554688,0.031177647687503654,0.03916530003449194,0.01904738376646447,0.16000008583068848,2019-06-20 15:09:02:354
-4.103598876953125,-8.528015869140624,1.0510384521484375,0.03157712185101554,0.038100035598460244,0.020378964311504086,0.16511988639831543,2019-06-20 15:09:02:359
-4.102401794433594,-8.517242126464843,1.0258997192382813,0.032242912123535354,0.03823319365296421,0.0199794901479922,0.1699841022491455,2019-06-20 15:09:02:364
-4.058109741210937,-8.482526733398437,1.048644287109375,0.03317501850506309,0.039564774198003826,0.020378964311504086,0.17510390281677246,2019-06-20 15:09:02:369
-4.098810546875,-8.508862548828125,1.0594180297851563,0.030645015469487807,0.038765825870980056,0.020112648202496163,0.17996811866760254,2019-06-20 15:09:02:374
-4.102401794433594,-8.535198364257813,1.0270968017578124,0.031443963796511584,0.03863266781647609,0.020778438475015974,0.1850879192352295,2019-06-20 15:09:02:379
-4.07008056640625,-8.536395446777343,1.06300927734375,0.032642386287047236,0.03823319365296421,0.020112648202496163,0.19020795822143555,2019-06-20 15:09:02:384
-4.072474731445312,-8.516045043945311,1.0689946899414062,0.033041860450559124,0.03916530003449194,0.02064528042051201,0.19507193565368652,2019-06-20 15:09:02:389
-4.07008056640625,-8.508862548828125,1.0989217529296875,0.03237607017803931,0.03903214197998798,0.022509493183567476,0.20019197463989258,2019-06-20 15:09:02:394
-4.058109741210937,-8.530410034179686,1.086950927734375,0.03344133461407101,0.04049688057953156,0.02131107069303182,0.20505595207214355,2019-06-20 15:09:02:399
-4.0952192993164065,-8.528015869140624,1.0737830200195313,0.032642386287047236,0.03943161614349987,0.021444228747535782,0.2101759910583496,2019-06-20 15:09:02:404
-4.061700988769531,-8.514847961425781,1.0606151123046874,0.03237607017803931,0.04009740641601968,0.022243177074559552,0.21503996849060059,2019-06-20 15:09:02:409
-4.044941833496094,-8.519636291503906,1.0797684326171875,0.032642386287047236,0.0403637225250276,0.021843702911047667,0.22016000747680664,2019-06-20 15:09:02:414
-4.06050390625,-8.50407421875,1.1084984130859374,0.03330817655956705,0.040630038634035526,0.021444228747535782,0.22502398490905762,2019-06-20 15:09:02:419
-4.06050390625,-8.514847961425781,1.0546296997070312,0.033707650723078936,0.041428986961059296,0.021843702911047667,0.23014402389526367,2019-06-20 15:09:02:424
-4.074868896484375,-8.508862548828125,1.0701917724609376,0.033707650723078936,0.03943161614349987,0.023175283456087284,0.23500800132751465,2019-06-20 15:09:02:429
-4.085642639160156,-8.5232275390625,1.0534326171875,0.03237607017803931,0.04129582890655533,0.024506864001126907,0.2401280403137207,2019-06-20 15:09:02:434
-4.047335998535156,-8.498088806152344,1.08216259765625,0.032642386287047236,0.04169530307006722,0.02344159956509521,0.24499201774597168,2019-06-20 15:09:02:439
-4.0952192993164065,-8.524424621582032,1.110892578125,0.03344133461407101,0.041428986961059296,0.024373705946622946,0.25011205673217773,2019-06-20 15:09:02:444
-4.074868896484375,-8.535198364257813,1.1132867431640625,0.03437344099559874,0.04169530307006722,0.02543897038265464,0.2549760341644287,2019-06-20 15:09:02:449
-4.071277648925781,-8.502877136230468,1.0689946899414062,0.03317501850506309,0.040763196688539484,0.024906338164638792,0.26009607315063477,2019-06-20 15:09:02:454
-4.121555114746093,-8.536395446777343,1.0642063598632812,0.034506599050102706,0.04169530307006722,0.024506864001126907,0.26496005058288574,2019-06-20 15:09:02:459
-4.1083872070312495,-8.53400128173828,1.0989217529296875,0.034639757104606664,0.041562145015563254,0.025838444546166524,0.2700800895690918,2019-06-20 15:09:02:464
-4.082051391601563,-8.520833374023438,1.1084984130859374,0.03397396683208686,0.04169530307006722,0.027170025091206144,0.27519989013671875,2019-06-20 15:09:02:469
-4.0796572265624995,-8.522030456542968,1.1228634033203124,0.03503923126811855,0.0431600416696108,0.026104760655174447,0.28006410598754883,2019-06-20 15:09:02:474
-4.084445556640625,-8.51365087890625,1.106104248046875,0.03397396683208686,0.04276056750609891,0.02464002205563087,0.2851839065551758,2019-06-20 15:09:02:479
-4.105993041992187,-8.47534423828125,1.067797607421875,0.033707650723078936,0.04129582890655533,0.02464002205563087,0.29004788398742676,2019-06-20 15:09:02:484
-4.077263061523437,-8.49449755859375,1.0558267822265626,0.03437344099559874,0.041562145015563254,0.025305812328150677,0.2951679229736328,2019-06-20 15:09:02:489
-4.1383142700195314,-8.518439208984375,1.0953305053710938,0.03317501850506309,0.04262740945159495,0.024506864001126907,0.3000319004058838,2019-06-20 15:09:02:494
-4.102401794433594,-8.538789611816407,1.1096954956054688,0.03197659601452743,0.04262740945159495,0.0255721284371586,0.30515193939208984,2019-06-20 15:09:02:499
-4.082051391601563,-8.537592529296875,1.0809655151367188,0.031843437960023466,0.04289372556060288,0.02543897038265464,0.3100159168243408,2019-06-20 15:09:02:504
-4.071277648925781,-8.502877136230468,1.12046923828125,0.033707650723078936,0.04129582890655533,0.025305812328150677,0.3151359558105469,2019-06-20 15:09:02:509
-4.074868896484375,-8.508862548828125,1.0342792968749999,0.03197659601452743,0.0420947772335791,0.02623791870967841,0.31999993324279785,2019-06-20 15:09:02:514
-4.091628051757812,-8.507665466308593,1.1168779907226563,0.03237607017803931,0.04116267085205137,0.025705286491662562,0.3251199722290039,2019-06-20 15:09:02:519
-4.102401794433594,-8.499285888671874,1.1468050537109375,0.03210975406903139,0.04116267085205137,0.026104760655174447,0.3299839496612549,2019-06-20 15:09:02:524
-4.058109741210937,-8.498088806152344,1.0965275878906249,0.03210975406903139,0.04262740945159495,0.027170025091206144,0.33510398864746094,2019-06-20 15:09:02:529
-4.096416381835938,-8.502877136230468,1.0713888549804687,0.03410712488659082,0.04329319972411476,0.027968973418229917,0.3399679660797119,2019-06-20 15:09:02:534
-4.105993041992187,-8.514847961425781,1.0797684326171875,0.03290870239605516,0.04289372556060288,0.027968973418229917,0.34508800506591797,2019-06-20 15:09:02:539
-4.135920104980468,-8.511256713867187,1.0713888549804687,0.0327755443415512,0.0420947772335791,0.02637107676418237,0.350208044052124,2019-06-20 15:09:02:544
-4.1095842895507815,-8.519636291503906,1.0977246704101562,0.03344133461407101,0.04196161917907514,0.0255721284371586,0.355072021484375,2019-06-20 15:09:02:549
-4.100007629394531,-8.511256713867187,1.1049071655273437,0.03250922823254328,0.042227935288083066,0.025172654273646716,0.36019206047058105,2019-06-20 15:09:02:554
-4.100007629394531,-8.490906311035156,1.1084984130859374,0.031443963796511584,0.04329319972411476,0.025305812328150677,0.36505603790283203,2019-06-20 15:09:02:559
-4.12754052734375,-8.478935485839843,1.0809655151367188,0.030378699360479884,0.044092148051138536,0.026504234818686332,0.3701760768890381,2019-06-20 15:09:02:564
-4.134723022460937,-8.47534423828125,1.0785713500976561,0.03171027990551951,0.042227935288083066,0.027436341200214067,0.37504005432128906,2019-06-20 15:09:02:569
-4.116766784667969,-8.464570495605468,1.0666005249023438,0.03237607017803931,0.0420947772335791,0.025705286491662562,0.3801600933074951,2019-06-20 15:09:02:574
-4.0952192993164065,-8.496891723632812,1.0737830200195313,0.03237607017803931,0.04196161917907514,0.025705286491662562,0.3850240707397461,2019-06-20 15:09:02:579
-4.111978454589844,-8.508862548828125,1.0917392578125,0.032642386287047236,0.041428986961059296,0.025039496219142754,0.39014410972595215,2019-06-20 15:09:02:584
-4.107190124511718,-8.501680053710936,1.0606151123046874,0.03330817655956705,0.03983109030701175,0.02477318011013483,0.3950080871582031,2019-06-20 15:09:02:589
-4.1095842895507815,-8.492103393554688,1.0474472045898438,0.0327755443415512,0.040763196688539484,0.023974231783111057,0.4001278877258301,2019-06-20 15:09:02:594
-4.116766784667969,-8.502877136230468,1.0618121948242187,0.03091133157849573,0.04089635474304345,0.022376335129063514,0.40499210357666016,2019-06-20 15:09:02:599
-4.145496765136719,-8.4849208984375,1.0546296997070312,0.03091133157849573,0.04089635474304345,0.023175283456087284,0.4101119041442871,2019-06-20 15:09:02:604
-4.143102600097656,-8.482526733398437,1.0594180297851563,0.032242912123535354,0.04023056447052364,0.023175283456087284,0.4149761199951172,2019-06-20 15:09:02:609
-4.150285095214843,-8.501680053710936,1.0905421752929687,0.031843437960023466,0.040763196688539484,0.022509493183567476,0.42009592056274414,2019-06-20 15:09:02:614
-4.12754052734375,-8.501680053710936,1.0713888549804687,0.03171027990551951,0.04129582890655533,0.02197686096555163,0.4252159595489502,2019-06-20 15:09:02:619
-4.131131774902344,-8.511256713867187,1.0761771850585937,0.031044489632999692,0.039964248361515714,0.02117791263852786,0.43007993698120117,2019-06-20 15:09:02:624
-4.12754052734375,-8.528015869140624,1.086950927734375,0.031044489632999692,0.041428986961059296,0.021843702911047667,0.4351999759674072,2019-06-20 15:09:02:629
-4.144299682617188,-8.520833374023438,1.0917392578125,0.03171027990551951,0.04009740641601968,0.021843702911047667,0.4400639533996582,2019-06-20 15:09:02:634
-4.141905517578125,-8.510059631347657,1.0905421752929687,0.031443963796511584,0.04049688057953156,0.02131107069303182,0.44518399238586426,2019-06-20 15:09:02:639
-4.121555114746093,-8.51365087890625,1.077374267578125,0.032242912123535354,0.04129582890655533,0.021444228747535782,0.45004796981811523,2019-06-20 15:09:02:644
-4.125146362304688,-8.49449755859375,1.0701917724609376,0.032242912123535354,0.04129582890655533,0.019580015984480316,0.4551680088043213,2019-06-20 15:09:02:649
-4.120358032226562,-8.486117980957031,1.086950927734375,0.031843437960023466,0.04102951279754741,0.019446857929976354,0.46003198623657227,2019-06-20 15:09:02:654
-4.131131774902344,-8.4849208984375,1.0845567626953125,0.030511857414983846,0.0403637225250276,0.018914225711960504,0.4651520252227783,2019-06-20 15:09:02:659
-4.1383142700195314,-8.465767578125,1.0713888549804687,0.031443963796511584,0.03903214197998798,0.01904738376646447,0.4700160026550293,2019-06-20 15:09:02:664
-4.133525939941406,-8.478935485839843,1.058220947265625,0.032242912123535354,0.03849950976197213,0.02064528042051201,0.47513604164123535,2019-06-20 15:09:02:669
-4.135920104980468,-8.490906311035156,1.0426588745117187,0.03171027990551951,0.03943161614349987,0.019713174038984278,0.48000001907348633,2019-06-20 15:09:02:674
-4.113175537109375,-8.50527130126953,1.029490966796875,0.03171027990551951,0.039964248361515714,0.018781067657456543,0.4851200580596924,2019-06-20 15:09:02:679
-4.1227521972656245,-8.501680053710936,1.0606151123046874,0.03237607017803931,0.040763196688539484,0.018914225711960504,0.48998403549194336,2019-06-20 15:09:02:684
-4.116766784667969,-8.498088806152344,1.08216259765625,0.032642386287047236,0.0403637225250276,0.01904738376646447,0.4951040744781494,2019-06-20 15:09:02:689
-4.12754052734375,-8.517242126464843,1.0905421752929687,0.03210975406903139,0.039564774198003826,0.0199794901479922,0.4999680519104004,2019-06-20 15:09:02:694
-4.105993041992187,-8.50527130126953,1.0654034423828125,0.03237607017803931,0.04023056447052364,0.01851475154844862,0.5050880908966064,2019-06-20 15:09:02:699
-4.1239492797851565,-8.500482971191406,1.0797684326171875,0.03290870239605516,0.04049688057953156,0.018781067657456543,0.5102078914642334,2019-06-20 15:09:02:704
-4.134723022460937,-8.508862548828125,1.0522355346679688,0.03210975406903139,0.04182846112457118,0.018781067657456543,0.5150721073150635,2019-06-20 15:09:02:709
-4.1383142700195314,-8.529212951660156,1.0761771850585937,0.03290870239605516,0.04169530307006722,0.019313699875472393,0.5201919078826904,2019-06-20 15:09:02:714
-4.120358032226562,-8.496891723632812,1.0797684326171875,0.03317501850506309,0.04116267085205137,0.020245806257000124,0.5250558853149414,2019-06-20 15:09:02:719
-4.088036804199219,-8.502877136230468,1.06300927734375,0.03317501850506309,0.04182846112457118,0.01864790960295258,0.5301759243011475,2019-06-20 15:09:02:724
-4.086839721679687,-8.539986694335937,1.0606151123046874,0.033707650723078936,0.04116267085205137,0.019313699875472393,0.5350399017333984,2019-06-20 15:09:02:729
-4.092825134277343,-8.519636291503906,1.02470263671875,0.03317501850506309,0.041562145015563254,0.020378964311504086,0.5401599407196045,2019-06-20 15:09:02:734
-4.1083872070312495,-8.53280419921875,1.0570238647460937,0.03477291515911063,0.04276056750609891,0.020778438475015974,0.5450239181518555,2019-06-20 15:09:02:739
-4.128737609863281,-8.516045043945311,1.0917392578125,0.03677028597667006,0.04262740945159495,0.02064528042051201,0.5501439571380615,2019-06-20 15:09:02:744
-4.1083872070312495,-8.526818786621094,1.0701917724609376,0.036104495704150245,0.043426357778618724,0.020778438475015974,0.5550079345703125,2019-06-20 15:09:02:749
-4.105993041992187,-8.514847961425781,1.0737830200195313,0.036503969867662134,0.04329319972411476,0.020378964311504086,0.5601279735565186,2019-06-20 15:09:02:754
-4.125146362304688,-8.502877136230468,1.0510384521484375,0.03583817959514232,0.04449162221465042,0.020911596529519936,0.5649919509887695,2019-06-20 15:09:02:759
-4.1095842895507815,-8.525621704101562,1.04385595703125,0.035705021540638364,0.045290570541674194,0.019713174038984278,0.5701119899749756,2019-06-20 15:09:02:764
-4.158664672851563,-8.548366271972656,1.0654034423828125,0.03677028597667006,0.0448910963781623,0.020911596529519936,0.5749759674072266,2019-06-20 15:09:02:769
-4.151482177734375,-8.53400128173828,1.058220947265625,0.03703660208567798,0.04382583194213061,0.02131107069303182,0.5800960063934326,2019-06-20 15:09:02:774
-4.133525939941406,-8.531607116699218,1.077374267578125,0.036503969867662134,0.044624780269154375,0.020378964311504086,0.5852160453796387,2019-06-20 15:09:02:779
-4.129934692382812,-8.512453796386719,1.0654034423828125,0.03503923126811855,0.04475793832365834,0.021577386802039744,0.5900800228118896,2019-06-20 15:09:02:784
-4.121555114746093,-8.528015869140624,1.0522355346679688,0.03637081181315817,0.044624780269154375,0.02117791263852786,0.5952000617980957,2019-06-20 15:09:02:789
-4.116766784667969,-8.53280419921875,1.0474472045898438,0.03823502457621364,0.04582320275969004,0.020112648202496163,0.6000640392303467,2019-06-20 15:09:02:794
-4.128737609863281,-8.508862548828125,1.0713888549804687,0.0383681826307176,0.0470216252502257,0.020778438475015974,0.6051840782165527,2019-06-20 15:09:02:799
-4.1371171874999995,-8.506468383789063,1.0761771850585937,0.03783555041270175,0.04728794135923362,0.02131107069303182,0.6100480556488037,2019-06-20 15:09:02:804
-4.120358032226562,-8.500482971191406,1.0893450927734374,0.037302918194685904,0.04715478330472966,0.020778438475015974,0.6151680946350098,2019-06-20 15:09:02:809
-4.145496765136719,-8.471752990722656,1.0498413696289062,0.03783555041270175,0.04861952190427324,0.020512122366008047,0.6200320720672607,2019-06-20 15:09:02:814
-4.128737609863281,-8.477738403320313,1.0893450927734374,0.0383681826307176,0.0487526799587772,0.020245806257000124,0.6251521110534668,2019-06-20 15:09:02:819
-4.1562705078125,-8.464570495605468,1.0857538452148436,0.03890081484873345,0.04861952190427324,0.019313699875472393,0.6300160884857178,2019-06-20 15:09:02:824
-4.16584716796875,-8.482526733398437,1.048644287109375,0.03890081484873345,0.04941847023129701,0.019313699875472393,0.6351358890533447,2019-06-20 15:09:02:829
-4.141905517578125,-8.462176330566406,1.0594180297851563,0.0383681826307176,0.0487526799587772,0.019313699875472393,0.6400001049041748,2019-06-20 15:09:02:834
-4.208942138671875,-8.425066772460937,1.0833596801757812,0.03850134068522156,0.04808688968625739,0.01918054182096843,0.6451199054718018,2019-06-20 15:09:02:839
-4.1826063232421875,-8.432249267578126,1.0666005249023438,0.03863449873972553,0.04888583801328116,0.017316329057912964,0.6499838829040527,2019-06-20 15:09:02:844
-4.162255920410156,-8.428658020019531,1.048644287109375,0.03863449873972553,0.04822004774076135,0.016117906567377306,0.6551039218902588,2019-06-20 15:09:02:849
-4.104795959472656,-8.415490112304687,1.0713888549804687,0.03743607624918987,0.04728794135923362,0.015452116294857496,0.6599678993225098,2019-06-20 15:09:02:854
-4.20415380859375,-8.47654132080078,1.0785713500976561,0.03783555041270175,0.04728794135923362,0.015585274349361458,0.6650879383087158,2019-06-20 15:09:02:859
-4.304708740234375,-8.519636291503906,1.1551846313476561,0.037169760140181946,0.046888467195721734,0.015452116294857496,0.6702079772949219,2019-06-20 15:09:02:864
-4.224504211425781,-8.472950073242187,1.125257568359375,0.034639757104606664,0.04968478634030493,0.013721061586305991,0.6750719547271729,2019-06-20 15:09:02:869
-4.2328837890625,-8.371198059082031,1.06300927734375,0.037169760140181946,0.04435846416014646,0.012389481041266371,0.6801919937133789,2019-06-20 15:09:02:874
-4.157467590332031,-8.342468078613281,1.00554931640625,0.03503923126811855,0.044092148051138536,0.009859478005691095,0.6850559711456299,2019-06-20 15:09:02:879
-4.147890930175781,-8.374789306640626,1.0594180297851563,0.033041860450559124,0.04262740945159495,0.007595791079123743,0.6901760101318359,2019-06-20 15:09:02:884
-4.2328837890625,-8.474147155761719,1.1755350341796875,0.0327755443415512,0.04023056447052364,0.007196316915611857,0.6950399875640869,2019-06-20 15:09:02:889
-4.208942138671875,-8.486117980957031,1.1336371459960937,0.03357449266857497,0.04276056750609891,0.006397368588588085,0.700160026550293,2019-06-20 15:09:02:894
-4.238869201660156,-8.438234680175782,1.0905421752929687,0.03437344099559874,0.04009740641601968,0.003601049444004886,0.705024003982544,2019-06-20 15:09:02:899
-4.2257012939453125,-8.433446350097656,1.0270968017578124,0.031443963796511584,0.03849950976197213,0.0026689430624771524,0.71014404296875,2019-06-20 15:09:02:904
-4.1682413330078125,-8.414293029785156,1.1527904663085937,0.030378699360479884,0.038765825870980056,0.0004052561359097999,0.715008020401001,2019-06-20 15:09:02:909
-4.193380065917968,-8.480132568359375,1.1515933837890624,0.02931343492444819,0.036368980889908746,5.781972397914221e-06,0.720128059387207,2019-06-20 15:09:02:914
-4.128737609863281,-8.458585083007812,1.0905421752929687,0.02838132854292046,0.036368980889908746,0.0004052561359097999,0.724992036819458,2019-06-20 15:09:02:919
-4.150285095214843,-8.486117980957031,1.0510384521484375,0.02744922216139272,0.036102664780900816,-0.0017252727361535905,0.7301120758056641,2019-06-20 15:09:02:924
-4.144299682617188,-8.464570495605468,1.0713888549804687,0.02731606410688876,0.036102664780900816,-0.0013257985726417049,0.734976053237915,2019-06-20 15:09:02:929
-4.159861755371094,-8.486117980957031,1.1096954956054688,0.027715538270400644,0.03503740034486912,-0.0002605341366100096,0.7400960922241211,2019-06-20 15:09:02:934
-4.161058837890625,-8.488512145996093,1.1276517333984375,0.027182906052384798,0.03330634563631762,-0.0015921146816496288,0.7449600696563721,2019-06-20 15:09:02:939
-4.126343444824219,-8.495694641113282,1.0929363403320311,0.026250799670857066,0.033838977854333464,-0.002257904954169438,0.7500801086425781,2019-06-20 15:09:02:944
-4.102401794433594,-8.478935485839843,1.0977246704101562,0.025585009398337258,0.03237423925478988,-0.0023910630086734002,0.7551999092102051,2019-06-20 15:09:02:949
-4.119160949707031,-8.501680053710936,1.0737830200195313,0.02491921912581745,0.03277371341830177,-0.002524221063177362,0.760063886642456,2019-06-20 15:09:02:954
-4.111978454589844,-8.530410034179686,1.1360313110351563,0.02651711577986499,0.03224108120028592,-0.0017252727361535905,0.7651839256286621,2019-06-20 15:09:02:959
-4.1227521972656245,-8.511256713867187,1.0953305053710938,0.025318693289329335,0.03210792314578196,-0.0010594824636337812,0.7700479030609131,2019-06-20 15:09:02:964
-4.114372619628906,-8.500482971191406,1.1001188354492186,0.024386586907801603,0.031841607036774036,-0.0003936921911139715,0.7751679420471191,2019-06-20 15:09:02:969
-4.053321411132813,-8.50527130126953,1.0701917724609376,0.02491921912581745,0.031042658709750266,-0.0009263244091298192,0.7800319194793701,2019-06-20 15:09:02:974
-4.054518493652344,-8.502877136230468,1.0498413696289062,0.023587638580777826,0.030909500655246305,-0.0014589566271456667,0.7851519584655762,2019-06-20 15:09:02:979
-4.061700988769531,-8.53280419921875,1.0666005249023438,0.02412027079879368,0.030776342600742343,-0.0009263244091298192,0.7900159358978271,2019-06-20 15:09:02:984
-4.077263061523437,-8.537592529296875,0.9947755737304688,0.023587638580777826,0.030776342600742343,-0.0003936921911139715,0.7951359748840332,2019-06-20 15:09:02:989
-4.073671813964844,-8.530410034179686,1.0163230590820311,0.025318693289329335,0.031841607036774036,0.0012042044629335714,0.7999999523162842,2019-06-20 15:09:02:994
-4.074868896484375,-8.554351684570312,1.06300927734375,0.025984483561849143,0.031841607036774036,0.0013373625174375333,0.8051199913024902,2019-06-20 15:09:02:999
-4.056912658691406,-8.547169189453125,1.0354763793945312,0.02385395468978575,0.033040029527309694,0.0024026269534692286,0.8099839687347412,2019-06-20 15:09:03:004
-4.073671813964844,-8.53280419921875,1.0594180297851563,0.02585132550734518,0.03130897481875819,0.003601049444004886,0.8151040077209473,2019-06-20 15:09:03:009
-4.067686401367188,-8.535198364257813,1.0881480102539063,0.02571816745284122,0.03237423925478988,0.0037342074985088477,0.8199679851531982,2019-06-20 15:09:03:014
-4.064095153808593,-8.566322509765625,1.0594180297851563,0.02571816745284122,0.03397213590883743,0.0051989460980524285,0.8250880241394043,2019-06-20 15:09:03:019
-4.076065979003906,-8.556745849609374,1.0606151123046874,0.026916589943376874,0.0347710842358612,0.004666313880036581,0.8302080631256104,2019-06-20 15:09:03:024
-4.067686401367188,-8.547169189453125,1.0761771850585937,0.027049747997880836,0.03397213590883743,0.005731578316068277,0.8350720405578613,2019-06-20 15:09:03:029
-4.056912658691406,-8.549563354492188,1.0965275878906249,0.026117641616353104,0.033705819799829506,0.006264210534084123,0.8401920795440674,2019-06-20 15:09:03:034
-4.074868896484375,-8.55195751953125,1.0785713500976561,0.026783431888872913,0.03397213590883743,0.007595791079123743,0.8450560569763184,2019-06-20 15:09:03:039
-4.07008056640625,-8.541183776855469,1.0953305053710938,0.02651711577986499,0.03437161007234931,0.007995265242635628,0.8501760959625244,2019-06-20 15:09:03:044
-4.082051391601563,-8.526818786621094,1.0905421752929687,0.027049747997880836,0.035303716453877046,0.007995265242635628,0.8550400733947754,2019-06-20 15:09:03:049
-4.090430969238281,-8.520833374023438,1.06300927734375,0.027582380215896683,0.034637926181357234,0.008927371624163362,0.8601601123809814,2019-06-20 15:09:03:054
-4.072474731445312,-8.50407421875,1.0558267822265626,0.028913960760936306,0.03490424229036516,0.010258952169202981,0.8650240898132324,2019-06-20 15:09:03:059
-4.096416381835938,-8.506468383789063,1.0606151123046874,0.027848696324904613,0.03690161310792459,0.01012579411469902,0.8701438903808594,2019-06-20 15:09:03:064
-4.092825134277343,-8.510059631347657,1.0354763793945312,0.027582380215896683,0.03623582283540478,0.01012579411469902,0.8750081062316895,2019-06-20 15:09:03:069
-4.131131774902344,-8.50407421875,1.0618121948242187,0.028647644651928383,0.036102664780900816,0.010525268278210905,0.8801279067993164,2019-06-20 15:09:03:074
-4.101204711914062,-8.500482971191406,1.0306880493164061,0.027182906052384798,0.03663529699891667,0.010525268278210905,0.8849918842315674,2019-06-20 15:09:03:079
-4.102401794433594,-8.51365087890625,1.0091405639648436,0.028647644651928383,0.035436874508381004,0.01092474244172279,0.8901119232177734,2019-06-20 15:09:03:084
-4.141905517578125,-8.499285888671874,1.06300927734375,0.028913960760936306,0.03676845505342063,0.01225632298676241,0.8949759006500244,2019-06-20 15:09:03:089
-4.110781372070313,-8.47654132080078,1.06300927734375,0.02918027686994423,0.037966877543956286,0.011191058550730713,0.9000959396362305,2019-06-20 15:09:03:094
-4.1179638671875,-8.53280419921875,1.0689946899414062,0.030245541305975922,0.03690161310792459,0.011723690768746563,0.9049599170684814,2019-06-20 15:09:03:099
-4.107190124511718,-8.51365087890625,1.0558267822265626,0.029846067142464038,0.036368980889908746,0.01145737465973864,0.9100799560546875,2019-06-20 15:09:03:104
-4.091628051757812,-8.510059631347657,1.06300927734375,0.030645015469487807,0.0375674033804444,0.01225632298676241,0.9151999950408936,2019-06-20 15:09:03:109
-4.074868896484375,-8.493300476074218,1.0366734619140625,0.030645015469487807,0.03849950976197213,0.013321587422794106,0.9200639724731445,2019-06-20 15:09:03:114
-4.068883483886719,-8.487315063476562,1.0558267822265626,0.031843437960023466,0.03836635170746817,0.012655797150274295,0.9251840114593506,2019-06-20 15:09:03:119
-4.105993041992187,-8.489709228515625,1.0893450927734374,0.031044489632999692,0.03770056143494836,0.01305527131378618,0.9300479888916016,2019-06-20 15:09:03:124
-4.096416381835938,-8.5232275390625,1.0785713500976561,0.031177647687503654,0.037966877543956286,0.011990006877754486,0.9351680278778076,2019-06-20 15:09:03:129
-4.071277648925781,-8.549563354492188,1.0713888549804687,0.032242912123535354,0.036368980889908746,0.01305527131378618,0.9400320053100586,2019-06-20 15:09:03:134
-4.032971008300781,-8.53280419921875,1.0618121948242187,0.032642386287047236,0.038765825870980056,0.013987377695313915,0.9451520442962646,2019-06-20 15:09:03:139
-4.056912658691406,-8.51365087890625,1.1037100830078124,0.032642386287047236,0.03743424532594044,0.015052642131345608,0.9500160217285156,2019-06-20 15:09:03:144
-4.068883483886719,-8.514847961425781,1.0917392578125,0.031843437960023466,0.03836635170746817,0.015452116294857496,0.9551360607147217,2019-06-20 15:09:03:149
-4.068883483886719,-8.506468383789063,1.06300927734375,0.03250922823254328,0.03916530003449194,0.015185800185849573,0.9600000381469727,2019-06-20 15:09:03:154
-4.086839721679687,-8.520833374023438,1.08216259765625,0.03317501850506309,0.04049688057953156,0.015452116294857496,0.9651200771331787,2019-06-20 15:09:03:159
-4.076065979003906,-8.55195751953125,1.0354763793945312,0.03290870239605516,0.04116267085205137,0.016783696839897114,0.9699840545654297,2019-06-20 15:09:03:164
-4.090430969238281,-8.550760437011718,1.039067626953125,0.033840808777582894,0.040763196688539484,0.015585274349361458,0.9751040935516357,2019-06-20 15:09:03:169
-4.100007629394531,-8.525621704101562,1.048644287109375,0.031843437960023466,0.04023056447052364,0.016251064621881268,0.9799680709838867,2019-06-20 15:09:03:174
-4.056912658691406,-8.522030456542968,1.0270968017578124,0.03237607017803931,0.04196161917907514,0.017982119330432773,0.9850881099700928,2019-06-20 15:09:03:179
-4.071277648925781,-8.530410034179686,1.0366734619140625,0.03344133461407101,0.04182846112457118,0.01638422267638523,0.9902079105377197,2019-06-20 15:09:03:184
-4.0652922363281245,-8.506468383789063,1.0713888549804687,0.03410712488659082,0.042227935288083066,0.017449487112416926,0.9950718879699707,2019-06-20 15:09:03:189
-4.091628051757812,-8.528015869140624,1.0666005249023438,0.03503923126811855,0.04182846112457118,0.01784896127592881,1.0001919269561768,2019-06-20 15:09:03:194
-4.1239492797851565,-8.549563354492188,1.077374267578125,0.03357449266857497,0.04102951279754741,0.019713174038984278,1.0050559043884277,2019-06-20 15:09:03:199
-4.082051391601563,-8.518439208984375,1.0965275878906249,0.033707650723078936,0.040630038634035526,0.020112648202496163,1.0101759433746338,2019-06-20 15:09:03:204
-4.088036804199219,-8.493300476074218,1.0642063598632812,0.03503923126811855,0.041428986961059296,0.0199794901479922,1.0150399208068848,2019-06-20 15:09:03:209
-4.083248474121094,-8.518439208984375,1.0965275878906249,0.033041860450559124,0.0431600416696108,0.020778438475015974,1.0201599597930908,2019-06-20 15:09:03:214
-4.098810546875,-8.526818786621094,1.0857538452148436,0.0327755443415512,0.04276056750609891,0.020512122366008047,1.0250239372253418,2019-06-20 15:09:03:219
-4.088036804199219,-8.514847961425781,1.0953305053710938,0.033041860450559124,0.042227935288083066,0.020778438475015974,1.0301439762115479,2019-06-20 15:09:03:224
-4.098810546875,-8.50527130126953,1.0462501220703124,0.03330817655956705,0.04276056750609891,0.020911596529519936,1.0350079536437988,2019-06-20 15:09:03:229
-4.088036804199219,-8.542380859375,1.0701917724609376,0.033041860450559124,0.042227935288083066,0.021843702911047667,1.0401279926300049,2019-06-20 15:09:03:234
-4.098810546875,-8.519636291503906,1.0606151123046874,0.03410712488659082,0.04276056750609891,0.023175283456087284,1.0449919700622559,2019-06-20 15:09:03:239
-4.08923388671875,-8.519636291503906,1.0654034423828125,0.034639757104606664,0.04249425139709099,0.023175283456087284,1.050112009048462,2019-06-20 15:09:03:244
-4.098810546875,-8.53280419921875,1.0618121948242187,0.03397396683208686,0.04196161917907514,0.02344159956509521,1.054975986480713,2019-06-20 15:09:03:249
-4.0940222167968745,-8.514847961425781,1.0450530395507813,0.033707650723078936,0.04329319972411476,0.02410738983761502,1.060096025466919,2019-06-20 15:09:03:254
-4.0796572265624995,-8.5232275390625,1.0618121948242187,0.034506599050102706,0.04355951583312269,0.025305812328150677,1.06496000289917,2019-06-20 15:09:03:259
-4.059306823730469,-8.53280419921875,1.1084984130859374,0.03543870543163044,0.04289372556060288,0.025172654273646716,1.070080041885376,2019-06-20 15:09:03:264
-4.055715576171875,-8.520833374023438,1.0701917724609376,0.03410712488659082,0.04262740945159495,0.0255721284371586,1.075200080871582,2019-06-20 15:09:03:269
-4.071277648925781,-8.512453796386719,1.0498413696289062,0.035705021540638364,0.04249425139709099,0.025971602600670485,1.080064058303833,2019-06-20 15:09:03:274
-4.090430969238281,-8.536395446777343,1.0426588745117187,0.03583817959514232,0.04355951583312269,0.026637392873190294,1.085184097290039,2019-06-20 15:09:03:279
-4.116766784667969,-8.517242126464843,1.06300927734375,0.0355718634861344,0.04449162221465042,0.02637107676418237,1.09004807472229,2019-06-20 15:09:03:284
-4.091628051757812,-8.544775024414061,1.0713888549804687,0.03397396683208686,0.04355951583312269,0.026504234818686332,1.095168113708496,2019-06-20 15:09:03:289
-4.077263061523437,-8.516045043945311,1.0905421752929687,0.034639757104606664,0.04289372556060288,0.027835815363725955,1.100032091140747,2019-06-20 15:09:03:294
-4.085642639160156,-8.511256713867187,1.0929363403320311,0.03397396683208686,0.043026883615106835,0.02890107979975765,1.105151891708374,2019-06-20 15:09:03:299
-4.086839721679687,-8.49449755859375,1.1073013305664061,0.033707650723078936,0.04276056750609891,0.029433712017773495,1.110016107559204,2019-06-20 15:09:03:304
-4.111978454589844,-8.487315063476562,1.0953305053710938,0.034506599050102706,0.04355951583312269,0.029300553963269534,1.115135908126831,2019-06-20 15:09:03:309
-4.107190124511718,-8.512453796386719,1.077374267578125,0.03490607321361459,0.044225306105642494,0.028767921745253687,1.119999885559082,2019-06-20 15:09:03:314
-4.08923388671875,-8.499285888671874,1.0258997192382813,0.0355718634861344,0.044092148051138536,0.02810213147273388,1.125119924545288,2019-06-20 15:09:03:319
-4.111978454589844,-8.493300476074218,1.058220947265625,0.03490607321361459,0.04435846416014646,0.030365818399301227,1.129983901977539,2019-06-20 15:09:03:324
-4.111978454589844,-8.506468383789063,1.0654034423828125,0.03437344099559874,0.04555688665068212,0.030765292562813115,1.1351039409637451,2019-06-20 15:09:03:329
-4.105993041992187,-8.492103393554688,1.0570238647460937,0.03424028294109478,0.044624780269154375,0.031164766726325004,1.139967918395996,2019-06-20 15:09:03:334
-4.143102600097656,-8.469358825683594,1.10131591796875,0.03330817655956705,0.044092148051138536,0.029433712017773495,1.1450879573822021,2019-06-20 15:09:03:339
-4.1395113525390625,-8.472950073242187,1.0785713500976561,0.03437344099559874,0.04355951583312269,0.02970002812678142,1.1502079963684082,2019-06-20 15:09:03:344
-4.115569702148437,-8.501680053710936,1.0833596801757812,0.03517238932262252,0.04382583194213061,0.029966344235789342,1.1550719738006592,2019-06-20 15:09:03:349
-4.161058837890625,-8.501680053710936,1.110892578125,0.03490607321361459,0.044225306105642494,0.030099502290293303,1.1601920127868652,2019-06-20 15:09:03:354
-4.150285095214843,-8.510059631347657,1.0857538452148436,0.035305547377126476,0.042361093342587024,0.030498976453805192,1.1650559902191162,2019-06-20 15:09:03:359
-4.143102600097656,-8.510059631347657,1.067797607421875,0.03410712488659082,0.04289372556060288,0.030765292562813115,1.1701760292053223,2019-06-20 15:09:03:364
-4.143102600097656,-8.489709228515625,1.1264546508789062,0.03397396683208686,0.04355951583312269,0.030765292562813115,1.1750400066375732,2019-06-20 15:09:03:369
-4.129934692382812,-8.510059631347657,1.077374267578125,0.03410712488659082,0.0420947772335791,0.030365818399301227,1.1801600456237793,2019-06-20 15:09:03:374
-4.1395113525390625,-8.516045043945311,1.0474472045898438,0.03410712488659082,0.04276056750609891,0.029300553963269534,1.1850240230560303,2019-06-20 15:09:03:379
-4.128737609863281,-8.488512145996093,1.0594180297851563,0.033840808777582894,0.04169530307006722,0.028767921745253687,1.1901440620422363,2019-06-20 15:09:03:384
-4.140708435058594,-8.496891723632812,1.0737830200195313,0.033041860450559124,0.04089635474304345,0.029167395908765572,1.1950080394744873,2019-06-20 15:09:03:389
-4.157467590332031,-8.478935485839843,1.0594180297851563,0.033041860450559124,0.041428986961059296,0.029433712017773495,1.2001280784606934,2019-06-20 15:09:03:394
-4.161058837890625,-8.487315063476562,1.0725859375,0.032642386287047236,0.041428986961059296,0.030232660344797265,1.2049920558929443,2019-06-20 15:09:03:399
-4.126343444824219,-8.487315063476562,1.0725859375,0.03397396683208686,0.042227935288083066,0.02970002812678142,1.2101120948791504,2019-06-20 15:09:03:404
-4.1395113525390625,-8.492103393554688,1.0761771850585937,0.033707650723078936,0.042361093342587024,0.02970002812678142,1.2149760723114014,2019-06-20 15:09:03:409
-4.134723022460937,-8.481329650878907,1.0857538452148436,0.03330817655956705,0.043026883615106835,0.030498976453805192,1.2200961112976074,2019-06-20 15:09:03:414
-4.1395113525390625,-8.500482971191406,1.0642063598632812,0.033707650723078936,0.04129582890655533,0.030099502290293303,1.2249600887298584,2019-06-20 15:09:03:419
-4.158664672851563,-8.499285888671874,1.0570238647460937,0.033707650723078936,0.0403637225250276,0.030232660344797265,1.2300798892974854,2019-06-20 15:09:03:424
-4.150285095214843,-8.500482971191406,1.0965275878906249,0.03317501850506309,0.0403637225250276,0.030765292562813115,1.2351999282836914,2019-06-20 15:09:03:429
-4.105993041992187,-8.496891723632812,1.0965275878906249,0.03131080574200762,0.03916530003449194,0.031164766726325004,1.2400639057159424,2019-06-20 15:09:03:434
-4.12754052734375,-8.486117980957031,1.0809655151367188,0.030378699360479884,0.03916530003449194,0.029966344235789342,1.2451839447021484,2019-06-20 15:09:03:439
-4.144299682617188,-8.463373413085938,1.0522355346679688,0.03157712185101554,0.03943161614349987,0.029566870072277457,1.2500479221343994,2019-06-20 15:09:03:444
-4.133525939941406,-8.457388000488281,1.0881480102539063,0.031177647687503654,0.0403637225250276,0.02890107979975765,1.2551679611206055,2019-06-20 15:09:03:449
-4.1395113525390625,-8.471752990722656,1.0749801025390624,0.031044489632999692,0.03983109030701175,0.027835815363725955,1.2600319385528564,2019-06-20 15:09:03:454
-4.164650085449218,-8.469358825683594,1.08216259765625,0.030378699360479884,0.03916530003449194,0.02903423785426161,1.2651519775390625,2019-06-20 15:09:03:459
-4.176620910644531,-8.465767578125,1.0965275878906249,0.030378699360479884,0.03836635170746817,0.028767921745253687,1.2700159549713135,2019-06-20 15:09:03:464
-4.1682413330078125,-8.465767578125,1.077374267578125,0.031044489632999692,0.038100035598460244,0.02890107979975765,1.2751359939575195,2019-06-20 15:09:03:469
-4.164650085449218,-8.435840515136718,1.0893450927734374,0.031044489632999692,0.03770056143494836,0.02823528952723784,1.2799999713897705,2019-06-20 15:09:03:474
-4.151482177734375,-8.478935485839843,1.0917392578125,0.030645015469487807,0.03836635170746817,0.027968973418229917,1.2851200103759766,2019-06-20 15:09:03:479
-4.159861755371094,-8.4849208984375,1.086950927734375,0.031044489632999692,0.03903214197998798,0.026637392873190294,1.2899839878082275,2019-06-20 15:09:03:484
-4.167044250488281,-8.4849208984375,1.1240604858398437,0.03077817352399177,0.03983109030701175,0.0255721284371586,1.2951040267944336,2019-06-20 15:09:03:489
-4.175423828125,-8.489709228515625,1.08216259765625,0.02931343492444819,0.038898983925484014,0.027702657309221994,1.2999680042266846,2019-06-20 15:09:03:494
-4.171832580566406,-8.478935485839843,1.0977246704101562,0.030245541305975922,0.03863266781647609,0.027036867036702182,1.3050880432128906,2019-06-20 15:09:03:499
-4.167044250488281,-8.478935485839843,1.0749801025390624,0.031044489632999692,0.0375674033804444,0.026104760655174447,1.3102080821990967,2019-06-20 15:09:03:504
-4.179015075683593,-8.478935485839843,1.0666005249023438,0.029846067142464038,0.03916530003449194,0.025172654273646716,1.3150720596313477,2019-06-20 15:09:03:509
-4.145496765136719,-8.502877136230468,1.0462501220703124,0.029712909087960076,0.03823319365296421,0.025172654273646716,1.3201920986175537,2019-06-20 15:09:03:514
-4.157467590332031,-8.496891723632812,1.0845567626953125,0.02931343492444819,0.03783371948945232,0.025838444546166524,1.3250560760498047,2019-06-20 15:09:03:519
-4.163453002929687,-8.4849208984375,1.0809655151367188,0.028913960760936306,0.03783371948945232,0.02410738983761502,1.3301761150360107,2019-06-20 15:09:03:524
-4.1562705078125,-8.4849208984375,1.0594180297851563,0.029846067142464038,0.037301087271436474,0.02410738983761502,1.3350400924682617,2019-06-20 15:09:03:529
-4.173029663085938,-8.488512145996093,1.0258997192382813,0.030645015469487807,0.036502138944412704,0.024506864001126907,1.3401598930358887,2019-06-20 15:09:03:534
-4.149088012695312,-8.507665466308593,1.0618121948242187,0.03011238325147196,0.036102664780900816,0.02410738983761502,1.3450241088867188,2019-06-20 15:09:03:539
-4.120358032226562,-8.493300476074218,1.08216259765625,0.029712909087960076,0.03703477116242855,0.02330844151059125,1.3501439094543457,2019-06-20 15:09:03:544
-4.128737609863281,-8.469358825683594,1.1073013305664061,0.029579751033456114,0.0375674033804444,0.0227758092925754,1.3550078868865967,2019-06-20 15:09:03:549
-4.140708435058594,-8.490906311035156,1.0941334228515625,0.029047118815440268,0.03663529699891667,0.023175283456087284,1.3601279258728027,2019-06-20 15:09:03:554
-4.143102600097656,-8.50527130126953,1.0474472045898438,0.030378699360479884,0.0375674033804444,0.02344159956509521,1.3649919033050537,2019-06-20 15:09:03:559
-4.135920104980468,-8.480132568359375,1.0977246704101562,0.03197659601452743,0.0375674033804444,0.02344159956509521,1.3701119422912598,2019-06-20 15:09:03:564
-4.144299682617188,-8.49449755859375,1.04385595703125,0.032242912123535354,0.03783371948945232,0.023042125401583322,1.3749759197235107,2019-06-20 15:09:03:569
-4.1371171874999995,-8.496891723632812,1.0857538452148436,0.032242912123535354,0.03676845505342063,0.0227758092925754,1.3800959587097168,2019-06-20 15:09:03:574
-4.119160949707031,-8.498088806152344,1.0761771850585937,0.03171027990551951,0.03836635170746817,0.023175283456087284,1.3849599361419678,2019-06-20 15:09:03:579
-4.131131774902344,-8.502877136230468,1.0881480102539063,0.03171027990551951,0.03863266781647609,0.023042125401583322,1.3900799751281738,2019-06-20 15:09:03:584
-4.1395113525390625,-8.514847961425781,1.0666005249023438,0.031443963796511584,0.038898983925484014,0.023707915674103134,1.3952000141143799,2019-06-20 15:09:03:589
-4.158664672851563,-8.490906311035156,1.0941334228515625,0.031443963796511584,0.038765825870980056,0.02410738983761502,1.4000639915466309,2019-06-20 15:09:03:594
-4.119160949707031,-8.472950073242187,1.0618121948242187,0.032642386287047236,0.03863266781647609,0.02344159956509521,1.405184030532837,2019-06-20 15:09:03:599
-4.131131774902344,-8.480132568359375,1.0737830200195313,0.033840808777582894,0.03836635170746817,0.023841073728607096,1.410048007965088,2019-06-20 15:09:03:604
-4.140708435058594,-8.482526733398437,1.0941334228515625,0.03290870239605516,0.040763196688539484,0.024506864001126907,1.415168046951294,2019-06-20 15:09:03:609
-4.1383142700195314,-8.470555908203124,1.0761771850585937,0.03330817655956705,0.04049688057953156,0.025705286491662562,1.420032024383545,2019-06-20 15:09:03:614
-4.1371171874999995,-8.469358825683594,1.0654034423828125,0.0327755443415512,0.04102951279754741,0.025305812328150677,1.425152063369751,2019-06-20 15:09:03:619
-4.1383142700195314,-8.507665466308593,1.0306880493164061,0.03344133461407101,0.04116267085205137,0.026504234818686332,1.430016040802002,2019-06-20 15:09:03:624
-4.134723022460937,-8.487315063476562,1.0534326171875,0.034506599050102706,0.04116267085205137,0.025838444546166524,1.435136079788208,2019-06-20 15:09:03:629
-4.145496765136719,-8.471752990722656,1.067797607421875,0.03543870543163044,0.04102951279754741,0.02690370898219822,1.440000057220459,2019-06-20 15:09:03:634
-4.163453002929687,-8.488512145996093,1.1049071655273437,0.035705021540638364,0.04196161917907514,0.02623791870967841,1.445120096206665,2019-06-20 15:09:03:639
-4.151482177734375,-8.493300476074218,1.0701917724609376,0.03437344099559874,0.04289372556060288,0.02623791870967841,1.449984073638916,2019-06-20 15:09:03:644
-4.169438415527344,-8.478935485839843,1.0989217529296875,0.03237607017803931,0.04182846112457118,0.023707915674103134,1.455104112625122,2019-06-20 15:09:03:649
-4.171832580566406,-8.463373413085938,1.08216259765625,0.03410712488659082,0.043426357778618724,0.02344159956509521,1.459968090057373,2019-06-20 15:09:03:654
-4.170635498046875,-8.477738403320313,1.0989217529296875,0.03424028294109478,0.042227935288083066,0.02410738983761502,1.465087890625,2019-06-20 15:09:03:659
-4.176620910644531,-8.458585083007812,1.0785713500976561,0.03330817655956705,0.04182846112457118,0.025705286491662562,1.470207929611206,2019-06-20 15:09:03:664
-4.192182983398437,-8.469358825683594,1.1144838256835938,0.032642386287047236,0.042227935288083066,0.02543897038265464,1.475071907043457,2019-06-20 15:09:03:669
-4.189788818359375,-8.452599670410157,1.0713888549804687,0.03344133461407101,0.04169530307006722,0.025039496219142754,1.480191946029663,2019-06-20 15:09:03:674
-4.174226745605469,-8.440628845214844,1.06300927734375,0.03357449266857497,0.041562145015563254,0.023974231783111057,1.485055923461914,2019-06-20 15:09:03:679
-4.1826063232421875,-8.482526733398437,1.0989217529296875,0.03357449266857497,0.042227935288083066,0.022376335129063514,1.4901759624481201,2019-06-20 15:09:03:684
-4.167044250488281,-8.463373413085938,1.1132867431640625,0.032242912123535354,0.04249425139709099,0.022376335129063514,1.495039939880371,2019-06-20 15:09:03:689
-4.193380065917968,-8.44781134033203,1.06300927734375,0.032242912123535354,0.04276056750609891,0.02117791263852786,1.5001599788665771,2019-06-20 15:09:03:694
-4.164650085449218,-8.44781134033203,1.0713888549804687,0.03250922823254328,0.04182846112457118,0.021843702911047667,1.5050239562988281,2019-06-20 15:09:03:699
-4.192182983398437,-8.451402587890625,1.0833596801757812,0.0327755443415512,0.04116267085205137,0.02197686096555163,1.5101439952850342,2019-06-20 15:09:03:704
-4.188591735839844,-8.462176330566406,1.0606151123046874,0.03357449266857497,0.042361093342587024,0.020911596529519936,1.5150079727172852,2019-06-20 15:09:03:709
-4.190985900878906,-8.451402587890625,1.1216663208007813,0.03330817655956705,0.04169530307006722,0.020911596529519936,1.5201280117034912,2019-06-20 15:09:03:714
-4.180212158203125,-8.452599670410157,1.0953305053710938,0.03437344099559874,0.041428986961059296,0.020778438475015974,1.5249919891357422,2019-06-20 15:09:03:719
-4.170635498046875,-8.460979248046876,1.0905421752929687,0.03330817655956705,0.04276056750609891,0.020778438475015974,1.5301120281219482,2019-06-20 15:09:03:724
-4.1682413330078125,-8.47534423828125,1.0737830200195313,0.03317501850506309,0.04182846112457118,0.020112648202496163,1.5349760055541992,2019-06-20 15:09:03:729
-4.175423828125,-8.472950073242187,1.086950927734375,0.033707650723078936,0.04089635474304345,0.01984633209348824,1.5400960445404053,2019-06-20 15:09:03:734
-4.195774230957031,-8.443023010253906,1.0450530395507813,0.03357449266857497,0.04196161917907514,0.01851475154844862,1.5449600219726562,2019-06-20 15:09:03:739
-4.210139221191406,-8.459782165527344,1.048644287109375,0.03317501850506309,0.04262740945159495,0.01771580322142485,1.5500800609588623,2019-06-20 15:09:03:744
-4.214927551269531,-8.482526733398437,1.0594180297851563,0.03330817655956705,0.042227935288083066,0.017316329057912964,1.5552000999450684,2019-06-20 15:09:03:749
-4.187394653320313,-8.469358825683594,1.0666005249023438,0.03237607017803931,0.043426357778618724,0.017582645166920888,1.5600640773773193,2019-06-20 15:09:03:754
-4.190985900878906,-8.47534423828125,1.0749801025390624,0.03197659601452743,0.04382583194213061,0.017449487112416926,1.5651841163635254,2019-06-20 15:09:03:759
-4.181409240722656,-8.466964660644532,1.0510384521484375,0.03210975406903139,0.042361093342587024,0.018115277384936734,1.5700480937957764,2019-06-20 15:09:03:764
-4.1682413330078125,-8.471752990722656,1.067797607421875,0.0327755443415512,0.040763196688539484,0.01784896127592881,1.5751678943634033,2019-06-20 15:09:03:769
-4.189788818359375,-8.47654132080078,1.1120896606445312,0.03317501850506309,0.04089635474304345,0.016916854894401076,1.5800321102142334,2019-06-20 15:09:03:774
-4.188591735839844,-8.45499383544922,1.0845567626953125,0.03237607017803931,0.04049688057953156,0.01638422267638523,1.5851519107818604,2019-06-20 15:09:03:779
-4.157467590332031,-8.45499383544922,1.0701917724609376,0.03357449266857497,0.04023056447052364,0.016650538785393153,1.5900158882141113,2019-06-20 15:09:03:784
-4.176620910644531,-8.498088806152344,1.0558267822265626,0.03330817655956705,0.04102951279754741,0.016783696839897114,1.5951359272003174,2019-06-20 15:09:03:789
-4.159861755371094,-8.470555908203124,1.0354763793945312,0.03290870239605516,0.04169530307006722,0.01651738073088919,1.5999999046325684,2019-06-20 15:09:03:794
-4.143102600097656,-8.469358825683594,1.0175201416015625,0.032642386287047236,0.04276056750609891,0.016251064621881268,1.6051199436187744,2019-06-20 15:09:03:799
-4.143102600097656,-8.464570495605468,1.0522355346679688,0.03317501850506309,0.04369267388762665,0.015185800185849573,1.6099839210510254,2019-06-20 15:09:03:804
-4.159861755371094,-8.469358825683594,1.0474472045898438,0.033707650723078936,0.04329319972411476,0.014919484076841646,1.6151039600372314,2019-06-20 15:09:03:809
-4.1682413330078125,-8.468161743164062,1.0546296997070312,0.03250922823254328,0.042361093342587024,0.015452116294857496,1.6199679374694824,2019-06-20 15:09:03:814
-4.176620910644531,-8.468161743164062,1.067797607421875,0.03357449266857497,0.04129582890655533,0.016117906567377306,1.6250879764556885,2019-06-20 15:09:03:819
-4.183803405761719,-8.470555908203124,1.0713888549804687,0.03477291515911063,0.042227935288083066,0.014786326022337684,1.6302080154418945,2019-06-20 15:09:03:824
-4.188591735839844,-8.477738403320313,1.0809655151367188,0.03397396683208686,0.04129582890655533,0.013854219640809953,1.6350719928741455,2019-06-20 15:09:03:829
-4.198168395996094,-8.466964660644532,1.0606151123046874,0.03477291515911063,0.041562145015563254,0.01358790353180203,1.6401920318603516,2019-06-20 15:09:03:834
-4.183803405761719,-8.478935485839843,1.0378705444335938,0.03397396683208686,0.04182846112457118,0.012522639095770333,1.6450560092926025,2019-06-20 15:09:03:839
-4.174226745605469,-8.472950073242187,1.02470263671875,0.03344133461407101,0.0420947772335791,0.012655797150274295,1.6501760482788086,2019-06-20 15:09:03:844
-4.171832580566406,-8.45619091796875,1.0318851318359374,0.032242912123535354,0.042227935288083066,0.013321587422794106,1.6550400257110596,2019-06-20 15:09:03:849
-4.205350891113281,-8.453796752929687,1.0857538452148436,0.03290870239605516,0.0420947772335791,0.013188429368290141,1.6601600646972656,2019-06-20 15:09:03:854
-4.214927551269531,-8.4466142578125,1.0845567626953125,0.033041860450559124,0.04089635474304345,0.01305527131378618,1.6650240421295166,2019-06-20 15:09:03:859
-4.188591735839844,-8.440628845214844,1.106104248046875,0.03210975406903139,0.04196161917907514,0.01225632298676241,1.6701440811157227,2019-06-20 15:09:03:864
-4.201759643554688,-8.466964660644532,1.0797684326171875,0.03330817655956705,0.04182846112457118,0.010658426332714866,1.6750080585479736,2019-06-20 15:09:03:869
-4.201759643554688,-8.45499383544922,1.0450530395507813,0.03290870239605516,0.0403637225250276,0.010525268278210905,1.6801280975341797,2019-06-20 15:09:03:874
-4.200562561035156,-8.439431762695312,1.08216259765625,0.0327755443415512,0.03983109030701175,0.009992636060195056,1.6849920749664307,2019-06-20 15:09:03:879
-4.201759643554688,-8.432249267578126,1.0881480102539063,0.03171027990551951,0.03943161614349987,0.009726319951187133,1.6901121139526367,2019-06-20 15:09:03:884
-4.206547973632812,-8.422672607421875,1.1180750732421876,0.032242912123535354,0.038898983925484014,0.009593161896683172,1.6949760913848877,2019-06-20 15:09:03:889
-4.188591735839844,-8.457388000488281,1.0917392578125,0.032242912123535354,0.03836635170746817,0.009593161896683172,1.7000958919525146,2019-06-20 15:09:03:894
-4.190985900878906,-8.489709228515625,1.0450530395507813,0.031843437960023466,0.03823319365296421,0.007995265242635628,1.7049601078033447,2019-06-20 15:09:03:899
-4.155073425292969,-8.465767578125,1.0701917724609376,0.031843437960023466,0.038898983925484014,0.0087942135696594,1.7100799083709717,2019-06-20 15:09:03:904
-4.16584716796875,-8.482526733398437,1.0761771850585937,0.03171027990551951,0.03903214197998798,0.007595791079123743,1.7151999473571777,2019-06-20 15:09:03:909
-4.192182983398437,-8.462176330566406,1.0953305053710938,0.032642386287047236,0.03823319365296421,0.006930000806603933,1.7200639247894287,2019-06-20 15:09:03:914
-4.18500048828125,-8.464570495605468,1.0809655151367188,0.03237607017803931,0.03690161310792459,0.007063158861107895,1.7251839637756348,2019-06-20 15:09:03:919
-4.179015075683593,-8.480132568359375,1.0809655151367188,0.031177647687503654,0.03836635170746817,0.00666368469759601,1.7300479412078857,2019-06-20 15:09:03:924
-4.176620910644531,-8.478935485839843,1.1120896606445312,0.03077817352399177,0.0392984580889959,0.005598420261564315,1.7351679801940918,2019-06-20 15:09:03:929
-4.1969713134765625,-8.468161743164062,1.106104248046875,0.03077817352399177,0.03903214197998798,0.005731578316068277,1.7400319576263428,2019-06-20 15:09:03:934
-4.192182983398437,-8.477738403320313,1.0510384521484375,0.03157712185101554,0.03823319365296421,0.005731578316068277,1.7451519966125488,2019-06-20 15:09:03:939
-4.175423828125,-8.450205505371093,1.0725859375,0.031843437960023466,0.03770056143494836,0.005065788043548467,1.7500159740447998,2019-06-20 15:09:03:944
-4.159861755371094,-8.465767578125,1.0689946899414062,0.03131080574200762,0.037301087271436474,0.005065788043548467,1.7551360130310059,2019-06-20 15:09:03:949
-4.170635498046875,-8.478935485839843,1.10131591796875,0.031443963796511584,0.03783371948945232,0.003601049444004886,1.7599999904632568,2019-06-20 15:09:03:954
-4.1383142700195314,-8.471752990722656,1.0917392578125,0.031177647687503654,0.03783371948945232,0.004000523607516772,1.765120029449463,2019-06-20 15:09:03:959
-4.1562705078125,-8.459782165527344,1.0761771850585937,0.031443963796511584,0.0375674033804444,0.0037342074985088477,1.7699840068817139,2019-06-20 15:09:03:964
-4.169438415527344,-8.481329650878907,1.0785713500976561,0.031177647687503654,0.03783371948945232,0.0028021011169811144,1.77510404586792,2019-06-20 15:09:03:969
-4.1562705078125,-8.482526733398437,1.0809655151367188,0.031443963796511584,0.03823319365296421,0.004000523607516772,1.779968023300171,2019-06-20 15:09:03:974
-4.1383142700195314,-8.483723815917969,1.106104248046875,0.031044489632999692,0.0375674033804444,0.004932629989044505,1.785088062286377,2019-06-20 15:09:03:979
-4.134723022460937,-8.483723815917969,1.0941334228515625,0.031843437960023466,0.037966877543956286,0.004399997771028657,1.790208101272583,2019-06-20 15:09:03:984
-4.132328857421875,-8.466964660644532,1.0366734619140625,0.031443963796511584,0.037966877543956286,0.0034678913895009236,1.795072078704834,2019-06-20 15:09:03:989
-4.1383142700195314,-8.492103393554688,1.0749801025390624,0.031443963796511584,0.03783371948945232,0.005065788043548467,1.80019211769104,2019-06-20 15:09:03:994
-4.155073425292969,-8.481329650878907,1.0857538452148436,0.03157712185101554,0.03703477116242855,0.0041336816620207335,1.805056095123291,2019-06-20 15:09:03:999
-4.155073425292969,-8.474147155761719,1.0893450927734374,0.030511857414983846,0.037167929216932516,0.004666313880036581,1.810175895690918,2019-06-20 15:09:04:004
-4.152679260253906,-8.462176330566406,1.0749801025390624,0.03131080574200762,0.037167929216932516,0.003601049444004886,1.815040111541748,2019-06-20 15:09:04:009
-4.14669384765625,-8.483723815917969,1.0701917724609376,0.031443963796511584,0.038100035598460244,0.0038673655530128094,1.820159912109375,2019-06-20 15:09:04:014
-4.1179638671875,-8.45619091796875,1.0797684326171875,0.031443963796511584,0.03916530003449194,0.004666313880036581,1.825023889541626,2019-06-20 15:09:04:019
-4.119160949707031,-8.506468383789063,1.0474472045898438,0.031044489632999692,0.03916530003449194,0.0038673655530128094,1.830143928527832,2019-06-20 15:09:04:024
-4.163453002929687,-8.518439208984375,1.0713888549804687,0.032642386287047236,0.03770056143494836,0.004932629989044505,1.835007905960083,2019-06-20 15:09:04:029
-4.1383142700195314,-8.474147155761719,1.0989217529296875,0.032642386287047236,0.03783371948945232,0.005465262207060353,1.840127944946289,2019-06-20 15:09:04:034
-4.167044250488281,-8.486117980957031,1.110892578125,0.03250922823254328,0.037966877543956286,0.0059978944250762,1.84499192237854,2019-06-20 15:09:04:039
-4.140708435058594,-8.47534423828125,1.0666005249023438,0.0327755443415512,0.03823319365296421,0.005864736370572238,1.850111961364746,2019-06-20 15:09:04:044
-4.1395113525390625,-8.489709228515625,1.1049071655273437,0.032242912123535354,0.038898983925484014,0.006530526643092048,1.854975938796997,2019-06-20 15:09:04:049
-4.131131774902344,-8.482526733398437,1.04385595703125,0.032642386287047236,0.03823319365296421,0.007329474970115818,1.8600959777832031,2019-06-20 15:09:04:054
-4.126343444824219,-8.469358825683594,1.0713888549804687,0.03250922823254328,0.03916530003449194,0.006397368588588085,1.864959955215454,2019-06-20 15:09:04:059
-4.120358032226562,-8.469358825683594,1.106104248046875,0.03237607017803931,0.03943161614349987,0.005465262207060353,1.8700799942016602,2019-06-20 15:09:04:064
-4.128737609863281,-8.487315063476562,1.0725859375,0.031843437960023466,0.038898983925484014,0.005731578316068277,1.8752000331878662,2019-06-20 15:09:04:069
-4.12754052734375,-8.498088806152344,1.0606151123046874,0.03210975406903139,0.03943161614349987,0.005731578316068277,1.8800640106201172,2019-06-20 15:09:04:074
-4.140708435058594,-8.474147155761719,1.0618121948242187,0.032242912123535354,0.038898983925484014,0.007595791079123743,1.8851840496063232,2019-06-20 15:09:04:079
-4.1371171874999995,-8.460979248046876,1.115680908203125,0.032642386287047236,0.03916530003449194,0.008261581351643552,1.8900480270385742,2019-06-20 15:09:04:084
-4.116766784667969,-8.472950073242187,1.0989217529296875,0.0327755443415512,0.0392984580889959,0.006930000806603933,1.8951680660247803,2019-06-20 15:09:04:089
-4.1538763427734375,-8.486117980957031,1.0929363403320311,0.03290870239605516,0.03969793225250779,0.006530526643092048,1.9000320434570312,2019-06-20 15:09:04:094
-4.169438415527344,-8.483723815917969,1.0666005249023438,0.03131080574200762,0.03903214197998798,0.007462633024619782,1.9051520824432373,2019-06-20 15:09:04:099
-4.1562705078125,-8.487315063476562,1.0917392578125,0.03250922823254328,0.03943161614349987,0.007462633024619782,1.9100160598754883,2019-06-20 15:09:04:104
-4.143102600097656,-8.511256713867187,1.0797684326171875,0.0327755443415512,0.03983109030701175,0.007462633024619782,1.9151360988616943,2019-06-20 15:09:04:109
-4.143102600097656,-8.511256713867187,1.0797684326171875,0.0327755443415512,0.03983109030701175,0.007462633024619782,1.917952060699463,2019-06-20 15:09:04:112
-4.152679260253906,-8.487315063476562,1.0666005249023438,0.03317501850506309,0.038765825870980056,0.00812842329713959,1.9251201152801514,2019-06-20 15:09:04:119
-4.152679260253906,-8.487315063476562,1.0666005249023438,0.03317501850506309,0.038765825870980056,0.00812842329713959,1.92793607711792,2019-06-20 15:09:04:122
-4.144299682617188,-8.502877136230468,1.0666005249023438,0.03344133461407101,0.03916530003449194,0.008927371624163362,1.9351038932800293,2019-06-20 15:09:04:129
-4.144299682617188,-8.502877136230468,1.0666005249023438,0.03344133461407101,0.03916530003449194,0.008927371624163362,1.937920093536377,2019-06-20 15:09:04:132
-4.097613464355469,-8.502877136230468,1.0845567626953125,0.03237607017803931,0.04023056447052364,0.01145737465973864,1.9450879096984863,2019-06-20 15:09:04:139
-4.1371171874999995,-8.482526733398437,1.0893450927734374,0.03290870239605516,0.0392984580889959,0.01012579411469902,1.9502079486846924,2019-06-20 15:09:04:144
-4.098810546875,-8.486117980957031,1.0713888549804687,0.033041860450559124,0.03863266781647609,0.011191058550730713,1.9550719261169434,2019-06-20 15:09:04:149
-4.145496765136719,-8.519636291503906,1.058220947265625,0.03237607017803931,0.04009740641601968,0.011590532714242601,1.9601919651031494,2019-06-20 15:09:04:154
-4.1395113525390625,-8.524424621582032,1.0857538452148436,0.03197659601452743,0.04023056447052364,0.011723690768746563,1.9650559425354004,2019-06-20 15:09:04:159
-4.115569702148437,-8.522030456542968,1.1288488159179688,0.032642386287047236,0.040630038634035526,0.01305527131378618,1.9701759815216064,2019-06-20 15:09:04:164
-4.132328857421875,-8.51365087890625,1.1037100830078124,0.03330817655956705,0.04009740641601968,0.01305527131378618,1.9750399589538574,2019-06-20 15:09:04:169
-4.125146362304688,-8.50527130126953,1.1084984130859374,0.0327755443415512,0.04049688057953156,0.012522639095770333,1.9801599979400635,2019-06-20 15:09:04:174
-4.125146362304688,-8.50527130126953,1.1084984130859374,0.033041860450559124,0.03969793225250779,0.01358790353180203,1.9850239753723145,2019-06-20 15:09:04:179
-4.1095842895507815,-8.480132568359375,1.0785713500976561,0.03237607017803931,0.04009740641601968,0.013454745477298068,1.9901440143585205,2019-06-20 15:09:04:184
-4.131131774902344,-8.483723815917969,1.0797684326171875,0.0327755443415512,0.03903214197998798,0.012922113259282218,1.9950079917907715,2019-06-20 15:09:04:189
-4.151482177734375,-8.488512145996093,1.0797684326171875,0.03344133461407101,0.03903214197998798,0.013321587422794106,2.0001280307769775,2019-06-20 15:09:04:194
-4.152679260253906,-8.469358825683594,1.06300927734375,0.0327755443415512,0.03969793225250779,0.013188429368290141,2.0049920082092285,2019-06-20 15:09:04:199
-4.1383142700195314,-8.495694641113282,1.0845567626953125,0.03237607017803931,0.03943161614349987,0.013721061586305991,2.0101120471954346,2019-06-20 15:09:04:204
-4.152679260253906,-8.495694641113282,1.067797607421875,0.0327755443415512,0.038100035598460244,0.013854219640809953,2.0149760246276855,2019-06-20 15:09:04:209
-4.143102600097656,-8.4849208984375,1.0929363403320311,0.033707650723078936,0.03783371948945232,0.013854219640809953,2.0200960636138916,2019-06-20 15:09:04:214
-4.131131774902344,-8.478935485839843,1.0809655151367188,0.0327755443415512,0.03743424532594044,0.013854219640809953,2.0249600410461426,2019-06-20 15:09:04:219
-4.129934692382812,-8.47534423828125,1.0654034423828125,0.03250922823254328,0.03823319365296421,0.01305527131378618,2.0300800800323486,2019-06-20 15:09:04:224
-4.103598876953125,-8.500482971191406,1.0857538452148436,0.03250922823254328,0.03863266781647609,0.014253693804321838,2.0352001190185547,2019-06-20 15:09:04:229
-4.1179638671875,-8.471752990722656,1.110892578125,0.03237607017803931,0.038898983925484014,0.014919484076841646,2.0400640964508057,2019-06-20 15:09:04:234
-4.145496765136719,-8.481329650878907,1.0749801025390624,0.030645015469487807,0.03836635170746817,0.014786326022337684,2.0451838970184326,2019-06-20 15:09:04:239
-4.120358032226562,-8.468161743164062,1.0474472045898438,0.030645015469487807,0.037966877543956286,0.015185800185849573,2.0500481128692627,2019-06-20 15:09:04:244
-4.131131774902344,-8.490906311035156,1.0737830200195313,0.03077817352399177,0.03863266781647609,0.01571843240386542,2.0551679134368896,2019-06-20 15:09:04:249
-4.126343444824219,-8.499285888671874,1.0809655151367188,0.030645015469487807,0.03836635170746817,0.016251064621881268,2.0600318908691406,2019-06-20 15:09:04:254
-4.114372619628906,-8.477738403320313,1.0857538452148436,0.030645015469487807,0.037301087271436474,0.016783696839897114,2.0651519298553467,2019-06-20 15:09:04:259
-4.143102600097656,-8.480132568359375,1.0809655151367188,0.029979225196968,0.038100035598460244,0.016650538785393153,2.0700159072875977,2019-06-20 15:09:04:264
-4.1562705078125,-8.492103393554688,1.077374267578125,0.030245541305975922,0.0375674033804444,0.016117906567377306,2.0751359462738037,2019-06-20 15:09:04:269
-4.131131774902344,-8.499285888671874,1.1132867431640625,0.03077817352399177,0.03849950976197213,0.016117906567377306,2.0799999237060547,2019-06-20 15:09:04:274
-4.1371171874999995,-8.462176330566406,1.0701917724609376,0.030645015469487807,0.03783371948945232,0.016916854894401076,2.0851199626922607,2019-06-20 15:09:04:279
-4.159861755371094,-8.478935485839843,1.08216259765625,0.029047118815440268,0.037966877543956286,0.018248435439440696,2.0899839401245117,2019-06-20 15:09:04:284
-4.111978454589844,-8.499285888671874,1.106104248046875,0.029047118815440268,0.03583634867189289,0.018248435439440696,2.0951039791107178,2019-06-20 15:09:04:289
-4.143102600097656,-8.488512145996093,1.0713888549804687,0.029712909087960076,0.03557003256288497,0.01864790960295258,2.100224018096924,2019-06-20 15:09:04:294
-4.133525939941406,-8.498088806152344,1.0929363403320311,0.029846067142464038,0.036368980889908746,0.018381593493944658,2.105087995529175,2019-06-20 15:09:04:299
-4.1371171874999995,-8.490906311035156,1.110892578125,0.02931343492444819,0.036502138944412704,0.018115277384936734,2.110208034515381,2019-06-20 15:09:04:304
-4.147890930175781,-8.486117980957031,1.0642063598632812,0.028913960760936306,0.03690161310792459,0.019446857929976354,2.115072011947632,2019-06-20 15:09:04:309
-4.119160949707031,-8.50407421875,1.0594180297851563,0.02918027686994423,0.036502138944412704,0.020378964311504086,2.120192050933838,2019-06-20 15:09:04:314
-4.1239492797851565,-8.49449755859375,1.0402647094726563,0.029047118815440268,0.035303716453877046,0.020112648202496163,2.125056028366089,2019-06-20 15:09:04:319
-4.1371171874999995,-8.511256713867187,1.0737830200195313,0.028913960760936306,0.03570319061738893,0.02197686096555163,2.130176067352295,2019-06-20 15:09:04:324
-4.098810546875,-8.518439208984375,1.077374267578125,0.028780802706432344,0.036102664780900816,0.02211001902005559,2.135040044784546,2019-06-20 15:09:04:329
-4.098810546875,-8.518439208984375,1.106104248046875,0.028913960760936306,0.035436874508381004,0.021710544856543706,2.140160083770752,2019-06-20 15:09:04:334
-4.100007629394531,-8.483723815917969,1.0797684326171875,0.028647644651928383,0.03690161310792459,0.02344159956509521,2.145024061203003,2019-06-20 15:09:04:339
-4.103598876953125,-8.460979248046876,1.0785713500976561,0.028115012433912536,0.03623582283540478,0.023574757619599172,2.150144100189209,2019-06-20 15:09:04:344
-4.111978454589844,-8.528015869140624,1.0223084716796875,0.028115012433912536,0.03596950672639686,0.023574757619599172,2.15500807762146,2019-06-20 15:09:04:349
-4.077263061523437,-8.507665466308593,1.0510384521484375,0.029579751033456114,0.03517055839937308,0.0255721284371586,2.160128116607666,2019-06-20 15:09:04:354
-4.0952192993164065,-8.511256713867187,1.0342792968749999,0.030378699360479884,0.037301087271436474,0.0255721284371586,2.164992094039917,2019-06-20 15:09:04:359
-4.088036804199219,-8.539986694335937,1.0270968017578124,0.029846067142464038,0.03623582283540478,0.02756949925471803,2.170111894607544,2019-06-20 15:09:04:364
-4.101204711914062,-8.511256713867187,1.0905421752929687,0.02931343492444819,0.03663529699891667,0.029433712017773495,2.174976110458374,2019-06-20 15:09:04:369
-4.0940222167968745,-8.517242126464843,1.0618121948242187,0.029446592978952153,0.03676845505342063,0.030099502290293303,2.180095911026001,2019-06-20 15:09:04:374
-4.07008056640625,-8.519636291503906,1.0474472045898438,0.03011238325147196,0.03517055839937308,0.030765292562813115,2.184959888458252,2019-06-20 15:09:04:379
-4.072474731445312,-8.488512145996093,1.029490966796875,0.029446592978952153,0.03623582283540478,0.03209687310785273,2.190079927444458,2019-06-20 15:09:04:384
-4.059306823730469,-8.519636291503906,1.0330822143554688,0.03077817352399177,0.03836635170746817,0.03436056003442009,2.195199966430664,2019-06-20 15:09:04:389
-4.0521243286132815,-8.549563354492188,1.0546296997070312,0.03131080574200762,0.038765825870980056,0.035026352387534494,2.200063943862915,2019-06-20 15:09:04:394
-4.0808543090820315,-8.530410034179686,1.0965275878906249,0.030511857414983846,0.03943161614349987,0.03515951044203846,2.205183982849121,2019-06-20 15:09:04:399
-4.077263061523437,-8.518439208984375,1.048644287109375,0.031177647687503654,0.04009740641601968,0.03715688125959789,2.210047960281372,2019-06-20 15:09:04:404
-4.0521243286132815,-8.520833374023438,1.0270968017578124,0.03197659601452743,0.0403637225250276,0.03822214569562958,2.215167999267578,2019-06-20 15:09:04:409
-4.056912658691406,-8.518439208984375,1.0510384521484375,0.032242912123535354,0.04116267085205137,0.039154252077157316,2.220031976699829,2019-06-20 15:09:04:414
-4.08923388671875,-8.520833374023438,1.0211113891601562,0.032642386287047236,0.04196161917907514,0.04008635845868505,2.225152015686035,2019-06-20 15:09:04:419
-4.092825134277343,-8.502877136230468,1.048644287109375,0.03317501850506309,0.04329319972411476,0.04168425511273259,2.230015993118286,2019-06-20 15:09:04:424
-4.114372619628906,-8.490906311035156,1.0510384521484375,0.03410712488659082,0.0431600416696108,0.042749519548764284,2.235136032104492,2019-06-20 15:09:04:429
-4.1371171874999995,-8.496891723632812,1.02470263671875,0.03410712488659082,0.043426357778618724,0.042616361494260326,2.240000009536743,2019-06-20 15:09:04:434
-4.120358032226562,-8.489709228515625,1.0402647094726563,0.03517238932262252,0.04382583194213061,0.04128478094922071,2.245120048522949,2019-06-20 15:09:04:439
-4.151482177734375,-8.477738403320313,1.0953305053710938,0.034639757104606664,0.04475793832365834,0.04354846787578806,2.2499840259552,2019-06-20 15:09:04:444
-4.147890930175781,-8.44781134033203,1.110892578125,0.03344133461407101,0.04435846416014646,0.04328215176678014,2.2551040649414062,2019-06-20 15:09:04:449
-4.1682413330078125,-8.474147155761719,1.04385595703125,0.033041860450559124,0.04435846416014646,0.04421425814830787,2.2599680423736572,2019-06-20 15:09:04:454
-4.199365478515625,-8.492103393554688,1.0223084716796875,0.03210975406903139,0.04329319972411476,0.043015835657772214,2.2650880813598633,2019-06-20 15:09:04:459
-4.159861755371094,-8.468161743164062,1.0725859375,0.03197659601452743,0.04129582890655533,0.04368162593029202,2.2702078819274902,2019-06-20 15:09:04:464
-4.1538763427734375,-8.440628845214844,1.106104248046875,0.03197659601452743,0.03969793225250779,0.04354846787578806,2.2750720977783203,2019-06-20 15:09:04:469
-4.230489624023438,-8.414293029785156,1.0019580688476561,0.03330817655956705,0.0420947772335791,0.043015835657772214,2.2801918983459473,2019-06-20 15:09:04:474
-4.107190124511718,-8.548366271972656,0.9361185302734375,0.03437344099559874,0.04382583194213061,0.04434741620281183,2.2850561141967773,2019-06-20 15:09:04:479
-4.1239492797851565,-8.529212951660156,0.9217535400390625,0.03543870543163044,0.045024254432666264,0.043814783984795984,2.2901759147644043,2019-06-20 15:09:04:484
-4.135920104980468,-8.524424621582032,1.0558267822265626,0.041430817884308725,0.04888583801328116,0.04474689036632371,2.2950398921966553,2019-06-20 15:09:04:489
-4.091628051757812,-8.439431762695312,1.1839146118164061,0.03863449873972553,0.04728794135923362,0.04488004842082768,2.3001599311828613,2019-06-20 15:09:04:494
-4.243657531738281,-8.434643432617188,1.000760986328125,0.039167130957741374,0.052214789375880206,0.04434741620281183,2.3050239086151123,2019-06-20 15:09:04:499
-4.201759643554688,-8.40950469970703,1.1300458984375,0.03690344403117402,0.04662215108671381,0.04408110009380391,2.3101439476013184,2019-06-20 15:09:04:504
-4.244854614257813,-8.416687194824219,1.1527904663085937,0.03770239235819779,0.04648899303220985,0.04368162593029202,2.3150079250335693,2019-06-20 15:09:04:509
-4.2113363037109375,-8.45619091796875,1.1037100830078124,0.03543870543163044,0.049951102449312855,0.04421425814830787,2.3201279640197754,2019-06-20 15:09:04:514
-4.110781372070313,-8.525621704101562,0.9935784912109374,0.03477291515911063,0.0487526799587772,0.04448057425731579,2.3249919414520264,2019-06-20 15:09:04:519
-4.155073425292969,-8.50407421875,1.0187172241210938,0.04023239539377307,0.054478476302447565,0.045412680638843524,2.3301119804382324,2019-06-20 15:09:04:524
-4.176620910644531,-8.4466142578125,1.115680908203125,0.04009923733926911,0.05301373770290398,0.04488004842082768,2.3349759578704834,2019-06-20 15:09:04:529
-4.2257012939453125,-8.464570495605468,1.08216259765625,0.039966079284765144,0.05354636992091983,0.04448057425731579,2.3400959968566895,2019-06-20 15:09:04:534
-4.29992041015625,-8.399928039550781,1.1037100830078124,0.031177647687503654,0.04888583801328116,0.04328215176678014,2.3449599742889404,2019-06-20 15:09:04:539
-4.272387512207031,-8.450205505371093,0.9828047485351562,0.03290870239605516,0.046755309141217775,0.04314899371227617,2.3500800132751465,2019-06-20 15:09:04:544
-4.238869201660156,-8.441825927734374,1.06300927734375,0.03424028294109478,0.04822004774076135,0.04288267760326825,2.3552000522613525,2019-06-20 15:09:04:549
-4.169438415527344,-8.50527130126953,1.0498413696289062,0.03623765375865421,0.05128268299435247,0.04155109705822863,2.3600640296936035,2019-06-20 15:09:04:554
-4.195774230957031,-8.443023010253906,1.0414617919921876,0.0366371279221661,0.05141584104885644,0.04221688733074844,2.3651840686798096,2019-06-20 15:09:04:559
-4.272387512207031,-8.395139709472655,1.1228634033203124,0.03637081181315817,0.049951102449312855,0.040352674567692974,2.3700480461120605,2019-06-20 15:09:04:564
-4.256825439453125,-8.367606811523437,1.115680908203125,0.03690344403117402,0.04782057357724947,0.039287410131661274,2.3751680850982666,2019-06-20 15:09:04:569
-4.316679565429688,-8.355635986328124,1.1025130004882813,0.03344133461407101,0.0448910963781623,0.037689513477613734,2.3800320625305176,2019-06-20 15:09:04:574
-4.2556283569335935,-8.42626385498047,1.0618121948242187,0.03237607017803931,0.04582320275969004,0.03742319736860581,2.3851521015167236,2019-06-20 15:09:04:579
-4.210139221191406,-8.429855102539062,1.0618121948242187,0.032242912123535354,0.04515741248717022,0.03635793293257412,2.3900160789489746,2019-06-20 15:09:04:584
-4.229292541503906,-8.420278442382813,1.0510384521484375,0.03637081181315817,0.04888583801328116,0.035692142660054306,2.3951361179351807,2019-06-20 15:09:04:589
-4.244854614257813,-8.39035137939453,1.039067626953125,0.03597133764964629,0.04848636384976927,0.03476003419793197,2.4000000953674316,2019-06-20 15:09:04:594
-4.311891235351562,-8.359227233886719,1.1132867431640625,0.03357449266857497,0.04662215108671381,0.031164766726325004,2.4051198959350586,2019-06-20 15:09:04:599
-4.321467895507812,-8.342468078613281,1.0989217529296875,0.03290870239605516,0.04382583194213061,0.03143108283533293,2.4099841117858887,2019-06-20 15:09:04:604
-4.2987233276367185,-8.389154296875,1.1144838256835938,0.03171027990551951,0.041562145015563254,0.02890107979975765,2.4151039123535156,2019-06-20 15:09:04:609
-4.3130883178710935,-8.410701782226562,1.0929363403320311,0.031843437960023466,0.04262740945159495,0.02756949925471803,2.4199678897857666,2019-06-20 15:09:04:614
-4.278372924804687,-8.385563049316406,1.0318851318359374,0.03357449266857497,0.043026883615106835,0.025971602600670485,2.4250879287719727,2019-06-20 15:09:04:619
-4.260416687011719,-8.37957763671875,1.1276517333984375,0.033041860450559124,0.04329319972411476,0.025838444546166524,2.4302079677581787,2019-06-20 15:09:04:624
-4.2699933471679685,-8.374789306640626,1.0785713500976561,0.03317501850506309,0.0420947772335791,0.02410738983761502,2.4350719451904297,2019-06-20 15:09:04:629
-4.277175842285156,-8.381971801757812,1.0306880493164061,0.032242912123535354,0.04049688057953156,0.022243177074559552,2.4401919841766357,2019-06-20 15:09:04:634
-4.303511657714844,-8.383168884277344,1.0151259765625,0.029979225196968,0.03783371948945232,0.020778438475015974,2.4450559616088867,2019-06-20 15:09:04:639
-4.259219604492188,-8.40950469970703,1.0606151123046874,0.02851448659742442,0.03823319365296421,0.020778438475015974,2.4501760005950928,2019-06-20 15:09:04:644
-4.2328837890625,-8.4274609375,1.0797684326171875,0.027981854379408574,0.03863266781647609,0.019313699875472393,2.4550399780273438,2019-06-20 15:09:04:649
-4.253234191894531,-8.433446350097656,1.0570238647460937,0.029712909087960076,0.03703477116242855,0.01904738376646447,2.46016001701355,2019-06-20 15:09:04:654
-4.265205017089843,-8.438234680175782,1.0642063598632812,0.029979225196968,0.037167929216932516,0.018914225711960504,2.465023994445801,2019-06-20 15:09:04:659
-4.250840026855468,-8.463373413085938,1.0570238647460937,0.02931343492444819,0.034504768126853276,0.017982119330432773,2.470144033432007,2019-06-20 15:09:04:664
-4.236475036621093,-8.428658020019531,1.08216259765625,0.02838132854292046,0.03317318758181366,0.01784896127592881,2.475008010864258,2019-06-20 15:09:04:669
-4.217321716308594,-8.440628845214844,1.0749801025390624,0.02731606410688876,0.03157529092776611,0.01651738073088919,2.480128049850464,2019-06-20 15:09:04:674
-4.24246044921875,-8.445417175292969,1.0450530395507813,0.02651711577986499,0.031175816764254228,0.017449487112416926,2.484992027282715,2019-06-20 15:09:04:679
-4.217321716308594,-8.43703759765625,1.029490966796875,0.026783431888872913,0.03170844898227007,0.015984748512873345,2.490112066268921,2019-06-20 15:09:04:684
-4.2328837890625,-8.4466142578125,1.0534326171875,0.027182906052384798,0.030776342600742343,0.014520009913329761,2.494976043701172,2019-06-20 15:09:04:689
-4.266402099609375,-8.434643432617188,1.0797684326171875,0.027981854379408574,0.02984423621921461,0.015052642131345608,2.500096082687378,2019-06-20 15:09:04:694
-4.2328837890625,-8.449008422851563,1.0749801025390624,0.026916589943376874,0.02971107816471065,0.0143868518588258,2.504960060119629,2019-06-20 15:09:04:699
-4.230489624023438,-8.466964660644532,1.0402647094726563,0.026117641616353104,0.02931160400119876,0.015052642131345608,2.510080099105835,2019-06-20 15:09:04:704
-4.205350891113281,-8.440628845214844,1.0223084716796875,0.026117641616353104,0.0291784459466948,0.015185800185849573,2.515199899673462,2019-06-20 15:09:04:709
-4.193380065917968,-8.449008422851563,1.010337646484375,0.027049747997880836,0.02798002345615914,0.016251064621881268,2.520064115524292,2019-06-20 15:09:04:714
-4.231686706542969,-8.468161743164062,1.0306880493164061,0.026383957725361028,0.02798002345615914,0.015585274349361458,2.525183916091919,2019-06-20 15:09:04:719
-4.246051696777344,-8.4466142578125,1.0570238647460937,0.026383957725361028,0.02798002345615914,0.015585274349361458,2.53004789352417,2019-06-20 15:09:04:724
-4.236475036621093,-8.438234680175782,1.0701917724609376,0.025984483561849143,0.0291784459466948,0.015851590458369383,2.535167932510376,2019-06-20 15:09:04:729
-4.210139221191406,-8.449008422851563,1.048644287109375,0.027582380215896683,0.029045287892190838,0.0143868518588258,2.540031909942627,2019-06-20 15:09:04:734
-4.2257012939453125,-8.457388000488281,1.0378705444335938,0.027582380215896683,0.02704791707463141,0.015052642131345608,2.545151948928833,2019-06-20 15:09:04:739
-4.224504211425781,-8.47534423828125,1.0187172241210938,0.027582380215896683,0.026648442911119525,0.015452116294857496,2.550015926361084,2019-06-20 15:09:04:744
-4.212533386230469,-8.443023010253906,0.9947755737304688,0.027582380215896683,0.026648442911119525,0.015185800185849573,2.55513596534729,2019-06-20 15:09:04:749
-4.200562561035156,-8.434643432617188,1.0689946899414062,0.02744922216139272,0.026781600965623487,0.015984748512873345,2.559999942779541,2019-06-20 15:09:04:754
-4.222110046386718,-8.449008422851563,1.0450530395507813,0.027182906052384798,0.02624896874760764,0.014919484076841646,2.565119981765747,2019-06-20 15:09:04:759
-4.189788818359375,-8.450205505371093,1.0725859375,0.026916589943376874,0.0263821268021116,0.015052642131345608,2.569983959197998,2019-06-20 15:09:04:764
-4.18500048828125,-8.443023010253906,1.0498413696289062,0.026383957725361028,0.02518370431157594,0.015585274349361458,2.575103998184204,2019-06-20 15:09:04:769
-4.190985900878906,-8.486117980957031,1.0498413696289062,0.026783431888872913,0.02571633652959179,0.01651738073088919,2.579967975616455,2019-06-20 15:09:04:774
-4.186197570800781,-8.466964660644532,1.04385595703125,0.026916589943376874,0.02624896874760764,0.016783696839897114,2.585088014602661,2019-06-20 15:09:04:779
-4.201759643554688,-8.478935485839843,1.0522355346679688,0.026117641616353104,0.02571633652959179,0.017449487112416926,2.590208053588867,2019-06-20 15:09:04:784
-4.208942138671875,-8.459782165527344,1.0522355346679688,0.026383957725361028,0.02624896874760764,0.017449487112416926,2.595072031021118,2019-06-20 15:09:04:789
-4.216124633789063,-8.460979248046876,1.0797684326171875,0.027182906052384798,0.02518370431157594,0.018248435439440696,2.600192070007324,2019-06-20 15:09:04:794
-4.208942138671875,-8.489709228515625,1.0534326171875,0.02731606410688876,0.0263821268021116,0.01784896127592881,2.605056047439575,2019-06-20 15:09:04:799
-4.200562561035156,-8.47534423828125,1.04385595703125,0.026783431888872913,0.02624896874760764,0.017982119330432773,2.6101760864257812,2019-06-20 15:09:04:804
-4.208942138671875,-8.481329650878907,1.04385595703125,0.027848696324904613,0.02571633652959179,0.018914225711960504,2.6150400638580322,2019-06-20 15:09:04:809
-4.212533386230469,-8.465767578125,1.0893450927734374,0.027715538270400644,0.02451791403905613,0.01904738376646447,2.6201601028442383,2019-06-20 15:09:04:814
-4.210139221191406,-8.462176330566406,1.1049071655273437,0.027715538270400644,0.025450020420583867,0.020512122366008047,2.6250240802764893,2019-06-20 15:09:04:819
-4.22330712890625,-8.44781134033203,1.1456079711914062,0.027848696324904613,0.025050546257071978,0.0199794901479922,2.6301441192626953,2019-06-20 15:09:04:824
-4.228095458984375,-8.41788427734375,1.1144838256835938,0.02571816745284122,0.02438475598455217,0.020778438475015974,2.6350080966949463,2019-06-20 15:09:04:829
-4.210139221191406,-8.440628845214844,1.0749801025390624,0.024386586907801603,0.023852123766536323,0.021444228747535782,2.6401278972625732,2019-06-20 15:09:04:834
-4.20415380859375,-8.459782165527344,1.1025130004882813,0.023720796635281788,0.02425159793004821,0.022376335129063514,2.6449921131134033,2019-06-20 15:09:04:839
-4.199365478515625,-8.465767578125,1.0749801025390624,0.02092447749069859,0.02278685933050463,0.022376335129063514,2.6501119136810303,2019-06-20 15:09:04:844
-4.183803405761719,-8.486117980957031,1.0522355346679688,0.0215902677632184,0.02278685933050463,0.023042125401583322,2.6549758911132812,2019-06-20 15:09:04:849
-4.155073425292969,-8.481329650878907,1.0175201416015625,0.022522374144746133,0.021854752948976895,0.025305812328150677,2.6600959300994873,2019-06-20 15:09:04:854
-4.14669384765625,-8.474147155761719,1.00554931640625,0.023321322471769903,0.022520543221496707,0.025838444546166524,2.6649599075317383,2019-06-20 15:09:04:859
-4.157467590332031,-8.464570495605468,0.991184326171875,0.023587638580777826,0.02278685933050463,0.025838444546166524,2.6700799465179443,2019-06-20 15:09:04:864
-4.1095842895507815,-8.449008422851563,1.0426588745117187,0.023720796635281788,0.02212106905798482,0.02756949925471803,2.6751999855041504,2019-06-20 15:09:04:869
-4.044941833496094,-8.39873095703125,1.0594180297851563,0.02398711274428971,0.021188962676457087,0.029167395908765572,2.6800639629364014,2019-06-20 15:09:04:874
-4.157467590332031,-8.568716674804687,1.1527904663085937,0.02585132550734518,0.01999054018592143,0.030232660344797265,2.6851840019226074,2019-06-20 15:09:04:879
-4.212533386230469,-8.57111083984375,1.2282066650390624,0.024519744962305565,0.02371896571203236,0.032363189216860655,2.6900479793548584,2019-06-20 15:09:04:884
-4.129934692382812,-8.466964660644532,1.1755350341796875,0.021856583872226325,0.02451791403905613,0.034227401979916125,2.6951680183410645,2019-06-20 15:09:04:889
-4.116766784667969,-8.353241821289062,1.0929363403320311,0.025318693289329335,0.020656330458441237,0.03489319225243594,2.7000319957733154,2019-06-20 15:09:04:894
-4.076065979003906,-8.37957763671875,1.0019580688476561,0.02092447749069859,0.02212106905798482,0.03542582655104638,2.7051520347595215,2019-06-20 15:09:04:899
-4.115569702148437,-8.42626385498047,1.0941334228515625,0.018527632509627277,0.02145527878546501,0.03702372320509393,2.7100160121917725,2019-06-20 15:09:04:904
-4.152679260253906,-8.499285888671874,1.14919921875,0.02012552916367482,0.02265370127600067,0.039287410131661274,2.7151360511779785,2019-06-20 15:09:04:909
-4.144299682617188,-8.498088806152344,1.086950927734375,0.022522374144746133,0.02438475598455217,0.03982004234967713,2.7200000286102295,2019-06-20 15:09:04:914
-4.199365478515625,-8.471752990722656,1.0139288940429687,0.02238921609024217,0.021987911003480857,0.04075214873120486,2.7251200675964355,2019-06-20 15:09:04:919
-4.181409240722656,-8.402322204589844,1.0761771850585937,0.019459738891155008,0.021987911003480857,0.04208372927624448,2.7299840450286865,2019-06-20 15:09:04:924
-4.198168395996094,-8.435840515136718,1.1659583740234374,0.020391845272682743,0.019457907967905582,0.04328215176678014,2.7351040840148926,2019-06-20 15:09:04:929
-4.177817993164062,-8.43703759765625,1.1168779907226563,0.020525003327186705,0.018126327422865962,0.04527952258433956,2.7399680614471436,2019-06-20 15:09:04:934
-4.091628051757812,-8.43703759765625,0.9684397583007812,0.01799500029161143,0.019724224076913505,0.04607847091136334,2.7450881004333496,2019-06-20 15:09:04:939
-4.1538763427734375,-8.429855102539062,1.0043522338867188,0.019726055000162935,0.01999054018592143,0.047143735347395035,2.7502079010009766,2019-06-20 15:09:04:944
-4.163453002929687,-8.4466142578125,1.0570238647460937,0.022921848308258018,0.021721594894472934,0.048075841728922764,2.7550721168518066,2019-06-20 15:09:04:949
-4.143102600097656,-8.415490112304687,1.1503963012695313,0.02571816745284122,0.023852123766536323,0.04767636756541088,2.7601919174194336,2019-06-20 15:09:04:954
-4.143102600097656,-8.451402587890625,1.1563817138671875,0.024786061071313488,0.0263821268021116,0.048075841728922764,2.7650558948516846,2019-06-20 15:09:04:959
-4.120358032226562,-8.474147155761719,1.0761771850585937,0.02398711274428971,0.03130897481875819,0.04767636756541088,2.7701759338378906,2019-06-20 15:09:04:964
-4.162255920410156,-8.480132568359375,1.0594180297851563,0.026383957725361028,0.03250739730929385,0.04754320951090692,2.7750399112701416,2019-06-20 15:09:04:969
-4.135920104980468,-8.492103393554688,1.0414617919921876,0.029446592978952153,0.036102664780900816,0.049540580328466345,2.7801599502563477,2019-06-20 15:09:04:974
-4.120358032226562,-8.498088806152344,1.0654034423828125,0.031177647687503654,0.04009740641601968,0.04980689643747427,2.7850239276885986,2019-06-20 15:09:04:979
-4.120358032226562,-8.50527130126953,1.0797684326171875,0.03290870239605516,0.044624780269154375,0.051138476982513885,2.7901439666748047,2019-06-20 15:09:04:984
-4.1371171874999995,-8.5232275390625,1.0235055541992186,0.03477291515911063,0.04808688968625739,0.05300268974556936,2.7950079441070557,2019-06-20 15:09:04:989
-4.143102600097656,-8.487315063476562,1.0115347290039063,0.036104495704150245,0.051548999103360395,0.054067954181601055,2.8001279830932617,2019-06-20 15:09:04:994
-4.177817993164062,-8.462176330566406,1.0402647094726563,0.03783555041270175,0.05421216019343964,0.056065324999160476,2.8049919605255127,2019-06-20 15:09:04:999
-4.207745056152343,-8.458585083007812,1.1228634033203124,0.0394334470667493,0.05541058268397529,0.056464799162672365,2.8101119995117188,2019-06-20 15:09:05:004
-4.200562561035156,-8.457388000488281,1.1264546508789062,0.04023239539377307,0.05620953101099906,0.05899480219824764,2.8149759769439697,2019-06-20 15:09:05:009
-4.207745056152343,-8.465767578125,1.067797607421875,0.038767656794229485,0.05594321490199114,0.06032638274328726,2.820096015930176,2019-06-20 15:09:05:014
-4.214927551269531,-8.44781134033203,1.10131591796875,0.03823502457621364,0.05554374073847926,0.06045954079779123,2.8249599933624268,2019-06-20 15:09:05:019
-4.238869201660156,-8.439431762695312,1.115680908203125,0.03623765375865421,0.05461163435695152,0.061258489124815,2.830080032348633,2019-06-20 15:09:05:024
-4.24246044921875,-8.39873095703125,1.1240604858398437,0.03690344403117402,0.05301373770290398,0.06312270188787046,2.835200071334839,2019-06-20 15:09:05:029
-4.265205017089843,-8.378380554199218,1.1599729614257812,0.03503923126811855,0.05168215715786436,0.06405480826939819,2.84006404876709,2019-06-20 15:09:05:034
-4.323862060546875,-8.40950469970703,1.0654034423828125,0.032242912123535354,0.05141584104885644,0.06445428243291008,2.845184087753296,2019-06-20 15:09:05:039
-4.285555419921875,-8.451402587890625,0.9935784912109374,0.03197659601452743,0.04955162828580097,0.06352217605138234,2.850048065185547,2019-06-20 15:09:05:044
-4.321467895507812,-8.431052185058594,1.0558267822265626,0.032642386287047236,0.04808688968625739,0.06325585994237443,2.855168104171753,2019-06-20 15:09:05:049
-4.287949584960938,-8.399928039550781,1.04385595703125,0.03237607017803931,0.04888583801328116,0.06259006966985461,2.860032081604004,2019-06-20 15:09:05:054
-4.29034375,-8.41788427734375,1.10131591796875,0.03330817655956705,0.049951102449312855,0.06232375356084669,2.865151882171631,2019-06-20 15:09:05:059
-4.325059143066406,-8.416687194824219,1.0809655151367188,0.0327755443415512,0.05035057661282474,0.06205743745183877,2.870016098022461,2019-06-20 15:09:05:064
-4.307102905273437,-8.39035137939453,1.0199143066406249,0.03344133461407101,0.05101636688534455,0.060592698852295186,2.875135898590088,2019-06-20 15:09:05:069
-4.305905822753906,-8.432249267578126,1.0091405639648436,0.03477291515911063,0.0498179443948089,0.06006006663427933,2.880000114440918,2019-06-20 15:09:05:074
-4.272387512207031,-8.4274609375,1.0510384521484375,0.035705021540638364,0.05101636688534455,0.05926111830725556,2.885119915008545,2019-06-20 15:09:05:079
-4.259219604492188,-8.39753387451172,1.10131591796875,0.03623765375865421,0.05381268602992775,0.05979375052527141,2.889983892440796,2019-06-20 15:09:05:084
-4.252037109375,-8.395139709472655,1.08216259765625,0.03703660208567798,0.054478476302447565,0.05926111830725556,2.895103931427002,2019-06-20 15:09:05:089
-4.254431274414062,-8.438234680175782,1.058220947265625,0.03703660208567798,0.05620953101099906,0.05859532803473575,2.899967908859253,2019-06-20 15:09:05:094
-4.28076708984375,-8.421475524902343,1.0570238647460937,0.038101866521709674,0.058473217937566414,0.0591279602527516,2.905087947845459,2019-06-20 15:09:05:099
-4.2843583374023435,-8.414293029785156,1.1001188354492186,0.03743607624918987,0.059139008210086226,0.058728486089239716,2.910207986831665,2019-06-20 15:09:05:104
-4.283161254882812,-8.402322204589844,1.0989217529296875,0.03823502457621364,0.05860637599207038,0.0591279602527516,2.915071964263916,2019-06-20 15:09:05:109
-4.268796264648437,-8.391548461914063,1.1180750732421876,0.037968708467205715,0.057541111556038686,0.06045954079779123,2.920192003250122,2019-06-20 15:09:05:114
-4.295132080078125,-8.407110534667968,1.0797684326171875,0.038767656794229485,0.05953848237359811,0.06006006663427933,2.925055980682373,2019-06-20 15:09:05:119
-4.314285400390625,-8.407110534667968,1.0462501220703124,0.03930028901224533,0.06126953708214962,0.05926111830725556,2.930176019668579,2019-06-20 15:09:05:124
-4.350197875976562,-8.422672607421875,0.9768193359374999,0.03930028901224533,0.059804798482606045,0.058861644143743674,2.93503999710083,2019-06-20 15:09:05:129
-4.388504516601563,-8.36880389404297,1.0797684326171875,0.03863449873972553,0.05967164042810207,0.058728486089239716,2.940160036087036,2019-06-20 15:09:05:134
-4.388504516601563,-8.348453491210938,1.0845567626953125,0.0383681826307176,0.0588726921010783,0.05832901192572783,2.945024013519287,2019-06-20 15:09:05:139
-4.390898681640625,-8.373592224121094,1.0175201416015625,0.038101866521709674,0.058473217937566414,0.05579900889015255,2.950144052505493,2019-06-20 15:09:05:144
-4.405263671875,-8.371198059082031,1.0163230590820311,0.03890081484873345,0.057674269610542644,0.05513321861763275,2.955008029937744,2019-06-20 15:09:05:149
-4.428008239746093,-8.35204473876953,1.0282938842773437,0.039566605121253255,0.057674269610542644,0.053269005854577285,2.96012806892395,2019-06-20 15:09:05:154
-4.45314697265625,-8.353241821289062,1.0654034423828125,0.04049871150278099,0.05660900517451095,0.05167110920052973,2.964992046356201,2019-06-20 15:09:05:159
-4.4435703125,-8.310146850585937,1.0761771850585937,0.03930028901224533,0.05581005684748718,0.049940054491978234,2.9701120853424072,2019-06-20 15:09:05:164
-4.4304024047851565,-8.30296435546875,1.0737830200195313,0.03930028901224533,0.054079002138935676,0.048075841728922764,2.974976062774658,2019-06-20 15:09:05:169
-4.4627236328125,-8.298176025390624,1.048644287109375,0.03903397290323741,0.05341321186641587,0.04674426118388315,2.9800961017608643,2019-06-20 15:09:05:174
-4.466314880371094,-8.305358520507813,1.0354763793945312,0.03850134068522156,0.05141584104885644,0.04527952258433956,2.985215902328491,2019-06-20 15:09:05:179
-4.479482788085938,-8.279022705078125,1.0977246704101562,0.039167130957741374,0.049951102449312855,0.04394794203929995,2.9900801181793213,2019-06-20 15:09:05:184
-4.450752807617188,-8.269446044921875,1.0917392578125,0.03770239235819779,0.049152154122289085,0.041151622894716744,2.9951999187469482,2019-06-20 15:09:05:189
-4.4603294677734375,-8.273037292480469,1.058220947265625,0.03783555041270175,0.04742109941373758,0.03808898764112562,3.000063896179199,2019-06-20 15:09:05:194
-4.466314880371094,-8.313738098144531,1.0941334228515625,0.03743607624918987,0.04662215108671381,0.035692142660054306,3.0051839351654053,2019-06-20 15:09:05:199
-4.444767395019531,-8.2933876953125,1.0833596801757812,0.0355718634861344,0.0448910963781623,0.03356161170739631,3.0100479125976562,2019-06-20 15:09:05:204
-4.457935302734375,-8.2933876953125,1.0857538452148436,0.036104495704150245,0.04435846416014646,0.031164766726325004,3.0151679515838623,2019-06-20 15:09:05:209
-4.442373229980468,-8.29458477783203,1.0917392578125,0.03517238932262252,0.04395898999663457,0.02890107979975765,3.0200319290161133,2019-06-20 15:09:05:214
-4.426811157226562,-8.296978942871094,1.106104248046875,0.03477291515911063,0.04395898999663457,0.026504234818686332,3.0251519680023193,2019-06-20 15:09:05:219
-4.408854919433594,-8.326906005859374,1.077374267578125,0.03437344099559874,0.04382583194213061,0.024506864001126907,3.0300159454345703,2019-06-20 15:09:05:224
-4.393292846679687,-8.328103088378906,1.067797607421875,0.03424028294109478,0.0420947772335791,0.024373705946622946,3.0351359844207764,2019-06-20 15:09:05:229
-4.408854919433594,-8.326906005859374,1.0618121948242187,0.0355718634861344,0.041428986961059296,0.023175283456087284,3.0399999618530273,2019-06-20 15:09:05:234
-4.375336608886719,-8.305358520507813,1.0546296997070312,0.034639757104606664,0.0420947772335791,0.02211001902005559,3.0451200008392334,2019-06-20 15:09:05:239
-4.4016724243164065,-8.338876831054687,1.0785713500976561,0.03503923126811855,0.043426357778618724,0.021843702911047667,3.0499839782714844,2019-06-20 15:09:05:244
-4.39568701171875,-8.343665161132812,1.048644287109375,0.034639757104606664,0.041562145015563254,0.02117791263852786,3.0551040172576904,2019-06-20 15:09:05:249
-4.402869506835938,-8.349650573730468,1.0689946899414062,0.033840808777582894,0.039964248361515714,0.019313699875472393,3.0599679946899414,2019-06-20 15:09:05:254
-4.394489929199219,-8.353241821289062,1.0713888549804687,0.034506599050102706,0.039964248361515714,0.017183171003409,3.0650880336761475,2019-06-20 15:09:05:259
-4.420825744628906,-8.330497253417969,1.0881480102539063,0.03397396683208686,0.0403637225250276,0.01651738073088919,3.0702080726623535,2019-06-20 15:09:05:264
-4.418431579589844,-8.366409729003905,1.010337646484375,0.033840808777582894,0.0392984580889959,0.014653167967833723,3.0750720500946045,2019-06-20 15:09:05:269
-4.405263671875,-8.35204473876953,1.0522355346679688,0.03330817655956705,0.039564774198003826,0.013321587422794106,3.0801920890808105,2019-06-20 15:09:05:274
-4.369351196289062,-8.35204473876953,1.0450530395507813,0.033707650723078936,0.0392984580889959,0.01358790353180203,3.0850560665130615,2019-06-20 15:09:05:279
-4.365759948730469,-8.35204473876953,1.0270968017578124,0.032642386287047236,0.03770056143494836,0.01305527131378618,3.0901761054992676,2019-06-20 15:09:05:284
-4.363365783691406,-8.358030151367187,1.0450530395507813,0.03357449266857497,0.038100035598460244,0.012522639095770333,3.0950400829315186,2019-06-20 15:09:05:289
-4.377730773925781,-8.349650573730468,1.06300927734375,0.033707650723078936,0.03703477116242855,0.01145737465973864,3.1001598834991455,2019-06-20 15:09:05:294
-4.383716186523437,-8.36042431640625,1.0354763793945312,0.033707650723078936,0.037966877543956286,0.01012579411469902,3.1050240993499756,2019-06-20 15:09:05:299
-4.356183288574218,-8.372395141601562,1.0701917724609376,0.03344133461407101,0.037167929216932516,0.009060529678667323,3.1101438999176025,2019-06-20 15:09:05:304
-4.364562866210937,-8.386760131835937,1.0761771850585937,0.03344133461407101,0.036102664780900816,0.008527897460651477,3.1150081157684326,2019-06-20 15:09:05:309
-4.3585774536132815,-8.366409729003905,1.0618121948242187,0.033840808777582894,0.03690161310792459,0.008394739406147515,3.1201279163360596,2019-06-20 15:09:05:314
-4.362168701171875,-8.342468078613281,1.0833596801757812,0.03344133461407101,0.03783371948945232,0.009060529678667323,3.1249918937683105,2019-06-20 15:09:05:319
-4.380124938964844,-8.359227233886719,1.0534326171875,0.032242912123535354,0.03743424532594044,0.009326845787675248,3.1301119327545166,2019-06-20 15:09:05:324
-4.368154113769531,-8.359227233886719,1.0510384521484375,0.033041860450559124,0.03676845505342063,0.007462633024619782,3.1349759101867676,2019-06-20 15:09:05:329
-4.353789123535156,-8.353241821289062,1.0618121948242187,0.03410712488659082,0.0375674033804444,0.006930000806603933,3.1400959491729736,2019-06-20 15:09:05:334
-4.346606628417969,-8.3316943359375,1.0654034423828125,0.03344133461407101,0.03703477116242855,0.007063158861107895,3.1449599266052246,2019-06-20 15:09:05:339
-4.339424133300781,-8.36042431640625,1.0809655151367188,0.033041860450559124,0.038100035598460244,0.0051989460980524285,3.1500799655914307,2019-06-20 15:09:05:344
-4.3430153808593746,-8.365212646484375,1.0881480102539063,0.03237607017803931,0.038100035598460244,0.0041336816620207335,3.1552000045776367,2019-06-20 15:09:05:349
-4.346606628417969,-8.364015563964843,1.077374267578125,0.03237607017803931,0.038100035598460244,0.004932629989044505,3.1600639820098877,2019-06-20 15:09:05:354
-4.3274533081054685,-8.36880389404297,1.0450530395507813,0.03237607017803931,0.03916530003449194,0.005065788043548467,3.1651840209960938,2019-06-20 15:09:05:359
-4.3298474731445316,-8.347256408691406,1.0881480102539063,0.032242912123535354,0.03943161614349987,0.005465262207060353,3.1700479984283447,2019-06-20 15:09:05:364
-4.351394958496094,-8.38077471923828,1.0642063598632812,0.031843437960023466,0.03969793225250779,0.005465262207060353,3.175168037414551,2019-06-20 15:09:05:369
-4.326256225585937,-8.355635986328124,1.0713888549804687,0.032242912123535354,0.03983109030701175,0.005065788043548467,3.1800320148468018,2019-06-20 15:09:05:374
-4.321467895507812,-8.3700009765625,1.06300927734375,0.03197659601452743,0.040763196688539484,0.005465262207060353,3.185152053833008,2019-06-20 15:09:05:379
-4.337029968261719,-8.372395141601562,1.086950927734375,0.03237607017803931,0.04169530307006722,0.004533155825532619,3.190016031265259,2019-06-20 15:09:05:384
-4.346606628417969,-8.36880389404297,1.1084984130859374,0.03237607017803931,0.04116267085205137,0.003601049444004886,3.195136070251465,2019-06-20 15:09:05:389
-4.356183288574218,-8.353241821289062,1.0929363403320311,0.03197659601452743,0.04089635474304345,0.0038673655530128094,3.200000047683716,2019-06-20 15:09:05:394
-4.349000793457031,-8.359227233886719,1.077374267578125,0.03237607017803931,0.04116267085205137,0.0034678913895009236,3.205120086669922,2019-06-20 15:09:05:399
-4.359774536132813,-8.330497253417969,1.0558267822265626,0.03131080574200762,0.03983109030701175,0.0024026269534692286,3.209984064102173,2019-06-20 15:09:05:404
-4.3717453613281245,-8.336482666015625,1.0426588745117187,0.031044489632999692,0.039564774198003826,0.002003152789957343,3.215104103088379,2019-06-20 15:09:05:409
-4.349000793457031,-8.366409729003905,1.058220947265625,0.029979225196968,0.039564774198003826,0.0014705205719414951,3.21996808052063,2019-06-20 15:09:05:414
-4.339424133300781,-8.359227233886719,1.0654034423828125,0.029846067142464038,0.04023056447052364,0.0009378883539256476,3.225088119506836,2019-06-20 15:09:05:419
-4.360971618652344,-8.34007391357422,1.0522355346679688,0.029446592978952153,0.04023056447052364,0.0013373625174375333,3.230207920074463,2019-06-20 15:09:05:424
-4.332241638183594,-8.346059326171876,1.0414617919921876,0.030245541305975922,0.040763196688539484,0.0004052561359097999,3.235071897506714,2019-06-20 15:09:05:429
-4.3430153808593746,-8.36880389404297,1.0642063598632812,0.03011238325147196,0.04169530307006722,-0.0005268502456179334,3.24019193649292,2019-06-20 15:09:05:434
-4.345409545898438,-8.381971801757812,1.0785713500976561,0.029579751033456114,0.041562145015563254,5.781972397914221e-06,3.245055913925171,2019-06-20 15:09:05:439
-4.349000793457031,-8.377183471679688,1.077374267578125,0.030245541305975922,0.04196161917907514,-0.0009263244091298192,3.250175952911377,2019-06-20 15:09:05:444
-4.339424133300781,-8.358030151367187,1.06300927734375,0.031177647687503654,0.041428986961059296,-0.0010594824636337812,3.255039930343628,2019-06-20 15:09:05:449
-4.328650390625,-8.365212646484375,1.0330822143554688,0.03077817352399177,0.041562145015563254,-0.001192640518137743,3.260159969329834,2019-06-20 15:09:05:454
-4.323862060546875,-8.38077471923828,1.0701917724609376,0.029979225196968,0.04102951279754741,-0.002257904954169438,3.265023946762085,2019-06-20 15:09:05:459
-4.301117492675782,-8.383168884277344,1.12046923828125,0.030378699360479884,0.0403637225250276,-0.002257904954169438,3.270143985748291,2019-06-20 15:09:05:464
-4.33822705078125,-8.392745544433593,1.0450530395507813,0.030378699360479884,0.04129582890655533,-0.002790537172185286,3.275007963180542,2019-06-20 15:09:05:469
-4.332241638183594,-8.404716369628906,1.0510384521484375,0.030645015469487807,0.0403637225250276,-0.0031900113356971714,3.280128002166748,2019-06-20 15:09:05:474
-4.321467895507812,-8.378380554199218,1.0127318115234374,0.031044489632999692,0.04196161917907514,-0.004255275771728867,3.284991979598999,2019-06-20 15:09:05:479
-4.320270812988281,-8.384365966796874,1.0175201416015625,0.031044489632999692,0.042227935288083066,-0.004122117717224904,3.290112018585205,2019-06-20 15:09:05:484
-4.332241638183594,-8.396336791992187,1.04385595703125,0.032242912123535354,0.04169530307006722,-0.003456327444705095,3.294975996017456,2019-06-20 15:09:05:489
-4.323862060546875,-8.396336791992187,1.010337646484375,0.03237607017803931,0.04249425139709099,-0.0037226435537130193,3.300096035003662,2019-06-20 15:09:05:494
-4.29992041015625,-8.365212646484375,1.010337646484375,0.031843437960023466,0.04196161917907514,-0.004388433826232828,3.304960012435913,2019-06-20 15:09:05:499
-4.305905822753906,-8.385563049316406,1.0785713500976561,0.03250922823254328,0.04182846112457118,-0.003988959662720943,3.310080051422119,2019-06-20 15:09:05:504
-4.281964172363281,-8.393942626953125,1.0330822143554688,0.03237607017803931,0.04169530307006722,-0.003855801608216981,3.315200090408325,2019-06-20 15:09:05:509
-4.322664978027344,-8.391548461914063,1.0199143066406249,0.03290870239605516,0.042227935288083066,-0.0031900113356971714,3.320064067840576,2019-06-20 15:09:05:514
-4.316679565429688,-8.38077471923828,1.04385595703125,0.03317501850506309,0.04169530307006722,-0.0029236952266892477,3.3251841068267822,2019-06-20 15:09:05:519
-4.310694152832031,-8.421475524902343,0.9851989135742187,0.033707650723078936,0.042361093342587024,-0.0029236952266892477,3.330048084259033,2019-06-20 15:09:05:524
-4.320270812988281,-8.40950469970703,0.9887901611328125,0.0327755443415512,0.0420947772335791,-0.003456327444705095,3.33516788482666,2019-06-20 15:09:05:529
-4.295132080078125,-8.39753387451172,0.99597265625,0.03237607017803931,0.04129582890655533,-0.0035894854992090572,3.3400321006774902,2019-06-20 15:09:05:534
-4.331044555664063,-8.371198059082031,1.04385595703125,0.03317501850506309,0.04129582890655533,-0.0033231693902011335,3.345151901245117,2019-06-20 15:09:05:539
-4.321467895507812,-8.403519287109376,1.0211113891601562,0.03290870239605516,0.04009740641601968,-0.005453698262264523,3.3500161170959473,2019-06-20 15:09:05:544
-4.317876647949219,-8.391548461914063,1.0749801025390624,0.034506599050102706,0.04129582890655533,-0.005320540207760562,3.355135917663574,2019-06-20 15:09:05:549
-4.333438720703125,-8.393942626953125,1.0270968017578124,0.034639757104606664,0.04169530307006722,-0.003988959662720943,3.359999895095825,2019-06-20 15:09:05:554
-4.310694152832031,-8.407110534667968,1.0306880493164061,0.03437344099559874,0.041562145015563254,-0.005986330480280371,3.3651199340820312,2019-06-20 15:09:05:559
-4.296329162597656,-8.425066772460937,1.0450530395507813,0.035705021540638364,0.042361093342587024,-0.004921066044248676,3.3699839115142822,2019-06-20 15:09:05:564
-4.296329162597656,-8.4083076171875,1.0151259765625,0.03517238932262252,0.04182846112457118,-0.006252646589288296,3.3751039505004883,2019-06-20 15:09:05:569
-4.292737915039062,-8.414293029785156,1.0642063598632812,0.036104495704150245,0.042227935288083066,-0.006785278807304142,3.3799679279327393,2019-06-20 15:09:05:574
-4.320270812988281,-8.401125122070312,1.06300927734375,0.03517238932262252,0.04196161917907514,-0.0057200143712724475,3.3850879669189453,2019-06-20 15:09:05:579
-4.340621215820312,-8.404716369628906,1.0594180297851563,0.03517238932262252,0.04196161917907514,-0.005986330480280371,3.3902080059051514,2019-06-20 15:09:05:584
-4.350197875976562,-8.431052185058594,1.06300927734375,0.03637081181315817,0.0420947772335791,-0.005986330480280371,3.3950719833374023,2019-06-20 15:09:05:589
-4.3430153808593746,-8.432249267578126,1.0893450927734374,0.036104495704150245,0.042227935288083066,-0.005853172425776409,3.4001920223236084,2019-06-20 15:09:05:594
-4.33822705078125,-8.396336791992187,1.0893450927734374,0.03583817959514232,0.04169530307006722,-0.007051594916312067,3.4050559997558594,2019-06-20 15:09:05:599
-4.3442124633789065,-8.389154296875,1.0785713500976561,0.03597133764964629,0.04009740641601968,-0.007317911025319991,3.4101760387420654,2019-06-20 15:09:05:604
-4.339424133300781,-8.365212646484375,1.048644287109375,0.03637081181315817,0.040763196688539484,-0.008116859352343762,3.4150400161743164,2019-06-20 15:09:05:609
-4.335832885742187,-8.372395141601562,1.0558267822265626,0.0355718634861344,0.04023056447052364,-0.00878264962486357,3.4201600551605225,2019-06-20 15:09:05:614
-4.317876647949219,-8.39753387451172,1.077374267578125,0.03543870543163044,0.0392984580889959,-0.008250017406847724,3.4250240325927734,2019-06-20 15:09:05:619
-4.33822705078125,-8.401125122070312,1.077374267578125,0.03517238932262252,0.03916530003449194,-0.009315281842879419,3.4301440715789795,2019-06-20 15:09:05:624
-4.354986206054687,-8.39035137939453,1.06300927734375,0.035305547377126476,0.03943161614349987,-0.00878264962486357,3.4350080490112305,2019-06-20 15:09:05:629
-4.337029968261719,-8.389154296875,1.0725859375,0.034506599050102706,0.03849950976197213,-0.008915807679367534,3.4401280879974365,2019-06-20 15:09:05:634
-4.352592041015625,-8.403519287109376,1.0809655151367188,0.033840808777582894,0.03903214197998798,-0.010380546278911114,3.4449920654296875,2019-06-20 15:09:05:639
-4.331044555664063,-8.395139709472655,1.067797607421875,0.03290870239605516,0.0375674033804444,-0.011845284878454694,3.4501121044158936,2019-06-20 15:09:05:644
-4.296329162597656,-8.365212646484375,1.0857538452148436,0.032242912123535354,0.03783371948945232,-0.013043707368990352,3.4549760818481445,2019-06-20 15:09:05:649
-4.293934997558594,-8.373592224121094,1.08216259765625,0.03290870239605516,0.03690161310792459,-0.013842655696014124,3.4600958824157715,2019-06-20 15:09:05:654
-4.328650390625,-8.36880389404297,1.0785713500976561,0.0327755443415512,0.03703477116242855,-0.014508445968533934,3.4649600982666016,2019-06-20 15:09:05:659
-4.321467895507812,-8.36042431640625,1.0749801025390624,0.03210975406903139,0.03690161310792459,-0.013842655696014124,3.4700798988342285,2019-06-20 15:09:05:664
-4.322664978027344,-8.36162139892578,1.0498413696289062,0.03171027990551951,0.036102664780900816,-0.015973184568077517,3.4751999378204346,2019-06-20 15:09:05:669
-4.322664978027344,-8.372395141601562,1.04385595703125,0.03171027990551951,0.036368980889908746,-0.016372658731589402,3.4800639152526855,2019-06-20 15:09:05:674
-4.291540832519531,-8.386760131835937,1.0498413696289062,0.0327755443415512,0.03570319061738893,-0.01623950067708544,3.4851839542388916,2019-06-20 15:09:05:679
-4.272387512207031,-8.362818481445313,1.0785713500976561,0.03197659601452743,0.03503740034486912,-0.01823687149464487,3.4900479316711426,2019-06-20 15:09:05:684
-4.301117492675782,-8.374789306640626,1.067797607421875,0.031044489632999692,0.034637926181357234,-0.017970555385636945,3.4951679706573486,2019-06-20 15:09:05:689
-4.314285400390625,-8.39035137939453,1.12046923828125,0.03171027990551951,0.03517055839937308,-0.018636345658156753,3.5000319480895996,2019-06-20 15:09:05:694
-4.296329162597656,-8.365212646484375,1.1096954956054688,0.03237607017803931,0.0347710842358612,-0.0191689778761726,3.5051519870758057,2019-06-20 15:09:05:699
-4.302314575195313,-8.405913452148438,1.0725859375,0.03131080574200762,0.03437161007234931,-0.018636345658156753,3.5100159645080566,2019-06-20 15:09:05:704
-4.281964172363281,-8.383168884277344,1.0318851318359374,0.031177647687503654,0.033838977854333464,-0.01903581982166864,3.5151360034942627,2019-06-20 15:09:05:709
-4.275978759765625,-8.348453491210938,1.077374267578125,0.031177647687503654,0.033838977854333464,-0.01983476814869241,3.5199999809265137,2019-06-20 15:09:05:714
-4.29992041015625,-8.393942626953125,1.10131591796875,0.03091133157849573,0.03517055839937308,-0.02050055842121222,3.5251200199127197,2019-06-20 15:09:05:719
-4.310694152832031,-8.395139709472655,1.0833596801757812,0.031443963796511584,0.03517055839937308,-0.020234242312204297,3.5299839973449707,2019-06-20 15:09:05:724
-4.287949584960938,-8.411898864746094,1.0701917724609376,0.03171027990551951,0.03397213590883743,-0.02116634869373203,3.5351040363311768,2019-06-20 15:09:05:729
-4.285555419921875,-8.404716369628906,1.0546296997070312,0.03077817352399177,0.03250739730929385,-0.020101084257700335,3.5399680137634277,2019-06-20 15:09:05:734
-4.29034375,-8.414293029785156,1.06300927734375,0.030645015469487807,0.031974765091277994,-0.021698980911747878,3.545088052749634,2019-06-20 15:09:05:739
-4.243657531738281,-8.403519287109376,1.0761771850585937,0.029446592978952153,0.03250739730929385,-0.02396266783831523,3.55020809173584,2019-06-20 15:09:05:744
-4.256825439453125,-8.416687194824219,1.0654034423828125,0.02931343492444819,0.03237423925478988,-0.022897403402283533,3.555072069168091,2019-06-20 15:09:05:749
-4.237672119140625,-8.413095947265624,1.0498413696289062,0.028913960760936306,0.03423845201784535,-0.02116634869373203,3.560192108154297,2019-06-20 15:09:05:754
-4.253234191894531,-8.423869689941405,1.0761771850585937,0.02918027686994423,0.03423845201784535,-0.02116634869373203,3.565056085586548,2019-06-20 15:09:05:759
-4.2328837890625,-8.425066772460937,1.0929363403320311,0.029712909087960076,0.03423845201784535,-0.02116634869373203,3.570175886154175,2019-06-20 15:09:05:764
-4.236475036621093,-8.457388000488281,1.048644287109375,0.029712909087960076,0.036102664780900816,-0.021698980911747878,3.575040102005005,2019-06-20 15:09:05:769
-4.237672119140625,-8.450205505371093,1.0701917724609376,0.030645015469487807,0.035303716453877046,-0.020766874530220143,3.580159902572632,2019-06-20 15:09:05:774
-4.208942138671875,-8.457388000488281,1.0965275878906249,0.030378699360479884,0.03557003256288497,-0.020900032584724105,3.585024118423462,2019-06-20 15:09:05:779
-4.20415380859375,-8.452599670410157,1.086950927734375,0.03131080574200762,0.03517055839937308,-0.02036740036670826,3.590143918991089,2019-06-20 15:09:05:784
-4.186197570800781,-8.440628845214844,1.0905421752929687,0.03077817352399177,0.03503740034486912,-0.018769503712660715,3.59500789642334,2019-06-20 15:09:05:789
-4.1945771484375,-8.466964660644532,1.0654034423828125,0.031177647687503654,0.03703477116242855,-0.018902661767164677,3.600127935409546,2019-06-20 15:09:05:794
-4.190985900878906,-8.435840515136718,1.0689946899414062,0.03210975406903139,0.03770056143494836,-0.01823687149464487,3.604991912841797,2019-06-20 15:09:05:799
-4.195774230957031,-8.452599670410157,1.0881480102539063,0.031044489632999692,0.03836635170746817,-0.01623950067708544,3.610111951828003,2019-06-20 15:09:05:804
-4.183803405761719,-8.468161743164062,1.0474472045898438,0.03171027990551951,0.03943161614349987,-0.01504107818654978,3.615231990814209,2019-06-20 15:09:05:809
-4.1969713134765625,-8.463373413085938,1.0713888549804687,0.03197659601452743,0.03969793225250779,-0.014375287914029972,3.62009596824646,2019-06-20 15:09:05:814
-4.187394653320313,-8.45499383544922,1.0558267822265626,0.03330817655956705,0.039964248361515714,-0.013443181532502237,3.624959945678711,2019-06-20 15:09:05:819
-4.159861755371094,-8.458585083007812,1.077374267578125,0.03344133461407101,0.0392984580889959,-0.013576339587006199,3.630079984664917,2019-06-20 15:09:05:824
-4.186197570800781,-8.4466142578125,1.0642063598632812,0.032242912123535354,0.04102951279754741,-0.012511075150974505,3.635200023651123,2019-06-20 15:09:05:829
-4.2113363037109375,-8.472950073242187,1.0546296997070312,0.0327755443415512,0.04129582890655533,-0.011978442932958657,3.640064001083374,2019-06-20 15:09:05:834
-4.1826063232421875,-8.480132568359375,1.0282938842773437,0.03250922823254328,0.04182846112457118,-0.010513704333415076,3.64518404006958,2019-06-20 15:09:05:839
-4.206547973632812,-8.47534423828125,1.0187172241210938,0.034506599050102706,0.04249425139709099,-0.009048965733871496,3.650048017501831,2019-06-20 15:09:05:844
-4.180212158203125,-8.481329650878907,1.048644287109375,0.0355718634861344,0.0420947772335791,-0.008915807679367534,3.655168056488037,2019-06-20 15:09:05:849
-4.169438415527344,-8.471752990722656,1.0701917724609376,0.034639757104606664,0.04249425139709099,-0.007317911025319991,3.660032033920288,2019-06-20 15:09:05:854
-4.179015075683593,-8.420278442382813,1.0893450927734374,0.034506599050102706,0.042361093342587024,-0.004921066044248676,3.665152072906494,2019-06-20 15:09:05:859
-4.167044250488281,-8.41788427734375,1.0917392578125,0.03437344099559874,0.04196161917907514,-0.005320540207760562,3.670016050338745,2019-06-20 15:09:05:864
-4.200562561035156,-8.443023010253906,1.0570238647460937,0.034506599050102706,0.04329319972411476,-0.0057200143712724475,3.675136089324951,2019-06-20 15:09:05:869
-4.18500048828125,-8.4466142578125,1.0606151123046874,0.03424028294109478,0.041562145015563254,-0.0033231693902011335,3.680000066757202,2019-06-20 15:09:05:874
-4.159861755371094,-8.449008422851563,1.086950927734375,0.034506599050102706,0.04182846112457118,-0.0031900113356971714,3.685120105743408,2019-06-20 15:09:05:879
-4.1682413330078125,-8.458585083007812,1.0666005249023438,0.034639757104606664,0.04329319972411476,-0.002124746899665476,3.689984083175659,2019-06-20 15:09:05:884
-4.174226745605469,-8.481329650878907,1.0510384521484375,0.0355718634861344,0.043426357778618724,-0.0017252727361535905,3.695103883743286,2019-06-20 15:09:05:889
-4.173029663085938,-8.493300476074218,1.067797607421875,0.03503923126811855,0.04329319972411476,-0.0015921146816496288,3.699968099594116,2019-06-20 15:09:05:894
-4.159861755371094,-8.465767578125,1.08216259765625,0.03543870543163044,0.04395898999663457,0.0010710464084296096,3.705087900161743,2019-06-20 15:09:05:899
