ACCELEROMETER X (m/s²),ACCELEROMETER Y (m/s²),ACCELEROMETER Z (m/s²),GYROSCOPE X (rad/s),GYROSCOPE Y (rad/s),GYROSCOPE Z (rad/s),Time since start in ms ,YYYY-MO-DD HH-MI-SS_SSS
10.524749511718749,-0.8726731567382813,1.5310685424804686,0.03157712185101554,0.04049688057953156,0.012655797150274295,0.0,2019-06-20 16:03:04:068
10.54509991455078,-0.8990089721679687,1.5167035522460937,0.03237607017803931,0.0403637225250276,0.012389481041266371,0.005120038986206055,2019-06-20 16:03:04:073
10.559464904785155,-0.9241477050781249,1.5418422851562499,0.03077817352399177,0.04102951279754741,0.011723690768746563,0.009984016418457031,2019-06-20 16:03:04:078
10.554676574707031,-0.914571044921875,1.5059298095703124,0.03171027990551951,0.041428986961059296,0.012522639095770333,0.015104055404663086,2019-06-20 16:03:04:083
10.546296997070312,-0.9229506225585937,1.5131123046875,0.03157712185101554,0.04089635474304345,0.012655797150274295,0.019968032836914062,2019-06-20 16:03:04:088
10.530734924316405,-0.9002060546874999,1.5023385620117187,0.031044489632999692,0.04023056447052364,0.012522639095770333,0.025088071823120117,2019-06-20 16:03:04:093
10.524749511718749,-0.9265418701171875,1.5107181396484375,0.030645015469487807,0.038765825870980056,0.012655797150274295,0.029952049255371094,2019-06-20 16:03:04:098
10.541508666992188,-0.9169652099609374,1.4783969116210938,0.029579751033456114,0.0392984580889959,0.013321587422794106,0.03507184982299805,2019-06-20 16:03:04:103
10.540311584472656,-0.9169652099609374,1.48438232421875,0.03091133157849573,0.039964248361515714,0.013188429368290141,0.039936065673828125,2019-06-20 16:03:04:108
10.518764099121093,-0.9229506225585937,1.5119152221679688,0.03077817352399177,0.039964248361515714,0.013854219640809953,0.04505586624145508,2019-06-20 16:03:04:113
10.521158264160157,-0.9325272827148438,1.5047327270507813,0.030645015469487807,0.040630038634035526,0.013721061586305991,0.049919843673706055,2019-06-20 16:03:04:118
10.510384521484374,-0.9014031372070312,1.5238860473632811,0.030378699360479884,0.03916530003449194,0.012522639095770333,0.05503988265991211,2019-06-20 16:03:04:123
10.517567016601562,-0.9181622924804688,1.5214918823242187,0.029979225196968,0.03969793225250779,0.012522639095770333,0.059903860092163086,2019-06-20 16:03:04:128
10.54509991455078,-0.9169652099609374,1.508323974609375,0.03157712185101554,0.04023056447052364,0.013321587422794106,0.06502389907836914,2019-06-20 16:03:04:133
10.531932006835937,-0.9241477050781249,1.5107181396484375,0.030511857414983846,0.03983109030701175,0.012788955204778256,0.0701439380645752,2019-06-20 16:03:04:138
10.51636993408203,-0.9229506225585937,1.48438232421875,0.030378699360479884,0.039564774198003826,0.012522639095770333,0.07500791549682617,2019-06-20 16:03:04:143
10.525946594238281,-0.9253447875976563,1.5250831298828125,0.030245541305975922,0.03983109030701175,0.012123164932258448,0.08012795448303223,2019-06-20 16:03:04:148
10.539114501953124,-0.9169652099609374,1.508323974609375,0.031177647687503654,0.040763196688539484,0.011856848823250525,0.0849919319152832,2019-06-20 16:03:04:153
10.540311584472656,-0.9205564575195312,1.4927619018554688,0.031843437960023466,0.039964248361515714,0.012389481041266371,0.09011197090148926,2019-06-20 16:03:04:158
10.540311584472656,-0.9229506225585937,1.4915648193359374,0.031044489632999692,0.03916530003449194,0.011990006877754486,0.09497594833374023,2019-06-20 16:03:04:163
10.542705749511718,-0.914571044921875,1.5119152221679688,0.03077817352399177,0.03969793225250779,0.01225632298676241,0.10009598731994629,2019-06-20 16:03:04:168
10.547494079589843,-0.8894323120117187,1.50353564453125,0.03011238325147196,0.039564774198003826,0.011990006877754486,0.10495996475219727,2019-06-20 16:03:04:173
10.548691162109375,-0.904994384765625,1.460440673828125,0.029846067142464038,0.0392984580889959,0.01225632298676241,0.11008000373840332,2019-06-20 16:03:04:178
10.521158264160157,-0.9073885498046875,1.4592435913085937,0.03091133157849573,0.04116267085205137,0.012123164932258448,0.1149439811706543,2019-06-20 16:03:04:183
10.527143676757813,-0.8870381469726563,1.4424844360351563,0.03157712185101554,0.04009740641601968,0.012788955204778256,0.12006402015686035,2019-06-20 16:03:04:188
10.529537841796875,-0.9014031372070312,1.48438232421875,0.03077817352399177,0.039964248361515714,0.012655797150274295,0.12492799758911133,2019-06-20 16:03:04:193
10.521158264160157,-0.9229506225585937,1.5107181396484375,0.03091133157849573,0.04009740641601968,0.013188429368290141,0.13004803657531738,2019-06-20 16:03:04:198
10.5151728515625,-0.919359375,1.4807910766601562,0.03171027990551951,0.0392984580889959,0.012123164932258448,0.13491201400756836,2019-06-20 16:03:04:203
10.51636993408203,-0.933724365234375,1.517900634765625,0.031044489632999692,0.03903214197998798,0.01145737465973864,0.14003205299377441,2019-06-20 16:03:04:208
10.530734924316405,-0.9373156127929687,1.546630615234375,0.03171027990551951,0.03943161614349987,0.012389481041266371,0.1448960304260254,2019-06-20 16:03:04:213
10.54509991455078,-0.9409068603515625,1.537053955078125,0.03011238325147196,0.03916530003449194,0.013321587422794106,0.15001606941223145,2019-06-20 16:03:04:218
10.528340759277343,-0.9349214477539062,1.5095210571289062,0.031443963796511584,0.03849950976197213,0.013454745477298068,0.1551358699798584,2019-06-20 16:03:04:223
10.537917419433594,-0.914571044921875,1.5119152221679688,0.031843437960023466,0.04023056447052364,0.013188429368290141,0.15999984741210938,2019-06-20 16:03:04:228
10.561859069824218,-0.9109797973632813,1.4831852416992186,0.0327755443415512,0.039564774198003826,0.012123164932258448,0.16511988639831543,2019-06-20 16:03:04:233
10.552282409667969,-0.9373156127929687,1.470017333984375,0.03290870239605516,0.03943161614349987,0.013454745477298068,0.1699838638305664,2019-06-20 16:03:04:238
10.535523254394532,-0.8978118896484375,1.4963531494140625,0.03250922823254328,0.0392984580889959,0.013321587422794106,0.17510390281677246,2019-06-20 16:03:04:243
10.524749511718749,-0.9205564575195312,1.5202947998046874,0.03237607017803931,0.03943161614349987,0.01225632298676241,0.17996788024902344,2019-06-20 16:03:04:248
10.522355346679687,-0.9253447875976563,1.4975502319335938,0.03197659601452743,0.03943161614349987,0.012123164932258448,0.1850879192352295,2019-06-20 16:03:04:253
10.529537841796875,-0.92893603515625,1.517900634765625,0.032642386287047236,0.038898983925484014,0.013188429368290141,0.18995189666748047,2019-06-20 16:03:04:258
10.534326171875,-0.9241477050781249,1.50353564453125,0.033840808777582894,0.03983109030701175,0.01305527131378618,0.19507193565368652,2019-06-20 16:03:04:263
10.541508666992188,-0.9229506225585937,1.5071268920898437,0.03397396683208686,0.04116267085205137,0.012389481041266371,0.1999359130859375,2019-06-20 16:03:04:268
10.533129089355468,-0.9217535400390625,1.4951560668945312,0.03410712488659082,0.0392984580889959,0.011191058550730713,0.20505595207214355,2019-06-20 16:03:04:273
10.554676574707031,-0.9253447875976563,1.5119152221679688,0.03290870239605516,0.03863266781647609,0.01225632298676241,0.20991992950439453,2019-06-20 16:03:04:278
10.555873657226563,-0.9241477050781249,1.5238860473632811,0.03197659601452743,0.03903214197998798,0.012123164932258448,0.21503996849060059,2019-06-20 16:03:04:283
10.553479492187499,-0.9181622924804688,1.5202947998046874,0.03290870239605516,0.03983109030701175,0.01145737465973864,0.21990394592285156,2019-06-20 16:03:04:288
10.579815307617187,-0.9061914672851562,1.5298714599609375,0.032642386287047236,0.039564774198003826,0.01145737465973864,0.22502398490905762,2019-06-20 16:03:04:293
10.529537841796875,-0.9229506225585937,1.4939589843749999,0.03171027990551951,0.03969793225250779,0.012655797150274295,0.2298879623413086,2019-06-20 16:03:04:298
10.540311584472656,-0.9061914672851562,1.5131123046875,0.032642386287047236,0.03849950976197213,0.011856848823250525,0.23500800132751465,2019-06-20 16:03:04:303
10.549888244628907,-0.8990089721679687,1.5119152221679688,0.03344133461407101,0.03916530003449194,0.011723690768746563,0.2401280403137207,2019-06-20 16:03:04:308
10.546296997070312,-0.8990089721679687,1.5202947998046874,0.033041860450559124,0.0392984580889959,0.012123164932258448,0.24499201774597168,2019-06-20 16:03:04:313
10.548691162109375,-0.9133739624023437,1.5155064697265626,0.03237607017803931,0.0392984580889959,0.012522639095770333,0.25011205673217773,2019-06-20 16:03:04:318
10.555873657226563,-0.90978271484375,1.5298714599609375,0.03250922823254328,0.03916530003449194,0.012922113259282218,0.2549760341644287,2019-06-20 16:03:04:323
10.552282409667969,-0.8930235595703124,1.489170654296875,0.03250922823254328,0.03983109030701175,0.012522639095770333,0.26009607315063477,2019-06-20 16:03:04:328
10.535523254394532,-0.9181622924804688,1.490367736816406,0.03237607017803931,0.039564774198003826,0.012655797150274295,0.26496005058288574,2019-06-20 16:03:04:333
10.529537841796875,-0.89062939453125,1.498747314453125,0.03197659601452743,0.03983109030701175,0.011990006877754486,0.2700798511505127,2019-06-20 16:03:04:338
10.546296997070312,-0.8990089721679687,1.4688202514648436,0.032242912123535354,0.039564774198003826,0.011990006877754486,0.2749440670013428,2019-06-20 16:03:04:343
10.540311584472656,-0.9026002197265625,1.5214918823242187,0.0327755443415512,0.03916530003449194,0.011723690768746563,0.2800638675689697,2019-06-20 16:03:04:348
10.555873657226563,-0.8966148071289062,1.5550101928710938,0.03171027990551951,0.04049688057953156,0.012788955204778256,0.2849278450012207,2019-06-20 16:03:04:353
10.552282409667969,-0.9133739624023437,1.5143093872070312,0.03157712185101554,0.040763196688539484,0.013188429368290141,0.29004788398742676,2019-06-20 16:03:04:358
10.561859069824218,-0.90978271484375,1.4939589843749999,0.03210975406903139,0.04023056447052364,0.014120535749817876,0.29491186141967773,2019-06-20 16:03:04:363
10.542705749511718,-0.9253447875976563,1.5190977172851563,0.03131080574200762,0.04009740641601968,0.013321587422794106,0.3000319004058838,2019-06-20 16:03:04:368
10.537917419433594,-0.9014031372070312,1.5167035522460937,0.03131080574200762,0.04023056447052364,0.013454745477298068,0.30489587783813477,2019-06-20 16:03:04:373
10.554676574707031,-0.8990089721679687,1.4939589843749999,0.03171027990551951,0.0403637225250276,0.014120535749817876,0.3100159168243408,2019-06-20 16:03:04:378
10.534326171875,-0.9061914672851562,1.527477294921875,0.03157712185101554,0.04009740641601968,0.01358790353180203,0.3151359558105469,2019-06-20 16:03:04:383
10.539114501953124,-0.9229506225585937,1.5430393676757812,0.03157712185101554,0.03836635170746817,0.013321587422794106,0.31999993324279785,2019-06-20 16:03:04:388
10.517567016601562,-0.9169652099609374,1.5119152221679688,0.03171027990551951,0.038898983925484014,0.01358790353180203,0.3251199722290039,2019-06-20 16:03:04:393
10.555873657226563,-0.9026002197265625,1.5298714599609375,0.032642386287047236,0.03983109030701175,0.013721061586305991,0.3299839496612549,2019-06-20 16:03:04:398
10.536720336914062,-0.8894323120117187,1.50353564453125,0.03290870239605516,0.04009740641601968,0.012788955204778256,0.33510398864746094,2019-06-20 16:03:04:403
10.54509991455078,-0.90978271484375,1.4963531494140625,0.031177647687503654,0.03983109030701175,0.013188429368290141,0.3399679660797119,2019-06-20 16:03:04:408
10.57382989501953,-0.8918264770507812,1.498747314453125,0.03197659601452743,0.039964248361515714,0.015052642131345608,0.34508800506591797,2019-06-20 16:03:04:413
10.541508666992188,-0.8774614868164062,1.5167035522460937,0.031843437960023466,0.03943161614349987,0.015452116294857496,0.34995198249816895,2019-06-20 16:03:04:418
10.519961181640625,-0.89062939453125,1.4807910766601562,0.031177647687503654,0.03943161614349987,0.015052642131345608,0.355072021484375,2019-06-20 16:03:04:423
10.534326171875,-0.881052734375,1.4867764892578124,0.03157712185101554,0.03916530003449194,0.014786326022337684,0.359935998916626,2019-06-20 16:03:04:428
10.531932006835937,-0.9085856323242187,1.4795939941406249,0.030378699360479884,0.03943161614349987,0.013987377695313915,0.36505603790283203,2019-06-20 16:03:04:433
10.533129089355468,-0.8786585693359374,1.5262802124023438,0.031443963796511584,0.039964248361515714,0.014253693804321838,0.369920015335083,2019-06-20 16:03:04:438
10.536720336914062,-0.881052734375,1.5346597900390624,0.03157712185101554,0.04023056447052364,0.014253693804321838,0.37504005432128906,2019-06-20 16:03:04:443
10.547494079589843,-0.9026002197265625,1.5382510375976561,0.03131080574200762,0.03943161614349987,0.015052642131345608,0.37990403175354004,2019-06-20 16:03:04:448
10.542705749511718,-0.919359375,1.4999443969726562,0.03210975406903139,0.038765825870980056,0.013854219640809953,0.3850240707397461,2019-06-20 16:03:04:453
10.524749511718749,-0.9229506225585937,1.5334627075195313,0.031044489632999692,0.040763196688539484,0.014520009913329761,0.38988804817199707,2019-06-20 16:03:04:458
10.542705749511718,-0.9073885498046875,1.5238860473632811,0.031443963796511584,0.04009740641601968,0.014120535749817876,0.395007848739624,2019-06-20 16:03:04:463
10.547494079589843,-0.9181622924804688,1.4939589843749999,0.03157712185101554,0.03983109030701175,0.0143868518588258,0.4001278877258301,2019-06-20 16:03:04:468
10.551085327148437,-0.933724365234375,1.4915648193359374,0.03197659601452743,0.04089635474304345,0.014653167967833723,0.40499186515808105,2019-06-20 16:03:04:473
10.54390283203125,-0.9121768798828125,1.4951560668945312,0.03210975406903139,0.039964248361515714,0.013987377695313915,0.4101119041442871,2019-06-20 16:03:04:478
10.541508666992188,-0.9313302001953124,1.5119152221679688,0.032242912123535354,0.0403637225250276,0.01358790353180203,0.4149758815765381,2019-06-20 16:03:04:483
10.524749511718749,-0.9385126953125,1.5238860473632811,0.03250922823254328,0.04023056447052364,0.013454745477298068,0.42009592056274414,2019-06-20 16:03:04:488
10.560661987304687,-0.943301025390625,1.5143093872070312,0.03210975406903139,0.04023056447052364,0.014120535749817876,0.4249598979949951,2019-06-20 16:03:04:493
10.539114501953124,-0.9468922729492187,1.4795939941406249,0.031843437960023466,0.04009740641601968,0.012922113259282218,0.43007993698120117,2019-06-20 16:03:04:498
10.537917419433594,-0.9301331176757812,1.5071268920898437,0.03157712185101554,0.03903214197998798,0.013721061586305991,0.43494391441345215,2019-06-20 16:03:04:503
10.541508666992188,-0.9073885498046875,1.48438232421875,0.032242912123535354,0.040763196688539484,0.014120535749817876,0.4400639533996582,2019-06-20 16:03:04:508
10.565450317382812,-0.8978118896484375,1.517900634765625,0.0327755443415512,0.0392984580889959,0.014653167967833723,0.4449279308319092,2019-06-20 16:03:04:513
10.569041564941406,-0.919359375,1.4975502319335938,0.03317501850506309,0.039564774198003826,0.014653167967833723,0.45004796981811523,2019-06-20 16:03:04:518
10.561859069824218,-0.9026002197265625,1.4771998291015624,0.03250922823254328,0.03943161614349987,0.015318958240353535,0.4549119472503662,2019-06-20 16:03:04:523
10.551085327148437,-0.8978118896484375,1.4748056640625,0.03171027990551951,0.03983109030701175,0.013987377695313915,0.46003198623657227,2019-06-20 16:03:04:528
10.548691162109375,-0.9169652099609374,1.4616377563476561,0.031443963796511584,0.04009740641601968,0.01358790353180203,0.46489596366882324,2019-06-20 16:03:04:533
10.555873657226563,-0.919359375,1.4664260864257812,0.031443963796511584,0.039964248361515714,0.014919484076841646,0.4700160026550293,2019-06-20 16:03:04:538
10.546296997070312,-0.9265418701171875,1.4712144165039063,0.03077817352399177,0.03969793225250779,0.014120535749817876,0.47513604164123535,2019-06-20 16:03:04:543
10.525946594238281,-0.8882352294921875,1.5047327270507813,0.03131080574200762,0.03863266781647609,0.013454745477298068,0.48000001907348633,2019-06-20 16:03:04:548
10.541508666992188,-0.9109797973632813,1.4915648193359374,0.031177647687503654,0.03916530003449194,0.014120535749817876,0.4851200580596924,2019-06-20 16:03:04:553
10.54509991455078,-0.9265418701171875,1.5262802124023438,0.03091133157849573,0.03863266781647609,0.013987377695313915,0.48998403549194336,2019-06-20 16:03:04:558
10.525946594238281,-0.914571044921875,1.4736085815429687,0.03077817352399177,0.03969793225250779,0.014120535749817876,0.4951040744781494,2019-06-20 16:03:04:563
10.513975769042968,-0.9253447875976563,1.5071268920898437,0.031044489632999692,0.04023056447052364,0.014253693804321838,0.4999680519104004,2019-06-20 16:03:04:568
10.54509991455078,-0.9325272827148438,1.4975502319335938,0.030645015469487807,0.0403637225250276,0.013721061586305991,0.5050878524780273,2019-06-20 16:03:04:573
10.528340759277343,-0.9373156127929687,1.4975502319335938,0.03131080574200762,0.041428986961059296,0.012788955204778256,0.5099520683288574,2019-06-20 16:03:04:578
10.537917419433594,-0.9397097778320312,1.508323974609375,0.031177647687503654,0.041562145015563254,0.01305527131378618,0.5150718688964844,2019-06-20 16:03:04:583
10.546296997070312,-0.9373156127929687,1.4963531494140625,0.03091133157849573,0.03943161614349987,0.012788955204778256,0.5199358463287354,2019-06-20 16:03:04:588
10.54509991455078,-0.9468922729492187,1.4831852416992186,0.03131080574200762,0.03969793225250779,0.01225632298676241,0.5250558853149414,2019-06-20 16:03:04:593
10.529537841796875,-0.9349214477539062,1.5202947998046874,0.03131080574200762,0.03983109030701175,0.011990006877754486,0.5299198627471924,2019-06-20 16:03:04:598
10.549888244628907,-0.9313302001953124,1.5167035522460937,0.032642386287047236,0.03983109030701175,0.012922113259282218,0.5350399017333984,2019-06-20 16:03:04:603
10.54509991455078,-0.9121768798828125,1.4999443969726562,0.033041860450559124,0.04116267085205137,0.012123164932258448,0.5399038791656494,2019-06-20 16:03:04:608
10.528340759277343,-0.9397097778320312,1.4999443969726562,0.032642386287047236,0.03969793225250779,0.011191058550730713,0.5450239181518555,2019-06-20 16:03:04:613
10.523552429199219,-0.9385126953125,1.48438232421875,0.031443963796511584,0.0392984580889959,0.011590532714242601,0.5498878955841064,2019-06-20 16:03:04:618
10.549888244628907,-0.9169652099609374,1.4939589843749999,0.032642386287047236,0.04049688057953156,0.011590532714242601,0.5550079345703125,2019-06-20 16:03:04:623
10.548691162109375,-0.9277389526367187,1.4999443969726562,0.03171027990551951,0.040630038634035526,0.011723690768746563,0.5601279735565186,2019-06-20 16:03:04:628
10.534326171875,-0.9564689331054688,1.4795939941406249,0.031044489632999692,0.038898983925484014,0.011191058550730713,0.5649919509887695,2019-06-20 16:03:04:633
10.54509991455078,-0.943301025390625,1.4712144165039063,0.031044489632999692,0.038898983925484014,0.011191058550730713,0.5701119899749756,2019-06-20 16:03:04:638
10.510384521484374,-0.9217535400390625,1.4915648193359374,0.032242912123535354,0.039564774198003826,0.01092474244172279,0.5749759674072266,2019-06-20 16:03:04:643
10.524749511718749,-0.9385126953125,1.4867764892578124,0.0327755443415512,0.03983109030701175,0.008661055515155438,0.5800960063934326,2019-06-20 16:03:04:648
10.51636993408203,-0.9361185302734375,1.4807910766601562,0.03250922823254328,0.03983109030701175,0.009859478005691095,0.5849599838256836,2019-06-20 16:03:04:653
10.525946594238281,-0.9181622924804688,1.4927619018554688,0.03250922823254328,0.03983109030701175,0.01012579411469902,0.5900800228118896,2019-06-20 16:03:04:658
10.529537841796875,-0.919359375,1.5190977172851563,0.03197659601452743,0.04089635474304345,0.009859478005691095,0.5949440002441406,2019-06-20 16:03:04:663
10.54509991455078,-0.914571044921875,1.490367736816406,0.031843437960023466,0.040763196688539484,0.010392110223706943,0.6000640392303467,2019-06-20 16:03:04:668
10.557070739746093,-0.9085856323242187,1.490367736816406,0.031443963796511584,0.03943161614349987,0.01012579411469902,0.6049280166625977,2019-06-20 16:03:04:673
10.536720336914062,-0.9157681274414062,1.5334627075195313,0.03210975406903139,0.04009740641601968,0.009593161896683172,0.6100480556488037,2019-06-20 16:03:04:678
10.519961181640625,-0.895417724609375,1.5262802124023438,0.03290870239605516,0.039564774198003826,0.010258952169202981,0.6149120330810547,2019-06-20 16:03:04:683
10.535523254394532,-0.8930235595703124,1.5023385620117187,0.032242912123535354,0.038765825870980056,0.009593161896683172,0.6200320720672607,2019-06-20 16:03:04:688
10.56305615234375,-0.9037973022460938,1.4831852416992186,0.031443963796511584,0.039964248361515714,0.010525268278210905,0.6248960494995117,2019-06-20 16:03:04:693
10.541508666992188,-0.8990089721679687,1.4592435913085937,0.03197659601452743,0.03943161614349987,0.010791584387218828,0.6300158500671387,2019-06-20 16:03:04:698
10.531932006835937,-0.9037973022460938,1.5250831298828125,0.03210975406903139,0.04009740641601968,0.011723690768746563,0.6351358890533447,2019-06-20 16:03:04:703
10.56305615234375,-0.8930235595703124,1.4748056640625,0.031843437960023466,0.04102951279754741,0.011990006877754486,0.6399998664855957,2019-06-20 16:03:04:708
10.533129089355468,-0.8894323120117187,1.4915648193359374,0.031443963796511584,0.039964248361515714,0.011856848823250525,0.6451199054718018,2019-06-20 16:03:04:713
10.552282409667969,-0.8846439819335937,1.5119152221679688,0.03197659601452743,0.04023056447052364,0.012522639095770333,0.6499838829040527,2019-06-20 16:03:04:718
10.553479492187499,-0.8798556518554688,1.5107181396484375,0.032242912123535354,0.03916530003449194,0.01225632298676241,0.6551039218902588,2019-06-20 16:03:04:723
10.533129089355468,-0.8882352294921875,1.5346597900390624,0.03157712185101554,0.038898983925484014,0.013321587422794106,0.6599678993225098,2019-06-20 16:03:04:728
10.536720336914062,-0.8822498168945312,1.5286743774414062,0.03171027990551951,0.038765825870980056,0.01305527131378618,0.6650879383087158,2019-06-20 16:03:04:733
10.549888244628907,-0.8966148071289062,1.4676231689453125,0.031443963796511584,0.0392984580889959,0.012788955204778256,0.6699519157409668,2019-06-20 16:03:04:738
10.551085327148437,-0.8750673217773437,1.5071268920898437,0.031044489632999692,0.038765825870980056,0.01358790353180203,0.6750719547271729,2019-06-20 16:03:04:743
10.539114501953124,-0.9085856323242187,1.5107181396484375,0.03091133157849573,0.0392984580889959,0.012522639095770333,0.6799359321594238,2019-06-20 16:03:04:748
10.549888244628907,-0.89062939453125,1.48438232421875,0.03157712185101554,0.03903214197998798,0.013721061586305991,0.6850559711456299,2019-06-20 16:03:04:753
10.542705749511718,-0.8990089721679687,1.4975502319335938,0.031044489632999692,0.03969793225250779,0.014520009913329761,0.6899199485778809,2019-06-20 16:03:04:758
10.557070739746093,-0.8786585693359374,1.4963531494140625,0.03131080574200762,0.039564774198003826,0.015185800185849573,0.6950399875640869,2019-06-20 16:03:04:763
10.564253234863282,-0.9014031372070312,1.5059298095703124,0.031044489632999692,0.04023056447052364,0.015984748512873345,0.6999039649963379,2019-06-20 16:03:04:768
10.561859069824218,-0.952877685546875,1.5238860473632811,0.031443963796511584,0.04089635474304345,0.015452116294857496,0.705024003982544,2019-06-20 16:03:04:773
10.54509991455078,-0.919359375,1.5286743774414062,0.03237607017803931,0.04009740641601968,0.013321587422794106,0.7098879814147949,2019-06-20 16:03:04:778
10.529537841796875,-0.914571044921875,1.4951560668945312,0.03157712185101554,0.0392984580889959,0.014786326022337684,0.715008020401001,2019-06-20 16:03:04:783
10.513975769042968,-0.9313302001953124,1.4807910766601562,0.032242912123535354,0.038898983925484014,0.015052642131345608,0.720128059387207,2019-06-20 16:03:04:788
10.527143676757813,-0.9349214477539062,1.4927619018554688,0.031044489632999692,0.03916530003449194,0.01571843240386542,0.724992036819458,2019-06-20 16:03:04:793
10.518764099121093,-0.9229506225585937,1.5011414794921876,0.031044489632999692,0.04023056447052364,0.015851590458369383,0.7301120758056641,2019-06-20 16:03:04:798
10.521158264160157,-0.9061914672851562,1.498747314453125,0.031443963796511584,0.03983109030701175,0.016251064621881268,0.734976053237915,2019-06-20 16:03:04:803
10.512778686523438,-0.8858410644531249,1.5382510375976561,0.03131080574200762,0.0392984580889959,0.01571843240386542,0.740095853805542,2019-06-20 16:03:04:808
10.492428283691407,-0.9133739624023437,1.5131123046875,0.03157712185101554,0.039964248361515714,0.016117906567377306,0.7449600696563721,2019-06-20 16:03:04:813
10.5151728515625,-0.9109797973632813,1.527477294921875,0.03157712185101554,0.039564774198003826,0.013854219640809953,0.750079870223999,2019-06-20 16:03:04:818
10.510384521484374,-0.9085856323242187,1.5143093872070312,0.031044489632999692,0.039564774198003826,0.015052642131345608,0.75494384765625,2019-06-20 16:03:04:823
10.537917419433594,-0.9325272827148438,1.4927619018554688,0.031843437960023466,0.040630038634035526,0.015452116294857496,0.760063886642456,2019-06-20 16:03:04:828
10.535523254394532,-0.9085856323242187,1.5131123046875,0.033041860450559124,0.0392984580889959,0.0143868518588258,0.764927864074707,2019-06-20 16:03:04:833
10.534326171875,-0.9373156127929687,1.5059298095703124,0.03197659601452743,0.0403637225250276,0.014120535749817876,0.7700479030609131,2019-06-20 16:03:04:838
10.503202026367187,-0.9121768798828125,1.5071268920898437,0.03210975406903139,0.04169530307006722,0.014253693804321838,0.7749118804931641,2019-06-20 16:03:04:843
10.541508666992188,-0.9205564575195312,1.5155064697265626,0.033041860450559124,0.039564774198003826,0.014919484076841646,0.7800319194793701,2019-06-20 16:03:04:848
10.537917419433594,-0.933724365234375,1.5023385620117187,0.03237607017803931,0.03983109030701175,0.0143868518588258,0.7848958969116211,2019-06-20 16:03:04:853
10.527143676757813,-0.9037973022460938,1.4951560668945312,0.03290870239605516,0.04009740641601968,0.013188429368290141,0.7900159358978271,2019-06-20 16:03:04:858
10.527143676757813,-0.9181622924804688,1.4915648193359374,0.033041860450559124,0.03983109030701175,0.01305527131378618,0.7951359748840332,2019-06-20 16:03:04:863
10.512778686523438,-0.9540747680664062,1.4999443969726562,0.03171027990551951,0.0403637225250276,0.013721061586305991,0.7999999523162842,2019-06-20 16:03:04:868
10.530734924316405,-0.9325272827148438,1.4879735717773437,0.0327755443415512,0.039564774198003826,0.013321587422794106,0.8051199913024902,2019-06-20 16:03:04:873
10.548691162109375,-0.9301331176757812,1.4760027465820311,0.032242912123535354,0.03983109030701175,0.013321587422794106,0.8099839687347412,2019-06-20 16:03:04:878
10.531932006835937,-0.9085856323242187,1.50353564453125,0.0327755443415512,0.03983109030701175,0.013454745477298068,0.8151040077209473,2019-06-20 16:03:04:883
10.527143676757813,-0.9085856323242187,1.4867764892578124,0.03197659601452743,0.03943161614349987,0.012655797150274295,0.8199679851531982,2019-06-20 16:03:04:888
10.54509991455078,-0.9085856323242187,1.537053955078125,0.03171027990551951,0.039564774198003826,0.012788955204778256,0.8250880241394043,2019-06-20 16:03:04:893
10.536720336914062,-0.8894323120117187,1.537053955078125,0.03290870239605516,0.03969793225250779,0.01145737465973864,0.8299520015716553,2019-06-20 16:03:04:898
10.559464904785155,-0.8918264770507812,1.5011414794921876,0.033707650723078936,0.04102951279754741,0.011057900496226753,0.8350720405578613,2019-06-20 16:03:04:903
10.542705749511718,-0.8798556518554688,1.5071268920898437,0.0327755443415512,0.041562145015563254,0.011590532714242601,0.8399360179901123,2019-06-20 16:03:04:908
10.54509991455078,-0.8858410644531249,1.5011414794921876,0.03171027990551951,0.03983109030701175,0.011590532714242601,0.8450560569763184,2019-06-20 16:03:04:913
10.551085327148437,-0.876264404296875,1.4760027465820311,0.0327755443415512,0.03983109030701175,0.01145737465973864,0.8499200344085693,2019-06-20 16:03:04:918
10.537917419433594,-0.8966148071289062,1.50353564453125,0.03357449266857497,0.04023056447052364,0.01225632298676241,0.8550400733947754,2019-06-20 16:03:04:923
10.540311584472656,-0.8930235595703124,1.4819881591796875,0.03171027990551951,0.03983109030701175,0.012389481041266371,0.8599040508270264,2019-06-20 16:03:04:928
10.534326171875,-0.9205564575195312,1.4963531494140625,0.03250922823254328,0.039964248361515714,0.01225632298676241,0.8650238513946533,2019-06-20 16:03:04:933
10.549888244628907,-0.9121768798828125,1.4951560668945312,0.03290870239605516,0.04023056447052364,0.011723690768746563,0.8698880672454834,2019-06-20 16:03:04:938
10.549888244628907,-0.8918264770507812,1.5190977172851563,0.031177647687503654,0.04089635474304345,0.011191058550730713,0.8750078678131104,2019-06-20 16:03:04:943
10.558267822265625,-0.9002060546874999,1.489170654296875,0.030645015469487807,0.04089635474304345,0.012522639095770333,0.8801279067993164,2019-06-20 16:03:04:948
10.535523254394532,-0.895417724609375,1.5190977172851563,0.030511857414983846,0.04049688057953156,0.01305527131378618,0.8849918842315674,2019-06-20 16:03:04:953
10.521158264160157,-0.9002060546874999,1.5071268920898437,0.03171027990551951,0.04116267085205137,0.014253693804321838,0.8901119232177734,2019-06-20 16:03:04:958
10.525946594238281,-0.90978271484375,1.4939589843749999,0.03091133157849573,0.039964248361515714,0.011990006877754486,0.8949759006500244,2019-06-20 16:03:04:963
10.540311584472656,-0.9109797973632813,1.5286743774414062,0.031443963796511584,0.038898983925484014,0.012123164932258448,0.9000959396362305,2019-06-20 16:03:04:968
10.517567016601562,-0.9373156127929687,1.5143093872070312,0.030645015469487807,0.03983109030701175,0.012922113259282218,0.9049599170684814,2019-06-20 16:03:04:973
10.534326171875,-0.9241477050781249,1.5119152221679688,0.030378699360479884,0.040630038634035526,0.012788955204778256,0.9100799560546875,2019-06-20 16:03:04:978
10.557070739746093,-0.9073885498046875,1.5071268920898437,0.031177647687503654,0.04023056447052364,0.011990006877754486,0.9149439334869385,2019-06-20 16:03:04:983
10.537917419433594,-0.9157681274414062,1.4927619018554688,0.03077817352399177,0.040763196688539484,0.011990006877754486,0.9200639724731445,2019-06-20 16:03:04:988
10.552282409667969,-0.8966148071289062,1.4676231689453125,0.03077817352399177,0.040763196688539484,0.011590532714242601,0.9249279499053955,2019-06-20 16:03:04:993
10.540311584472656,-0.9181622924804688,1.50353564453125,0.031843437960023466,0.04049688057953156,0.012389481041266371,0.9300479888916016,2019-06-20 16:03:04:998
10.531932006835937,-0.9061914672851562,1.5190977172851563,0.030645015469487807,0.04023056447052364,0.012389481041266371,0.9349119663238525,2019-06-20 16:03:05:003
10.531932006835937,-0.9277389526367187,1.4628348388671875,0.03131080574200762,0.04049688057953156,0.011856848823250525,0.9400320053100586,2019-06-20 16:03:05:008
10.528340759277343,-0.9133739624023437,1.5107181396484375,0.03157712185101554,0.039964248361515714,0.012522639095770333,0.9448959827423096,2019-06-20 16:03:05:013
10.531932006835937,-0.9169652099609374,1.5310685424804686,0.03077817352399177,0.0392984580889959,0.012389481041266371,0.9500160217285156,2019-06-20 16:03:05:018
10.561859069824218,-0.8978118896484375,1.5382510375976561,0.029712909087960076,0.0392984580889959,0.011856848823250525,0.9551360607147217,2019-06-20 16:03:05:023
10.530734924316405,-0.8798556518554688,1.527477294921875,0.03011238325147196,0.039564774198003826,0.01145737465973864,0.9600000381469727,2019-06-20 16:03:05:028
10.531932006835937,-0.9085856323242187,1.5023385620117187,0.031177647687503654,0.0403637225250276,0.012922113259282218,0.9651200771331787,2019-06-20 16:03:05:033
10.535523254394532,-0.9026002197265625,1.5107181396484375,0.031843437960023466,0.040630038634035526,0.013854219640809953,0.9699840545654297,2019-06-20 16:03:05:038
10.531932006835937,-0.9121768798828125,1.4951560668945312,0.030511857414983846,0.03943161614349987,0.012788955204778256,0.9751038551330566,2019-06-20 16:03:05:043
10.540311584472656,-0.9241477050781249,1.48438232421875,0.030645015469487807,0.03903214197998798,0.013188429368290141,0.9799680709838867,2019-06-20 16:03:05:048
10.541508666992188,-0.9325272827148438,1.4724114990234374,0.030645015469487807,0.04009740641601968,0.01305527131378618,0.9850878715515137,2019-06-20 16:03:05:053
10.529537841796875,-0.9361185302734375,1.4760027465820311,0.031177647687503654,0.03783371948945232,0.013854219640809953,0.9899518489837646,2019-06-20 16:03:05:058
10.535523254394532,-0.9217535400390625,1.4580465087890624,0.030511857414983846,0.038765825870980056,0.01358790353180203,0.9950718879699707,2019-06-20 16:03:05:063
10.546296997070312,-0.9121768798828125,1.4771998291015624,0.030511857414983846,0.03943161614349987,0.012788955204778256,0.9999358654022217,2019-06-20 16:03:05:068
10.535523254394532,-0.92893603515625,1.50353564453125,0.031044489632999692,0.039564774198003826,0.013321587422794106,1.0050559043884277,2019-06-20 16:03:05:073
10.560661987304687,-0.9217535400390625,1.4760027465820311,0.03131080574200762,0.04023056447052364,0.013721061586305991,1.0099198818206787,2019-06-20 16:03:05:078
10.54390283203125,-0.9109797973632813,1.5143093872070312,0.031044489632999692,0.03943161614349987,0.012655797150274295,1.0150399208068848,2019-06-20 16:03:05:083
10.522355346679687,-0.92893603515625,1.508323974609375,0.031177647687503654,0.0392984580889959,0.012922113259282218,1.0199038982391357,2019-06-20 16:03:05:088
10.523552429199219,-0.9313302001953124,1.4831852416992186,0.03091133157849573,0.039564774198003826,0.012123164932258448,1.0250239372253418,2019-06-20 16:03:05:093
10.524749511718749,-0.9109797973632813,1.5059298095703124,0.030645015469487807,0.038898983925484014,0.01305527131378618,1.0301439762115479,2019-06-20 16:03:05:098
10.529537841796875,-0.9109797973632813,1.508323974609375,0.031044489632999692,0.03903214197998798,0.013987377695313915,1.0350079536437988,2019-06-20 16:03:05:103
10.539114501953124,-0.8930235595703124,1.4963531494140625,0.031044489632999692,0.03916530003449194,0.014120535749817876,1.0401279926300049,2019-06-20 16:03:05:108
10.541508666992188,-0.9169652099609374,1.4760027465820311,0.03171027990551951,0.03916530003449194,0.013454745477298068,1.0449919700622559,2019-06-20 16:03:05:113
10.529537841796875,-0.8918264770507812,1.4819881591796875,0.03157712185101554,0.040763196688539484,0.012389481041266371,1.050112009048462,2019-06-20 16:03:05:118
10.551085327148437,-0.90978271484375,1.5131123046875,0.03011238325147196,0.0403637225250276,0.011723690768746563,1.054975986480713,2019-06-20 16:03:05:123
10.542705749511718,-0.9349214477539062,1.5298714599609375,0.03131080574200762,0.039964248361515714,0.011990006877754486,1.060096025466919,2019-06-20 16:03:05:128
10.539114501953124,-0.8894323120117187,1.5202947998046874,0.03091133157849573,0.0403637225250276,0.013321587422794106,1.06496000289917,2019-06-20 16:03:05:133
10.54390283203125,-0.9061914672851562,1.4927619018554688,0.031044489632999692,0.039964248361515714,0.012655797150274295,1.070080041885376,2019-06-20 16:03:05:138
10.54390283203125,-0.9217535400390625,1.4819881591796875,0.032642386287047236,0.04049688057953156,0.012788955204778256,1.074944019317627,2019-06-20 16:03:05:143
10.530734924316405,-0.9157681274414062,1.508323974609375,0.03210975406903139,0.04023056447052364,0.012922113259282218,1.080064058303833,2019-06-20 16:03:05:148
10.535523254394532,-0.9037973022460938,1.52268896484375,0.03197659601452743,0.04089635474304345,0.01305527131378618,1.084928035736084,2019-06-20 16:03:05:153
10.536720336914062,-0.9121768798828125,1.4760027465820311,0.03250922823254328,0.04129582890655533,0.012922113259282218,1.09004807472229,2019-06-20 16:03:05:158
10.541508666992188,-0.914571044921875,1.490367736816406,0.032242912123535354,0.03943161614349987,0.012123164932258448,1.094912052154541,2019-06-20 16:03:05:163
10.537917419433594,-0.933724365234375,1.50353564453125,0.03157712185101554,0.038898983925484014,0.012922113259282218,1.100031852722168,2019-06-20 16:03:05:168
10.577421142578125,-0.9325272827148438,1.5119152221679688,0.03357449266857497,0.038898983925484014,0.012922113259282218,1.104896068572998,2019-06-20 16:03:05:173
10.521158264160157,-0.933724365234375,1.5023385620117187,0.03317501850506309,0.04023056447052364,0.012788955204778256,1.110015869140625,2019-06-20 16:03:05:178
10.534326171875,-0.9241477050781249,1.4688202514648436,0.03317501850506309,0.041562145015563254,0.01225632298676241,1.115135908126831,2019-06-20 16:03:05:183
10.531932006835937,-0.9313302001953124,1.4831852416992186,0.03210975406903139,0.04102951279754741,0.01358790353180203,1.119999885559082,2019-06-20 16:03:05:188
10.548691162109375,-0.9253447875976563,1.4999443969726562,0.032242912123535354,0.04023056447052364,0.013987377695313915,1.125119924545288,2019-06-20 16:03:05:193
10.558267822265625,-0.914571044921875,1.4819881591796875,0.03210975406903139,0.0392984580889959,0.01305527131378618,1.129983901977539,2019-06-20 16:03:05:198
10.566647399902344,-0.9157681274414062,1.5023385620117187,0.03237607017803931,0.0403637225250276,0.013188429368290141,1.1351039409637451,2019-06-20 16:03:05:203
10.551085327148437,-0.9037973022460938,1.498747314453125,0.03210975406903139,0.040630038634035526,0.014120535749817876,1.139967918395996,2019-06-20 16:03:05:208
10.564253234863282,-0.9037973022460938,1.4616377563476561,0.032242912123535354,0.04023056447052364,0.013854219640809953,1.1450879573822021,2019-06-20 16:03:05:213
10.554676574707031,-0.9037973022460938,1.508323974609375,0.03290870239605516,0.0392984580889959,0.01358790353180203,1.1499519348144531,2019-06-20 16:03:05:218
10.537917419433594,-0.919359375,1.5011414794921876,0.03330817655956705,0.03743424532594044,0.013721061586305991,1.1550719738006592,2019-06-20 16:03:05:223
10.57382989501953,-0.919359375,1.4855794067382813,0.03344133461407101,0.03969793225250779,0.013721061586305991,1.1599359512329102,2019-06-20 16:03:05:228
10.547494079589843,-0.90978271484375,1.4867764892578124,0.033041860450559124,0.03983109030701175,0.013854219640809953,1.1650559902191162,2019-06-20 16:03:05:233
10.559464904785155,-0.8870381469726563,1.4867764892578124,0.0327755443415512,0.03943161614349987,0.013987377695313915,1.1699199676513672,2019-06-20 16:03:05:238
10.561859069824218,-0.9109797973632813,1.5119152221679688,0.03197659601452743,0.04049688057953156,0.014253693804321838,1.1750400066375732,2019-06-20 16:03:05:243
10.557070739746093,-0.9073885498046875,1.5071268920898437,0.03250922823254328,0.04129582890655533,0.014786326022337684,1.1799039840698242,2019-06-20 16:03:05:248
10.578618225097657,-0.8894323120117187,1.5131123046875,0.032242912123535354,0.04116267085205137,0.014520009913329761,1.1850240230560303,2019-06-20 16:03:05:253
10.528340759277343,-0.8990089721679687,1.4999443969726562,0.032642386287047236,0.04089635474304345,0.014653167967833723,1.1898880004882812,2019-06-20 16:03:05:258
10.54390283203125,-0.919359375,1.5023385620117187,0.031843437960023466,0.041562145015563254,0.015452116294857496,1.1950080394744873,2019-06-20 16:03:05:263
10.560661987304687,-0.9121768798828125,1.5059298095703124,0.03157712185101554,0.04182846112457118,0.0143868518588258,1.2001280784606934,2019-06-20 16:03:05:268
10.564253234863282,-0.9061914672851562,1.5011414794921876,0.03197659601452743,0.040763196688539484,0.0143868518588258,1.2049920558929443,2019-06-20 16:03:05:273
10.546296997070312,-0.9265418701171875,1.5059298095703124,0.032242912123535354,0.039964248361515714,0.015185800185849573,1.2101118564605713,2019-06-20 16:03:05:278
10.54390283203125,-0.9121768798828125,1.527477294921875,0.03290870239605516,0.03983109030701175,0.015052642131345608,1.2149760723114014,2019-06-20 16:03:05:283
10.523552429199219,-0.9409068603515625,1.566981018066406,0.0327755443415512,0.03983109030701175,0.014653167967833723,1.2200958728790283,2019-06-20 16:03:05:288
10.512778686523438,-0.9349214477539062,1.546630615234375,0.03250922823254328,0.0403637225250276,0.0143868518588258,1.2249598503112793,2019-06-20 16:03:05:293
10.524749511718749,-0.90978271484375,1.5071268920898437,0.03290870239605516,0.04009740641601968,0.014520009913329761,1.2300798892974854,2019-06-20 16:03:05:298
10.530734924316405,-0.9313302001953124,1.4640319213867188,0.032642386287047236,0.03903214197998798,0.01305527131378618,1.2349438667297363,2019-06-20 16:03:05:303
10.529537841796875,-0.8978118896484375,1.4532581787109375,0.03131080574200762,0.03969793225250779,0.013188429368290141,1.2400639057159424,2019-06-20 16:03:05:308
10.530734924316405,-0.9109797973632813,1.490367736816406,0.03131080574200762,0.039564774198003826,0.013454745477298068,1.2449278831481934,2019-06-20 16:03:05:313
10.546296997070312,-0.9109797973632813,1.52268896484375,0.031443963796511584,0.040763196688539484,0.015452116294857496,1.2500479221343994,2019-06-20 16:03:05:318
10.519961181640625,-0.881052734375,1.4927619018554688,0.03131080574200762,0.04023056447052364,0.015185800185849573,1.2549118995666504,2019-06-20 16:03:05:323
10.536720336914062,-0.9037973022460938,1.508323974609375,0.031044489632999692,0.0403637225250276,0.015851590458369383,1.2600319385528564,2019-06-20 16:03:05:328
10.54509991455078,-0.90978271484375,1.5502218627929687,0.031177647687503654,0.040763196688539484,0.01638422267638523,1.2648959159851074,2019-06-20 16:03:05:333
10.54390283203125,-0.9121768798828125,1.5202947998046874,0.03197659601452743,0.03943161614349987,0.016251064621881268,1.2700159549713135,2019-06-20 16:03:05:338
10.536720336914062,-0.9504835205078125,1.5526160278320311,0.03197659601452743,0.03943161614349987,0.015318958240353535,1.2751359939575195,2019-06-20 16:03:05:343
10.531932006835937,-0.9361185302734375,1.5190977172851563,0.03131080574200762,0.039564774198003826,0.013188429368290141,1.2799999713897705,2019-06-20 16:03:05:348
10.548691162109375,-0.9133739624023437,1.470017333984375,0.03091133157849573,0.03969793225250779,0.013454745477298068,1.2851200103759766,2019-06-20 16:03:05:353
10.541508666992188,-0.9061914672851562,1.5394481201171875,0.031443963796511584,0.039964248361515714,0.014253693804321838,1.2899839878082275,2019-06-20 16:03:05:358
10.540311584472656,-0.8942206420898438,1.4867764892578124,0.03197659601452743,0.040630038634035526,0.014120535749817876,1.2951040267944336,2019-06-20 16:03:05:363
10.561859069824218,-0.8930235595703124,1.4963531494140625,0.032242912123535354,0.03969793225250779,0.014653167967833723,1.2999680042266846,2019-06-20 16:03:05:368
10.533129089355468,-0.9109797973632813,1.5250831298828125,0.0327755443415512,0.0392984580889959,0.014120535749817876,1.3050880432128906,2019-06-20 16:03:05:373
10.54390283203125,-0.9169652099609374,1.5418422851562499,0.03250922823254328,0.03903214197998798,0.014520009913329761,1.3099520206451416,2019-06-20 16:03:05:378
10.517567016601562,-0.9157681274414062,1.5538131103515624,0.03357449266857497,0.038765825870980056,0.014253693804321838,1.3150720596313477,2019-06-20 16:03:05:383
10.533129089355468,-0.8990089721679687,1.498747314453125,0.0327755443415512,0.038898983925484014,0.014786326022337684,1.3199360370635986,2019-06-20 16:03:05:388
10.529537841796875,-0.9205564575195312,1.5119152221679688,0.03197659601452743,0.03849950976197213,0.014919484076841646,1.3250560760498047,2019-06-20 16:03:05:393
10.531932006835937,-0.9181622924804688,1.5011414794921876,0.03250922823254328,0.039964248361515714,0.014253693804321838,1.3299200534820557,2019-06-20 16:03:05:398
10.546296997070312,-0.9061914672851562,1.5047327270507813,0.032642386287047236,0.039964248361515714,0.013321587422794106,1.3350398540496826,2019-06-20 16:03:05:403
10.530734924316405,-0.9157681274414062,1.5190977172851563,0.033041860450559124,0.040630038634035526,0.013721061586305991,1.3399040699005127,2019-06-20 16:03:05:408
10.539114501953124,-0.9121768798828125,1.5119152221679688,0.0327755443415512,0.04009740641601968,0.014253693804321838,1.3450238704681396,2019-06-20 16:03:05:413
10.536720336914062,-0.9037973022460938,1.4951560668945312,0.032642386287047236,0.0392984580889959,0.013854219640809953,1.3498878479003906,2019-06-20 16:03:05:418
10.549888244628907,-0.9241477050781249,1.4963531494140625,0.03131080574200762,0.038765825870980056,0.0143868518588258,1.3550078868865967,2019-06-20 16:03:05:423
10.570238647460938,-0.9157681274414062,1.4927619018554688,0.03131080574200762,0.038765825870980056,0.014653167967833723,1.3601279258728027,2019-06-20 16:03:05:428
10.533129089355468,-0.9253447875976563,1.5310685424804686,0.03077817352399177,0.04089635474304345,0.014919484076841646,1.3649919033050537,2019-06-20 16:03:05:433
10.512778686523438,-0.9229506225585937,1.5514189453125,0.030645015469487807,0.040763196688539484,0.015052642131345608,1.3701119422912598,2019-06-20 16:03:05:438
10.547494079589843,-0.9241477050781249,1.4927619018554688,0.03131080574200762,0.0403637225250276,0.015318958240353535,1.3749759197235107,2019-06-20 16:03:05:443
10.552282409667969,-0.9014031372070312,1.4676231689453125,0.030645015469487807,0.040763196688539484,0.0143868518588258,1.3800959587097168,2019-06-20 16:03:05:448
10.54509991455078,-0.9397097778320312,1.517900634765625,0.03091133157849573,0.04089635474304345,0.01358790353180203,1.3849599361419678,2019-06-20 16:03:05:453
10.535523254394532,-0.9169652099609374,1.5406452026367188,0.029979225196968,0.03969793225250779,0.012389481041266371,1.3900799751281738,2019-06-20 16:03:05:458
10.541508666992188,-0.9205564575195312,1.5071268920898437,0.030511857414983846,0.0392984580889959,0.011990006877754486,1.3949439525604248,2019-06-20 16:03:05:463
10.535523254394532,-0.9492864379882813,1.5238860473632811,0.03157712185101554,0.04009740641601968,0.011990006877754486,1.4000639915466309,2019-06-20 16:03:05:468
10.56305615234375,-0.9421039428710938,1.5107181396484375,0.03131080574200762,0.04023056447052364,0.013188429368290141,1.4049279689788818,2019-06-20 16:03:05:473
10.554676574707031,-0.9504835205078125,1.5119152221679688,0.03171027990551951,0.04049688057953156,0.013321587422794106,1.410048007965088,2019-06-20 16:03:05:478
10.548691162109375,-0.9241477050781249,1.5358568725585937,0.03210975406903139,0.038765825870980056,0.011990006877754486,1.4149119853973389,2019-06-20 16:03:05:483
10.528340759277343,-0.9253447875976563,1.5358568725585937,0.03091133157849573,0.038898983925484014,0.011856848823250525,1.420032024383545,2019-06-20 16:03:05:488
10.537917419433594,-0.9409068603515625,1.5071268920898437,0.031044489632999692,0.03916530003449194,0.011191058550730713,1.424896001815796,2019-06-20 16:03:05:493
10.540311584472656,-0.9456951904296875,1.52268896484375,0.03171027990551951,0.03943161614349987,0.010791584387218828,1.430016040802002,2019-06-20 16:03:05:498
10.553479492187499,-0.9373156127929687,1.4879735717773437,0.03077817352399177,0.04009740641601968,0.011324216605234675,1.435135841369629,2019-06-20 16:03:05:503
10.552282409667969,-0.9349214477539062,1.4915648193359374,0.031044489632999692,0.03983109030701175,0.012389481041266371,1.440000057220459,2019-06-20 16:03:05:508
10.522355346679687,-0.9612572631835937,1.489170654296875,0.03197659601452743,0.038765825870980056,0.012922113259282218,1.445119857788086,2019-06-20 16:03:05:513
10.519961181640625,-0.9205564575195312,1.4855794067382813,0.032642386287047236,0.03863266781647609,0.01225632298676241,1.449984073638916,2019-06-20 16:03:05:518
10.523552429199219,-0.9217535400390625,1.5202947998046874,0.03197659601452743,0.03863266781647609,0.01225632298676241,1.455103874206543,2019-06-20 16:03:05:523
10.527143676757813,-0.8966148071289062,1.52268896484375,0.031177647687503654,0.039564774198003826,0.012522639095770333,1.459967851638794,2019-06-20 16:03:05:528
10.5151728515625,-0.9121768798828125,1.4879735717773437,0.031843437960023466,0.04009740641601968,0.012123164932258448,1.465087890625,2019-06-20 16:03:05:533
10.534326171875,-0.9265418701171875,1.4748056640625,0.032242912123535354,0.04089635474304345,0.011324216605234675,1.469951868057251,2019-06-20 16:03:05:538
10.539114501953124,-0.9085856323242187,1.4999443969726562,0.031443963796511584,0.039964248361515714,0.01145737465973864,1.475071907043457,2019-06-20 16:03:05:543
10.541508666992188,-0.9456951904296875,1.527477294921875,0.03210975406903139,0.039564774198003826,0.011856848823250525,1.479935884475708,2019-06-20 16:03:05:548
10.512778686523438,-0.919359375,1.4975502319335938,0.03210975406903139,0.039564774198003826,0.01092474244172279,1.485055923461914,2019-06-20 16:03:05:553
10.541508666992188,-0.895417724609375,1.5167035522460937,0.03157712185101554,0.04009740641601968,0.010791584387218828,1.489919900894165,2019-06-20 16:03:05:558
10.539114501953124,-0.9217535400390625,1.4819881591796875,0.03157712185101554,0.04116267085205137,0.011191058550730713,1.495039939880371,2019-06-20 16:03:05:563
10.56305615234375,-0.9241477050781249,1.5023385620117187,0.03157712185101554,0.0403637225250276,0.010791584387218828,1.499903917312622,2019-06-20 16:03:05:568
10.559464904785155,-0.9085856323242187,1.4999443969726562,0.03197659601452743,0.03849950976197213,0.011057900496226753,1.5050239562988281,2019-06-20 16:03:05:573
10.549888244628907,-0.8966148071289062,1.532265625,0.03250922823254328,0.04049688057953156,0.010392110223706943,1.509887933731079,2019-06-20 16:03:05:578
10.537917419433594,-0.8966148071289062,1.508323974609375,0.031843437960023466,0.03983109030701175,0.011723690768746563,1.5150079727172852,2019-06-20 16:03:05:583
10.51636993408203,-0.8930235595703124,1.5502218627929687,0.0327755443415512,0.03943161614349987,0.012788955204778256,1.5201280117034912,2019-06-20 16:03:05:588
10.548691162109375,-0.9014031372070312,1.5382510375976561,0.033840808777582894,0.039964248361515714,0.011990006877754486,1.5249919891357422,2019-06-20 16:03:05:593
10.537917419433594,-0.9205564575195312,1.5346597900390624,0.03397396683208686,0.0392984580889959,0.011590532714242601,1.5301120281219482,2019-06-20 16:03:05:598
10.528340759277343,-0.904994384765625,1.5286743774414062,0.03290870239605516,0.03836635170746817,0.011324216605234675,1.5349760055541992,2019-06-20 16:03:05:603
10.528340759277343,-0.8834468994140625,1.4795939941406249,0.032242912123535354,0.039564774198003826,0.012922113259282218,1.5400960445404053,2019-06-20 16:03:05:608
10.54509991455078,-0.8690819091796875,1.5023385620117187,0.031843437960023466,0.039564774198003826,0.013721061586305991,1.5449600219726562,2019-06-20 16:03:05:613
10.548691162109375,-0.8630964965820312,1.4927619018554688,0.03171027990551951,0.0392984580889959,0.013987377695313915,1.5500800609588623,2019-06-20 16:03:05:618
10.541508666992188,-0.89062939453125,1.4867764892578124,0.031843437960023466,0.03916530003449194,0.01225632298676241,1.5549440383911133,2019-06-20 16:03:05:623
10.561859069824218,-0.90978271484375,1.5107181396484375,0.03157712185101554,0.038898983925484014,0.013188429368290141,1.5600640773773193,2019-06-20 16:03:05:628
10.56305615234375,-0.8942206420898438,1.5286743774414062,0.03157712185101554,0.0392984580889959,0.01305527131378618,1.5649280548095703,2019-06-20 16:03:05:633
10.533129089355468,-0.8774614868164062,1.48438232421875,0.031443963796511584,0.03916530003449194,0.013854219640809953,1.5700478553771973,2019-06-20 16:03:05:638
10.54509991455078,-0.9169652099609374,1.4388931884765626,0.03091133157849573,0.03903214197998798,0.014653167967833723,1.5749120712280273,2019-06-20 16:03:05:643
10.555873657226563,-0.9133739624023437,1.4724114990234374,0.030645015469487807,0.03943161614349987,0.01305527131378618,1.5800318717956543,2019-06-20 16:03:05:648
10.522355346679687,-0.9397097778320312,1.517900634765625,0.031044489632999692,0.03916530003449194,0.0143868518588258,1.5848958492279053,2019-06-20 16:03:05:653
10.502004943847655,-0.9301331176757812,1.5454335327148436,0.031843437960023466,0.039564774198003826,0.014786326022337684,1.5900158882141113,2019-06-20 16:03:05:658
10.546296997070312,-0.9265418701171875,1.5071268920898437,0.03157712185101554,0.04009740641601968,0.014520009913329761,1.5951359272003174,2019-06-20 16:03:05:663
10.548691162109375,-0.9397097778320312,1.5238860473632811,0.03077817352399177,0.039564774198003826,0.013987377695313915,1.5999999046325684,2019-06-20 16:03:05:668
10.552282409667969,-0.8990089721679687,1.4783969116210938,0.03210975406903139,0.04023056447052364,0.013454745477298068,1.6051199436187744,2019-06-20 16:03:05:673
10.548691162109375,-0.8930235595703124,1.5238860473632811,0.03131080574200762,0.039964248361515714,0.0143868518588258,1.6099839210510254,2019-06-20 16:03:05:678
10.536720336914062,-0.9061914672851562,1.5250831298828125,0.03171027990551951,0.039564774198003826,0.014253693804321838,1.6151039600372314,2019-06-20 16:03:05:683
10.537917419433594,-0.9061914672851562,1.5023385620117187,0.03131080574200762,0.03916530003449194,0.013987377695313915,1.6199679374694824,2019-06-20 16:03:05:688
10.527143676757813,-0.9217535400390625,1.498747314453125,0.031443963796511584,0.039964248361515714,0.014253693804321838,1.6250879764556885,2019-06-20 16:03:05:693
10.523552429199219,-0.919359375,1.4879735717773437,0.031177647687503654,0.039564774198003826,0.014653167967833723,1.6299519538879395,2019-06-20 16:03:05:698
10.517567016601562,-0.9133739624023437,1.4915648193359374,0.03077817352399177,0.03983109030701175,0.014786326022337684,1.6350719928741455,2019-06-20 16:03:05:703
10.535523254394532,-0.9085856323242187,1.5167035522460937,0.03317501850506309,0.03969793225250779,0.014253693804321838,1.6399359703063965,2019-06-20 16:03:05:708
10.540311584472656,-0.9061914672851562,1.5382510375976561,0.03197659601452743,0.03983109030701175,0.014253693804321838,1.6450560092926025,2019-06-20 16:03:05:713
10.551085327148437,-0.9277389526367187,1.508323974609375,0.031177647687503654,0.03903214197998798,0.014253693804321838,1.6499199867248535,2019-06-20 16:03:05:718
10.539114501953124,-0.9253447875976563,1.5418422851562499,0.03197659601452743,0.041428986961059296,0.014253693804321838,1.6550400257110596,2019-06-20 16:03:05:723
10.541508666992188,-0.9349214477539062,1.5478276977539063,0.03197659601452743,0.03983109030701175,0.014120535749817876,1.6599040031433105,2019-06-20 16:03:05:728
10.522355346679687,-0.9229506225585937,1.5011414794921876,0.03317501850506309,0.03969793225250779,0.013987377695313915,1.6650240421295166,2019-06-20 16:03:05:733
10.533129089355468,-0.89062939453125,1.517900634765625,0.03317501850506309,0.03916530003449194,0.01305527131378618,1.6698880195617676,2019-06-20 16:03:05:738
10.527143676757813,-0.9109797973632813,1.5190977172851563,0.03197659601452743,0.03943161614349987,0.013721061586305991,1.6750080585479736,2019-06-20 16:03:05:743
10.522355346679687,-0.9205564575195312,1.508323974609375,0.03250922823254328,0.03969793225250779,0.012655797150274295,1.6801278591156006,2019-06-20 16:03:05:748
10.5151728515625,-0.9504835205078125,1.4927619018554688,0.03197659601452743,0.04049688057953156,0.013188429368290141,1.6849920749664307,2019-06-20 16:03:05:753
10.518764099121093,-0.90978271484375,1.4915648193359374,0.03210975406903139,0.040763196688539484,0.012389481041266371,1.6901118755340576,2019-06-20 16:03:05:758
10.546296997070312,-0.9109797973632813,1.5250831298828125,0.031177647687503654,0.039564774198003826,0.012655797150274295,1.6949758529663086,2019-06-20 16:03:05:763
10.523552429199219,-0.919359375,1.5155064697265626,0.031443963796511584,0.0403637225250276,0.01358790353180203,1.7000958919525146,2019-06-20 16:03:05:768
10.539114501953124,-0.9169652099609374,1.5442364501953125,0.03171027990551951,0.04129582890655533,0.013987377695313915,1.7049598693847656,2019-06-20 16:03:05:773
10.530734924316405,-0.8990089721679687,1.4915648193359374,0.032242912123535354,0.04116267085205137,0.013321587422794106,1.7100799083709717,2019-06-20 16:03:05:778
10.531932006835937,-0.9205564575195312,1.4807910766601562,0.032242912123535354,0.040763196688539484,0.013454745477298068,1.7149438858032227,2019-06-20 16:03:05:783
10.533129089355468,-0.943301025390625,1.5071268920898437,0.03157712185101554,0.041428986961059296,0.013854219640809953,1.7200639247894287,2019-06-20 16:03:05:788
10.536720336914062,-0.9181622924804688,1.4999443969726562,0.03290870239605516,0.04049688057953156,0.01305527131378618,1.7249279022216797,2019-06-20 16:03:05:793
10.539114501953124,-0.9002060546874999,1.50353564453125,0.03330817655956705,0.04023056447052364,0.012522639095770333,1.7300479412078857,2019-06-20 16:03:05:798
10.542705749511718,-0.8894323120117187,1.4748056640625,0.031843437960023466,0.038765825870980056,0.011990006877754486,1.7349119186401367,2019-06-20 16:03:05:803
10.551085327148437,-0.9002060546874999,1.4795939941406249,0.032242912123535354,0.0392984580889959,0.012123164932258448,1.7400319576263428,2019-06-20 16:03:05:808
10.542705749511718,-0.8882352294921875,1.4927619018554688,0.0327755443415512,0.04009740641601968,0.01305527131378618,1.7448959350585938,2019-06-20 16:03:05:813
10.541508666992188,-0.9026002197265625,1.50353564453125,0.03317501850506309,0.040630038634035526,0.013721061586305991,1.7500159740447998,2019-06-20 16:03:05:818
10.54390283203125,-0.8942206420898438,1.5023385620117187,0.033041860450559124,0.040763196688539484,0.013188429368290141,1.7551360130310059,2019-06-20 16:03:05:823
10.555873657226563,-0.933724365234375,1.48438232421875,0.03171027990551951,0.04182846112457118,0.01305527131378618,1.7599999904632568,2019-06-20 16:03:05:828
10.571435729980468,-0.9241477050781249,1.52268896484375,0.030645015469487807,0.040763196688539484,0.012655797150274295,1.765120029449463,2019-06-20 16:03:05:833
10.525946594238281,-0.933724365234375,1.5310685424804686,0.031177647687503654,0.040763196688539484,0.013721061586305991,1.7699840068817139,2019-06-20 16:03:05:838
10.537917419433594,-0.9385126953125,1.5071268920898437,0.031044489632999692,0.040630038634035526,0.013721061586305991,1.77510404586792,2019-06-20 16:03:05:843
10.54509991455078,-0.9217535400390625,1.5262802124023438,0.030245541305975922,0.041428986961059296,0.01358790353180203,1.779968023300171,2019-06-20 16:03:05:848
10.539114501953124,-0.9061914672851562,1.5238860473632811,0.03091133157849573,0.04049688057953156,0.012389481041266371,1.785088062286377,2019-06-20 16:03:05:853
10.54509991455078,-0.9301331176757812,1.5298714599609375,0.03091133157849573,0.03969793225250779,0.012788955204778256,1.789952039718628,2019-06-20 16:03:05:858
10.553479492187499,-0.9014031372070312,1.5119152221679688,0.03197659601452743,0.04089635474304345,0.011990006877754486,1.795072078704834,2019-06-20 16:03:05:863
10.528340759277343,-0.9169652099609374,1.5071268920898437,0.031443963796511584,0.040630038634035526,0.010392110223706943,1.799936056137085,2019-06-20 16:03:05:868
10.528340759277343,-0.914571044921875,1.4771998291015624,0.031443963796511584,0.040630038634035526,0.01225632298676241,1.805055856704712,2019-06-20 16:03:05:873
10.533129089355468,-0.9121768798828125,1.5478276977539063,0.03091133157849573,0.03943161614349987,0.012655797150274295,1.809920072555542,2019-06-20 16:03:05:878
10.534326171875,-0.919359375,1.5298714599609375,0.03157712185101554,0.04009740641601968,0.014120535749817876,1.815039873123169,2019-06-20 16:03:05:883
10.519961181640625,-0.9253447875976563,1.5310685424804686,0.031177647687503654,0.041428986961059296,0.0143868518588258,1.81990385055542,2019-06-20 16:03:05:888
10.521158264160157,-0.9037973022460938,1.5167035522460937,0.030378699360479884,0.03943161614349987,0.013321587422794106,1.825023889541626,2019-06-20 16:03:05:893
10.527143676757813,-0.9121768798828125,1.5310685424804686,0.031843437960023466,0.0403637225250276,0.013188429368290141,1.829887866973877,2019-06-20 16:03:05:898
10.529537841796875,-0.9061914672851562,1.4915648193359374,0.03210975406903139,0.04089635474304345,0.013721061586305991,1.835007905960083,2019-06-20 16:03:05:903
10.525946594238281,-0.9037973022460938,1.50353564453125,0.03091133157849573,0.04023056447052364,0.0143868518588258,1.840127944946289,2019-06-20 16:03:05:908
10.527143676757813,-0.9037973022460938,1.5286743774414062,0.03091133157849573,0.040630038634035526,0.013454745477298068,1.84499192237854,2019-06-20 16:03:05:913
10.5151728515625,-0.933724365234375,1.537053955078125,0.031843437960023466,0.04116267085205137,0.013987377695313915,1.850111961364746,2019-06-20 16:03:05:918
10.525946594238281,-0.9229506225585937,1.5214918823242187,0.030511857414983846,0.041428986961059296,0.012522639095770333,1.854975938796997,2019-06-20 16:03:05:923
10.546296997070312,-0.914571044921875,1.5167035522460937,0.03131080574200762,0.04049688057953156,0.013321587422794106,1.8600959777832031,2019-06-20 16:03:05:928
10.546296997070312,-0.9073885498046875,1.490367736816406,0.03091133157849573,0.039564774198003826,0.012522639095770333,1.864959955215454,2019-06-20 16:03:05:933
10.522355346679687,-0.952877685546875,1.4496669311523438,0.029979225196968,0.04023056447052364,0.01225632298676241,1.8700799942016602,2019-06-20 16:03:05:938
10.531932006835937,-0.9397097778320312,1.460440673828125,0.03171027990551951,0.03969793225250779,0.01305527131378618,1.8749439716339111,2019-06-20 16:03:05:943
10.552282409667969,-0.9157681274414062,1.5095210571289062,0.031843437960023466,0.03903214197998798,0.01358790353180203,1.8800640106201172,2019-06-20 16:03:05:948
10.519961181640625,-0.919359375,1.5358568725585937,0.03157712185101554,0.0392984580889959,0.013854219640809953,1.8849279880523682,2019-06-20 16:03:05:953
10.535523254394532,-0.9026002197265625,1.527477294921875,0.031443963796511584,0.04089635474304345,0.013188429368290141,1.8900480270385742,2019-06-20 16:03:05:958
10.521158264160157,-0.9241477050781249,1.5059298095703124,0.031044489632999692,0.0403637225250276,0.011723690768746563,1.8949120044708252,2019-06-20 16:03:05:963
10.522355346679687,-0.919359375,1.5155064697265626,0.031843437960023466,0.040763196688539484,0.012655797150274295,1.9000320434570312,2019-06-20 16:03:05:968
10.54509991455078,-0.9217535400390625,1.5047327270507813,0.0327755443415512,0.03969793225250779,0.01225632298676241,1.9048960208892822,2019-06-20 16:03:05:973
10.517567016601562,-0.9540747680664062,1.52268896484375,0.03197659601452743,0.03849950976197213,0.013321587422794106,1.9100160598754883,2019-06-20 16:03:05:978
10.533129089355468,-0.952877685546875,1.5071268920898437,0.031044489632999692,0.03943161614349987,0.011723690768746563,1.9151358604431152,2019-06-20 16:03:05:983
10.551085327148437,-0.9349214477539062,1.5238860473632811,0.03171027990551951,0.0403637225250276,0.011191058550730713,1.9200000762939453,2019-06-20 16:03:05:988
10.548691162109375,-0.8858410644531249,1.4999443969726562,0.0327755443415512,0.040763196688539484,0.012123164932258448,1.9251198768615723,2019-06-20 16:03:05:993
10.5151728515625,-0.914571044921875,1.5119152221679688,0.031177647687503654,0.039964248361515714,0.01225632298676241,1.9299838542938232,2019-06-20 16:03:05:998
10.524749511718749,-0.9361185302734375,1.5310685424804686,0.03157712185101554,0.039964248361515714,0.01225632298676241,1.9351038932800293,2019-06-20 16:03:06:003
10.524749511718749,-0.9349214477539062,1.5406452026367188,0.03237607017803931,0.039964248361515714,0.01092474244172279,1.9399678707122803,2019-06-20 16:03:06:008
10.548691162109375,-0.919359375,1.5358568725585937,0.031843437960023466,0.03943161614349987,0.011723690768746563,1.9450879096984863,2019-06-20 16:03:06:013
10.553479492187499,-0.90978271484375,1.5119152221679688,0.031177647687503654,0.03943161614349987,0.011723690768746563,1.9499518871307373,2019-06-20 16:03:06:018
10.539114501953124,-0.8990089721679687,1.5262802124023438,0.03210975406903139,0.03903214197998798,0.011324216605234675,1.9550719261169434,2019-06-20 16:03:06:023
10.539114501953124,-0.90978271484375,1.5190977172851563,0.03250922823254328,0.038100035598460244,0.011191058550730713,1.9599359035491943,2019-06-20 16:03:06:028
10.542705749511718,-0.9217535400390625,1.5358568725585937,0.031443963796511584,0.039564774198003826,0.011990006877754486,1.9650559425354004,2019-06-20 16:03:06:033
10.541508666992188,-0.914571044921875,1.537053955078125,0.03091133157849573,0.03969793225250779,0.011324216605234675,1.9699199199676514,2019-06-20 16:03:06:038
10.530734924316405,-0.9037973022460938,1.532265625,0.031044489632999692,0.03770056143494836,0.01145737465973864,1.9750399589538574,2019-06-20 16:03:06:043
10.549888244628907,-0.9073885498046875,1.5346597900390624,0.0327755443415512,0.038898983925484014,0.01145737465973864,1.9799039363861084,2019-06-20 16:03:06:048
10.540311584472656,-0.9133739624023437,1.5214918823242187,0.033041860450559124,0.03969793225250779,0.012389481041266371,1.9850239753723145,2019-06-20 16:03:06:053
10.535523254394532,-0.9002060546874999,1.48438232421875,0.03171027990551951,0.03903214197998798,0.012522639095770333,1.9898879528045654,2019-06-20 16:03:06:058
10.549888244628907,-0.9026002197265625,1.4927619018554688,0.03197659601452743,0.038765825870980056,0.012389481041266371,1.9950079917907715,2019-06-20 16:03:06:063
10.530734924316405,-0.9109797973632813,1.4795939941406249,0.03210975406903139,0.03943161614349987,0.011990006877754486,2.0001280307769775,2019-06-20 16:03:06:068
10.54390283203125,-0.9181622924804688,1.490367736816406,0.03237607017803931,0.04023056447052364,0.012922113259282218,2.0049920082092285,2019-06-20 16:03:06:073
10.54509991455078,-0.914571044921875,1.5047327270507813,0.032642386287047236,0.03903214197998798,0.011990006877754486,2.0101120471954346,2019-06-20 16:03:06:078
10.552282409667969,-0.9169652099609374,1.5454335327148436,0.03210975406903139,0.04102951279754741,0.013321587422794106,2.0149760246276855,2019-06-20 16:03:06:083
10.542705749511718,-0.9313302001953124,1.50353564453125,0.031177647687503654,0.04049688057953156,0.012389481041266371,2.0200960636138916,2019-06-20 16:03:06:088
10.527143676757813,-0.8930235595703124,1.48438232421875,0.03330817655956705,0.04023056447052364,0.011191058550730713,2.0249600410461426,2019-06-20 16:03:06:093
10.521158264160157,-0.9133739624023437,1.4951560668945312,0.03197659601452743,0.0392984580889959,0.011191058550730713,2.0300798416137695,2019-06-20 16:03:06:098
10.525946594238281,-0.8834468994140625,1.532265625,0.03317501850506309,0.0403637225250276,0.012389481041266371,2.0349440574645996,2019-06-20 16:03:06:103
10.528340759277343,-0.9133739624023437,1.4999443969726562,0.032242912123535354,0.040763196688539484,0.013454745477298068,2.0400638580322266,2019-06-20 16:03:06:108
10.533129089355468,-0.9373156127929687,1.5071268920898437,0.03250922823254328,0.040630038634035526,0.014653167967833723,2.0449280738830566,2019-06-20 16:03:06:113
10.553479492187499,-0.895417724609375,1.4795939941406249,0.031843437960023466,0.04049688057953156,0.013321587422794106,2.0500478744506836,2019-06-20 16:03:06:118
10.540311584472656,-0.9037973022460938,1.489170654296875,0.03171027990551951,0.04102951279754741,0.013188429368290141,2.0549118518829346,2019-06-20 16:03:06:123
10.511581604003906,-0.9205564575195312,1.4927619018554688,0.031044489632999692,0.040763196688539484,0.012389481041266371,2.0600318908691406,2019-06-20 16:03:06:128
10.528340759277343,-0.9373156127929687,1.5190977172851563,0.03171027990551951,0.040630038634035526,0.01358790353180203,2.0648958683013916,2019-06-20 16:03:06:133
10.527143676757813,-0.904994384765625,1.5011414794921876,0.031443963796511584,0.04009740641601968,0.012389481041266371,2.0700159072875977,2019-06-20 16:03:06:138
10.519961181640625,-0.8990089721679687,1.52268896484375,0.03250922823254328,0.04049688057953156,0.012788955204778256,2.0751359462738037,2019-06-20 16:03:06:143
10.521158264160157,-0.9229506225585937,1.5454335327148436,0.03210975406903139,0.03916530003449194,0.014120535749817876,2.0799999237060547,2019-06-20 16:03:06:148
10.524749511718749,-0.914571044921875,1.5143093872070312,0.03237607017803931,0.0392984580889959,0.013987377695313915,2.0851199626922607,2019-06-20 16:03:06:153
10.536720336914062,-0.9241477050781249,1.5310685424804686,0.03210975406903139,0.04049688057953156,0.012389481041266371,2.0899839401245117,2019-06-20 16:03:06:158
10.528340759277343,-0.8942206420898438,1.4951560668945312,0.03091133157849573,0.03983109030701175,0.012788955204778256,2.0951039791107178,2019-06-20 16:03:06:163
10.531932006835937,-0.895417724609375,1.5011414794921876,0.031177647687503654,0.03983109030701175,0.013721061586305991,2.0999679565429688,2019-06-20 16:03:06:168
10.524749511718749,-0.9265418701171875,1.5011414794921876,0.03171027990551951,0.04089635474304345,0.012922113259282218,2.105087995529175,2019-06-20 16:03:06:173
10.54509991455078,-0.9085856323242187,1.4975502319335938,0.03250922823254328,0.04102951279754741,0.012922113259282218,2.109951972961426,2019-06-20 16:03:06:178
10.551085327148437,-0.9061914672851562,1.4975502319335938,0.0327755443415512,0.03983109030701175,0.015052642131345608,2.115072011947632,2019-06-20 16:03:06:183
10.523552429199219,-0.8990089721679687,1.4855794067382813,0.03171027990551951,0.038898983925484014,0.013454745477298068,2.119935989379883,2019-06-20 16:03:06:188
10.529537841796875,-0.9169652099609374,1.5119152221679688,0.03210975406903139,0.0403637225250276,0.013854219640809953,2.125056028366089,2019-06-20 16:03:06:193
10.542705749511718,-0.904994384765625,1.5107181396484375,0.03197659601452743,0.04116267085205137,0.014120535749817876,2.12992000579834,2019-06-20 16:03:06:198
10.553479492187499,-0.8930235595703124,1.5238860473632811,0.03317501850506309,0.03983109030701175,0.013188429368290141,2.135040044784546,2019-06-20 16:03:06:203
10.533129089355468,-0.9241477050781249,1.5262802124023438,0.03197659601452743,0.040630038634035526,0.013854219640809953,2.139904022216797,2019-06-20 16:03:06:208
10.551085327148437,-0.9169652099609374,1.5071268920898437,0.03171027990551951,0.04116267085205137,0.013188429368290141,2.145024061203003,2019-06-20 16:03:06:213
10.546296997070312,-0.9277389526367187,1.498747314453125,0.030378699360479884,0.04129582890655533,0.012788955204778256,2.149888038635254,2019-06-20 16:03:06:218
10.561859069824218,-0.8990089721679687,1.4951560668945312,0.030511857414983846,0.04102951279754741,0.014253693804321838,2.15500807762146,2019-06-20 16:03:06:223
10.512778686523438,-0.9169652099609374,1.4951560668945312,0.031044489632999692,0.04049688057953156,0.01358790353180203,2.160127878189087,2019-06-20 16:03:06:228
10.539114501953124,-0.9121768798828125,1.5238860473632811,0.031443963796511584,0.04023056447052364,0.014786326022337684,2.164991855621338,2019-06-20 16:03:06:233
10.54509991455078,-0.9109797973632813,1.527477294921875,0.031843437960023466,0.04023056447052364,0.013721061586305991,2.170111894607544,2019-06-20 16:03:06:238
10.535523254394532,-0.919359375,1.5023385620117187,0.03171027990551951,0.040630038634035526,0.014520009913329761,2.174975872039795,2019-06-20 16:03:06:243
10.542705749511718,-0.9205564575195312,1.5286743774414062,0.03250922823254328,0.04129582890655533,0.01358790353180203,2.180095911026001,2019-06-20 16:03:06:248
10.540311584472656,-0.943301025390625,1.508323974609375,0.03197659601452743,0.039964248361515714,0.012655797150274295,2.184959888458252,2019-06-20 16:03:06:253
10.536720336914062,-0.92893603515625,1.5023385620117187,0.032242912123535354,0.04089635474304345,0.012922113259282218,2.190079927444458,2019-06-20 16:03:06:258
10.534326171875,-0.9037973022460938,1.4748056640625,0.032242912123535354,0.040630038634035526,0.013854219640809953,2.194943904876709,2019-06-20 16:03:06:263
10.535523254394532,-0.919359375,1.4795939941406249,0.032242912123535354,0.04023056447052364,0.013987377695313915,2.200063943862915,2019-06-20 16:03:06:268
10.510384521484374,-0.9229506225585937,1.5071268920898437,0.03250922823254328,0.04102951279754741,0.013721061586305991,2.204927921295166,2019-06-20 16:03:06:273
10.512778686523438,-0.9037973022460938,1.4963531494140625,0.033041860450559124,0.03943161614349987,0.013188429368290141,2.210047960281372,2019-06-20 16:03:06:278
10.518764099121093,-0.9301331176757812,1.48438232421875,0.03250922823254328,0.03836635170746817,0.013987377695313915,2.214911937713623,2019-06-20 16:03:06:283
10.536720336914062,-0.9085856323242187,1.4939589843749999,0.03290870239605516,0.03836635170746817,0.013321587422794106,2.220031976699829,2019-06-20 16:03:06:288
10.552282409667969,-0.9133739624023437,1.517900634765625,0.033041860450559124,0.03903214197998798,0.013987377695313915,2.22489595413208,2019-06-20 16:03:06:293
10.570238647460938,-0.9169652099609374,1.4915648193359374,0.03330817655956705,0.04049688057953156,0.013454745477298068,2.230015993118286,2019-06-20 16:03:06:298
10.547494079589843,-0.9229506225585937,1.4951560668945312,0.03397396683208686,0.04116267085205137,0.013721061586305991,2.235136032104492,2019-06-20 16:03:06:303
10.536720336914062,-0.9085856323242187,1.4927619018554688,0.033041860450559124,0.040763196688539484,0.013987377695313915,2.240000009536743,2019-06-20 16:03:06:308
10.551085327148437,-0.9085856323242187,1.489170654296875,0.03131080574200762,0.039964248361515714,0.012655797150274295,2.245120048522949,2019-06-20 16:03:06:313
10.522355346679687,-0.933724365234375,1.532265625,0.031443963796511584,0.03836635170746817,0.011856848823250525,2.2499840259552,2019-06-20 16:03:06:318
10.54509991455078,-0.8870381469726563,1.4879735717773437,0.032242912123535354,0.037301087271436474,0.011191058550730713,2.2551040649414062,2019-06-20 16:03:06:323
10.534326171875,-0.9037973022460938,1.5190977172851563,0.032642386287047236,0.0392984580889959,0.012655797150274295,2.2599680423736572,2019-06-20 16:03:06:328
10.557070739746093,-0.9014031372070312,1.5023385620117187,0.032642386287047236,0.03943161614349987,0.01225632298676241,2.265087842941284,2019-06-20 16:03:06:333
10.553479492187499,-0.8702789916992187,1.4771998291015624,0.0327755443415512,0.03916530003449194,0.013321587422794106,2.2699520587921143,2019-06-20 16:03:06:338
10.5726328125,-0.8990089721679687,1.470017333984375,0.033041860450559124,0.03916530003449194,0.012522639095770333,2.275071859359741,2019-06-20 16:03:06:343
10.548691162109375,-0.8870381469726563,1.489170654296875,0.033041860450559124,0.03969793225250779,0.01225632298676241,2.2799360752105713,2019-06-20 16:03:06:348
10.537917419433594,-0.904994384765625,1.5059298095703124,0.03290870239605516,0.0392984580889959,0.01305527131378618,2.2850558757781982,2019-06-20 16:03:06:353
10.552282409667969,-0.8966148071289062,1.5059298095703124,0.03197659601452743,0.0403637225250276,0.01305527131378618,2.289919853210449,2019-06-20 16:03:06:358
10.557070739746093,-0.9037973022460938,1.5119152221679688,0.03197659601452743,0.039964248361515714,0.013454745477298068,2.2950398921966553,2019-06-20 16:03:06:363
10.5151728515625,-0.9241477050781249,1.5131123046875,0.03250922823254328,0.04049688057953156,0.013987377695313915,2.2999038696289062,2019-06-20 16:03:06:368
10.503202026367187,-0.9253447875976563,1.490367736816406,0.031443963796511584,0.040763196688539484,0.014120535749817876,2.3050239086151123,2019-06-20 16:03:06:373
10.51636993408203,-0.9002060546874999,1.52268896484375,0.03091133157849573,0.04049688057953156,0.013454745477298068,2.3098878860473633,2019-06-20 16:03:06:378
10.546296997070312,-0.9157681274414062,1.5286743774414062,0.031044489632999692,0.040763196688539484,0.013188429368290141,2.3150079250335693,2019-06-20 16:03:06:383
10.553479492187499,-0.9313302001953124,1.532265625,0.03077817352399177,0.04049688057953156,0.01305527131378618,2.3201279640197754,2019-06-20 16:03:06:388
10.551085327148437,-0.9169652099609374,1.4999443969726562,0.030511857414983846,0.04009740641601968,0.012655797150274295,2.3249919414520264,2019-06-20 16:03:06:393
10.523552429199219,-0.9205564575195312,1.4963531494140625,0.030245541305975922,0.04116267085205137,0.013721061586305991,2.3301119804382324,2019-06-20 16:03:06:398
10.549888244628907,-0.933724365234375,1.4855794067382813,0.03077817352399177,0.039964248361515714,0.01305527131378618,2.3349759578704834,2019-06-20 16:03:06:403
10.534326171875,-0.9253447875976563,1.4927619018554688,0.031177647687503654,0.03916530003449194,0.011324216605234675,2.3400959968566895,2019-06-20 16:03:06:408
10.539114501953124,-0.92893603515625,1.537053955078125,0.031443963796511584,0.03969793225250779,0.011856848823250525,2.3449599742889404,2019-06-20 16:03:06:413
10.549888244628907,-0.943301025390625,1.5418422851562499,0.03091133157849573,0.039964248361515714,0.012788955204778256,2.3500800132751465,2019-06-20 16:03:06:418
10.54390283203125,-0.9217535400390625,1.4975502319335938,0.03077817352399177,0.039964248361515714,0.012123164932258448,2.3549439907073975,2019-06-20 16:03:06:423
10.552282409667969,-0.9217535400390625,1.4831852416992186,0.031177647687503654,0.03983109030701175,0.012655797150274295,2.3600640296936035,2019-06-20 16:03:06:428
10.540311584472656,-0.9061914672851562,1.508323974609375,0.03171027990551951,0.03823319365296421,0.01305527131378618,2.3649280071258545,2019-06-20 16:03:06:433
10.553479492187499,-0.919359375,1.4867764892578124,0.03157712185101554,0.038898983925484014,0.013321587422794106,2.3700480461120605,2019-06-20 16:03:06:438
10.539114501953124,-0.9157681274414062,1.5119152221679688,0.029712909087960076,0.038898983925484014,0.013721061586305991,2.3749120235443115,2019-06-20 16:03:06:443
10.542705749511718,-0.9421039428710938,1.4855794067382813,0.03077817352399177,0.038898983925484014,0.013188429368290141,2.3800320625305176,2019-06-20 16:03:06:448
10.51636993408203,-0.9277389526367187,1.5250831298828125,0.031843437960023466,0.03969793225250779,0.010791584387218828,2.3848960399627686,2019-06-20 16:03:06:453
10.5151728515625,-0.90978271484375,1.5310685424804686,0.031843437960023466,0.0392984580889959,0.01092474244172279,2.3900160789489746,2019-06-20 16:03:06:458
10.548691162109375,-0.9325272827148438,1.5143093872070312,0.03091133157849573,0.03943161614349987,0.011723690768746563,2.3951358795166016,2019-06-20 16:03:06:463
10.547494079589843,-0.9109797973632813,1.5071268920898437,0.03157712185101554,0.04009740641601968,0.011191058550730713,2.3999998569488525,2019-06-20 16:03:06:468
10.529537841796875,-0.919359375,1.5071268920898437,0.031177647687503654,0.03969793225250779,0.011191058550730713,2.4051198959350586,2019-06-20 16:03:06:473
10.524749511718749,-0.933724365234375,1.5238860473632811,0.03171027990551951,0.03983109030701175,0.011856848823250525,2.4099838733673096,2019-06-20 16:03:06:478
10.553479492187499,-0.9456951904296875,1.532265625,0.031843437960023466,0.03983109030701175,0.011723690768746563,2.4151039123535156,2019-06-20 16:03:06:483
10.557070739746093,-0.9301331176757812,1.4915648193359374,0.03157712185101554,0.03969793225250779,0.011990006877754486,2.4199678897857666,2019-06-20 16:03:06:488
10.541508666992188,-0.9205564575195312,1.517900634765625,0.0327755443415512,0.0392984580889959,0.009992636060195056,2.4250879287719727,2019-06-20 16:03:06:493
10.565450317382812,-0.9002060546874999,1.490367736816406,0.03397396683208686,0.0392984580889959,0.011057900496226753,2.4299519062042236,2019-06-20 16:03:06:498
10.535523254394532,-0.9217535400390625,1.5023385620117187,0.03344133461407101,0.0375674033804444,0.010658426332714866,2.4350719451904297,2019-06-20 16:03:06:503
10.522355346679687,-0.9061914672851562,1.4783969116210938,0.032642386287047236,0.03823319365296421,0.011723690768746563,2.4399359226226807,2019-06-20 16:03:06:508
10.547494079589843,-0.9301331176757812,1.490367736816406,0.03210975406903139,0.038765825870980056,0.011856848823250525,2.4450559616088867,2019-06-20 16:03:06:513
10.551085327148437,-0.9361185302734375,1.4760027465820311,0.03131080574200762,0.038765825870980056,0.011191058550730713,2.4499199390411377,2019-06-20 16:03:06:518
10.554676574707031,-0.9241477050781249,1.489170654296875,0.03210975406903139,0.038898983925484014,0.01092474244172279,2.4550399780273438,2019-06-20 16:03:06:523
10.561859069824218,-0.9061914672851562,1.4879735717773437,0.03290870239605516,0.0392984580889959,0.01225632298676241,2.4599039554595947,2019-06-20 16:03:06:528
10.567844482421874,-0.9265418701171875,1.517900634765625,0.03237607017803931,0.03943161614349987,0.01225632298676241,2.465023994445801,2019-06-20 16:03:06:533
10.539114501953124,-0.9205564575195312,1.4831852416992186,0.032242912123535354,0.039964248361515714,0.012522639095770333,2.4698879718780518,2019-06-20 16:03:06:538
10.542705749511718,-0.919359375,1.4951560668945312,0.030645015469487807,0.038100035598460244,0.011856848823250525,2.475008010864258,2019-06-20 16:03:06:543
10.553479492187499,-0.9109797973632813,1.5047327270507813,0.030511857414983846,0.03849950976197213,0.011590532714242601,2.480128049850464,2019-06-20 16:03:06:548
10.558267822265625,-0.9085856323242187,1.4819881591796875,0.03131080574200762,0.03916530003449194,0.012522639095770333,2.484992027282715,2019-06-20 16:03:06:553
10.561859069824218,-0.9061914672851562,1.532265625,0.03171027990551951,0.039964248361515714,0.012522639095770333,2.490112066268921,2019-06-20 16:03:06:558
10.536720336914062,-0.904994384765625,1.5095210571289062,0.03091133157849573,0.03903214197998798,0.013854219640809953,2.494976043701172,2019-06-20 16:03:06:563
10.534326171875,-0.914571044921875,1.5167035522460937,0.032242912123535354,0.03903214197998798,0.01358790353180203,2.500095844268799,2019-06-20 16:03:06:568
10.531932006835937,-0.8942206420898438,1.5095210571289062,0.031443963796511584,0.039564774198003826,0.014120535749817876,2.504960060119629,2019-06-20 16:03:06:573
10.521158264160157,-0.8798556518554688,1.4855794067382813,0.032242912123535354,0.03849950976197213,0.014120535749817876,2.510079860687256,2019-06-20 16:03:06:578
10.531932006835937,-0.8918264770507812,1.4927619018554688,0.03210975406903139,0.03916530003449194,0.013721061586305991,2.514944076538086,2019-06-20 16:03:06:583
10.534326171875,-0.8870381469726563,1.5155064697265626,0.03197659601452743,0.039564774198003826,0.01358790353180203,2.520063877105713,2019-06-20 16:03:06:588
10.517567016601562,-0.8978118896484375,1.4783969116210938,0.03077817352399177,0.038898983925484014,0.01358790353180203,2.524927854537964,2019-06-20 16:03:06:593
10.531932006835937,-0.8930235595703124,1.498747314453125,0.03011238325147196,0.03863266781647609,0.015318958240353535,2.53004789352417,2019-06-20 16:03:06:598
10.524749511718749,-0.8978118896484375,1.5298714599609375,0.03157712185101554,0.039564774198003826,0.014653167967833723,2.534911870956421,2019-06-20 16:03:06:603
10.570238647460938,-0.89062939453125,1.489170654296875,0.031443963796511584,0.03916530003449194,0.014120535749817876,2.540031909942627,2019-06-20 16:03:06:608
10.535523254394532,-0.9014031372070312,1.5011414794921876,0.03157712185101554,0.04023056447052364,0.015318958240353535,2.544895887374878,2019-06-20 16:03:06:613
10.570238647460938,-0.9241477050781249,1.4652290039062499,0.030378699360479884,0.03903214197998798,0.014919484076841646,2.550015926361084,2019-06-20 16:03:06:618
10.504399108886718,-0.8918264770507812,1.498747314453125,0.03077817352399177,0.04129582890655533,0.016117906567377306,2.55513596534729,2019-06-20 16:03:06:623
10.527143676757813,-0.8930235595703124,1.4424844360351563,0.03197659601452743,0.041562145015563254,0.016117906567377306,2.559999942779541,2019-06-20 16:03:06:628
10.557070739746093,-0.9037973022460938,1.4580465087890624,0.03250922823254328,0.0420947772335791,0.014786326022337684,2.565119981765747,2019-06-20 16:03:06:633
10.557070739746093,-0.904994384765625,1.5597985229492186,0.03171027990551951,0.039964248361515714,0.014919484076841646,2.569983959197998,2019-06-20 16:03:06:638
10.551085327148437,-0.8870381469726563,1.58014892578125,0.031443963796511584,0.04169530307006722,0.015052642131345608,2.575103998184204,2019-06-20 16:03:06:643
10.513975769042968,-0.9061914672851562,1.5334627075195313,0.03290870239605516,0.040763196688539484,0.016783696839897114,2.579967975616455,2019-06-20 16:03:06:648
10.507990356445312,-0.8870381469726563,1.4939589843749999,0.03344133461407101,0.04182846112457118,0.017183171003409,2.585088014602661,2019-06-20 16:03:06:653
10.541508666992188,-0.9241477050781249,1.5334627075195313,0.03210975406903139,0.04116267085205137,0.016916854894401076,2.589951992034912,2019-06-20 16:03:06:658
10.578618225097657,-0.9026002197265625,1.5586014404296875,0.03171027990551951,0.039964248361515714,0.018248435439440696,2.595072031021118,2019-06-20 16:03:06:663
10.537917419433594,-0.9014031372070312,1.5071268920898437,0.03330817655956705,0.03983109030701175,0.01851475154844862,2.599936008453369,2019-06-20 16:03:06:668
10.541508666992188,-0.8642935791015625,1.4652290039062499,0.03237607017803931,0.040763196688539484,0.017582645166920888,2.605056047439575,2019-06-20 16:03:06:673
10.529537841796875,-0.8750673217773437,1.5071268920898437,0.03237607017803931,0.04049688057953156,0.018781067657456543,2.609920024871826,2019-06-20 16:03:06:678
10.534326171875,-0.9002060546874999,1.56099560546875,0.031843437960023466,0.0392984580889959,0.019313699875472393,2.6150400638580322,2019-06-20 16:03:06:683
10.561859069824218,-0.881052734375,1.4975502319335938,0.03290870239605516,0.039964248361515714,0.01984633209348824,2.619904041290283,2019-06-20 16:03:06:688
10.56305615234375,-0.8918264770507812,1.4341048583984375,0.03290870239605516,0.03943161614349987,0.020778438475015974,2.62502384185791,2019-06-20 16:03:06:693
10.548691162109375,-0.8738702392578125,1.4855794067382813,0.03237607017803931,0.04023056447052364,0.02117791263852786,2.6298880577087402,2019-06-20 16:03:06:698
10.54390283203125,-0.881052734375,1.546630615234375,0.03131080574200762,0.040763196688539484,0.02197686096555163,2.635007858276367,2019-06-20 16:03:06:703
10.575026977539062,-0.8738702392578125,1.5262802124023438,0.03197659601452743,0.04009740641601968,0.022243177074559552,2.6401278972625732,2019-06-20 16:03:06:708
10.534326171875,-0.8786585693359374,1.5202947998046874,0.03237607017803931,0.03943161614349987,0.023841073728607096,2.644991874694824,2019-06-20 16:03:06:713
10.54390283203125,-0.8547169189453124,1.4927619018554688,0.0327755443415512,0.03969793225250779,0.024506864001126907,2.6501119136810303,2019-06-20 16:03:06:718
10.577421142578125,-0.8618994140625,1.517900634765625,0.03317501850506309,0.03849950976197213,0.02344159956509521,2.6549758911132812,2019-06-20 16:03:06:723
10.576224060058594,-0.9361185302734375,1.5059298095703124,0.033041860450559124,0.03863266781647609,0.02464002205563087,2.6600959300994873,2019-06-20 16:03:06:728
10.492428283691407,-0.8583081665039062,1.48438232421875,0.03437344099559874,0.039964248361515714,0.024906338164638792,2.6649599075317383,2019-06-20 16:03:06:733
10.555873657226563,-0.8738702392578125,1.4652290039062499,0.03424028294109478,0.03849950976197213,0.025039496219142754,2.6700799465179443,2019-06-20 16:03:06:738
10.57382989501953,-0.9157681274414062,1.5143093872070312,0.03677028597667006,0.037966877543956286,0.02690370898219822,2.6749439239501953,2019-06-20 16:03:06:743
10.553479492187499,-0.8618994140625,1.5238860473632811,0.03490607321361459,0.04116267085205137,0.027702657309221994,2.6800639629364014,2019-06-20 16:03:06:748
10.511581604003906,-0.9253447875976563,1.4484698486328125,0.03317501850506309,0.03836635170746817,0.030232660344797265,2.6849279403686523,2019-06-20 16:03:06:753
10.530734924316405,-0.857111083984375,1.4364990234375,0.03397396683208686,0.0403637225250276,0.030099502290293303,2.6900479793548584,2019-06-20 16:03:06:758
10.531932006835937,-0.9157681274414062,1.498747314453125,0.03543870543163044,0.03903214197998798,0.029167395908765572,2.6949119567871094,2019-06-20 16:03:06:763
10.491231201171875,-0.8930235595703124,1.4999443969726562,0.03490607321361459,0.039964248361515714,0.030365818399301227,2.7000319957733154,2019-06-20 16:03:06:768
10.539114501953124,-0.8894323120117187,1.4688202514648436,0.03503923126811855,0.042227935288083066,0.030498976453805192,2.7048959732055664,2019-06-20 16:03:06:773
10.5151728515625,-0.933724365234375,1.5107181396484375,0.03477291515911063,0.03969793225250779,0.03129792478082896,2.7100160121917725,2019-06-20 16:03:06:778
10.524749511718749,-0.9277389526367187,1.4712144165039063,0.0327755443415512,0.042361093342587024,0.02983318618128538,2.7151360511779785,2019-06-20 16:03:06:783
10.559464904785155,-0.981607666015625,1.490367736816406,0.032642386287047236,0.04102951279754741,0.030498976453805192,2.7200000286102295,2019-06-20 16:03:06:788
10.513975769042968,-0.98639599609375,1.5478276977539063,0.03410712488659082,0.040763196688539484,0.030232660344797265,2.7251200675964355,2019-06-20 16:03:06:793
10.424194580078124,-0.9552718505859374,1.48438232421875,0.03210975406903139,0.03916530003449194,0.031164766726325004,2.7299840450286865,2019-06-20 16:03:06:798
10.523552429199219,-0.9971697387695312,1.4760027465820311,0.03171027990551951,0.04262740945159495,0.02983318618128538,2.7351038455963135,2019-06-20 16:03:06:803
10.564253234863282,-0.9624543457031249,1.5586014404296875,0.03410712488659082,0.04049688057953156,0.028767921745253687,2.7399680614471436,2019-06-20 16:03:06:808
10.484048706054688,-0.9887901611328125,1.5813460083007813,0.03197659601452743,0.041562145015563254,0.026104760655174447,2.7450878620147705,2019-06-20 16:03:06:813
10.5151728515625,-1.0163230590820311,1.4939589843749999,0.030645015469487807,0.04116267085205137,0.024506864001126907,2.7499520778656006,2019-06-20 16:03:06:818
10.518764099121093,-1.0211113891601562,1.4592435913085937,0.03250922823254328,0.040763196688539484,0.024373705946622946,2.7550718784332275,2019-06-20 16:03:06:823
10.541508666992188,-1.0570238647460937,1.537053955078125,0.033041860450559124,0.039964248361515714,0.0227758092925754,2.7599358558654785,2019-06-20 16:03:06:828
10.540311584472656,-1.0258997192382813,1.5250831298828125,0.031044489632999692,0.03943161614349987,0.020778438475015974,2.7650558948516846,2019-06-20 16:03:06:833
10.576224060058594,-1.0618121948242187,1.4628348388671875,0.03157712185101554,0.040763196688539484,0.01904738376646447,2.7699198722839355,2019-06-20 16:03:06:838
10.480457458496094,-1.077374267578125,1.4783969116210938,0.031443963796511584,0.0403637225250276,0.01651738073088919,2.7750399112701416,2019-06-20 16:03:06:843
10.488837036132812,-1.0378705444335938,1.4748056640625,0.027981854379408574,0.04196161917907514,0.014786326022337684,2.7799038887023926,2019-06-20 16:03:06:848
10.566647399902344,-1.0258997192382813,1.5406452026367188,0.02851448659742442,0.04129582890655533,0.01305527131378618,2.7850239276885986,2019-06-20 16:03:06:853
10.561859069824218,-1.0031551513671875,1.4748056640625,0.03210975406903139,0.040763196688539484,0.011590532714242601,2.7898879051208496,2019-06-20 16:03:06:858
10.546296997070312,-1.0151259765625,1.4041777954101562,0.029712909087960076,0.04249425139709099,0.010525268278210905,2.7950079441070557,2019-06-20 16:03:06:863
10.539114501953124,-0.9971697387695312,1.4436815185546874,0.029712909087960076,0.04102951279754741,0.009859478005691095,2.8001279830932617,2019-06-20 16:03:06:868
10.575026977539062,-1.0366734619140625,1.5167035522460937,0.03131080574200762,0.041562145015563254,0.007995265242635628,2.8049919605255127,2019-06-20 16:03:06:873
10.547494079589843,-1.0258997192382813,1.5502218627929687,0.030378699360479884,0.04196161917907514,0.005731578316068277,2.8101119995117188,2019-06-20 16:03:06:878
10.521158264160157,-1.0546296997070312,1.4197398681640625,0.028780802706432344,0.04182846112457118,0.004799471934540543,2.8149759769439697,2019-06-20 16:03:06:883
10.539114501953124,-1.0713888549804687,1.4724114990234374,0.03171027990551951,0.04129582890655533,0.004000523607516772,2.820096015930176,2019-06-20 16:03:06:888
10.551085327148437,-1.0426588745117187,1.5633897705078124,0.03197659601452743,0.039964248361515714,0.001736836680949419,2.8249599933624268,2019-06-20 16:03:06:893
10.547494079589843,-1.0354763793945312,1.5597985229492186,0.03077817352399177,0.04116267085205137,-0.0003936921911139715,2.830080032348633,2019-06-20 16:03:06:898
10.468486633300781,-1.0666005249023438,1.5334627075195313,0.03330817655956705,0.041428986961059296,-0.0014589566271456667,2.834944009780884,2019-06-20 16:03:06:903
10.517567016601562,-1.0689946899414062,1.5454335327148436,0.03397396683208686,0.04049688057953156,-0.003855801608216981,2.84006404876709,2019-06-20 16:03:06:908
10.531932006835937,-1.0534326171875,1.5418422851562499,0.031843437960023466,0.03916530003449194,-0.0057200143712724475,2.844928026199341,2019-06-20 16:03:06:913
10.525946594238281,-1.04385595703125,1.5681781005859374,0.03357449266857497,0.037966877543956286,-0.006918436861808105,2.850048065185547,2019-06-20 16:03:06:918
10.507990356445312,-1.0594180297851563,1.5813460083007813,0.03743607624918987,0.03849950976197213,-0.00878264962486357,2.854912042617798,2019-06-20 16:03:06:923
10.474472045898438,-1.0558267822265626,1.5310685424804686,0.035705021540638364,0.03743424532594044,-0.012777391259982429,2.860031843185425,2019-06-20 16:03:06:928
10.504399108886718,-1.0606151123046874,1.5633897705078124,0.035705021540638364,0.03623582283540478,-0.01424212985952601,2.864896059036255,2019-06-20 16:03:06:933
10.540311584472656,-1.06300927734375,1.5897255859375,0.0366371279221661,0.03490424229036516,-0.016638974840597325,2.870015859603882,2019-06-20 16:03:06:938
10.503202026367187,-1.0378705444335938,1.565783935546875,0.0366371279221661,0.03490424229036516,-0.017304765113117133,2.875135898590088,2019-06-20 16:03:06:943
10.494822448730469,-1.029490966796875,1.5023385620117187,0.03597133764964629,0.033838977854333464,-0.017970555385636945,2.879999876022339,2019-06-20 16:03:06:948
10.472077880859375,-1.0163230590820311,1.532265625,0.03823502457621364,0.031974765091277994,-0.02183213896625184,2.885119915008545,2019-06-20 16:03:06:953
10.498413696289063,-1.029490966796875,1.537053955078125,0.03743607624918987,0.03130897481875819,-0.023696351729307303,2.889983892440796,2019-06-20 16:03:06:958
10.534326171875,-1.0139288940429687,1.4963531494140625,0.037169760140181946,0.03237423925478988,-0.024894774219842965,2.895103931427002,2019-06-20 16:03:06:963
10.523552429199219,-0.991184326171875,1.5190977172851563,0.03850134068522156,0.03224108120028592,-0.025960038655874658,2.899967908859253,2019-06-20 16:03:06:968
10.506793273925782,-0.9875930786132813,1.5514189453125,0.03850134068522156,0.031841607036774036,-0.027291619200914274,2.905087947845459,2019-06-20 16:03:06:973
10.530734924316405,-0.9768193359374999,1.52268896484375,0.03583817959514232,0.03170844898227007,-0.02968846418198559,2.90995192527771,2019-06-20 16:03:06:978
10.523552429199219,-0.991184326171875,1.5071268920898437,0.03583817959514232,0.031974765091277994,-0.029422148072977668,2.915071964263916,2019-06-20 16:03:06:983
10.48644287109375,-0.9468922729492187,1.5262802124023438,0.03690344403117402,0.03317318758181366,-0.03128636083603314,2.919935941696167,2019-06-20 16:03:06:988
10.493625366210937,-0.9241477050781249,1.5310685424804686,0.03503923126811855,0.03330634563631762,-0.034881628307640106,2.925055980682373,2019-06-20 16:03:06:993
10.527143676757813,-0.904994384765625,1.517900634765625,0.03517238932262252,0.03330634563631762,-0.033816363871608406,2.929919958114624,2019-06-20 16:03:06:998
10.530734924316405,-0.8702789916992187,1.5430393676757812,0.03597133764964629,0.03224108120028592,-0.03554741649956531,2.93503999710083,2019-06-20 16:03:07:003
10.547494079589843,-0.895417724609375,1.4939589843749999,0.03490607321361459,0.03237423925478988,-0.036080048717581165,2.939903974533081,2019-06-20 16:03:07:008
10.54390283203125,-0.8475344238281249,1.508323974609375,0.0327755443415512,0.03330634563631762,-0.03514794233605342,2.945024013519287,2019-06-20 16:03:07:013
10.519961181640625,-0.799651123046875,1.5059298095703124,0.03250922823254328,0.03397213590883743,-0.03408267998061633,2.949887990951538,2019-06-20 16:03:07:018
10.523552429199219,-0.7721182250976563,1.5143093872070312,0.03210975406903139,0.03317318758181366,-0.033017415544584636,2.955008029937744,2019-06-20 16:03:07:023
10.535523254394532,-0.7493736572265625,1.498747314453125,0.03077817352399177,0.03330634563631762,-0.03195215110855294,2.96012806892395,2019-06-20 16:03:07:028
10.567844482421874,-0.7481765747070312,1.470017333984375,0.02931343492444819,0.033838977854333464,-0.02955530612748163,2.964992046356201,2019-06-20 16:03:07:033
10.553479492187499,-0.7326145019531249,1.4927619018554688,0.02918027686994423,0.03410529396334139,-0.026492670873890505,2.970111846923828,2019-06-20 16:03:07:038
10.577421142578125,-0.6943078613281249,1.4592435913085937,0.027182906052384798,0.03557003256288497,-0.024894774219842965,2.974976062774658,2019-06-20 16:03:07:043
10.57382989501953,-0.6739574584960938,1.422134033203125,0.025185535234825373,0.03623582283540478,-0.022231613129763725,2.980095863342285,2019-06-20 16:03:07:048
10.582209472656249,-0.675154541015625,1.4580465087890624,0.02505237718032141,0.03676845505342063,-0.019435293985180527,2.984959840774536,2019-06-20 16:03:07:053
10.612136535644531,-0.6560012207031249,1.460440673828125,0.02385395468978575,0.037167929216932516,-0.017304765113117133,2.990079879760742,2019-06-20 16:03:07:058
10.622910278320312,-0.6631837158203124,1.4568494262695313,0.022522374144746133,0.037966877543956286,-0.01424212985952601,2.994943857192993,2019-06-20 16:03:07:063
10.582209472656249,-0.6691691284179687,1.4628348388671875,0.02145710970871444,0.039564774198003826,-0.010247388224407152,3.000063896179199,2019-06-20 16:03:07:068
10.582209472656249,-0.7098699340820313,1.4724114990234374,0.019060264727643123,0.04009740641601968,-0.007317911025319991,3.00492787361145,2019-06-20 16:03:07:073
10.577421142578125,-0.6955049438476563,1.431710693359375,0.01746236807359558,0.041562145015563254,-0.0033231693902011335,3.0100479125976562,2019-06-20 16:03:07:078
10.558267822265625,-0.7290232543945312,1.4592435913085937,0.01666341974657181,0.04116267085205137,-0.0001273760821060477,3.0149118900299072,2019-06-20 16:03:07:083
10.577421142578125,-0.7206436767578125,1.4963531494140625,0.015731313365044075,0.041428986961059296,0.0025357850079731907,3.0200319290161133,2019-06-20 16:03:07:088
10.60136279296875,-0.7445853271484375,1.489170654296875,0.015464997256036152,0.04289372556060288,0.0034678913895009236,3.0248959064483643,2019-06-20 16:03:07:093
10.598968627929688,-0.7529649047851562,1.4771998291015624,0.014932365038020305,0.04382583194213061,0.006264210534084123,3.0300159454345703,2019-06-20 16:03:07:098
10.548691162109375,-0.723037841796875,1.4736085815429687,0.012934994220460877,0.04369267388762665,0.008927371624163362,3.0351359844207764,2019-06-20 16:03:07:103
10.59058905029297,-0.7457824096679687,1.460440673828125,0.013467626438476724,0.044092148051138536,0.01012579411469902,3.0399999618530273,2019-06-20 16:03:07:108
10.596574462890624,-0.7888773803710938,1.489170654296875,0.014266574765500497,0.045024254432666264,0.009593161896683172,3.0451200008392334,2019-06-20 16:03:07:113
10.581012390136719,-0.7888773803710938,1.4831852416992186,0.013334468383972762,0.04475793832365834,0.011856848823250525,3.0499839782714844,2019-06-20 16:03:07:118
10.588194885253905,-0.8152131958007812,1.498747314453125,0.013467626438476724,0.04435846416014646,0.013321587422794106,3.0551040172576904,2019-06-20 16:03:07:123
10.581012390136719,-0.8367606811523437,1.4532581787109375,0.013600784492980685,0.04369267388762665,0.013854219640809953,3.0599679946899414,2019-06-20 16:03:07:128
10.554676574707031,-0.8307752685546875,1.4400902709960937,0.013733942547484647,0.04382583194213061,0.014253693804321838,3.0650880336761475,2019-06-20 16:03:07:133
10.547494079589843,-0.84274609375,1.4879735717773437,0.014266574765500497,0.044624780269154375,0.015984748512873345,3.0699520111083984,2019-06-20 16:03:07:138
10.579815307617187,-0.8415490112304688,1.4963531494140625,0.015731313365044075,0.04582320275969004,0.01651738073088919,3.0750720500946045,2019-06-20 16:03:07:143
10.551085327148437,-0.8499285888671875,1.5047327270507813,0.015997629474052002,0.04475793832365834,0.016916854894401076,3.0799360275268555,2019-06-20 16:03:07:148
10.518764099121093,-0.8583081665039062,1.508323974609375,0.016130787528555963,0.04555688665068212,0.016650538785393153,3.0850560665130615,2019-06-20 16:03:07:153
10.533129089355468,-0.8415490112304688,1.5071268920898437,0.01812815834611539,0.045956360814194006,0.018781067657456543,3.0899200439453125,2019-06-20 16:03:07:158
10.592983215332032,-0.8618994140625,1.5310685424804686,0.02025868721817878,0.0448910963781623,0.01851475154844862,3.0950398445129395,2019-06-20 16:03:07:163
10.567844482421874,-0.8403519287109374,1.5454335327148436,0.020658161381690666,0.0448910963781623,0.01851475154844862,3.0999040603637695,2019-06-20 16:03:07:168
10.561859069824218,-0.8618994140625,1.4999443969726562,0.019859213054666897,0.046089518868697964,0.018781067657456543,3.1050238609313965,2019-06-20 16:03:07:173
10.524749511718749,-0.8535198364257812,1.498747314453125,0.021989741926730286,0.044624780269154375,0.01918054182096843,3.1098880767822266,2019-06-20 16:03:07:178
10.542705749511718,-0.8726731567382813,1.5071268920898437,0.02225605803573821,0.04395898999663457,0.018914225711960504,3.1150078773498535,2019-06-20 16:03:07:183
10.546296997070312,-0.9061914672851562,1.5454335327148436,0.023321322471769903,0.043426357778618724,0.01784896127592881,3.1201279163360596,2019-06-20 16:03:07:188
10.54390283203125,-0.9061914672851562,1.5394481201171875,0.02571816745284122,0.0448910963781623,0.017982119330432773,3.1249918937683105,2019-06-20 16:03:07:193
10.553479492187499,-0.9169652099609374,1.4879735717773437,0.027981854379408574,0.04395898999663457,0.016916854894401076,3.1301119327545166,2019-06-20 16:03:07:198
10.56305615234375,-0.9121768798828125,1.4771998291015624,0.02918027686994423,0.04369267388762665,0.01771580322142485,3.1349759101867676,2019-06-20 16:03:07:203
10.517567016601562,-0.895417724609375,1.5250831298828125,0.029979225196968,0.04329319972411476,0.01904738376646447,3.1400959491729736,2019-06-20 16:03:07:208
10.48763995361328,-0.8978118896484375,1.5119152221679688,0.031177647687503654,0.04276056750609891,0.019313699875472393,3.1449599266052246,2019-06-20 16:03:07:213
10.535523254394532,-0.9061914672851562,1.4939589843749999,0.03250922823254328,0.04369267388762665,0.019713174038984278,3.1500799655914307,2019-06-20 16:03:07:218
10.554676574707031,-0.8463373413085937,1.546630615234375,0.03437344099559874,0.042361093342587024,0.01984633209348824,3.1549439430236816,2019-06-20 16:03:07:223
10.557070739746093,-0.8499285888671875,1.56099560546875,0.03503923126811855,0.04355951583312269,0.018914225711960504,3.1600639820098877,2019-06-20 16:03:07:228
10.513975769042968,-0.857111083984375,1.50353564453125,0.0366371279221661,0.04475793832365834,0.020112648202496163,3.1649279594421387,2019-06-20 16:03:07:233
10.482851623535156,-0.8595052490234375,1.4640319213867188,0.037968708467205715,0.04475793832365834,0.020245806257000124,3.1700479984283447,2019-06-20 16:03:07:238
10.493625366210937,-0.8882352294921875,1.532265625,0.039167130957741374,0.0431600416696108,0.02064528042051201,3.1749119758605957,2019-06-20 16:03:07:243
10.540311584472656,-0.8415490112304688,1.5406452026367188,0.04009923733926911,0.042227935288083066,0.02117791263852786,3.1800320148468018,2019-06-20 16:03:07:248
10.527143676757813,-0.8607023315429687,1.5155064697265626,0.0411645017753008,0.04196161917907514,0.022509493183567476,3.1848959922790527,2019-06-20 16:03:07:253
10.493625366210937,-0.8583081665039062,1.4736085815429687,0.03969976317575722,0.043426357778618724,0.023841073728607096,3.190016031265259,2019-06-20 16:03:07:258
10.5151728515625,-0.8630964965820312,1.5131123046875,0.0411645017753008,0.042361093342587024,0.02330844151059125,3.195136070251465,2019-06-20 16:03:07:263
10.548691162109375,-0.8786585693359374,1.5382510375976561,0.04209660815682853,0.04169530307006722,0.02330844151059125,3.200000047683716,2019-06-20 16:03:07:268
10.549888244628907,-0.8463373413085937,1.5190977172851563,0.042629240374844383,0.04262740945159495,0.023707915674103134,3.2051198482513428,2019-06-20 16:03:07:273
10.527143676757813,-0.8343665161132813,1.460440673828125,0.04169713399331665,0.044092148051138536,0.025172654273646716,3.209984064102173,2019-06-20 16:03:07:278
10.537917419433594,-0.8499285888671875,1.5394481201171875,0.041430817884308725,0.04102951279754741,0.02623791870967841,3.2151038646698,2019-06-20 16:03:07:283
10.546296997070312,-0.828381103515625,1.584937255859375,0.04049871150278099,0.04129582890655533,0.02690370898219822,3.219967842102051,2019-06-20 16:03:07:288
10.534326171875,-0.8247898559570312,1.5023385620117187,0.04049871150278099,0.043026883615106835,0.028368447581741802,3.225087881088257,2019-06-20 16:03:07:293
10.519961181640625,-0.8355635986328125,1.4819881591796875,0.040765027611788913,0.04262740945159495,0.027968973418229917,3.229951858520508,2019-06-20 16:03:07:298
10.524749511718749,-0.8499285888671875,1.5238860473632811,0.04089818566629288,0.04169530307006722,0.029566870072277457,3.235071897506714,2019-06-20 16:03:07:303
10.56305615234375,-0.8271840209960938,1.5214918823242187,0.03969976317575722,0.0403637225250276,0.030632134508309154,3.239935874938965,2019-06-20 16:03:07:308
10.559464904785155,-0.8223956909179687,1.52268896484375,0.03983292123026118,0.04023056447052364,0.03169739894434085,3.245055913925171,2019-06-20 16:03:07:313
10.534326171875,-0.8152131958007812,1.4771998291015624,0.03983292123026118,0.04023056447052364,0.032363189216860655,3.249919891357422,2019-06-20 16:03:07:318
10.540311584472656,-0.83316943359375,1.4915648193359374,0.03850134068522156,0.04169530307006722,0.03249634727136462,3.255039930343628,2019-06-20 16:03:07:323
10.564253234863282,-0.8235927734374999,1.5430393676757812,0.03783555041270175,0.03969793225250779,0.033961085870908195,3.259903907775879,2019-06-20 16:03:07:328
10.566647399902344,-0.837957763671875,1.5538131103515624,0.03770239235819779,0.04102951279754741,0.03489319225243594,3.265023946762085,2019-06-20 16:03:07:333
10.533129089355468,-0.8559140014648438,1.517900634765625,0.03756923430369383,0.03983109030701175,0.036091616823566194,3.270143985748291,2019-06-20 16:03:07:338
10.540311584472656,-0.8583081665039062,1.546630615234375,0.03517238932262252,0.04009740641601968,0.03702372320509393,3.275007963180542,2019-06-20 16:03:07:343
10.54390283203125,-0.85232275390625,1.5394481201171875,0.035705021540638364,0.039964248361515714,0.03635793293257412,3.280128002166748,2019-06-20 16:03:07:348
10.571435729980468,-0.8487315063476563,1.5346597900390624,0.03583817959514232,0.040763196688539484,0.03662424904158204,3.284991979598999,2019-06-20 16:03:07:353
10.539114501953124,-0.8678848266601562,1.5107181396484375,0.03357449266857497,0.04023056447052364,0.037689513477613734,3.290112018585205,2019-06-20 16:03:07:358
10.546296997070312,-0.9133739624023437,1.5143093872070312,0.03437344099559874,0.03903214197998798,0.03942056818616524,3.294975996017456,2019-06-20 16:03:07:363
10.555873657226563,-0.8702789916992187,1.5059298095703124,0.03503923126811855,0.03770056143494836,0.03902109402265335,3.300096035003662,2019-06-20 16:03:07:368
10.551085327148437,-0.8834468994140625,1.5107181396484375,0.033041860450559124,0.03863266781647609,0.03902109402265335,3.304960012435913,2019-06-20 16:03:07:373
10.539114501953124,-0.8846439819335937,1.5059298095703124,0.03250922823254328,0.04023056447052364,0.04141793900372467,3.310080051422119,2019-06-20 16:03:07:378
10.542705749511718,-0.8918264770507812,1.5023385620117187,0.03330817655956705,0.04023056447052364,0.04048583262219694,3.31494402885437,2019-06-20 16:03:07:383
10.559464904785155,-0.8834468994140625,1.4927619018554688,0.032642386287047236,0.040630038634035526,0.04075214873120486,3.320064067840576,2019-06-20 16:03:07:388
10.536720336914062,-0.9014031372070312,1.52268896484375,0.03210975406903139,0.03969793225250779,0.04155109705822863,3.324928045272827,2019-06-20 16:03:07:393
10.535523254394532,-0.904994384765625,1.5286743774414062,0.03330817655956705,0.04102951279754741,0.04141793900372467,3.330047845840454,2019-06-20 16:03:07:398
10.529537841796875,-0.9014031372070312,1.5143093872070312,0.03197659601452743,0.04023056447052364,0.039953200404181086,3.334912061691284,2019-06-20 16:03:07:403
10.551085327148437,-0.943301025390625,1.4963531494140625,0.031443963796511584,0.03969793225250779,0.041018464840212786,3.340031862258911,2019-06-20 16:03:07:408
10.541508666992188,-0.9385126953125,1.517900634765625,0.03210975406903139,0.039964248361515714,0.04128478094922071,3.344896078109741,2019-06-20 16:03:07:413
10.54390283203125,-0.9373156127929687,1.4963531494140625,0.03290870239605516,0.04116267085205137,0.04248320343975636,3.350015878677368,2019-06-20 16:03:07:418
10.540311584472656,-0.9073885498046875,1.5167035522460937,0.03237607017803931,0.039964248361515714,0.04221688733074844,3.355135917663574,2019-06-20 16:03:07:423
10.553479492187499,-0.9277389526367187,1.5346597900390624,0.032642386287047236,0.03903214197998798,0.04048583262219694,3.359999895095825,2019-06-20 16:03:07:428
10.521158264160157,-0.9540747680664062,1.5011414794921876,0.03250922823254328,0.03943161614349987,0.04008635845868505,3.3651199340820312,2019-06-20 16:03:07:433
10.523552429199219,-0.9265418701171875,1.4795939941406249,0.03171027990551951,0.03863266781647609,0.039553726240669204,3.3699839115142822,2019-06-20 16:03:07:438
10.521158264160157,-0.9265418701171875,1.4712144165039063,0.031443963796511584,0.03849950976197213,0.038355303750133546,3.3751039505004883,2019-06-20 16:03:07:443
10.553479492187499,-0.943301025390625,1.4616377563476561,0.032242912123535354,0.037966877543956286,0.03875477791364543,3.3799679279327393,2019-06-20 16:03:07:448
10.582209472656249,-0.9301331176757812,1.4161486206054688,0.033041860450559124,0.039964248361515714,0.03942056818616524,3.3850879669189453,2019-06-20 16:03:07:453
10.607348205566407,-0.8607023315429687,1.355097412109375,0.03250922823254328,0.041428986961059296,0.03822214569562958,3.3899519443511963,2019-06-20 16:03:07:458
10.470880798339843,-0.8403519287109374,1.3886157226562499,0.03237607017803931,0.04395898999663457,0.03875477791364543,3.3950719833374023,2019-06-20 16:03:07:463
10.425391662597656,-0.8966148071289062,1.6004993286132811,0.028913960760936306,0.03903214197998798,0.039154252077157316,3.3999359607696533,2019-06-20 16:03:07:468
10.661216918945312,-0.99597265625,1.6531709594726562,0.026250799670857066,0.04196161917907514,0.039287410131661274,3.4050559997558594,2019-06-20 16:03:07:473
10.597771545410156,-0.9744251708984375,1.4724114990234374,0.03011238325147196,0.04329319972411476,0.039953200404181086,3.4099199771881104,2019-06-20 16:03:07:478
10.418209167480468,-0.9935784912109374,1.4329077758789062,0.03197659601452743,0.04023056447052364,0.03982004234967713,3.4150400161743164,2019-06-20 16:03:07:483
10.499610778808593,-0.9971697387695312,1.6328205566406249,0.03357449266857497,0.041428986961059296,0.0378226715321177,3.4199039936065674,2019-06-20 16:03:07:488
10.57382989501953,-0.9109797973632813,1.6974630126953125,0.033840808777582894,0.039964248361515714,0.03715688125959789,3.4250240325927734,2019-06-20 16:03:07:493
10.59058905029297,-0.9756222534179687,1.4951560668945312,0.03157712185101554,0.04049688057953156,0.03555898460555034,3.4298880100250244,2019-06-20 16:03:07:498
10.496019531249999,-0.9899872436523437,1.3491119995117187,0.029712909087960076,0.03943161614349987,0.03515951044203846,3.4350080490112305,2019-06-20 16:03:07:503
10.503202026367187,-0.9935784912109374,1.4245281982421876,0.02838132854292046,0.03943161614349987,0.03369476976190027,3.4401278495788574,2019-06-20 16:03:07:508
10.548691162109375,-1.0115347290039063,1.6244409790039063,0.031843437960023466,0.04102951279754741,0.033162137543884425,3.4449920654296875,2019-06-20 16:03:07:513
10.555873657226563,-0.9768193359374999,1.5574043579101562,0.033707650723078936,0.039564774198003826,0.03276266338037254,3.4501118659973145,2019-06-20 16:03:07:518
10.533129089355468,-0.9624543457031249,1.3969953002929687,0.03330817655956705,0.039964248361515714,0.032363189216860655,3.4549758434295654,2019-06-20 16:03:07:523
10.519961181640625,-0.9744251708984375,1.4209369506835938,0.03330817655956705,0.038898983925484014,0.03249634727136462,3.4600958824157715,2019-06-20 16:03:07:528
10.557070739746093,-0.9660455932617187,1.6148643188476561,0.03490607321361459,0.04049688057953156,0.0328958214348765,3.4649598598480225,2019-06-20 16:03:07:533
10.557070739746093,-0.9744251708984375,1.6268351440429687,0.035305547377126476,0.04089635474304345,0.03129792478082896,3.4700798988342285,2019-06-20 16:03:07:538
10.519961181640625,-0.9983668212890625,1.4819881591796875,0.03770239235819779,0.039564774198003826,0.030898450617317077,3.4749438762664795,2019-06-20 16:03:07:543
10.500807861328125,-1.0163230590820311,1.4807910766601562,0.03756923430369383,0.03863266781647609,0.030232660344797265,3.4800639152526855,2019-06-20 16:03:07:548
10.527143676757813,-0.98639599609375,1.4879735717773437,0.0383681826307176,0.038100035598460244,0.028767921745253687,3.4849278926849365,2019-06-20 16:03:07:553
10.557070739746093,-0.9684397583007812,1.5214918823242187,0.039167130957741374,0.037966877543956286,0.029167395908765572,3.4900479316711426,2019-06-20 16:03:07:558
10.549888244628907,-0.9648485107421875,1.4233311157226562,0.03969976317575722,0.03823319365296421,0.02903423785426161,3.4949119091033936,2019-06-20 16:03:07:563
10.546296997070312,-0.9660455932617187,1.3467178344726562,0.04089818566629288,0.03836635170746817,0.028634763690749725,3.5000319480895996,2019-06-20 16:03:07:568
10.530734924316405,-1.0558267822265626,1.4376961059570312,0.04169713399331665,0.03916530003449194,0.02890107979975765,3.5048959255218506,2019-06-20 16:03:07:573
10.509187438964844,-1.0881480102539063,1.575360595703125,0.04156397593881268,0.03983109030701175,0.026504234818686332,3.5100159645080566,2019-06-20 16:03:07:578
10.509187438964844,-1.0881480102539063,1.575360595703125,0.04156397593881268,0.03983109030701175,0.026504234818686332,3.512831926345825,2019-06-20 16:03:07:580
10.445742065429688,-1.15877587890625,1.4831852416992186,0.04542555951942758,0.0392984580889959,0.021444228747535782,3.5199999809265137,2019-06-20 16:03:07:588
10.445742065429688,-1.15877587890625,1.4831852416992186,0.04542555951942758,0.0392984580889959,0.021444228747535782,3.5228159427642822,2019-06-20 16:03:07:590
10.466092468261719,-1.1683525390625,1.5406452026367188,0.04968661726355436,0.04009740641601968,0.015984748512873345,3.5299839973449707,2019-06-20 16:03:07:598
10.466092468261719,-1.1683525390625,1.5406452026367188,0.04968661726355436,0.04009740641601968,0.015984748512873345,3.5327999591827393,2019-06-20 16:03:07:600
10.484048706054688,-1.1647612915039063,1.5597985229492186,0.054480307225696994,0.03823319365296421,0.010258952169202981,3.5399680137634277,2019-06-20 16:03:07:608
10.484048706054688,-1.1647612915039063,1.5597985229492186,0.054480307225696994,0.03823319365296421,0.010258952169202981,3.5427839756011963,2019-06-20 16:03:07:610
10.472077880859375,-1.1384254760742187,1.4568494262695313,0.058608206915319816,0.03557003256288497,0.002136310844461305,3.5499520301818848,2019-06-20 16:03:07:618
10.530734924316405,-1.1408196411132812,1.5071268920898437,0.06047241967837528,0.035303716453877046,-0.0003936921911139715,3.555072069168091,2019-06-20 16:03:07:623
10.525946594238281,-1.1144838256835938,1.5550101928710938,0.06233663244143074,0.036368980889908746,-0.0035894854992090572,3.559936046600342,2019-06-20 16:03:07:628
10.452924560546874,-1.1456079711914062,1.4975502319335938,0.05993978746035943,0.03583634867189289,-0.0063858046437922575,3.5650558471679688,2019-06-20 16:03:07:633
10.498413696289063,-1.14919921875,1.42692236328125,0.060206103569367356,0.03570319061738893,-0.011046336551430924,3.569920063018799,2019-06-20 16:03:07:638
10.524749511718749,-1.1192721557617187,1.4592435913085937,0.06193715827791886,0.03503740034486912,-0.014108971805022049,3.575039863586426,2019-06-20 16:03:07:643
10.50559619140625,-1.10131591796875,1.5358568725585937,0.06313558076845452,0.03490424229036516,-0.017171607058613172,3.5799038410186768,2019-06-20 16:03:07:648
10.555873657226563,-1.0749801025390624,1.5442364501953125,0.06246979049593471,0.035436874508381004,-0.020766874530220143,3.585023880004883,2019-06-20 16:03:07:653
10.555873657226563,-1.0749801025390624,1.5442364501953125,0.06300242271395055,0.03437161007234931,-0.021432664802739955,3.590143918991089,2019-06-20 16:03:07:658
10.5151728515625,-1.0270968017578124,1.5143093872070312,0.06233663244143074,0.034637926181357234,-0.02529424838335485,3.59500789642334,2019-06-20 16:03:07:663
10.539114501953124,-0.9708339233398438,1.5238860473632811,0.059540313296847544,0.03503740034486912,-0.024894774219842965,3.600127935409546,2019-06-20 16:03:07:668
10.581012390136719,-0.9073885498046875,1.5011414794921876,0.05820873275180792,0.0347710842358612,-0.02529424838335485,3.604991912841797,2019-06-20 16:03:07:673
10.5726328125,-0.8475344238281249,1.498747314453125,0.05368135889867322,0.03437161007234931,-0.02356319367480334,3.610111951828003,2019-06-20 16:03:07:678
10.586997802734375,-0.7709211425781249,1.5574043579101562,0.049153985045538515,0.03557003256288497,-0.022364771184267686,3.614975929260254,2019-06-20 16:03:07:683
10.63128985595703,-0.7673298950195312,1.5131123046875,0.0467571400644672,0.03583634867189289,-0.02036740036670826,3.62009596824646,2019-06-20 16:03:07:688
10.645654846191405,-0.742191162109375,1.4592435913085937,0.04542555951942758,0.035303716453877046,-0.017437923167621095,3.624959945678711,2019-06-20 16:03:07:693
10.625304443359374,-0.7541619873046875,1.4161486206054688,0.04436029508339589,0.03823319365296421,-0.015573710404565629,3.630079984664917,2019-06-20 16:03:07:698
10.637275268554687,-0.7457824096679687,1.4005865478515624,0.04329503064736419,0.038898983925484014,-0.013176865423494314,3.634943962097168,2019-06-20 16:03:07:703
10.612136535644531,-0.7541619873046875,1.4771998291015624,0.04183029204782061,0.040630038634035526,-0.00944843989738338,3.640064001083374,2019-06-20 16:03:07:708
10.567844482421874,-0.7553590698242187,1.5023385620117187,0.0394334470667493,0.041428986961059296,-0.009048965733871496,3.644927978515625,2019-06-20 16:03:07:713
10.512778686523438,-0.8092277832031249,1.5454335327148436,0.03424028294109478,0.04129582890655533,-0.007850543243335837,3.650048017501831,2019-06-20 16:03:07:718
10.511581604003906,-0.8678848266601562,1.5597985229492186,0.03197659601452743,0.042227935288083066,-0.006652120752800181,3.654911994934082,2019-06-20 16:03:07:723
10.485245788574218,-0.9169652099609374,1.6220468139648436,0.028913960760936306,0.04116267085205137,-0.006785278807304142,3.660032033920288,2019-06-20 16:03:07:728
10.484048706054688,-0.9636514282226563,1.6555651245117187,0.02931343492444819,0.04009740641601968,-0.007051594916312067,3.664896011352539,2019-06-20 16:03:07:733
10.502004943847655,-1.0127318115234374,1.6016964111328125,0.031177647687503654,0.03983109030701175,-0.009048965733871496,3.670016050338745,2019-06-20 16:03:07:738
10.504399108886718,-1.0258997192382813,1.5597985229492186,0.034639757104606664,0.038100035598460244,-0.010247388224407152,3.675135850906372,2019-06-20 16:03:07:743
10.524749511718749,-1.0127318115234374,1.4053748779296875,0.03690344403117402,0.038898983925484014,-0.012377917096470544,3.680000066757202,2019-06-20 16:03:07:748
10.558267822265625,-0.991184326171875,1.288060791015625,0.0394334470667493,0.03943161614349987,-0.012644233205478467,3.685119867324829,2019-06-20 16:03:07:753
10.536720336914062,-0.9229506225585937,1.3120024414062499,0.04023239539377307,0.03916530003449194,-0.011845284878454694,3.68998384475708,2019-06-20 16:03:07:758
