ACCELEROMETER X (m/s²),ACCELEROMETER Y (m/s²),ACCELEROMETER Z (m/s²),GYROSCOPE X (rad/s),GYROSCOPE Y (rad/s),GYROSCOPE Z (rad/s),Time since start in ms ,YYYY-MO-DD HH-MI-SS_SSS
9.861565795898438,-3.653495849609375,1.1468050537109375,0.029712909087960076,0.040763196688539484,0.03622477487807015,0.0,2019-06-20 16:46:43:876
9.881916198730469,-3.6463133544921873,1.1264546508789062,0.028248170488416498,0.04089635474304345,0.03635793293257412,0.004992008209228516,2019-06-20 16:46:43:881
9.89268994140625,-3.630751281738281,1.1875058593749999,0.02851448659742442,0.039964248361515714,0.03662424904158204,0.009984016418457031,2019-06-20 16:46:43:886
9.878324951171875,-3.643919189453125,1.1551846313476561,0.029446592978952153,0.03903214197998798,0.038355303750133546,0.014976024627685547,2019-06-20 16:46:43:891
9.890295776367187,-3.653495849609375,1.1719437866210938,0.029712909087960076,0.03783371948945232,0.03715688125959789,0.019968032836914062,2019-06-20 16:46:43:896
9.869945373535156,-3.6463133544921873,1.13962255859375,0.030645015469487807,0.03690161310792459,0.036757407096086006,0.024960041046142578,2019-06-20 16:46:43:901
9.908252014160157,-3.6570870971679685,1.1515933837890624,0.029579751033456114,0.0375674033804444,0.03968688429517316,0.029952049255371094,2019-06-20 16:46:43:906
9.89268994140625,-3.64870751953125,1.1515933837890624,0.029979225196968,0.03703477116242855,0.040352674567692974,0.03494405746459961,2019-06-20 16:46:43:911
9.923814086914062,-3.6522987670898437,1.144410888671875,0.029047118815440268,0.036368980889908746,0.04088530678570882,0.039936065673828125,2019-06-20 16:46:43:916
9.926208251953124,-3.6546929321289063,1.1336371459960937,0.029047118815440268,0.03743424532594044,0.04208372927624448,0.04492807388305664,2019-06-20 16:46:43:921
9.921419921875,-3.64870751953125,1.1312429809570312,0.028647644651928383,0.03863266781647609,0.042616361494260326,0.049920082092285156,2019-06-20 16:46:43:926
9.905857849121093,-3.663072509765625,1.1025130004882813,0.02851448659742442,0.03903214197998798,0.04408110009380391,0.05491209030151367,2019-06-20 16:46:43:931
9.907054931640625,-3.64870751953125,1.1084984130859374,0.028647644651928383,0.039564774198003826,0.045013206475331635,0.060031890869140625,2019-06-20 16:46:43:936
9.910646179199219,-3.6511016845703126,1.0761771850585937,0.027715538270400644,0.03969793225250779,0.04567899674785145,0.06502389907836914,2019-06-20 16:46:43:941
9.909449096679687,-3.634342529296875,1.1228634033203124,0.028248170488416498,0.039564774198003826,0.04661110312937919,0.07001590728759766,2019-06-20 16:46:43:946
9.884310363769531,-3.6774375,1.1240604858398437,0.02744922216139272,0.039964248361515714,0.04767636756541088,0.07500791549682617,2019-06-20 16:46:43:951
9.880719116210937,-3.7001820678710935,1.106104248046875,0.02731606410688876,0.04089635474304345,0.048075841728922764,0.07999992370605469,2019-06-20 16:46:43:956
9.885507446289063,-3.702576232910156,1.0893450927734374,0.02665027383436895,0.0403637225250276,0.04754320951090692,0.0849919319152832,2019-06-20 16:46:43:961
9.896281188964844,-3.702576232910156,1.1096954956054688,0.02505237718032141,0.04009740641601968,0.04607847091136334,0.08998394012451172,2019-06-20 16:46:43:966
9.859171630859375,-3.7265178833007813,1.115680908203125,0.02491921912581745,0.04116267085205137,0.04554583869334748,0.09497594833374023,2019-06-20 16:46:43:971
9.8256533203125,-3.750459533691406,1.0881480102539063,0.02571816745284122,0.04196161917907514,0.04474689036632371,0.09996795654296875,2019-06-20 16:46:43:976
9.808894165039062,-3.758839111328125,1.1288488159179688,0.02491921912581745,0.040630038634035526,0.04488004842082768,0.10495996475219727,2019-06-20 16:46:43:981
9.812485412597656,-3.768415771484375,1.1120896606445312,0.024786061071313488,0.041428986961059296,0.04221688733074844,0.10995197296142578,2019-06-20 16:46:43:986
9.81607666015625,-3.774401184082031,1.0701917724609376,0.02491921912581745,0.04289372556060288,0.041018464840212786,0.1149439811706543,2019-06-20 16:46:43:991
9.792135009765625,-3.7732041015625,1.1372283935546874,0.02398711274428971,0.04129582890655533,0.04155109705822863,0.11993598937988281,2019-06-20 16:46:43:996
9.781361267089844,-3.7851749267578123,1.1468050537109375,0.024652903016809526,0.041562145015563254,0.03942056818616524,0.12492799758911133,2019-06-20 16:46:44:001
9.789740844726563,-3.7959486694335935,1.1288488159179688,0.026117641616353104,0.04102951279754741,0.037556355423109776,0.12992000579833984,2019-06-20 16:46:44:006
9.782558349609374,-3.7791895141601564,1.125257568359375,0.025318693289329335,0.04262740945159495,0.03662424904158204,0.1350400447845459,2019-06-20 16:46:44:011
9.756222534179686,-3.7947515869140624,1.1132867431640625,0.025585009398337258,0.04449162221465042,0.033961085870908195,0.14003205299377441,2019-06-20 16:46:44:016
9.735872131347657,-3.7995399169921873,1.0917392578125,0.026383957725361028,0.04276056750609891,0.03302897948938047,0.14502406120300293,2019-06-20 16:46:44:021
9.721507141113282,-3.7947515869140624,1.1084984130859374,0.026783431888872913,0.043026883615106835,0.030632134508309154,0.15001606941223145,2019-06-20 16:46:44:026
9.707142150878907,-3.8330582275390626,1.134834228515625,0.02918027686994423,0.04249425139709099,0.027436341200214067,0.15500807762145996,2019-06-20 16:46:44:031
9.727492553710936,-3.8366494750976563,1.1420167236328125,0.02931343492444819,0.04276056750609891,0.025039496219142754,0.16000008583068848,2019-06-20 16:46:44:036
9.715521728515625,-3.8282698974609373,1.1240604858398437,0.029446592978952153,0.04289372556060288,0.021843702911047667,0.1649918556213379,2019-06-20 16:46:44:041
9.689185913085938,-3.845029052734375,1.1180750732421876,0.03077817352399177,0.04182846112457118,0.01904738376646447,0.1699838638305664,2019-06-20 16:46:44:046
9.678412170410157,-3.858196960449219,1.1037100830078124,0.03171027990551951,0.041428986961059296,0.017183171003409,0.17497587203979492,2019-06-20 16:46:44:051
9.70235382080078,-3.8522115478515624,1.110892578125,0.03250922823254328,0.04169530307006722,0.014786326022337684,0.17996788024902344,2019-06-20 16:46:44:056
9.7490400390625,-3.8498173828124997,1.115680908203125,0.034506599050102706,0.041428986961059296,0.012123164932258448,0.18495988845825195,2019-06-20 16:46:44:061
9.693974243164062,-3.825875732421875,1.1264546508789062,0.034639757104606664,0.04116267085205137,0.009593161896683172,0.18995189666748047,2019-06-20 16:46:44:066
9.73108380126953,-3.812707824707031,1.14919921875,0.03597133764964629,0.04116267085205137,0.007995265242635628,0.19494390487670898,2019-06-20 16:46:44:071
9.782558349609374,-3.797145751953125,1.1408196411132812,0.03597133764964629,0.04116267085205137,0.007995265242635628,0.1999359130859375,2019-06-20 16:46:44:076
9.78854376220703,-3.7648245239257814,1.1120896606445312,0.03677028597667006,0.04116267085205137,0.007329474970115818,0.20492792129516602,2019-06-20 16:46:44:081
9.81607666015625,-3.7947515869140624,1.086950927734375,0.037302918194685904,0.04182846112457118,0.00533210415255639,0.20991992950439453,2019-06-20 16:46:44:086
9.869945373535156,-3.758839111328125,1.0965275878906249,0.03783555041270175,0.04009740641601968,0.0041336816620207335,0.21503996849060059,2019-06-20 16:46:44:091
9.891492858886718,-3.75405078125,1.1168779907226563,0.0383681826307176,0.03916530003449194,0.003601049444004886,0.2200319766998291,2019-06-20 16:46:44:096
9.939376159667969,-3.7660216064453125,1.1815204467773437,0.038101866521709674,0.039564774198003826,0.004533155825532619,0.22502398490905762,2019-06-20 16:46:44:101
9.942967407226563,-3.6654666748046876,1.1037100830078124,0.03677028597667006,0.03770056143494836,0.0041336816620207335,0.23001599311828613,2019-06-20 16:46:44:106
9.947755737304687,-3.6654666748046876,1.0282938842773437,0.04049871150278099,0.03903214197998798,0.004799471934540543,0.23500800132751465,2019-06-20 16:46:44:111
10.042325256347656,-3.653495849609375,1.1096954956054688,0.04156397593881268,0.03943161614349987,0.007462633024619782,0.24000000953674316,2019-06-20 16:46:44:116
10.0171865234375,-3.5804738159179688,1.0857538452148436,0.037169760140181946,0.039564774198003826,0.009593161896683172,0.24499201774597168,2019-06-20 16:46:44:121
10.053098999023437,-3.6139921264648436,1.15877587890625,0.03890081484873345,0.040763196688539484,0.01225632298676241,0.2499840259552002,2019-06-20 16:46:44:126
10.108164794921874,-3.5732913208007813,1.106104248046875,0.036503969867662134,0.040630038634035526,0.015185800185849573,0.2549760341644287,2019-06-20 16:46:44:131
10.099785217285156,-3.5445613403320313,0.9624543457031249,0.03477291515911063,0.03863266781647609,0.01864790960295258,0.2599680423736572,2019-06-20 16:46:44:136
10.112953125,-3.567305908203125,1.13962255859375,0.03850134068522156,0.039964248361515714,0.020778438475015974,0.26496005058288574,2019-06-20 16:46:44:141
10.117741455078125,-3.5409700927734375,1.0642063598632812,0.03290870239605516,0.03983109030701175,0.027036867036702182,0.26995205879211426,2019-06-20 16:46:44:146
10.138091857910156,-3.5469555053710935,1.1001188354492186,0.033707650723078936,0.040630038634035526,0.030765292562813115,0.2749440670013428,2019-06-20 16:46:44:151
10.14168310546875,-3.5361817626953123,1.0701917724609376,0.031843437960023466,0.04102951279754741,0.03515951044203846,0.2799360752105713,2019-06-20 16:46:44:156
10.129712280273438,-3.520619689941406,1.0043522338867188,0.03171027990551951,0.043426357778618724,0.03902109402265335,0.2849280834197998,2019-06-20 16:46:44:161
10.079434814453125,-3.519422607421875,1.0953305053710938,0.03344133461407101,0.044624780269154375,0.04474689036632371,0.2899198532104492,2019-06-20 16:46:44:166
10.054296081542969,-3.568502990722656,1.0450530395507813,0.030378699360479884,0.04435846416014646,0.04914110616495446,0.29491186141967773,2019-06-20 16:46:44:171
10.048310668945312,-3.592444641113281,1.1240604858398437,0.03077817352399177,0.04475793832365834,0.05220374141854558,0.3000319004058838,2019-06-20 16:46:44:176
10.06387274169922,-3.6379337768554687,1.0701917724609376,0.028248170488416498,0.046089518868697964,0.05619848305366444,0.3050239086151123,2019-06-20 16:46:44:181
10.000427368164063,-3.6008242187499997,1.0713888549804687,0.02838132854292046,0.045956360814194006,0.05926111830725556,0.3100159168243408,2019-06-20 16:46:44:186
9.95014990234375,-3.62955419921875,1.1384254760742187,0.027715538270400644,0.04635583497770589,0.06272322772435858,0.31500792503356934,2019-06-20 16:46:44:191
9.908252014160157,-3.634342529296875,1.1168779907226563,0.027981854379408574,0.046089518868697964,0.06458744048741404,0.31999993324279785,2019-06-20 16:46:44:196
9.899872436523438,-3.6678608398437498,1.1228634033203124,0.027049747997880836,0.04582320275969004,0.064720598541918,0.32499194145202637,2019-06-20 16:46:44:201
9.862762878417968,-3.7001820678710935,1.1563817138671875,0.02651711577986499,0.04569004470518608,0.06565270492344573,0.3299839496612549,2019-06-20 16:46:44:206
9.849594970703125,-3.7121528930664063,1.1073013305664061,0.02571816745284122,0.045024254432666264,0.06738375963199725,0.3349759578704834,2019-06-20 16:46:44:211
9.804105834960938,-3.7564449462890623,1.0833596801757812,0.027848696324904613,0.04582320275969004,0.06711744352298932,0.3399679660797119,2019-06-20 16:46:44:216
9.790937927246093,-3.7899632568359376,1.12046923828125,0.029846067142464038,0.04662215108671381,0.06631849519596554,0.34495997428894043,2019-06-20 16:46:44:221
9.776572937011718,-3.7648245239257814,1.1683525390625,0.028647644651928383,0.04582320275969004,0.06418796632390215,0.34995198249816895,2019-06-20 16:46:44:226
9.755025451660156,-3.792357421875,1.182717529296875,0.028647644651928383,0.04449162221465042,0.06458744048741404,0.35494399070739746,2019-06-20 16:46:44:231
9.743054626464843,-3.8378465576171874,1.12046923828125,0.029047118815440268,0.04555688665068212,0.06245691161535065,0.359935998916626,2019-06-20 16:46:44:236
9.725098388671874,-3.85939404296875,1.077374267578125,0.031044489632999692,0.044624780269154375,0.06072585690679915,0.3649280071258545,2019-06-20 16:46:44:241
9.667638427734374,-3.8725619506835938,1.1683525390625,0.03131080574200762,0.0431600416696108,0.058062695816719904,0.369920015335083,2019-06-20 16:46:44:246
9.683200500488281,-3.870167785644531,1.1875058593749999,0.030245541305975922,0.04249425139709099,0.056065324999160476,0.3749120235443115,2019-06-20 16:46:44:251
9.70115673828125,-3.8809415283203124,1.2186300048828125,0.03077817352399177,0.041428986961059296,0.05433427029060898,0.3800320625305176,2019-06-20 16:46:44:256
9.699959655761718,-3.9048831787109375,1.153987548828125,0.031843437960023466,0.04196161917907514,0.05153795114602577,0.3850240707397461,2019-06-20 16:46:44:261
9.687988830566406,-3.883335693359375,1.0857538452148436,0.031177647687503654,0.04023056447052364,0.048075841728922764,0.3900160789489746,2019-06-20 16:46:44:266
9.664047180175782,-3.8929123535156247,1.201870849609375,0.03171027990551951,0.04009740641601968,0.04554583869334748,0.3950080871582031,2019-06-20 16:46:44:271
9.683200500488281,-3.8965036010742184,1.2246154174804686,0.03210975406903139,0.03983109030701175,0.042616361494260326,0.39999985694885254,2019-06-20 16:46:44:276
9.678412170410157,-3.9096715087890623,1.1839146118164061,0.03290870239605516,0.03903214197998798,0.04128478094922071,0.40499186515808105,2019-06-20 16:46:44:281
9.661653015136718,-3.921642333984375,1.1073013305664061,0.033041860450559124,0.0375674033804444,0.03808898764112562,0.40998387336730957,2019-06-20 16:46:44:286
9.687988830566406,-3.883335693359375,1.1515933837890624,0.032242912123535354,0.03703477116242855,0.03329529559838839,0.4149758815765381,2019-06-20 16:46:44:291
9.709536315917969,-3.8917152709960936,1.2425716552734374,0.03290870239605516,0.03969793225250779,0.031164766726325004,0.4199678897857666,2019-06-20 16:46:44:296
9.692777160644532,-3.874956115722656,1.211447509765625,0.03197659601452743,0.03916530003449194,0.027436341200214067,0.4249598979949951,2019-06-20 16:46:44:301
9.674820922851563,-3.846226135253906,1.15877587890625,0.03131080574200762,0.038100035598460244,0.024240547892118984,0.42995190620422363,2019-06-20 16:46:44:306
9.691580078125,-3.874956115722656,1.12046923828125,0.03197659601452743,0.03663529699891667,0.022243177074559552,0.43494391441345215,2019-06-20 16:46:44:311
9.713127563476561,-3.883335693359375,1.1180750732421876,0.03171027990551951,0.03676845505342063,0.021044754584023898,0.43993592262268066,2019-06-20 16:46:44:316
9.735872131347657,-3.854605712890625,1.221024169921875,0.03250922823254328,0.03663529699891667,0.018381593493944658,0.4449279308319092,2019-06-20 16:46:44:321
9.73108380126953,-3.8474232177734375,1.1994766845703124,0.03330817655956705,0.03503740034486912,0.014919484076841646,0.4499199390411377,2019-06-20 16:46:44:326
9.708339233398437,-3.845029052734375,1.1731408691406249,0.03171027990551951,0.03676845505342063,0.014520009913329761,0.45503997802734375,2019-06-20 16:46:44:331
9.747842956542968,-3.846226135253906,1.1084984130859374,0.03250922823254328,0.03570319061738893,0.012788955204778256,0.46003198623657227,2019-06-20 16:46:44:336
9.77777001953125,-3.841437805175781,1.1324400634765626,0.032642386287047236,0.03557003256288497,0.01145737465973864,0.4650239944458008,2019-06-20 16:46:44:341
9.744251708984375,-3.8330582275390626,1.1288488159179688,0.03317501850506309,0.03570319061738893,0.009859478005691095,0.4700160026550293,2019-06-20 16:46:44:346
9.753828369140624,-3.815101989746094,1.1324400634765626,0.03317501850506309,0.03583634867189289,0.008394739406147515,0.4750080108642578,2019-06-20 16:46:44:351
9.781361267089844,-3.8390436401367185,1.110892578125,0.03237607017803931,0.036368980889908746,0.007329474970115818,0.48000001907348633,2019-06-20 16:46:44:356
9.812485412597656,-3.84024072265625,1.1132867431640625,0.032242912123535354,0.03663529699891667,0.0059978944250762,0.48499202728271484,2019-06-20 16:46:44:361
9.841215393066406,-3.8139049072265623,1.0965275878906249,0.031443963796511584,0.03690161310792459,0.005465262207060353,0.48998403549194336,2019-06-20 16:46:44:366
9.831638732910156,-3.825875732421875,1.0989217529296875,0.031177647687503654,0.037966877543956286,0.004666313880036581,0.4949760437011719,2019-06-20 16:46:44:371
9.831638732910156,-3.8186932373046876,1.0989217529296875,0.029579751033456114,0.03676845505342063,0.002935259171485076,0.4999680519104004,2019-06-20 16:46:44:376
9.850792053222657,-3.797145751953125,1.1025130004882813,0.029979225196968,0.036502138944412704,0.0025357850079731907,0.5049600601196289,2019-06-20 16:46:44:381
9.865157043457032,-3.7911603393554687,1.1096954956054688,0.029846067142464038,0.036102664780900816,0.003334733334996962,0.5100798606872559,2019-06-20 16:46:44:386
9.884310363769531,-3.7899632568359376,1.1049071655273437,0.029846067142464038,0.036102664780900816,0.002935259171485076,0.5149440765380859,2019-06-20 16:46:44:391
9.895084106445312,-3.792357421875,1.08216259765625,0.02918027686994423,0.03596950672639686,0.003601049444004886,0.5199360847473145,2019-06-20 16:46:44:396
9.884310363769531,-3.7791895141601564,1.1276517333984375,0.02918027686994423,0.03770056143494836,0.002935259171485076,0.5249278545379639,2019-06-20 16:46:44:401
9.880719116210937,-3.7947515869140624,1.1228634033203124,0.02744922216139272,0.03783371948945232,0.003334733334996962,0.5299198627471924,2019-06-20 16:46:44:406
9.878324951171875,-3.8055253295898437,1.1037100830078124,0.028248170488416498,0.037167929216932516,0.0025357850079731907,0.5349118709564209,2019-06-20 16:46:44:411
9.87473370361328,-3.8103136596679685,1.0797684326171875,0.028780802706432344,0.03690161310792459,0.0014705205719414951,0.540031909942627,2019-06-20 16:46:44:416
9.901069519042968,-3.800736999511719,1.0761771850585937,0.028647644651928383,0.03743424532594044,0.001869994735453381,0.5450239181518555,2019-06-20 16:46:44:421
9.885507446289063,-3.787569091796875,1.0929363403320311,0.029579751033456114,0.03743424532594044,0.0010710464084296096,0.550015926361084,2019-06-20 16:46:44:426
9.878324951171875,-3.797145751953125,1.1372283935546874,0.028913960760936306,0.03703477116242855,0.0014705205719414951,0.5550079345703125,2019-06-20 16:46:44:431
9.865157043457032,-3.7995399169921873,1.0953305053710938,0.027582380215896683,0.03703477116242855,0.0008047302994216857,0.559999942779541,2019-06-20 16:46:44:436
9.866354125976562,-3.812707824707031,1.10131591796875,0.027182906052384798,0.03783371948945232,0.0012042044629335714,0.5649919509887695,2019-06-20 16:46:44:441
9.879522033691407,-3.8186932373046876,1.0857538452148436,0.029047118815440268,0.037301087271436474,0.0006715722449177237,0.569983959197998,2019-06-20 16:46:44:446
9.891492858886718,-3.8091165771484374,1.08216259765625,0.029579751033456114,0.03517055839937308,0.00027209808140583804,0.5749759674072266,2019-06-20 16:46:44:451
9.877127868652343,-3.8103136596679685,1.1192721557617187,0.031044489632999692,0.03517055839937308,0.00013894002690187612,0.5799679756164551,2019-06-20 16:46:44:456
9.875930786132812,-3.8115107421875,1.0929363403320311,0.029712909087960076,0.035436874508381004,0.0010710464084296096,0.5849599838256836,2019-06-20 16:46:44:461
9.856777465820313,-3.798342834472656,1.1001188354492186,0.030511857414983846,0.036368980889908746,0.0004052561359097999,0.5899519920349121,2019-06-20 16:46:44:466
9.849594970703125,-3.7672186889648436,1.058220947265625,0.031843437960023466,0.035436874508381004,-0.0003936921911139715,0.5949440002441406,2019-06-20 16:46:44:471
9.862762878417968,-3.792357421875,1.1300458984375,0.032242912123535354,0.03490424229036516,-0.0006600083001218952,0.5999360084533691,2019-06-20 16:46:44:476
9.869945373535156,-3.774401184082031,1.110892578125,0.033707650723078936,0.03583634867189289,-0.0018584307906575526,0.6049280166625977,2019-06-20 16:46:44:481
9.832835815429688,-3.7851749267578123,1.0953305053710938,0.032642386287047236,0.036102664780900816,-0.0003936921911139715,0.6099200248718262,2019-06-20 16:46:44:486
9.837624145507812,-3.76362744140625,1.1049071655273437,0.03344133461407101,0.036368980889908746,0.00027209808140583804,0.6149120330810547,2019-06-20 16:46:44:491
9.837624145507812,-3.777992431640625,1.1264546508789062,0.03357449266857497,0.03583634867189289,-0.0007931663546258572,0.6200320720672607,2019-06-20 16:46:44:496
9.853186218261719,-3.7672186889648436,1.0725859375,0.03477291515911063,0.03663529699891667,-0.0007931663546258572,0.6250240802764893,2019-06-20 16:46:44:501
9.820864990234375,-3.769612854003906,1.06300927734375,0.0355718634861344,0.03703477116242855,-0.0007931663546258572,0.6300160884857178,2019-06-20 16:46:44:506
9.807697082519532,-3.76362744140625,1.0953305053710938,0.03517238932262252,0.037167929216932516,-0.0019915888451615144,0.6350078582763672,2019-06-20 16:46:44:511
9.837624145507812,-3.7732041015625,1.0797684326171875,0.03597133764964629,0.037301087271436474,5.781972397914221e-06,0.6399998664855957,2019-06-20 16:46:44:516
9.857974548339843,-3.777992431640625,1.0893450927734374,0.03623765375865421,0.03663529699891667,-0.0005268502456179334,0.6449918746948242,2019-06-20 16:46:44:521
9.853186218261719,-3.7672186889648436,1.0737830200195313,0.03623765375865421,0.036502138944412704,-0.0014589566271456667,0.6499838829040527,2019-06-20 16:46:44:526
9.85438330078125,-3.7552478637695312,1.0761771850585937,0.038101866521709674,0.0375674033804444,-0.002657379117681324,0.6549758911132812,2019-06-20 16:46:44:531
9.844806640625,-3.7372916259765625,1.1132867431640625,0.037169760140181946,0.03849950976197213,-0.002257904954169438,0.6599678993225098,2019-06-20 16:46:44:536
9.81727374267578,-3.7672186889648436,1.0833596801757812,0.03770239235819779,0.038765825870980056,-0.003855801608216981,0.6649599075317383,2019-06-20 16:46:44:541
9.807697082519532,-3.7791895141601564,1.0941334228515625,0.036104495704150245,0.03983109030701175,-0.0033231693902011335,0.6699519157409668,2019-06-20 16:46:44:546
9.819667907714843,-3.7851749267578123,1.0989217529296875,0.037169760140181946,0.038765825870980056,-0.002524221063177362,0.6749439239501953,2019-06-20 16:46:44:551
9.83522998046875,-3.76362744140625,1.125257568359375,0.03677028597667006,0.04009740641601968,-0.0033231693902011335,0.6799359321594238,2019-06-20 16:46:44:556
9.78854376220703,-3.7648245239257814,1.0977246704101562,0.037968708467205715,0.0392984580889959,-0.0037226435537130193,0.6849279403686523,2019-06-20 16:46:44:561
9.805302917480468,-3.772007019042969,1.110892578125,0.03703660208567798,0.03969793225250779,-0.00452159188073679,0.6899199485778809,2019-06-20 16:46:44:566
9.838821228027344,-3.80193408203125,1.125257568359375,0.03756923430369383,0.04089635474304345,-0.004787907989744714,0.6949119567871094,2019-06-20 16:46:44:571
9.818470825195313,-3.7803865966796875,1.0965275878906249,0.03783555041270175,0.04009740641601968,-0.0051873821532566,0.7000319957733154,2019-06-20 16:46:44:576
9.811288330078124,-3.787569091796875,1.0965275878906249,0.03863449873972553,0.039964248361515714,-0.0057200143712724475,0.705024003982544,2019-06-20 16:46:44:581
9.81727374267578,-3.8055253295898437,1.0833596801757812,0.038101866521709674,0.04089635474304345,-0.007051594916312067,0.7100160121917725,2019-06-20 16:46:44:586
9.808894165039062,-3.7755982666015626,1.0809655151367188,0.038101866521709674,0.040630038634035526,-0.006785278807304142,0.715008020401001,2019-06-20 16:46:44:591
9.798120422363281,-3.7959486694335935,1.0977246704101562,0.039167130957741374,0.04102951279754741,-0.00878264962486357,0.7200000286102295,2019-06-20 16:46:44:596
9.793332092285157,-3.80193408203125,1.1288488159179688,0.03903397290323741,0.04023056447052364,-0.0079837012978398,0.724992036819458,2019-06-20 16:46:44:601
9.856777465820313,-3.7899632568359376,1.0977246704101562,0.03863449873972553,0.040763196688539484,-0.009048965733871496,0.7299840450286865,2019-06-20 16:46:44:606
9.807697082519532,-3.7791895141601564,1.115680908203125,0.0394334470667493,0.04009740641601968,-0.009847914060895267,0.734976053237915,2019-06-20 16:46:44:611
9.813682495117188,-3.7803865966796875,1.1216663208007813,0.03770239235819779,0.04102951279754741,-0.010646862387919037,0.7399680614471436,2019-06-20 16:46:44:616
9.818470825195313,-3.7648245239257814,1.0989217529296875,0.03850134068522156,0.0403637225250276,-0.011445810714942809,0.7449600696563721,2019-06-20 16:46:44:621
9.849594970703125,-3.7480653686523437,1.1120896606445312,0.03863449873972553,0.03916530003449194,-0.012511075150974505,0.7499520778656006,2019-06-20 16:46:44:626
9.875930786132812,-3.750459533691406,1.1468050537109375,0.03863449873972553,0.04023056447052364,-0.013709497641510162,0.7549440860748291,2019-06-20 16:46:44:631
9.871142456054688,-3.732503295898437,1.1276517333984375,0.03783555041270175,0.039964248361515714,-0.012377917096470544,0.7599358558654785,2019-06-20 16:46:44:636
9.851989135742187,-3.731306213378906,1.1503963012695313,0.03770239235819779,0.03903214197998798,-0.014774762077541857,0.764927864074707,2019-06-20 16:46:44:641
9.840018310546874,-3.7348974609375,1.1515933837890624,0.038101866521709674,0.03903214197998798,-0.013576339587006199,0.7699198722839355,2019-06-20 16:46:44:646
9.836427062988282,-3.732503295898437,1.1563817138671875,0.037968708467205715,0.03903214197998798,-0.013576339587006199,0.7749118804931641,2019-06-20 16:46:44:651
9.877127868652343,-3.7001820678710935,1.1456079711914062,0.037169760140181946,0.03983109030701175,-0.014641604023037895,0.7800319194793701,2019-06-20 16:46:44:656
9.868748291015624,-3.6953937377929686,1.1671554565429687,0.03823502457621364,0.03903214197998798,-0.015307394295557704,0.7850239276885986,2019-06-20 16:46:44:661
9.880719116210937,-3.704970397949219,1.15877587890625,0.0366371279221661,0.03783371948945232,-0.015573710404565629,0.7900159358978271,2019-06-20 16:46:44:666
9.890295776367187,-3.6858170776367185,1.17792919921875,0.03690344403117402,0.037301087271436474,-0.014508445968533934,0.7950079441070557,2019-06-20 16:46:44:671
9.866354125976562,-3.7109558105468747,1.1683525390625,0.036503969867662134,0.03836635170746817,-0.013043707368990352,0.7999999523162842,2019-06-20 16:46:44:676
9.884310363769531,-3.716941223144531,1.1420167236328125,0.03703660208567798,0.03836635170746817,-0.012777391259982429,0.8049919605255127,2019-06-20 16:46:44:681
9.859171630859375,-3.6654666748046876,1.1408196411132812,0.037302918194685904,0.037301087271436474,-0.01157896876944677,0.8099839687347412,2019-06-20 16:46:44:686
9.895084106445312,-3.676240417480469,1.0893450927734374,0.0366371279221661,0.03596950672639686,-0.009581597951887342,0.8149759769439697,2019-06-20 16:46:44:691
9.896281188964844,-3.661875427246094,1.1168779907226563,0.03597133764964629,0.03676845505342063,-0.01011423016990319,0.8199679851531982,2019-06-20 16:46:44:696
9.911843261718749,-3.6463133544921873,1.0989217529296875,0.03517238932262252,0.037966877543956286,-0.009714756006391304,0.8249599933624268,2019-06-20 16:46:44:701
9.911843261718749,-3.64870751953125,1.1144838256835938,0.03397396683208686,0.03676845505342063,-0.008116859352343762,0.8299520015716553,2019-06-20 16:46:44:706
9.93219366455078,-3.64870751953125,1.1228634033203124,0.03317501850506309,0.03690161310792459,-0.006918436861808105,0.8349440097808838,2019-06-20 16:46:44:711
9.933390747070312,-3.6654666748046876,1.1336371459960937,0.03330817655956705,0.03770056143494836,-0.006785278807304142,0.8399360179901123,2019-06-20 16:46:44:716
9.865157043457032,-3.6582841796875,1.1324400634765626,0.031443963796511584,0.03983109030701175,-0.006252646589288296,0.8449280261993408,2019-06-20 16:46:44:721
9.871142456054688,-3.653495849609375,1.1875058593749999,0.031044489632999692,0.03783371948945232,-0.004921066044248676,0.8499200344085693,2019-06-20 16:46:44:726
9.90346368408203,-3.645116271972656,1.1264546508789062,0.03131080574200762,0.03849950976197213,-0.005054224098752638,0.8549120426177979,2019-06-20 16:46:44:731
9.871142456054688,-3.653495849609375,1.1480021362304687,0.031177647687503654,0.038898983925484014,-0.0037226435537130193,0.8600320816040039,2019-06-20 16:46:44:736
9.883113281249999,-3.647510437011719,1.13962255859375,0.031843437960023466,0.03849950976197213,-0.002657379117681324,0.8650240898132324,2019-06-20 16:46:44:741
9.891492858886718,-3.661875427246094,1.1515933837890624,0.03091133157849573,0.038100035598460244,-0.0023910630086734002,0.8700158596038818,2019-06-20 16:46:44:746
9.855580383300781,-3.664269592285156,1.1563817138671875,0.030511857414983846,0.037966877543956286,-0.0018584307906575526,0.8750078678131104,2019-06-20 16:46:44:751
9.877127868652343,-3.6702550048828124,1.1432138061523438,0.031443963796511584,0.036502138944412704,0.0005384141904137619,0.8799998760223389,2019-06-20 16:46:44:756
9.895084106445312,-3.6774375,1.115680908203125,0.03091133157849573,0.03703477116242855,0.0012042044629335714,0.8849918842315674,2019-06-20 16:46:44:761
9.897478271484374,-3.672649169921875,1.12046923828125,0.03091133157849573,0.03690161310792459,0.0009378883539256476,0.8899838924407959,2019-06-20 16:46:44:766
9.909449096679687,-3.649904602050781,1.086950927734375,0.029446592978952153,0.037167929216932516,0.0009378883539256476,0.8949759006500244,2019-06-20 16:46:44:771
9.866354125976562,-3.663072509765625,1.1132867431640625,0.03077817352399177,0.036368980889908746,0.0008047302994216857,0.8999679088592529,2019-06-20 16:46:44:776
9.857974548339843,-3.6941966552734375,1.0989217529296875,0.032242912123535354,0.03676845505342063,0.001869994735453381,0.9049599170684814,2019-06-20 16:46:44:781
9.869945373535156,-3.6858170776367185,1.1228634033203124,0.03197659601452743,0.03783371948945232,0.002935259171485076,0.90995192527771,2019-06-20 16:46:44:786
9.871142456054688,-3.701379150390625,1.1037100830078124,0.030645015469487807,0.03743424532594044,0.004000523607516772,0.9149439334869385,2019-06-20 16:46:44:791
9.875930786132812,-3.7085616455078125,1.0905421752929687,0.030378699360479884,0.037167929216932516,0.0038673655530128094,0.919935941696167,2019-06-20 16:46:44:796
9.862762878417968,-3.672649169921875,1.0845567626953125,0.03091133157849573,0.0375674033804444,0.004399997771028657,0.9249279499053955,2019-06-20 16:46:44:801
9.859171630859375,-3.6953937377929686,1.086950927734375,0.03197659601452743,0.0375674033804444,0.004399997771028657,0.929919958114624,2019-06-20 16:46:44:806
9.8639599609375,-3.7133499755859374,1.0989217529296875,0.031443963796511584,0.037167929216932516,0.003334733334996962,0.9349119663238525,2019-06-20 16:46:44:811
9.875930786132812,-3.704970397949219,1.1025130004882813,0.031443963796511584,0.03770056143494836,0.0032015752804930003,0.9400320053100586,2019-06-20 16:46:44:816
9.868748291015624,-3.68701416015625,1.134834228515625,0.03131080574200762,0.03783371948945232,0.003601049444004886,0.9450240135192871,2019-06-20 16:46:44:821
9.856777465820313,-3.6846199951171874,1.1384254760742187,0.030645015469487807,0.03676845505342063,0.005465262207060353,0.9500160217285156,2019-06-20 16:46:44:826
9.849594970703125,-3.6546929321289063,1.1192721557617187,0.03091133157849573,0.0375674033804444,0.004932629989044505,0.9550080299377441,2019-06-20 16:46:44:831
9.83522998046875,-3.692999572753906,1.1132867431640625,0.03157712185101554,0.03783371948945232,0.0059978944250762,0.9600000381469727,2019-06-20 16:46:44:836
9.868748291015624,-3.6714520874023435,1.1228634033203124,0.03157712185101554,0.038100035598460244,0.005731578316068277,0.9649920463562012,2019-06-20 16:46:44:841
9.862762878417968,-3.68701416015625,1.0917392578125,0.03197659601452743,0.037966877543956286,0.006131052479580162,0.9699840545654297,2019-06-20 16:46:44:846
9.881916198730469,-3.6834229125976563,1.125257568359375,0.03210975406903139,0.03916530003449194,0.006930000806603933,0.9749760627746582,2019-06-20 16:46:44:851
9.896281188964844,-3.6798316650390626,1.13962255859375,0.032242912123535354,0.03863266781647609,0.007063158861107895,0.9799680709838867,2019-06-20 16:46:44:856
9.875930786132812,-3.6846199951171874,1.1288488159179688,0.03290870239605516,0.03823319365296421,0.007196316915611857,0.9849600791931152,2019-06-20 16:46:44:861
9.897478271484374,-3.678634582519531,1.110892578125,0.032242912123535354,0.0392984580889959,0.007329474970115818,0.9899520874023438,2019-06-20 16:46:44:866
9.883113281249999,-3.716941223144531,1.1025130004882813,0.032242912123535354,0.037966877543956286,0.008261581351643552,0.9949438571929932,2019-06-20 16:46:44:871
9.884310363769531,-3.7085616455078125,1.1240604858398437,0.03131080574200762,0.037167929216932516,0.007862107188131667,0.9999358654022217,2019-06-20 16:46:44:876
9.859171630859375,-3.7181383056640622,1.1192721557617187,0.030645015469487807,0.03823319365296421,0.007728949133627705,1.0049278736114502,2019-06-20 16:46:44:881
9.865157043457032,-3.7265178833007813,1.1192721557617187,0.0327755443415512,0.03863266781647609,0.007329474970115818,1.0099198818206787,2019-06-20 16:46:44:886
9.87473370361328,-3.7181383056640622,1.10131591796875,0.032242912123535354,0.03836635170746817,0.00812842329713959,1.0150399208068848,2019-06-20 16:46:44:891
9.847200805664063,-3.6989849853515624,1.0965275878906249,0.0327755443415512,0.037966877543956286,0.007728949133627705,1.0200319290161133,2019-06-20 16:46:44:896
9.855580383300781,-3.6858170776367185,1.1228634033203124,0.033707650723078936,0.0375674033804444,0.00666368469759601,1.0250239372253418,2019-06-20 16:46:44:901
9.850792053222657,-3.704970397949219,1.1216663208007813,0.03357449266857497,0.037966877543956286,0.006131052479580162,1.0300159454345703,2019-06-20 16:46:44:906
9.837624145507812,-3.7337003784179688,1.1480021362304687,0.033707650723078936,0.038100035598460244,0.006796842752099972,1.0350079536437988,2019-06-20 16:46:44:911
9.855580383300781,-3.7241237182617186,1.1503963012695313,0.03290870239605516,0.03836635170746817,0.00666368469759601,1.0399999618530273,2019-06-20 16:46:44:916
9.847200805664063,-3.7085616455078125,1.1336371459960937,0.034506599050102706,0.03703477116242855,0.006264210534084123,1.0449919700622559,2019-06-20 16:46:44:921
9.867551208496094,-3.702576232910156,1.1264546508789062,0.035305547377126476,0.036368980889908746,0.004932629989044505,1.0499839782714844,2019-06-20 16:46:44:926
9.910646179199219,-3.7097587280273436,1.1264546508789062,0.0355718634861344,0.03770056143494836,0.006530526643092048,1.054975986480713,2019-06-20 16:46:44:931
9.872339538574218,-3.7253208007812497,1.1132867431640625,0.036104495704150245,0.03570319061738893,0.005598420261564315,1.0599679946899414,2019-06-20 16:46:44:936
9.8639599609375,-3.6965908203124997,1.1468050537109375,0.035305547377126476,0.03517055839937308,0.004533155825532619,1.06496000289917,2019-06-20 16:46:44:941
9.885507446289063,-3.6977879028320313,1.1372283935546874,0.035305547377126476,0.03583634867189289,0.0051989460980524285,1.0699520111083984,2019-06-20 16:46:44:946
9.866354125976562,-3.6941966552734375,1.0917392578125,0.03637081181315817,0.03703477116242855,0.00533210415255639,1.074944019317627,2019-06-20 16:46:44:951
9.87353662109375,-3.664269592285156,1.0725859375,0.036104495704150245,0.037167929216932516,0.0041336816620207335,1.0799360275268555,2019-06-20 16:46:44:956
9.87473370361328,-3.659481262207031,1.0977246704101562,0.036503969867662134,0.03703477116242855,0.0051989460980524285,1.084928035736084,2019-06-20 16:46:44:961
9.89268994140625,-3.6846199951171874,1.0941334228515625,0.03623765375865421,0.037167929216932516,0.006131052479580162,1.0899200439453125,2019-06-20 16:46:44:966
9.886704528808593,-3.692999572753906,1.1408196411132812,0.0355718634861344,0.036368980889908746,0.005731578316068277,1.094912052154541,2019-06-20 16:46:44:971
9.893887023925782,-3.6846199951171874,1.1300458984375,0.03583817959514232,0.0375674033804444,0.005864736370572238,1.100031852722168,2019-06-20 16:46:44:976
9.893887023925782,-3.7037733154296872,1.1420167236328125,0.03623765375865421,0.03770056143494836,0.00533210415255639,1.1050238609313965,2019-06-20 16:46:44:981
9.879522033691407,-3.6858170776367185,1.110892578125,0.036104495704150245,0.03770056143494836,0.005065788043548467,1.110015869140625,2019-06-20 16:46:44:986
9.890295776367187,-3.6941966552734375,1.1360313110351563,0.0355718634861344,0.03690161310792459,0.0041336816620207335,1.1150078773498535,2019-06-20 16:46:44:991
9.877127868652343,-3.664269592285156,1.1384254760742187,0.03583817959514232,0.037301087271436474,0.004666313880036581,1.119999885559082,2019-06-20 16:46:44:996
9.851989135742187,-3.672649169921875,1.15877587890625,0.03517238932262252,0.03517055839937308,0.00533210415255639,1.1249918937683105,2019-06-20 16:46:45:001
9.872339538574218,-3.690605407714844,1.1456079711914062,0.035705021540638364,0.03623582283540478,0.006530526643092048,1.129983901977539,2019-06-20 16:46:45:006
9.886704528808593,-3.6941966552734375,1.1240604858398437,0.036104495704150245,0.03690161310792459,0.006796842752099972,1.1349759101867676,2019-06-20 16:46:45:011
9.867551208496094,-3.6989849853515624,1.1180750732421876,0.0366371279221661,0.03690161310792459,0.006264210534084123,1.139967918395996,2019-06-20 16:46:45:016
9.866354125976562,-3.6702550048828124,1.0845567626953125,0.036104495704150245,0.037167929216932516,0.006264210534084123,1.1449599266052246,2019-06-20 16:46:45:021
9.893887023925782,-3.664269592285156,1.0977246704101562,0.0355718634861344,0.036502138944412704,0.0059978944250762,1.1499519348144531,2019-06-20 16:46:45:026
9.90346368408203,-3.6834229125976563,1.0725859375,0.03424028294109478,0.03743424532594044,0.006397368588588085,1.1549439430236816,2019-06-20 16:46:45:031
9.905857849121093,-3.691802490234375,1.0761771850585937,0.03543870543163044,0.03690161310792459,0.005598420261564315,1.1599359512329102,2019-06-20 16:46:45:036
9.908252014160157,-3.691802490234375,1.12046923828125,0.03583817959514232,0.03676845505342063,0.007728949133627705,1.1649279594421387,2019-06-20 16:46:45:041
9.865157043457032,-3.6702550048828124,1.1767321166992186,0.03517238932262252,0.036502138944412704,0.008661055515155438,1.1699199676513672,2019-06-20 16:46:45:046
9.866354125976562,-3.6774375,1.1695496215820311,0.03490607321361459,0.03849950976197213,0.009060529678667323,1.1749119758605957,2019-06-20 16:46:45:051
9.881916198730469,-3.6654666748046876,1.134834228515625,0.034506599050102706,0.03916530003449194,0.007995265242635628,1.1800320148468018,2019-06-20 16:46:45:056
9.9022666015625,-3.661875427246094,1.1312429809570312,0.033840808777582894,0.03969793225250779,0.008394739406147515,1.1850240230560303,2019-06-20 16:46:45:061
9.901069519042968,-3.6666637573242187,1.1168779907226563,0.033041860450559124,0.03916530003449194,0.00946000384217921,1.1900160312652588,2019-06-20 16:46:45:066
9.911843261718749,-3.673846252441406,1.13962255859375,0.03250922823254328,0.03983109030701175,0.011057900496226753,1.1950080394744873,2019-06-20 16:46:45:071
9.893887023925782,-3.649904602050781,1.0618121948242187,0.03437344099559874,0.03983109030701175,0.011191058550730713,1.2000000476837158,2019-06-20 16:46:45:076
9.865157043457032,-3.659481262207031,1.0965275878906249,0.03344133461407101,0.04009740641601968,0.011856848823250525,1.2049920558929443,2019-06-20 16:46:45:081
9.893887023925782,-3.6522987670898437,1.1084984130859374,0.03424028294109478,0.0392984580889959,0.012655797150274295,1.2099840641021729,2019-06-20 16:46:45:086
9.9022666015625,-3.6511016845703126,1.10131591796875,0.03317501850506309,0.038898983925484014,0.01225632298676241,1.2149760723114014,2019-06-20 16:46:45:091
9.881916198730469,-3.649904602050781,1.1192721557617187,0.03290870239605516,0.039564774198003826,0.01305527131378618,1.2199680805206299,2019-06-20 16:46:45:096
9.899872436523438,-3.6511016845703126,1.1180750732421876,0.03410712488659082,0.03983109030701175,0.0143868518588258,1.2249600887298584,2019-06-20 16:46:45:101
9.915434509277343,-3.653495849609375,1.106104248046875,0.03317501850506309,0.04049688057953156,0.015585274349361458,1.2299518585205078,2019-06-20 16:46:45:106
9.89268994140625,-3.6522987670898437,1.1240604858398437,0.03357449266857497,0.0403637225250276,0.015585274349361458,1.2349438667297363,2019-06-20 16:46:45:111
9.904660766601562,-3.659481262207031,1.1180750732421876,0.03290870239605516,0.03916530003449194,0.01651738073088919,1.2399358749389648,2019-06-20 16:46:45:116
9.879522033691407,-3.6714520874023435,1.1132867431640625,0.03237607017803931,0.03943161614349987,0.01651738073088919,1.2449278831481934,2019-06-20 16:46:45:121
9.859171630859375,-3.6666637573242187,1.1073013305664061,0.033041860450559124,0.04023056447052364,0.01638422267638523,1.2499198913574219,2019-06-20 16:46:45:126
9.904660766601562,-3.6415250244140625,1.1168779907226563,0.03210975406903139,0.04182846112457118,0.018381593493944658,1.2549118995666504,2019-06-20 16:46:45:131
9.891492858886718,-3.6546929321289063,1.10131591796875,0.030645015469487807,0.041428986961059296,0.018248435439440696,1.2600319385528564,2019-06-20 16:46:45:136
9.883113281249999,-3.6570870971679685,1.0701917724609376,0.031443963796511584,0.0420947772335791,0.01771580322142485,1.265023946762085,2019-06-20 16:46:45:141
9.887901611328125,-3.649904602050781,1.086950927734375,0.03077817352399177,0.04182846112457118,0.01784896127592881,1.2700159549713135,2019-06-20 16:46:45:146
9.904660766601562,-3.649904602050781,1.1037100830078124,0.030245541305975922,0.04169530307006722,0.018914225711960504,1.275007963180542,2019-06-20 16:46:45:151
9.905857849121093,-3.6774375,1.0785713500976561,0.030511857414983846,0.04023056447052364,0.020112648202496163,1.2799999713897705,2019-06-20 16:46:45:156
9.880719116210937,-3.6810287475585937,1.1037100830078124,0.029979225196968,0.04089635474304345,0.020378964311504086,1.284991979598999,2019-06-20 16:46:45:161
9.898675354003906,-3.6858170776367185,1.1025130004882813,0.03091133157849573,0.04089635474304345,0.021044754584023898,1.2899839878082275,2019-06-20 16:46:45:166
9.919025756835937,-3.6666637573242187,1.1049071655273437,0.030245541305975922,0.042361093342587024,0.021444228747535782,1.294975996017456,2019-06-20 16:46:45:171
9.920222839355468,-3.6810287475585937,1.0917392578125,0.029579751033456114,0.04169530307006722,0.02290896734707936,1.2999680042266846,2019-06-20 16:46:45:176
9.893887023925782,-3.6666637573242187,1.0965275878906249,0.029846067142464038,0.04276056750609891,0.023707915674103134,1.304960012435913,2019-06-20 16:46:45:181
9.875930786132812,-3.6822258300781248,1.086950927734375,0.029579751033456114,0.04289372556060288,0.024373705946622946,1.3099520206451416,2019-06-20 16:46:45:186
9.914237426757813,-3.688211242675781,1.1084984130859374,0.03011238325147196,0.042361093342587024,0.025039496219142754,1.3149440288543701,2019-06-20 16:46:45:191
9.872339538574218,-3.7001820678710935,1.12046923828125,0.029579751033456114,0.041562145015563254,0.024240547892118984,1.3199360370635986,2019-06-20 16:46:45:196
9.886704528808593,-3.6750433349609373,1.14919921875,0.02838132854292046,0.04355951583312269,0.023841073728607096,1.3249280452728271,2019-06-20 16:46:45:201
9.878324951171875,-3.690605407714844,1.1324400634765626,0.028248170488416498,0.04276056750609891,0.024506864001126907,1.3299200534820557,2019-06-20 16:46:45:206
9.905857849121093,-3.68701416015625,1.1084984130859374,0.029047118815440268,0.043026883615106835,0.022243177074559552,1.3349120616912842,2019-06-20 16:46:45:211
9.891492858886718,-3.701379150390625,1.115680908203125,0.02744922216139272,0.044092148051138536,0.023574757619599172,1.3400318622589111,2019-06-20 16:46:45:216
9.886704528808593,-3.6989849853515624,1.12046923828125,0.027981854379408574,0.04262740945159495,0.023042125401583322,1.3450238704681396,2019-06-20 16:46:45:221
9.887901611328125,-3.68701416015625,1.1300458984375,0.028248170488416498,0.04262740945159495,0.022642651238071437,1.3500158786773682,2019-06-20 16:46:45:226
9.890295776367187,-3.6858170776367185,1.1312429809570312,0.028780802706432344,0.04262740945159495,0.023974231783111057,1.3550078868865967,2019-06-20 16:46:45:231
9.905857849121093,-3.672649169921875,1.1468050537109375,0.029979225196968,0.04196161917907514,0.02464002205563087,1.3599998950958252,2019-06-20 16:46:45:236
9.872339538574218,-3.664269592285156,1.1312429809570312,0.02931343492444819,0.04196161917907514,0.0255721284371586,1.3649919033050537,2019-06-20 16:46:45:241
9.87353662109375,-3.6822258300781248,1.13962255859375,0.027582380215896683,0.04262740945159495,0.02477318011013483,1.3699839115142822,2019-06-20 16:46:45:246
9.87473370361328,-3.6846199951171874,1.1001188354492186,0.026783431888872913,0.041428986961059296,0.025172654273646716,1.3749759197235107,2019-06-20 16:46:45:251
9.886704528808593,-3.6894083251953123,1.1288488159179688,0.027582380215896683,0.0420947772335791,0.026637392873190294,1.3799679279327393,2019-06-20 16:46:45:256
9.895084106445312,-3.6977879028320313,1.12046923828125,0.029047118815440268,0.04182846112457118,0.026104760655174447,1.3849599361419678,2019-06-20 16:46:45:261
9.851989135742187,-3.702576232910156,1.1360313110351563,0.028248170488416498,0.04262740945159495,0.027303183145710105,1.3899519443511963,2019-06-20 16:46:45:266
9.859171630859375,-3.691802490234375,1.1300458984375,0.028780802706432344,0.0420947772335791,0.027303183145710105,1.3949439525604248,2019-06-20 16:46:45:271
9.860368713378906,-3.7265178833007813,1.1180750732421876,0.029712909087960076,0.040763196688539484,0.02756949925471803,1.3999359607696533,2019-06-20 16:46:45:276
9.848397888183593,-3.692999572753906,1.1336371459960937,0.03011238325147196,0.04089635474304345,0.027968973418229917,1.4049279689788818,2019-06-20 16:46:45:281
9.841215393066406,-3.702576232910156,1.1527904663085937,0.02918027686994423,0.041428986961059296,0.028501605636245764,1.4099199771881104,2019-06-20 16:46:45:286
9.849594970703125,-3.688211242675781,1.1001188354492186,0.02918027686994423,0.042227935288083066,0.028767921745253687,1.4149119853973389,2019-06-20 16:46:45:291
9.867551208496094,-3.707364562988281,1.13962255859375,0.029579751033456114,0.04249425139709099,0.028634763690749725,1.420032024383545,2019-06-20 16:46:45:296
9.849594970703125,-3.716941223144531,1.1515933837890624,0.030245541305975922,0.04369267388762665,0.027170025091206144,1.4250240325927734,2019-06-20 16:46:45:301
9.871142456054688,-3.6714520874023435,1.1360313110351563,0.029979225196968,0.04196161917907514,0.027702657309221994,1.430016040802002,2019-06-20 16:46:45:306
9.872339538574218,-3.690605407714844,1.0953305053710938,0.029047118815440268,0.040763196688539484,0.028767921745253687,1.4350080490112305,2019-06-20 16:46:45:311
9.87473370361328,-3.663072509765625,1.1073013305664061,0.029446592978952153,0.04129582890655533,0.028368447581741802,1.440000057220459,2019-06-20 16:46:45:316
9.890295776367187,-3.692999572753906,1.0689946899414062,0.028913960760936306,0.042361093342587024,0.02756949925471803,1.4449920654296875,2019-06-20 16:46:45:321
9.856777465820313,-3.6858170776367185,1.106104248046875,0.028780802706432344,0.04182846112457118,0.02890107979975765,1.449984073638916,2019-06-20 16:46:45:326
9.872339538574218,-3.7085616455078125,1.125257568359375,0.028913960760936306,0.042361093342587024,0.027968973418229917,1.4549760818481445,2019-06-20 16:46:45:331
9.861565795898438,-3.702576232910156,1.10131591796875,0.030511857414983846,0.04129582890655533,0.02810213147273388,1.459968090057373,2019-06-20 16:46:45:336
9.869945373535156,-3.7085616455078125,1.12046923828125,0.029446592978952153,0.04129582890655533,0.029566870072277457,1.4649598598480225,2019-06-20 16:46:45:341
9.856777465820313,-3.704970397949219,1.0953305053710938,0.029712909087960076,0.042361093342587024,0.02970002812678142,1.469951868057251,2019-06-20 16:46:45:346
9.865157043457032,-3.6989849853515624,1.1264546508789062,0.030645015469487807,0.04249425139709099,0.029566870072277457,1.4749438762664795,2019-06-20 16:46:45:351
9.880719116210937,-3.6989849853515624,1.144410888671875,0.03011238325147196,0.0420947772335791,0.028767921745253687,1.479935884475708,2019-06-20 16:46:45:356
9.884310363769531,-3.691802490234375,1.0977246704101562,0.029446592978952153,0.04196161917907514,0.027170025091206144,1.4849278926849365,2019-06-20 16:46:45:361
9.87473370361328,-3.707364562988281,1.1073013305664061,0.029446592978952153,0.04262740945159495,0.028767921745253687,1.489919900894165,2019-06-20 16:46:45:366
9.885507446289063,-3.7265178833007813,1.1180750732421876,0.029446592978952153,0.0420947772335791,0.02890107979975765,1.4949119091033936,2019-06-20 16:46:45:371
9.872339538574218,-3.7085616455078125,1.1324400634765626,0.02918027686994423,0.04249425139709099,0.028501605636245764,1.5000319480895996,2019-06-20 16:46:45:376
9.859171630859375,-3.7480653686523437,1.1288488159179688,0.029446592978952153,0.042227935288083066,0.027835815363725955,1.5050239562988281,2019-06-20 16:46:45:381
9.868748291015624,-3.749262451171875,1.1324400634765626,0.029846067142464038,0.041562145015563254,0.028767921745253687,1.5100159645080566,2019-06-20 16:46:45:386
9.853186218261719,-3.746868286132812,1.1372283935546874,0.029846067142464038,0.04182846112457118,0.028368447581741802,1.5150079727172852,2019-06-20 16:46:45:391
9.850792053222657,-3.7408828735351562,1.1300458984375,0.029979225196968,0.042361093342587024,0.02810213147273388,1.5199999809265137,2019-06-20 16:46:45:396
9.856777465820313,-3.7265178833007813,1.1264546508789062,0.03011238325147196,0.041562145015563254,0.028368447581741802,1.5249919891357422,2019-06-20 16:46:45:401
9.853186218261719,-3.7229266357421875,1.1049071655273437,0.03011238325147196,0.039964248361515714,0.027968973418229917,1.5299839973449707,2019-06-20 16:46:45:406
9.859171630859375,-3.749262451171875,1.1276517333984375,0.03077817352399177,0.039964248361515714,0.027036867036702182,1.5349760055541992,2019-06-20 16:46:45:411
9.85438330078125,-3.7432770385742185,1.1611700439453125,0.03091133157849573,0.04023056447052364,0.027036867036702182,1.5399680137634277,2019-06-20 16:46:45:416
9.857974548339843,-3.749262451171875,1.1456079711914062,0.029979225196968,0.03943161614349987,0.026637392873190294,1.5449600219726562,2019-06-20 16:46:45:421
9.875930786132812,-3.7660216064453125,1.1264546508789062,0.029979225196968,0.040763196688539484,0.025838444546166524,1.5499520301818848,2019-06-20 16:46:45:426
9.865157043457032,-3.7564449462890623,1.1120896606445312,0.029846067142464038,0.04102951279754741,0.025039496219142754,1.5549440383911133,2019-06-20 16:46:45:431
9.85438330078125,-3.745671203613281,1.125257568359375,0.030645015469487807,0.039564774198003826,0.02477318011013483,1.5599360466003418,2019-06-20 16:46:45:436
9.85438330078125,-3.74447412109375,1.086950927734375,0.03237607017803931,0.03969793225250779,0.025838444546166524,1.5649280548095703,2019-06-20 16:46:45:441
9.875930786132812,-3.7432770385742185,1.1168779907226563,0.03237607017803931,0.03863266781647609,0.02543897038265464,1.5699200630187988,2019-06-20 16:46:45:446
9.829244567871093,-3.75405078125,1.1073013305664061,0.031443963796511584,0.03836635170746817,0.024906338164638792,1.5749120712280273,2019-06-20 16:46:45:451
9.830441650390625,-3.7408828735351562,1.0965275878906249,0.03131080574200762,0.0392984580889959,0.024906338164638792,1.5800318717956543,2019-06-20 16:46:45:456
9.862762878417968,-3.745671203613281,1.1264546508789062,0.03210975406903139,0.03783371948945232,0.02330844151059125,1.5850238800048828,2019-06-20 16:46:45:461
9.861565795898438,-3.7337003784179688,1.0881480102539063,0.032642386287047236,0.038100035598460244,0.02290896734707936,1.5900158882141113,2019-06-20 16:46:45:466
9.838821228027344,-3.7289120483398435,1.1360313110351563,0.033041860450559124,0.03903214197998798,0.021577386802039744,1.5950078964233398,2019-06-20 16:46:45:471
9.849594970703125,-3.7372916259765625,1.1300458984375,0.0327755443415512,0.039564774198003826,0.021444228747535782,1.5999999046325684,2019-06-20 16:46:45:476
9.880719116210937,-3.7648245239257814,1.125257568359375,0.031843437960023466,0.0403637225250276,0.021577386802039744,1.6049919128417969,2019-06-20 16:46:45:481
9.830441650390625,-3.721729553222656,1.1073013305664061,0.03237607017803931,0.0392984580889959,0.020778438475015974,1.6099839210510254,2019-06-20 16:46:45:486
9.822062072753907,-3.7528536987304686,1.106104248046875,0.031843437960023466,0.0375674033804444,0.0199794901479922,1.614975929260254,2019-06-20 16:46:45:491
9.824456237792969,-3.750459533691406,1.1264546508789062,0.03290870239605516,0.03916530003449194,0.01918054182096843,1.6199679374694824,2019-06-20 16:46:45:496
9.81727374267578,-3.7241237182617186,1.0749801025390624,0.03210975406903139,0.038898983925484014,0.019580015984480316,1.624959945678711,2019-06-20 16:46:45:501
9.847200805664063,-3.7420799560546874,1.0881480102539063,0.03344133461407101,0.038898983925484014,0.01904738376646447,1.6299519538879395,2019-06-20 16:46:45:506
9.867551208496094,-3.746868286132812,1.13962255859375,0.031443963796511584,0.038100035598460244,0.019313699875472393,1.634943962097168,2019-06-20 16:46:45:511
9.859171630859375,-3.7289120483398435,1.1408196411132812,0.0327755443415512,0.03943161614349987,0.018914225711960504,1.6399359703063965,2019-06-20 16:46:45:516
9.8256533203125,-3.7672186889648436,1.1288488159179688,0.033041860450559124,0.03969793225250779,0.01864790960295258,1.644927978515625,2019-06-20 16:46:45:521
9.853186218261719,-3.746868286132812,1.0929363403320311,0.031843437960023466,0.03983109030701175,0.019313699875472393,1.6499199867248535,2019-06-20 16:46:45:526
9.836427062988282,-3.7552478637695312,1.1132867431640625,0.03197659601452743,0.038898983925484014,0.018781067657456543,1.654911994934082,2019-06-20 16:46:45:531
9.865157043457032,-3.7516566162109375,1.1084984130859374,0.032242912123535354,0.03770056143494836,0.01771580322142485,1.660032033920288,2019-06-20 16:46:45:536
9.866354125976562,-3.749262451171875,1.1049071655273437,0.032242912123535354,0.0392984580889959,0.01864790960295258,1.6650240421295166,2019-06-20 16:46:45:541
9.861565795898438,-3.7241237182617186,1.1216663208007813,0.03157712185101554,0.039564774198003826,0.01904738376646447,1.6700160503387451,2019-06-20 16:46:45:546
9.847200805664063,-3.7420799560546874,1.106104248046875,0.032242912123535354,0.03983109030701175,0.018381593493944658,1.6750080585479736,2019-06-20 16:46:45:551
9.831638732910156,-3.7133499755859374,1.0845567626953125,0.03250922823254328,0.039564774198003826,0.017316329057912964,1.6800000667572021,2019-06-20 16:46:45:556
9.842412475585938,-3.7408828735351562,1.0725859375,0.033707650723078936,0.038765825870980056,0.015851590458369383,1.6849920749664307,2019-06-20 16:46:45:561
9.850792053222657,-3.749262451171875,1.0893450927734374,0.0327755443415512,0.03903214197998798,0.017316329057912964,1.6899840831756592,2019-06-20 16:46:45:566
9.84600372314453,-3.720532470703125,1.1084984130859374,0.033707650723078936,0.039564774198003826,0.01771580322142485,1.6949758529663086,2019-06-20 16:46:45:571
9.844806640625,-3.7384887084960936,1.1240604858398437,0.032242912123535354,0.04009740641601968,0.017449487112416926,1.699967861175537,2019-06-20 16:46:45:576
9.861565795898438,-3.731306213378906,1.1288488159179688,0.031443963796511584,0.04009740641601968,0.01771580322142485,1.7049598693847656,2019-06-20 16:46:45:581
9.837624145507812,-3.7289120483398435,1.110892578125,0.032242912123535354,0.0403637225250276,0.01784896127592881,1.7099518775939941,2019-06-20 16:46:45:586
9.834032897949218,-3.732503295898437,1.1073013305664061,0.03330817655956705,0.04023056447052364,0.01638422267638523,1.7149438858032227,2019-06-20 16:46:45:591
9.844806640625,-3.7396857910156247,1.0953305053710938,0.031843437960023466,0.04023056447052364,0.016251064621881268,1.7199358940124512,2019-06-20 16:46:45:596
9.836427062988282,-3.746868286132812,1.0713888549804687,0.031443963796511584,0.0403637225250276,0.014919484076841646,1.7249279022216797,2019-06-20 16:46:45:601
9.849594970703125,-3.7265178833007813,1.1432138061523438,0.03077817352399177,0.041428986961059296,0.01571843240386542,1.7299199104309082,2019-06-20 16:46:45:606
9.857974548339843,-3.750459533691406,1.1228634033203124,0.030645015469487807,0.04182846112457118,0.016916854894401076,1.7349119186401367,2019-06-20 16:46:45:611
9.886704528808593,-3.774401184082031,1.1132867431640625,0.030645015469487807,0.04089635474304345,0.01638422267638523,1.7400319576263428,2019-06-20 16:46:45:616
9.872339538574218,-3.7660216064453125,1.1180750732421876,0.031177647687503654,0.0403637225250276,0.015052642131345608,1.7450239658355713,2019-06-20 16:46:45:621
9.867551208496094,-3.7528536987304686,1.1276517333984375,0.032242912123535354,0.040763196688539484,0.014520009913329761,1.7500159740447998,2019-06-20 16:46:45:626
9.867551208496094,-3.7181383056640622,1.0941334228515625,0.0327755443415512,0.041428986961059296,0.014653167967833723,1.7550079822540283,2019-06-20 16:46:45:631
9.850792053222657,-3.75405078125,1.1192721557617187,0.031843437960023466,0.04049688057953156,0.014253693804321838,1.7599999904632568,2019-06-20 16:46:45:636
9.842412475585938,-3.7420799560546874,1.1144838256835938,0.03317501850506309,0.04023056447052364,0.014120535749817876,1.7649919986724854,2019-06-20 16:46:45:641
9.865157043457032,-3.74447412109375,1.1551846313476561,0.03317501850506309,0.04023056447052364,0.013987377695313915,1.7699840068817139,2019-06-20 16:46:45:646
9.853186218261719,-3.732503295898437,1.1408196411132812,0.033707650723078936,0.03849950976197213,0.013987377695313915,1.7749760150909424,2019-06-20 16:46:45:651
9.853186218261719,-3.7516566162109375,1.1168779907226563,0.033707650723078936,0.03969793225250779,0.014253693804321838,1.779968023300171,2019-06-20 16:46:45:656
9.893887023925782,-3.7109558105468747,1.077374267578125,0.032642386287047236,0.03943161614349987,0.013987377695313915,1.7849600315093994,2019-06-20 16:46:45:661
9.849594970703125,-3.7109558105468747,1.1228634033203124,0.031843437960023466,0.04023056447052364,0.013854219640809953,1.789952039718628,2019-06-20 16:46:45:666
9.838821228027344,-3.720532470703125,1.10131591796875,0.03131080574200762,0.03983109030701175,0.012788955204778256,1.7949440479278564,2019-06-20 16:46:45:671
9.828047485351563,-3.749262451171875,1.1132867431640625,0.03197659601452743,0.038765825870980056,0.01305527131378618,1.799936056137085,2019-06-20 16:46:45:676
9.844806640625,-3.7420799560546874,1.1264546508789062,0.03250922823254328,0.03983109030701175,0.012389481041266371,1.8049280643463135,2019-06-20 16:46:45:681
9.847200805664063,-3.7408828735351562,1.10131591796875,0.03330817655956705,0.03916530003449194,0.012655797150274295,1.809920072555542,2019-06-20 16:46:45:686
9.83522998046875,-3.7516566162109375,1.0881480102539063,0.03357449266857497,0.03983109030701175,0.011856848823250525,1.8149120807647705,2019-06-20 16:46:45:691
9.84600372314453,-3.7432770385742185,1.0905421752929687,0.033840808777582894,0.03983109030701175,0.011990006877754486,1.8200318813323975,2019-06-20 16:46:45:696
9.859171630859375,-3.731306213378906,1.12046923828125,0.033041860450559124,0.03823319365296421,0.011723690768746563,1.825023889541626,2019-06-20 16:46:45:701
9.865157043457032,-3.750459533691406,1.1049071655273437,0.032642386287047236,0.03903214197998798,0.011723690768746563,1.8300158977508545,2019-06-20 16:46:45:706
9.855580383300781,-3.7420799560546874,1.1096954956054688,0.03330817655956705,0.03676845505342063,0.011723690768746563,1.835007905960083,2019-06-20 16:46:45:711
9.893887023925782,-3.7420799560546874,1.086950927734375,0.03290870239605516,0.037301087271436474,0.010525268278210905,1.8399999141693115,2019-06-20 16:46:45:716
9.859171630859375,-3.745671203613281,1.1240604858398437,0.03424028294109478,0.03703477116242855,0.009193687733171287,1.84499192237854,2019-06-20 16:46:45:721
9.865157043457032,-3.75405078125,1.1300458984375,0.03410712488659082,0.03823319365296421,0.010392110223706943,1.8499839305877686,2019-06-20 16:46:45:726
9.875930786132812,-3.7384887084960936,1.1132867431640625,0.03357449266857497,0.03836635170746817,0.010258952169202981,1.854975938796997,2019-06-20 16:46:45:731
9.851989135742187,-3.720532470703125,1.1372283935546874,0.033840808777582894,0.03836635170746817,0.010258952169202981,1.8599679470062256,2019-06-20 16:46:45:736
9.832835815429688,-3.749262451171875,1.12046923828125,0.033707650723078936,0.03903214197998798,0.009859478005691095,1.864959955215454,2019-06-20 16:46:45:741
9.83522998046875,-3.7516566162109375,1.1037100830078124,0.03410712488659082,0.03863266781647609,0.01012579411469902,1.8699519634246826,2019-06-20 16:46:45:746
9.828047485351563,-3.749262451171875,1.0761771850585937,0.03397396683208686,0.03783371948945232,0.009326845787675248,1.8749439716339111,2019-06-20 16:46:45:751
9.832835815429688,-3.721729553222656,1.0965275878906249,0.03410712488659082,0.0375674033804444,0.0087942135696594,1.8799359798431396,2019-06-20 16:46:45:756
9.8639599609375,-3.7181383056640622,1.1384254760742187,0.033707650723078936,0.037966877543956286,0.010525268278210905,1.8849279880523682,2019-06-20 16:46:45:761
9.861565795898438,-3.7277149658203124,1.17792919921875,0.034639757104606664,0.03823319365296421,0.01012579411469902,1.8899199962615967,2019-06-20 16:46:45:766
9.850792053222657,-3.7193353881835938,1.106104248046875,0.03477291515911063,0.038765825870980056,0.009726319951187133,1.8949120044708252,2019-06-20 16:46:45:771
9.849594970703125,-3.7133499755859374,1.1264546508789062,0.033707650723078936,0.038100035598460244,0.010258952169202981,1.9000320434570312,2019-06-20 16:46:45:776
9.84600372314453,-3.7432770385742185,1.1384254760742187,0.03437344099559874,0.03903214197998798,0.01092474244172279,1.9050240516662598,2019-06-20 16:46:45:781
9.886704528808593,-3.7121528930664063,1.115680908203125,0.033840808777582894,0.03903214197998798,0.011324216605234675,1.9100160598754883,2019-06-20 16:46:45:786
9.869945373535156,-3.736094543457031,1.110892578125,0.033840808777582894,0.037301087271436474,0.010392110223706943,1.9150080680847168,2019-06-20 16:46:45:791
9.847200805664063,-3.7253208007812497,1.1084984130859374,0.03437344099559874,0.03903214197998798,0.009859478005691095,1.9200000762939453,2019-06-20 16:46:45:796
9.838821228027344,-3.715744140625,1.1563817138671875,0.03424028294109478,0.03943161614349987,0.009193687733171287,1.9249920845031738,2019-06-20 16:46:45:801
9.853186218261719,-3.716941223144531,1.125257568359375,0.03290870239605516,0.038898983925484014,0.009593161896683172,1.9299838542938232,2019-06-20 16:46:45:806
9.85438330078125,-3.6894083251953123,1.1420167236328125,0.03317501850506309,0.03903214197998798,0.00946000384217921,1.9349758625030518,2019-06-20 16:46:45:811
9.87473370361328,-3.715744140625,1.1360313110351563,0.033707650723078936,0.03823319365296421,0.010258952169202981,1.9399678707122803,2019-06-20 16:46:45:816
9.893887023925782,-3.732503295898437,1.1049071655273437,0.03344133461407101,0.03863266781647609,0.010525268278210905,1.9449598789215088,2019-06-20 16:46:45:821
9.891492858886718,-3.715744140625,1.0857538452148436,0.03477291515911063,0.038898983925484014,0.012123164932258448,1.9499518871307373,2019-06-20 16:46:45:826
9.834032897949218,-3.730109130859375,1.10131591796875,0.034506599050102706,0.0392984580889959,0.01145737465973864,1.9549438953399658,2019-06-20 16:46:45:831
9.859171630859375,-3.7289120483398435,1.1276517333984375,0.03344133461407101,0.0392984580889959,0.011723690768746563,1.9599359035491943,2019-06-20 16:46:45:836
9.85438330078125,-3.7372916259765625,1.1240604858398437,0.03357449266857497,0.03983109030701175,0.010791584387218828,1.9649279117584229,2019-06-20 16:46:45:841
9.859171630859375,-3.7289120483398435,1.1384254760742187,0.033707650723078936,0.03823319365296421,0.011856848823250525,1.9699199199676514,2019-06-20 16:46:45:846
9.872339538574218,-3.7253208007812497,1.14919921875,0.03437344099559874,0.03783371948945232,0.01092474244172279,1.9749119281768799,2019-06-20 16:46:45:851
9.866354125976562,-3.6858170776367185,1.1288488159179688,0.03437344099559874,0.03823319365296421,0.010258952169202981,1.980031967163086,2019-06-20 16:46:45:856
9.881916198730469,-3.690605407714844,1.1276517333984375,0.033840808777582894,0.03823319365296421,0.012123164932258448,1.9850239753723145,2019-06-20 16:46:45:861
9.871142456054688,-3.6965908203124997,1.15877587890625,0.033840808777582894,0.03783371948945232,0.011590532714242601,1.990015983581543,2019-06-20 16:46:45:866
9.871142456054688,-3.70616748046875,1.144410888671875,0.033707650723078936,0.03863266781647609,0.011191058550730713,1.9950079917907715,2019-06-20 16:46:45:871
9.861565795898438,-3.7121528930664063,1.0977246704101562,0.0327755443415512,0.03916530003449194,0.011723690768746563,2.0,2019-06-20 16:46:45:876
9.857974548339843,-3.701379150390625,1.1001188354492186,0.033041860450559124,0.039964248361515714,0.013188429368290141,2.0049920082092285,2019-06-20 16:46:45:881
9.883113281249999,-3.7337003784179688,1.0893450927734374,0.03357449266857497,0.038898983925484014,0.010658426332714866,2.009984016418457,2019-06-20 16:46:45:886
9.843609558105468,-3.691802490234375,1.115680908203125,0.032242912123535354,0.038765825870980056,0.011723690768746563,2.0149760246276855,2019-06-20 16:46:45:891
9.860368713378906,-3.702576232910156,1.134834228515625,0.03210975406903139,0.038898983925484014,0.011990006877754486,2.019968032836914,2019-06-20 16:46:45:896
9.866354125976562,-3.6965908203124997,1.1288488159179688,0.031177647687503654,0.039564774198003826,0.012389481041266371,2.02508807182312,2019-06-20 16:46:45:901
9.880719116210937,-3.707364562988281,1.1372283935546874,0.03197659601452743,0.039564774198003826,0.0143868518588258,2.029952049255371,2019-06-20 16:46:45:906
9.842412475585938,-3.6989849853515624,1.1216663208007813,0.03250922823254328,0.03916530003449194,0.0143868518588258,2.0349440574645996,2019-06-20 16:46:45:911
9.842412475585938,-3.6834229125976563,1.0965275878906249,0.032242912123535354,0.03983109030701175,0.013987377695313915,2.039936065673828,2019-06-20 16:46:45:916
9.847200805664063,-3.732503295898437,1.1025130004882813,0.031843437960023466,0.039564774198003826,0.013321587422794106,2.0449280738830566,2019-06-20 16:46:45:921
9.841215393066406,-3.7133499755859374,1.0941334228515625,0.031443963796511584,0.03823319365296421,0.013721061586305991,2.049920082092285,2019-06-20 16:46:45:926
9.872339538574218,-3.732503295898437,1.0929363403320311,0.031177647687503654,0.03743424532594044,0.012389481041266371,2.0549120903015137,2019-06-20 16:46:45:931
9.868748291015624,-3.7337003784179688,1.1132867431640625,0.032242912123535354,0.038765825870980056,0.012123164932258448,2.0600318908691406,2019-06-20 16:46:45:936
9.867551208496094,-3.7289120483398435,1.1276517333984375,0.03197659601452743,0.03943161614349987,0.011723690768746563,2.065023899078369,2019-06-20 16:46:45:941
9.860368713378906,-3.731306213378906,1.1192721557617187,0.03250922823254328,0.03983109030701175,0.012522639095770333,2.0700159072875977,2019-06-20 16:46:45:946
9.851989135742187,-3.7348974609375,1.12046923828125,0.03237607017803931,0.038898983925484014,0.013454745477298068,2.075007915496826,2019-06-20 16:46:45:951
9.851989135742187,-3.7265178833007813,1.1132867431640625,0.03210975406903139,0.04009740641601968,0.013721061586305991,2.0799999237060547,2019-06-20 16:46:45:956
9.868748291015624,-3.707364562988281,1.1073013305664061,0.031843437960023466,0.04049688057953156,0.012389481041266371,2.084991931915283,2019-06-20 16:46:45:961
9.885507446289063,-3.7145470581054685,1.1623671264648436,0.03171027990551951,0.03849950976197213,0.012389481041266371,2.0899839401245117,2019-06-20 16:46:45:966
9.889098693847655,-3.7001820678710935,1.1432138061523438,0.03131080574200762,0.03943161614349987,0.013321587422794106,2.0949759483337402,2019-06-20 16:46:45:971
9.8639599609375,-3.7097587280273436,1.12046923828125,0.029846067142464038,0.04116267085205137,0.012655797150274295,2.0999679565429688,2019-06-20 16:46:45:976
9.834032897949218,-3.715744140625,1.0833596801757812,0.03091133157849573,0.04009740641601968,0.012655797150274295,2.1049599647521973,2019-06-20 16:46:45:981
9.860368713378906,-3.7372916259765625,1.110892578125,0.03011238325147196,0.04023056447052364,0.01305527131378618,2.109951972961426,2019-06-20 16:46:45:986
9.84600372314453,-3.745671203613281,1.1480021362304687,0.030245541305975922,0.04169530307006722,0.012922113259282218,2.1149439811706543,2019-06-20 16:46:45:991
9.867551208496094,-3.716941223144531,1.1228634033203124,0.030245541305975922,0.04102951279754741,0.012522639095770333,2.119935989379883,2019-06-20 16:46:45:996
9.840018310546874,-3.7193353881835938,1.1312429809570312,0.03091133157849573,0.04009740641601968,0.013321587422794106,2.1249279975891113,2019-06-20 16:46:46:001
9.855580383300781,-3.7133499755859374,1.1216663208007813,0.03131080574200762,0.0392984580889959,0.012389481041266371,2.12992000579834,2019-06-20 16:46:46:006
9.85438330078125,-3.7229266357421875,1.1049071655273437,0.031443963796511584,0.038765825870980056,0.012788955204778256,2.1349120140075684,2019-06-20 16:46:46:011
9.855580383300781,-3.707364562988281,1.1264546508789062,0.03250922823254328,0.03836635170746817,0.011324216605234675,2.1400320529937744,2019-06-20 16:46:46:016
9.837624145507812,-3.6977879028320313,1.1276517333984375,0.031443963796511584,0.03823319365296421,0.011590532714242601,2.145024061203003,2019-06-20 16:46:46:021
9.851989135742187,-3.7277149658203124,1.1288488159179688,0.032242912123535354,0.038765825870980056,0.01145737465973864,2.1500160694122314,2019-06-20 16:46:46:026
9.868748291015624,-3.721729553222656,1.125257568359375,0.03237607017803931,0.03849950976197213,0.011191058550730713,2.15500807762146,2019-06-20 16:46:46:031
9.84600372314453,-3.7181383056640622,1.1132867431640625,0.031044489632999692,0.039564774198003826,0.01145737465973864,2.1600000858306885,2019-06-20 16:46:46:036
9.857974548339843,-3.7241237182617186,1.1599729614257812,0.031177647687503654,0.03916530003449194,0.010791584387218828,2.164991855621338,2019-06-20 16:46:46:041
9.851989135742187,-3.704970397949219,1.1372283935546874,0.03197659601452743,0.03863266781647609,0.011057900496226753,2.1699838638305664,2019-06-20 16:46:46:046
9.836427062988282,-3.704970397949219,1.1144838256835938,0.033707650723078936,0.038765825870980056,0.010791584387218828,2.174975872039795,2019-06-20 16:46:46:051
9.820864990234375,-3.7121528930664063,1.1216663208007813,0.03317501850506309,0.037966877543956286,0.011324216605234675,2.1799678802490234,2019-06-20 16:46:46:056
9.862762878417968,-3.7372916259765625,1.1312429809570312,0.03330817655956705,0.03836635170746817,0.010258952169202981,2.184959888458252,2019-06-20 16:46:46:061
9.869945373535156,-3.7348974609375,1.12046923828125,0.032642386287047236,0.038100035598460244,0.009992636060195056,2.1899518966674805,2019-06-20 16:46:46:066
9.861565795898438,-3.715744140625,1.1336371459960937,0.03237607017803931,0.03863266781647609,0.010392110223706943,2.194943904876709,2019-06-20 16:46:46:071
9.859171630859375,-3.7133499755859374,1.1228634033203124,0.0327755443415512,0.038765825870980056,0.010658426332714866,2.1999359130859375,2019-06-20 16:46:46:076
9.87353662109375,-3.7001820678710935,1.0809655151367188,0.03357449266857497,0.0392984580889959,0.010791584387218828,2.204927921295166,2019-06-20 16:46:46:081
9.881916198730469,-3.736094543457031,1.0558267822265626,0.033840808777582894,0.03903214197998798,0.01225632298676241,2.2099199295043945,2019-06-20 16:46:46:086
9.866354125976562,-3.7348974609375,1.0929363403320311,0.033840808777582894,0.03863266781647609,0.011191058550730713,2.214911937713623,2019-06-20 16:46:46:091
9.877127868652343,-3.6989849853515624,1.10131591796875,0.03410712488659082,0.03943161614349987,0.010392110223706943,2.220031976699829,2019-06-20 16:46:46:096
9.887901611328125,-3.7265178833007813,1.1096954956054688,0.033707650723078936,0.03943161614349987,0.01012579411469902,2.2250239849090576,2019-06-20 16:46:46:101
9.880719116210937,-3.7265178833007813,1.1300458984375,0.033707650723078936,0.03823319365296421,0.009992636060195056,2.230015993118286,2019-06-20 16:46:46:106
9.850792053222657,-3.7265178833007813,1.1372283935546874,0.03477291515911063,0.038765825870980056,0.01092474244172279,2.2350080013275146,2019-06-20 16:46:46:111
9.869945373535156,-3.7337003784179688,1.1515933837890624,0.034639757104606664,0.038765825870980056,0.01092474244172279,2.240000009536743,2019-06-20 16:46:46:116
9.889098693847655,-3.6965908203124997,1.110892578125,0.03477291515911063,0.03849950976197213,0.011590532714242601,2.2449920177459717,2019-06-20 16:46:46:121
9.883113281249999,-3.6941966552734375,1.0845567626953125,0.03490607321361459,0.03743424532594044,0.011990006877754486,2.2499840259552,2019-06-20 16:46:46:126
9.866354125976562,-3.701379150390625,1.0929363403320311,0.03477291515911063,0.03863266781647609,0.01145737465973864,2.2549760341644287,2019-06-20 16:46:46:131
9.879522033691407,-3.692999572753906,1.1420167236328125,0.0355718634861344,0.0392984580889959,0.011057900496226753,2.2599680423736572,2019-06-20 16:46:46:136
9.866354125976562,-3.7241237182617186,1.115680908203125,0.035305547377126476,0.03863266781647609,0.011057900496226753,2.2649600505828857,2019-06-20 16:46:46:141
9.844806640625,-3.731306213378906,1.0929363403320311,0.03477291515911063,0.03783371948945232,0.011324216605234675,2.2699520587921143,2019-06-20 16:46:46:146
9.857974548339843,-3.721729553222656,1.086950927734375,0.03503923126811855,0.038100035598460244,0.010258952169202981,2.2749440670013428,2019-06-20 16:46:46:151
9.853186218261719,-3.7121528930664063,1.0929363403320311,0.034639757104606664,0.03783371948945232,0.010525268278210905,2.2799360752105713,2019-06-20 16:46:46:156
9.867551208496094,-3.701379150390625,1.1228634033203124,0.034639757104606664,0.04023056447052364,0.009593161896683172,2.2849280834198,2019-06-20 16:46:46:161
9.879522033691407,-3.70616748046875,1.106104248046875,0.034639757104606664,0.03969793225250779,0.010392110223706943,2.289919853210449,2019-06-20 16:46:46:166
9.889098693847655,-3.701379150390625,1.0881480102539063,0.03357449266857497,0.03903214197998798,0.01092474244172279,2.2949118614196777,2019-06-20 16:46:46:171
9.9022666015625,-3.6798316650390626,1.115680908203125,0.03490607321361459,0.038765825870980056,0.011590532714242601,2.300031900405884,2019-06-20 16:46:46:176
9.895084106445312,-3.7145470581054685,1.0881480102539063,0.0355718634861344,0.03690161310792459,0.012123164932258448,2.3050239086151123,2019-06-20 16:46:46:181
9.90346368408203,-3.7109558105468747,1.1372283935546874,0.03424028294109478,0.038100035598460244,0.01145737465973864,2.310015916824341,2019-06-20 16:46:46:186
9.867551208496094,-3.691802490234375,1.106104248046875,0.03237607017803931,0.03863266781647609,0.01145737465973864,2.3150079250335693,2019-06-20 16:46:46:191
9.87473370361328,-3.720532470703125,1.125257568359375,0.033707650723078936,0.03969793225250779,0.012389481041266371,2.319999933242798,2019-06-20 16:46:46:196
9.869945373535156,-3.7097587280273436,1.1228634033203124,0.03397396683208686,0.03903214197998798,0.013321587422794106,2.3249919414520264,2019-06-20 16:46:46:201
9.861565795898438,-3.6977879028320313,1.0785713500976561,0.033840808777582894,0.04023056447052364,0.014120535749817876,2.329983949661255,2019-06-20 16:46:46:206
9.847200805664063,-3.704970397949219,1.067797607421875,0.03317501850506309,0.04089635474304345,0.01358790353180203,2.3349759578704834,2019-06-20 16:46:46:211
9.865157043457032,-3.6989849853515624,1.0654034423828125,0.031177647687503654,0.039564774198003826,0.013321587422794106,2.339967966079712,2019-06-20 16:46:46:216
9.851989135742187,-3.702576232910156,1.0618121948242187,0.03250922823254328,0.038100035598460244,0.01305527131378618,2.3449599742889404,2019-06-20 16:46:46:221
9.865157043457032,-3.704970397949219,1.1168779907226563,0.03410712488659082,0.039564774198003826,0.012655797150274295,2.349951982498169,2019-06-20 16:46:46:226
9.871142456054688,-3.6977879028320313,1.1527904663085937,0.033707650723078936,0.03916530003449194,0.012655797150274295,2.3549439907073975,2019-06-20 16:46:46:231
9.880719116210937,-3.7121528930664063,1.1180750732421876,0.03397396683208686,0.038898983925484014,0.012788955204778256,2.359935998916626,2019-06-20 16:46:46:236
9.879522033691407,-3.7145470581054685,1.1073013305664061,0.03290870239605516,0.039564774198003826,0.013188429368290141,2.3649280071258545,2019-06-20 16:46:46:241
9.856777465820313,-3.7348974609375,1.1025130004882813,0.03290870239605516,0.04009740641601968,0.012389481041266371,2.369920015335083,2019-06-20 16:46:46:246
9.866354125976562,-3.7253208007812497,1.1312429809570312,0.03250922823254328,0.03916530003449194,0.012788955204778256,2.3749120235443115,2019-06-20 16:46:46:251
9.881916198730469,-3.7181383056640622,1.1468050537109375,0.0327755443415512,0.038898983925484014,0.014520009913329761,2.3800320625305176,2019-06-20 16:46:46:256
9.87473370361328,-3.7384887084960936,1.1456079711914062,0.032642386287047236,0.040630038634035526,0.014786326022337684,2.385024070739746,2019-06-20 16:46:46:261
9.851989135742187,-3.7097587280273436,1.1384254760742187,0.03290870239605516,0.04049688057953156,0.0143868518588258,2.3900160789489746,2019-06-20 16:46:46:266
9.87353662109375,-3.6977879028320313,1.0977246704101562,0.0327755443415512,0.039564774198003826,0.014520009913329761,2.395008087158203,2019-06-20 16:46:46:271
9.89268994140625,-3.7253208007812497,1.1551846313476561,0.033041860450559124,0.0392984580889959,0.014120535749817876,2.3999998569488525,2019-06-20 16:46:46:276
9.867551208496094,-3.70616748046875,1.1216663208007813,0.03330817655956705,0.03849950976197213,0.013987377695313915,2.404991865158081,2019-06-20 16:46:46:281
9.853186218261719,-3.6989849853515624,1.0941334228515625,0.03357449266857497,0.03903214197998798,0.013854219640809953,2.4099838733673096,2019-06-20 16:46:46:286
9.881916198730469,-3.7121528930664063,1.1180750732421876,0.032642386287047236,0.04049688057953156,0.013321587422794106,2.414975881576538,2019-06-20 16:46:46:291
9.850792053222657,-3.7001820678710935,1.0977246704101562,0.03250922823254328,0.039964248361515714,0.014520009913329761,2.4199678897857666,2019-06-20 16:46:46:296
9.869945373535156,-3.7097587280273436,1.1456079711914062,0.03171027990551951,0.04023056447052364,0.015318958240353535,2.424959897994995,2019-06-20 16:46:46:301
9.844806640625,-3.7121528930664063,1.115680908203125,0.032242912123535354,0.04049688057953156,0.015984748512873345,2.4299519062042236,2019-06-20 16:46:46:306
9.872339538574218,-3.7193353881835938,1.1288488159179688,0.03250922823254328,0.038898983925484014,0.01571843240386542,2.434943914413452,2019-06-20 16:46:46:311
9.87473370361328,-3.7001820678710935,1.10131591796875,0.03197659601452743,0.03863266781647609,0.015318958240353535,2.4399359226226807,2019-06-20 16:46:46:316
9.857974548339843,-3.6774375,1.0857538452148436,0.03171027990551951,0.0392984580889959,0.014653167967833723,2.444927930831909,2019-06-20 16:46:46:321
9.865157043457032,-3.6750433349609373,1.10131591796875,0.03210975406903139,0.039964248361515714,0.015318958240353535,2.4499199390411377,2019-06-20 16:46:46:326
9.890295776367187,-3.701379150390625,1.0881480102539063,0.032642386287047236,0.04089635474304345,0.01638422267638523,2.454911947250366,2019-06-20 16:46:46:331
9.866354125976562,-3.6977879028320313,1.0809655151367188,0.032642386287047236,0.04089635474304345,0.014653167967833723,2.4600319862365723,2019-06-20 16:46:46:336
9.859171630859375,-3.6989849853515624,1.1408196411132812,0.03250922823254328,0.04023056447052364,0.015585274349361458,2.465023994445801,2019-06-20 16:46:46:341
9.868748291015624,-3.6989849853515624,1.1192721557617187,0.0327755443415512,0.0392984580889959,0.016117906567377306,2.4700160026550293,2019-06-20 16:46:46:346
9.886704528808593,-3.6953937377929686,1.1372283935546874,0.03157712185101554,0.039964248361515714,0.017183171003409,2.475008010864258,2019-06-20 16:46:46:351
9.875930786132812,-3.692999572753906,1.1096954956054688,0.03210975406903139,0.03969793225250779,0.017183171003409,2.4800000190734863,2019-06-20 16:46:46:356
9.862762878417968,-3.7109558105468747,1.1025130004882813,0.031177647687503654,0.03903214197998798,0.017582645166920888,2.484992027282715,2019-06-20 16:46:46:361
9.844806640625,-3.702576232910156,1.086950927734375,0.031044489632999692,0.041428986961059296,0.017050012948905038,2.4899840354919434,2019-06-20 16:46:46:366
9.855580383300781,-3.720532470703125,1.0797684326171875,0.03091133157849573,0.04116267085205137,0.01784896127592881,2.494976043701172,2019-06-20 16:46:46:371
9.877127868652343,-3.7037733154296872,1.1037100830078124,0.030378699360479884,0.03983109030701175,0.018381593493944658,2.4999680519104004,2019-06-20 16:46:46:376
9.87473370361328,-3.707364562988281,1.0881480102539063,0.03091133157849573,0.04023056447052364,0.017449487112416926,2.504960060119629,2019-06-20 16:46:46:381
9.865157043457032,-3.7037733154296872,1.0881480102539063,0.031044489632999692,0.04169530307006722,0.018115277384936734,2.5099520683288574,2019-06-20 16:46:46:386
9.868748291015624,-3.7277149658203124,1.12046923828125,0.029579751033456114,0.04049688057953156,0.017050012948905038,2.514944076538086,2019-06-20 16:46:46:391
9.899872436523438,-3.7121528930664063,1.115680908203125,0.03077817352399177,0.039564774198003826,0.018381593493944658,2.5199360847473145,2019-06-20 16:46:46:396
9.895084106445312,-3.7229266357421875,1.1324400634765626,0.032642386287047236,0.040763196688539484,0.019713174038984278,2.524927854537964,2019-06-20 16:46:46:401
9.860368713378906,-3.7133499755859374,1.1276517333984375,0.029579751033456114,0.04089635474304345,0.019313699875472393,2.53004789352417,2019-06-20 16:46:46:406
9.866354125976562,-3.721729553222656,1.1300458984375,0.028647644651928383,0.04102951279754741,0.019446857929976354,2.534911870956421,2019-06-20 16:46:46:411
9.853186218261719,-3.7241237182617186,1.115680908203125,0.03011238325147196,0.03983109030701175,0.018781067657456543,2.540031909942627,2019-06-20 16:46:46:416
9.862762878417968,-3.7265178833007813,1.1336371459960937,0.030511857414983846,0.03903214197998798,0.019446857929976354,2.5450239181518555,2019-06-20 16:46:46:421
9.85438330078125,-3.731306213378906,1.1288488159179688,0.03131080574200762,0.03969793225250779,0.018115277384936734,2.550015926361084,2019-06-20 16:46:46:426
9.867551208496094,-3.7396857910156247,1.1037100830078124,0.03091133157849573,0.039964248361515714,0.017582645166920888,2.5550079345703125,2019-06-20 16:46:46:431
9.829244567871093,-3.732503295898437,1.1132867431640625,0.03157712185101554,0.040630038634035526,0.018248435439440696,2.559999942779541,2019-06-20 16:46:46:436
9.849594970703125,-3.7348974609375,1.1144838256835938,0.031044489632999692,0.04116267085205137,0.017316329057912964,2.5649919509887695,2019-06-20 16:46:46:441
9.867551208496094,-3.7420799560546874,1.1096954956054688,0.03131080574200762,0.04023056447052364,0.01771580322142485,2.569983959197998,2019-06-20 16:46:46:446
9.860368713378906,-3.760036193847656,1.1084984130859374,0.03210975406903139,0.04023056447052364,0.016650538785393153,2.5749759674072266,2019-06-20 16:46:46:451
9.856777465820313,-3.750459533691406,1.1300458984375,0.031044489632999692,0.040763196688539484,0.016783696839897114,2.579967975616455,2019-06-20 16:46:46:456
9.855580383300781,-3.760036193847656,1.0953305053710938,0.031177647687503654,0.040630038634035526,0.017050012948905038,2.5849599838256836,2019-06-20 16:46:46:461
9.840018310546874,-3.749262451171875,1.1468050537109375,0.032242912123535354,0.04089635474304345,0.015984748512873345,2.589951992034912,2019-06-20 16:46:46:466
9.834032897949218,-3.7337003784179688,1.1228634033203124,0.03077817352399177,0.04089635474304345,0.016916854894401076,2.5949440002441406,2019-06-20 16:46:46:471
9.8639599609375,-3.7432770385742185,1.115680908203125,0.03210975406903139,0.04102951279754741,0.016117906567377306,2.599936008453369,2019-06-20 16:46:46:476
9.856777465820313,-3.736094543457031,1.1120896606445312,0.033041860450559124,0.04023056447052364,0.015585274349361458,2.6049280166625977,2019-06-20 16:46:46:481
9.850792053222657,-3.715744140625,1.115680908203125,0.03250922823254328,0.04009740641601968,0.01571843240386542,2.609920024871826,2019-06-20 16:46:46:486
9.848397888183593,-3.7348974609375,1.1312429809570312,0.03157712185101554,0.04009740641601968,0.015585274349361458,2.6149120330810547,2019-06-20 16:46:46:491
9.859171630859375,-3.7372916259765625,1.1336371459960937,0.03171027990551951,0.0392984580889959,0.016650538785393153,2.6200320720672607,2019-06-20 16:46:46:496
9.843609558105468,-3.6953937377929686,1.1384254760742187,0.03131080574200762,0.03943161614349987,0.016251064621881268,2.6250240802764893,2019-06-20 16:46:46:501
9.859171630859375,-3.7432770385742185,1.1084984130859374,0.032242912123535354,0.03943161614349987,0.016117906567377306,2.6300160884857178,2019-06-20 16:46:46:506
9.857974548339843,-3.7145470581054685,1.08216259765625,0.03237607017803931,0.04009740641601968,0.015185800185849573,2.635007858276367,2019-06-20 16:46:46:511
9.850792053222657,-3.7337003784179688,1.08216259765625,0.03197659601452743,0.039564774198003826,0.014520009913329761,2.6399998664855957,2019-06-20 16:46:46:516
9.860368713378906,-3.730109130859375,1.1073013305664061,0.03250922823254328,0.038765825870980056,0.013188429368290141,2.644991874694824,2019-06-20 16:46:46:521
9.857974548339843,-3.746868286132812,1.08216259765625,0.03171027990551951,0.04009740641601968,0.013454745477298068,2.6499838829040527,2019-06-20 16:46:46:526
9.867551208496094,-3.7480653686523437,1.1180750732421876,0.03237607017803931,0.04023056447052364,0.014919484076841646,2.6549758911132812,2019-06-20 16:46:46:531
9.849594970703125,-3.7480653686523437,1.1384254760742187,0.03317501850506309,0.03836635170746817,0.014653167967833723,2.6599678993225098,2019-06-20 16:46:46:536
9.841215393066406,-3.7097587280273436,1.1168779907226563,0.033840808777582894,0.03943161614349987,0.013854219640809953,2.6649599075317383,2019-06-20 16:46:46:541
9.8639599609375,-3.732503295898437,1.1144838256835938,0.03250922823254328,0.03916530003449194,0.012922113259282218,2.669951915740967,2019-06-20 16:46:46:546
9.877127868652343,-3.749262451171875,1.1037100830078124,0.0327755443415512,0.038100035598460244,0.013321587422794106,2.6749439239501953,2019-06-20 16:46:46:551
9.878324951171875,-3.7253208007812497,1.1216663208007813,0.032642386287047236,0.03863266781647609,0.013321587422794106,2.679935932159424,2019-06-20 16:46:46:556
9.868748291015624,-3.7121528930664063,1.0977246704101562,0.0327755443415512,0.0392984580889959,0.013987377695313915,2.6849279403686523,2019-06-20 16:46:46:561
9.859171630859375,-3.716941223144531,1.1144838256835938,0.03437344099559874,0.038765825870980056,0.013321587422794106,2.689919948577881,2019-06-20 16:46:46:566
9.868748291015624,-3.7145470581054685,1.1336371459960937,0.03503923126811855,0.03916530003449194,0.014120535749817876,2.6949119567871094,2019-06-20 16:46:46:571
9.85438330078125,-3.720532470703125,1.0929363403320311,0.03437344099559874,0.038765825870980056,0.013188429368290141,2.7000319957733154,2019-06-20 16:46:46:576
9.819667907714843,-3.7241237182617186,1.1001188354492186,0.03437344099559874,0.03903214197998798,0.013721061586305991,2.705024003982544,2019-06-20 16:46:46:581
9.855580383300781,-3.7480653686523437,1.12046923828125,0.03290870239605516,0.038898983925484014,0.013188429368290141,2.7100160121917725,2019-06-20 16:46:46:586
9.83522998046875,-3.732503295898437,1.0953305053710938,0.03397396683208686,0.03783371948945232,0.012922113259282218,2.715008020401001,2019-06-20 16:46:46:591
9.849594970703125,-3.7408828735351562,1.0941334228515625,0.03330817655956705,0.03743424532594044,0.013188429368290141,2.7200000286102295,2019-06-20 16:46:46:596
9.842412475585938,-3.7109558105468747,1.0809655151367188,0.03317501850506309,0.03836635170746817,0.014653167967833723,2.724992036819458,2019-06-20 16:46:46:601
9.857974548339843,-3.7145470581054685,1.1168779907226563,0.03344133461407101,0.03783371948945232,0.013987377695313915,2.7299840450286865,2019-06-20 16:46:46:606
9.886704528808593,-3.720532470703125,1.125257568359375,0.03330817655956705,0.0392984580889959,0.013454745477298068,2.734976053237915,2019-06-20 16:46:46:611
9.883113281249999,-3.7109558105468747,1.0857538452148436,0.03237607017803931,0.03983109030701175,0.013188429368290141,2.7399680614471436,2019-06-20 16:46:46:616
9.869945373535156,-3.721729553222656,1.0989217529296875,0.03197659601452743,0.03983109030701175,0.013854219640809953,2.744960069656372,2019-06-20 16:46:46:621
9.855580383300781,-3.690605407714844,1.1264546508789062,0.03210975406903139,0.03849950976197213,0.015185800185849573,2.7499520778656006,2019-06-20 16:46:46:626
9.869945373535156,-3.678634582519531,1.115680908203125,0.031443963796511584,0.03916530003449194,0.0143868518588258,2.754944086074829,2019-06-20 16:46:46:631
9.87473370361328,-3.7001820678710935,1.0881480102539063,0.03210975406903139,0.0375674033804444,0.013721061586305991,2.7599358558654785,2019-06-20 16:46:46:636
9.849594970703125,-3.688211242675781,1.1073013305664061,0.03250922823254328,0.03823319365296421,0.015052642131345608,2.764927864074707,2019-06-20 16:46:46:641
9.866354125976562,-3.730109130859375,1.0857538452148436,0.03131080574200762,0.04009740641601968,0.014253693804321838,2.7699198722839355,2019-06-20 16:46:46:646
9.848397888183593,-3.7193353881835938,1.1001188354492186,0.03210975406903139,0.04116267085205137,0.014653167967833723,2.774911880493164,2019-06-20 16:46:46:651
9.844806640625,-3.716941223144531,1.0941334228515625,0.03290870239605516,0.04049688057953156,0.014653167967833723,2.78003191947937,2019-06-20 16:46:46:656
9.877127868652343,-3.7241237182617186,1.106104248046875,0.03330817655956705,0.039964248361515714,0.014653167967833723,2.7850239276885986,2019-06-20 16:46:46:661
9.862762878417968,-3.7229266357421875,1.1336371459960937,0.03171027990551951,0.04049688057953156,0.016117906567377306,2.790015935897827,2019-06-20 16:46:46:666
9.868748291015624,-3.7241237182617186,1.0845567626953125,0.03210975406903139,0.03863266781647609,0.015185800185849573,2.7950079441070557,2019-06-20 16:46:46:671
9.881916198730469,-3.7145470581054685,1.1240604858398437,0.03197659601452743,0.039564774198003826,0.014520009913329761,2.799999952316284,2019-06-20 16:46:46:676
9.889098693847655,-3.6977879028320313,1.13962255859375,0.031843437960023466,0.04023056447052364,0.015318958240353535,2.8049919605255127,2019-06-20 16:46:46:681
9.89268994140625,-3.7085616455078125,1.1527904663085937,0.031843437960023466,0.0403637225250276,0.015052642131345608,2.809983968734741,2019-06-20 16:46:46:686
9.867551208496094,-3.6941966552734375,1.1025130004882813,0.032242912123535354,0.04023056447052364,0.015851590458369383,2.8149759769439697,2019-06-20 16:46:46:691
9.868748291015624,-3.7109558105468747,1.1073013305664061,0.032242912123535354,0.040630038634035526,0.015585274349361458,2.8199679851531982,2019-06-20 16:46:46:696
9.868748291015624,-3.7229266357421875,1.1432138061523438,0.03197659601452743,0.0403637225250276,0.014919484076841646,2.8249599933624268,2019-06-20 16:46:46:701
9.899872436523438,-3.715744140625,1.1300458984375,0.0327755443415512,0.040630038634035526,0.014120535749817876,2.8299520015716553,2019-06-20 16:46:46:706
9.855580383300781,-3.7384887084960936,1.1228634033203124,0.031044489632999692,0.04089635474304345,0.014520009913329761,2.834944009780884,2019-06-20 16:46:46:711
9.830441650390625,-3.7241237182617186,1.1084984130859374,0.029979225196968,0.039964248361515714,0.0143868518588258,2.8399360179901123,2019-06-20 16:46:46:716
9.837624145507812,-3.7564449462890623,1.1025130004882813,0.030511857414983846,0.04116267085205137,0.014120535749817876,2.844928026199341,2019-06-20 16:46:46:721
9.836427062988282,-3.7516566162109375,1.1096954956054688,0.031443963796511584,0.04049688057953156,0.013987377695313915,2.8499200344085693,2019-06-20 16:46:46:726
9.838821228027344,-3.757642028808594,1.1192721557617187,0.031443963796511584,0.039964248361515714,0.014520009913329761,2.854912042617798,2019-06-20 16:46:46:731
9.842412475585938,-3.732503295898437,1.134834228515625,0.030645015469487807,0.04089635474304345,0.015185800185849573,2.860032081604004,2019-06-20 16:46:46:736
9.886704528808593,-3.745671203613281,1.1096954956054688,0.029979225196968,0.040763196688539484,0.015052642131345608,2.8650240898132324,2019-06-20 16:46:46:741
9.872339538574218,-3.715744140625,1.0989217529296875,0.03131080574200762,0.041428986961059296,0.014120535749817876,2.870015859603882,2019-06-20 16:46:46:746
9.856777465820313,-3.736094543457031,1.115680908203125,0.031177647687503654,0.0403637225250276,0.015585274349361458,2.8750078678131104,2019-06-20 16:46:46:751
9.856777465820313,-3.7289120483398435,1.1240604858398437,0.03210975406903139,0.04089635474304345,0.013854219640809953,2.879999876022339,2019-06-20 16:46:46:756
9.878324951171875,-3.721729553222656,1.0881480102539063,0.031177647687503654,0.04102951279754741,0.013987377695313915,2.8849918842315674,2019-06-20 16:46:46:761
9.872339538574218,-3.745671203613281,1.1575787963867188,0.03237607017803931,0.041428986961059296,0.015585274349361458,2.889983892440796,2019-06-20 16:46:46:766
9.872339538574218,-3.732503295898437,1.1432138061523438,0.03131080574200762,0.03983109030701175,0.015452116294857496,2.8949759006500244,2019-06-20 16:46:46:771
9.838821228027344,-3.7181383056640622,1.134834228515625,0.030378699360479884,0.040763196688539484,0.014520009913329761,2.899967908859253,2019-06-20 16:46:46:776
9.861565795898438,-3.7289120483398435,1.1384254760742187,0.03077817352399177,0.040763196688539484,0.014253693804321838,2.9049599170684814,2019-06-20 16:46:46:781
9.862762878417968,-3.750459533691406,1.1096954956054688,0.03210975406903139,0.04049688057953156,0.013854219640809953,2.90995192527771,2019-06-20 16:46:46:786
9.862762878417968,-3.750459533691406,1.1096954956054688,0.03210975406903139,0.04049688057953156,0.013854219640809953,2.912895917892456,2019-06-20 16:46:46:789
9.865157043457032,-3.688211242675781,1.0929363403320311,0.03197659601452743,0.0403637225250276,0.014120535749817876,2.919935941696167,2019-06-20 16:46:46:796
9.865157043457032,-3.688211242675781,1.0929363403320311,0.03197659601452743,0.0403637225250276,0.014120535749817876,2.922879934310913,2019-06-20 16:46:46:798
9.844806640625,-3.716941223144531,1.1360313110351563,0.031443963796511584,0.03969793225250779,0.013454745477298068,2.929919958114624,2019-06-20 16:46:46:806
9.844806640625,-3.716941223144531,1.1360313110351563,0.031443963796511584,0.03969793225250779,0.013454745477298068,2.93286395072937,2019-06-20 16:46:46:808
9.868748291015624,-3.75405078125,1.0929363403320311,0.0327755443415512,0.0403637225250276,0.0143868518588258,2.9400320053100586,2019-06-20 16:46:46:816
9.851989135742187,-3.7265178833007813,1.125257568359375,0.031044489632999692,0.039964248361515714,0.014253693804321838,2.945024013519287,2019-06-20 16:46:46:821
9.838821228027344,-3.7253208007812497,1.1575787963867188,0.030645015469487807,0.038765825870980056,0.0143868518588258,2.9500160217285156,2019-06-20 16:46:46:826
9.850792053222657,-3.720532470703125,1.1120896606445312,0.03171027990551951,0.03836635170746817,0.014120535749817876,2.955008029937744,2019-06-20 16:46:46:831
9.853186218261719,-3.7265178833007813,1.1168779907226563,0.03131080574200762,0.03903214197998798,0.013454745477298068,2.9600000381469727,2019-06-20 16:46:46:836
9.832835815429688,-3.74447412109375,1.1575787963867188,0.032242912123535354,0.0403637225250276,0.01358790353180203,2.964992046356201,2019-06-20 16:46:46:841
9.836427062988282,-3.6965908203124997,1.1132867431640625,0.031843437960023466,0.038765825870980056,0.013721061586305991,2.9699840545654297,2019-06-20 16:46:46:846
9.847200805664063,-3.7145470581054685,1.0570238647460937,0.03317501850506309,0.04023056447052364,0.012389481041266371,2.974976062774658,2019-06-20 16:46:46:851
9.847200805664063,-3.7145470581054685,1.0570238647460937,0.03317501850506309,0.040630038634035526,0.014120535749817876,2.9799680709838867,2019-06-20 16:46:46:856
9.840018310546874,-3.715744140625,1.106104248046875,0.03317501850506309,0.0392984580889959,0.014253693804321838,2.9849600791931152,2019-06-20 16:46:46:861
9.855580383300781,-3.702576232910156,1.106104248046875,0.03330817655956705,0.03969793225250779,0.014786326022337684,2.9899520874023438,2019-06-20 16:46:46:866
9.851989135742187,-3.730109130859375,1.0809655151367188,0.03210975406903139,0.04009740641601968,0.014520009913329761,2.994943857192993,2019-06-20 16:46:46:871
9.855580383300781,-3.7372916259765625,1.1336371459960937,0.03317501850506309,0.04129582890655533,0.013854219640809953,2.9999358654022217,2019-06-20 16:46:46:876
9.875930786132812,-3.7097587280273436,1.106104248046875,0.032242912123535354,0.04023056447052364,0.014253693804321838,3.00492787361145,2019-06-20 16:46:46:881
9.87353662109375,-3.7097587280273436,1.115680908203125,0.03330817655956705,0.04049688057953156,0.014653167967833723,3.0099198818206787,2019-06-20 16:46:46:886
9.871142456054688,-3.731306213378906,1.1240604858398437,0.033041860450559124,0.039964248361515714,0.01571843240386542,3.0150399208068848,2019-06-20 16:46:46:891
9.847200805664063,-3.7384887084960936,1.110892578125,0.03344133461407101,0.038898983925484014,0.014786326022337684,3.0200319290161133,2019-06-20 16:46:46:896
9.868748291015624,-3.746868286132812,1.1312429809570312,0.032642386287047236,0.03849950976197213,0.014253693804321838,3.025023937225342,2019-06-20 16:46:46:901
9.880719116210937,-3.7193353881835938,1.1216663208007813,0.032242912123535354,0.038765825870980056,0.01305527131378618,3.0300159454345703,2019-06-20 16:46:46:906
9.866354125976562,-3.7145470581054685,1.1324400634765626,0.031443963796511584,0.03969793225250779,0.014253693804321838,3.035007953643799,2019-06-20 16:46:46:911
9.884310363769531,-3.7229266357421875,1.1192721557617187,0.03197659601452743,0.03983109030701175,0.014520009913329761,3.0399999618530273,2019-06-20 16:46:46:916
9.865157043457032,-3.7420799560546874,1.1240604858398437,0.0327755443415512,0.039964248361515714,0.01358790353180203,3.044991970062256,2019-06-20 16:46:46:921
9.865157043457032,-3.7480653686523437,1.1468050537109375,0.03317501850506309,0.03969793225250779,0.013454745477298068,3.0499839782714844,2019-06-20 16:46:46:926
9.872339538574218,-3.7265178833007813,1.1300458984375,0.03437344099559874,0.038898983925484014,0.013321587422794106,3.054975986480713,2019-06-20 16:46:46:931
9.85438330078125,-3.7396857910156247,1.1515933837890624,0.03250922823254328,0.03943161614349987,0.01358790353180203,3.0599679946899414,2019-06-20 16:46:46:936
9.834032897949218,-3.7001820678710935,1.1503963012695313,0.03237607017803931,0.0392984580889959,0.013454745477298068,3.06496000289917,2019-06-20 16:46:46:941
9.83522998046875,-3.690605407714844,1.10131591796875,0.032642386287047236,0.037966877543956286,0.013454745477298068,3.0699520111083984,2019-06-20 16:46:46:946
9.813682495117188,-3.7145470581054685,1.0606151123046874,0.03250922823254328,0.03836635170746817,0.013188429368290141,3.074944019317627,2019-06-20 16:46:46:951
9.862762878417968,-3.7348974609375,1.1120896606445312,0.033840808777582894,0.03916530003449194,0.012788955204778256,3.0799360275268555,2019-06-20 16:46:46:956
9.883113281249999,-3.731306213378906,1.1132867431640625,0.03290870239605516,0.03969793225250779,0.011990006877754486,3.084928035736084,2019-06-20 16:46:46:961
9.872339538574218,-3.7432770385742185,1.1192721557617187,0.03210975406903139,0.03703477116242855,0.012655797150274295,3.0899200439453125,2019-06-20 16:46:46:966
9.8639599609375,-3.74447412109375,1.1240604858398437,0.03357449266857497,0.03783371948945232,0.01225632298676241,3.094912052154541,2019-06-20 16:46:46:971
9.868748291015624,-3.731306213378906,1.1240604858398437,0.03410712488659082,0.038898983925484014,0.01305527131378618,3.100031852722168,2019-06-20 16:46:46:976
9.875930786132812,-3.731306213378906,1.1096954956054688,0.03330817655956705,0.038898983925484014,0.01358790353180203,3.1050238609313965,2019-06-20 16:46:46:981
9.860368713378906,-3.736094543457031,1.1049071655273437,0.03290870239605516,0.038898983925484014,0.013188429368290141,3.110015869140625,2019-06-20 16:46:46:986
9.843609558105468,-3.758839111328125,1.1073013305664061,0.033041860450559124,0.03916530003449194,0.013721061586305991,3.1150078773498535,2019-06-20 16:46:46:991
9.857974548339843,-3.7480653686523437,1.1360313110351563,0.03357449266857497,0.03969793225250779,0.013987377695313915,3.119999885559082,2019-06-20 16:46:46:996
9.856777465820313,-3.732503295898437,1.1073013305664061,0.03437344099559874,0.03863266781647609,0.013721061586305991,3.1249918937683105,2019-06-20 16:46:47:001
9.865157043457032,-3.7396857910156247,1.110892578125,0.03290870239605516,0.03903214197998798,0.012522639095770333,3.129983901977539,2019-06-20 16:46:47:006
9.867551208496094,-3.7420799560546874,1.1468050537109375,0.03330817655956705,0.038765825870980056,0.01012579411469902,3.1349759101867676,2019-06-20 16:46:47:011
9.844806640625,-3.732503295898437,1.1144838256835938,0.03344133461407101,0.03836635170746817,0.01145737465973864,3.139967918395996,2019-06-20 16:46:47:016
9.849594970703125,-3.7085616455078125,1.1228634033203124,0.033840808777582894,0.03743424532594044,0.012655797150274295,3.1449599266052246,2019-06-20 16:46:47:021
9.87473370361328,-3.7121528930664063,1.1372283935546874,0.03330817655956705,0.037966877543956286,0.013321587422794106,3.149951934814453,2019-06-20 16:46:47:026
9.842412475585938,-3.7121528930664063,1.1372283935546874,0.033707650723078936,0.039564774198003826,0.013454745477298068,3.1549439430236816,2019-06-20 16:46:47:031
9.868748291015624,-3.7265178833007813,1.1228634033203124,0.0327755443415512,0.03943161614349987,0.012655797150274295,3.15993595123291,2019-06-20 16:46:47:036
9.83522998046875,-3.6953937377929686,1.1084984130859374,0.03317501850506309,0.0392984580889959,0.011990006877754486,3.1649279594421387,2019-06-20 16:46:47:041
9.855580383300781,-3.6965908203124997,1.1144838256835938,0.03344133461407101,0.038100035598460244,0.012123164932258448,3.169919967651367,2019-06-20 16:46:47:046
9.871142456054688,-3.715744140625,1.1216663208007813,0.03424028294109478,0.039964248361515714,0.01145737465973864,3.1749119758605957,2019-06-20 16:46:47:051
9.883113281249999,-3.7085616455078125,1.115680908203125,0.033840808777582894,0.039564774198003826,0.01092474244172279,3.1800320148468018,2019-06-20 16:46:47:056
9.871142456054688,-3.692999572753906,1.1384254760742187,0.03410712488659082,0.0403637225250276,0.010791584387218828,3.1850240230560303,2019-06-20 16:46:47:061
9.890295776367187,-3.7289120483398435,1.1384254760742187,0.03330817655956705,0.04089635474304345,0.011990006877754486,3.190016031265259,2019-06-20 16:46:47:066
9.887901611328125,-3.7277149658203124,1.0785713500976561,0.0327755443415512,0.03903214197998798,0.012522639095770333,3.1950080394744873,2019-06-20 16:46:47:071
9.87473370361328,-3.7289120483398435,1.0749801025390624,0.03357449266857497,0.03983109030701175,0.013188429368290141,3.200000047683716,2019-06-20 16:46:47:076
9.87353662109375,-3.7289120483398435,1.1180750732421876,0.03250922823254328,0.03969793225250779,0.012788955204778256,3.2049920558929443,2019-06-20 16:46:47:081
9.871142456054688,-3.70616748046875,1.106104248046875,0.03131080574200762,0.03903214197998798,0.011723690768746563,3.209984064102173,2019-06-20 16:46:47:086
9.865157043457032,-3.730109130859375,1.115680908203125,0.03131080574200762,0.03863266781647609,0.012123164932258448,3.2149760723114014,2019-06-20 16:46:47:091
9.862762878417968,-3.7229266357421875,1.153987548828125,0.03237607017803931,0.03943161614349987,0.012655797150274295,3.21996808052063,2019-06-20 16:46:47:096
9.878324951171875,-3.701379150390625,1.1049071655273437,0.03357449266857497,0.04116267085205137,0.011856848823250525,3.2249600887298584,2019-06-20 16:46:47:101
9.87353662109375,-3.7109558105468747,1.13962255859375,0.03317501850506309,0.0403637225250276,0.013188429368290141,3.229951858520508,2019-06-20 16:46:47:106
9.855580383300781,-3.7277149658203124,1.1216663208007813,0.03250922823254328,0.04049688057953156,0.011057900496226753,3.2349438667297363,2019-06-20 16:46:47:111
9.829244567871093,-3.731306213378906,1.1432138061523438,0.03197659601452743,0.0403637225250276,0.012123164932258448,3.239935874938965,2019-06-20 16:46:47:116
9.869945373535156,-3.7289120483398435,1.144410888671875,0.03131080574200762,0.03943161614349987,0.011990006877754486,3.2449278831481934,2019-06-20 16:46:47:121
9.869945373535156,-3.7193353881835938,1.1372283935546874,0.032242912123535354,0.04116267085205137,0.011856848823250525,3.249919891357422,2019-06-20 16:46:47:126
9.889098693847655,-3.7289120483398435,1.1276517333984375,0.03131080574200762,0.0403637225250276,0.012522639095770333,3.2549118995666504,2019-06-20 16:46:47:131
9.853186218261719,-3.720532470703125,1.115680908203125,0.030245541305975922,0.040763196688539484,0.013721061586305991,3.2600319385528564,2019-06-20 16:46:47:136
9.865157043457032,-3.7145470581054685,1.115680908203125,0.029979225196968,0.04102951279754741,0.014253693804321838,3.265023946762085,2019-06-20 16:46:47:141
9.884310363769531,-3.7337003784179688,1.1324400634765626,0.030511857414983846,0.04049688057953156,0.012922113259282218,3.2700159549713135,2019-06-20 16:46:47:146
9.872339538574218,-3.7348974609375,1.1288488159179688,0.031843437960023466,0.0403637225250276,0.012389481041266371,3.275007963180542,2019-06-20 16:46:47:151
9.886704528808593,-3.732503295898437,1.1216663208007813,0.03210975406903139,0.03969793225250779,0.011990006877754486,3.2799999713897705,2019-06-20 16:46:47:156
9.87473370361328,-3.7408828735351562,1.1240604858398437,0.0327755443415512,0.03969793225250779,0.01305527131378618,3.284991979598999,2019-06-20 16:46:47:161
9.87353662109375,-3.7289120483398435,1.115680908203125,0.03344133461407101,0.04089635474304345,0.012389481041266371,3.2899839878082275,2019-06-20 16:46:47:166
9.875930786132812,-3.721729553222656,1.0953305053710938,0.03290870239605516,0.04049688057953156,0.013721061586305991,3.294975996017456,2019-06-20 16:46:47:171
9.879522033691407,-3.7193353881835938,1.1049071655273437,0.03197659601452743,0.04023056447052364,0.011590532714242601,3.2999680042266846,2019-06-20 16:46:47:176
9.883113281249999,-3.732503295898437,1.1037100830078124,0.03171027990551951,0.04023056447052364,0.012522639095770333,3.304960012435913,2019-06-20 16:46:47:181
9.866354125976562,-3.715744140625,1.110892578125,0.032642386287047236,0.03943161614349987,0.013454745477298068,3.3099520206451416,2019-06-20 16:46:47:186
9.857974548339843,-3.732503295898437,1.1216663208007813,0.03250922823254328,0.03823319365296421,0.013454745477298068,3.31494402885437,2019-06-20 16:46:47:191
9.851989135742187,-3.749262451171875,1.1360313110351563,0.03237607017803931,0.03823319365296421,0.013188429368290141,3.3199360370635986,2019-06-20 16:46:47:196
9.877127868652343,-3.757642028808594,1.1599729614257812,0.03237607017803931,0.037966877543956286,0.012788955204778256,3.324928045272827,2019-06-20 16:46:47:201
9.866354125976562,-3.7121528930664063,1.1611700439453125,0.033041860450559124,0.03849950976197213,0.013188429368290141,3.3299200534820557,2019-06-20 16:46:47:206
9.872339538574218,-3.701379150390625,1.1671554565429687,0.03250922823254328,0.0392984580889959,0.014520009913329761,3.3350398540496826,2019-06-20 16:46:47:211
9.901069519042968,-3.7181383056640622,1.1037100830078124,0.03330817655956705,0.038765825870980056,0.01305527131378618,3.340031862258911,2019-06-20 16:46:47:216
9.877127868652343,-3.7337003784179688,1.0905421752929687,0.03250922823254328,0.0392984580889959,0.012655797150274295,3.3450238704681396,2019-06-20 16:46:47:221
9.850792053222657,-3.7097587280273436,1.0965275878906249,0.03344133461407101,0.038898983925484014,0.012788955204778256,3.350015878677368,2019-06-20 16:46:47:226
9.855580383300781,-3.7372916259765625,1.1001188354492186,0.03290870239605516,0.038100035598460244,0.012922113259282218,3.3550078868865967,2019-06-20 16:46:47:231
9.843609558105468,-3.7133499755859374,1.1408196411132812,0.031843437960023466,0.03836635170746817,0.013721061586305991,3.359999895095825,2019-06-20 16:46:47:236
9.853186218261719,-3.7265178833007813,1.1384254760742187,0.03290870239605516,0.03836635170746817,0.014919484076841646,3.3649919033050537,2019-06-20 16:46:47:241
9.868748291015624,-3.7277149658203124,1.14919921875,0.03317501850506309,0.03943161614349987,0.013454745477298068,3.3699839115142822,2019-06-20 16:46:47:246
9.889098693847655,-3.731306213378906,1.1168779907226563,0.03250922823254328,0.03943161614349987,0.012922113259282218,3.3749759197235107,2019-06-20 16:46:47:251
9.871142456054688,-3.7432770385742185,1.1049071655273437,0.033041860450559124,0.038765825870980056,0.014120535749817876,3.3799679279327393,2019-06-20 16:46:47:256
9.885507446289063,-3.7229266357421875,1.0977246704101562,0.033840808777582894,0.03903214197998798,0.013854219640809953,3.3849599361419678,2019-06-20 16:46:47:261
9.887901611328125,-3.70616748046875,1.1025130004882813,0.033041860450559124,0.03969793225250779,0.014120535749817876,3.3899519443511963,2019-06-20 16:46:47:266
9.868748291015624,-3.707364562988281,1.1049071655273437,0.032642386287047236,0.039964248361515714,0.014253693804321838,3.394943952560425,2019-06-20 16:46:47:271
9.869945373535156,-3.6965908203124997,1.1168779907226563,0.031843437960023466,0.040763196688539484,0.014786326022337684,3.3999359607696533,2019-06-20 16:46:47:276
9.837624145507812,-3.6798316650390626,1.134834228515625,0.03171027990551951,0.04049688057953156,0.014919484076841646,3.404927968978882,2019-06-20 16:46:47:281
9.851989135742187,-3.701379150390625,1.0917392578125,0.03171027990551951,0.039564774198003826,0.015318958240353535,3.4099199771881104,2019-06-20 16:46:47:286
9.866354125976562,-3.7253208007812497,1.1132867431640625,0.032242912123535354,0.04023056447052364,0.015984748512873345,3.414911985397339,2019-06-20 16:46:47:291
9.859171630859375,-3.74447412109375,1.12046923828125,0.0327755443415512,0.038100035598460244,0.015318958240353535,3.420032024383545,2019-06-20 16:46:47:296
9.886704528808593,-3.7121528930664063,1.12046923828125,0.03250922823254328,0.03836635170746817,0.014520009913329761,3.4250240325927734,2019-06-20 16:46:47:301
9.872339538574218,-3.720532470703125,1.1073013305664061,0.03250922823254328,0.0403637225250276,0.014786326022337684,3.430016040802002,2019-06-20 16:46:47:306
9.872339538574218,-3.732503295898437,1.1096954956054688,0.0327755443415512,0.03943161614349987,0.016117906567377306,3.4350080490112305,2019-06-20 16:46:47:311
9.847200805664063,-3.7133499755859374,1.0857538452148436,0.03237607017803931,0.0392984580889959,0.015452116294857496,3.440000057220459,2019-06-20 16:46:47:316
9.856777465820313,-3.707364562988281,1.1049071655273437,0.03197659601452743,0.039564774198003826,0.013987377695313915,3.4449920654296875,2019-06-20 16:46:47:321
9.87353662109375,-3.7289120483398435,1.1432138061523438,0.03197659601452743,0.039964248361515714,0.013987377695313915,3.449984073638916,2019-06-20 16:46:47:326
9.868748291015624,-3.7085616455078125,1.1216663208007813,0.0327755443415512,0.0403637225250276,0.014786326022337684,3.4549760818481445,2019-06-20 16:46:47:331
9.850792053222657,-3.7145470581054685,1.1515933837890624,0.032242912123535354,0.04023056447052364,0.01358790353180203,3.459968090057373,2019-06-20 16:46:47:336
9.83522998046875,-3.716941223144531,1.1300458984375,0.031177647687503654,0.03983109030701175,0.013987377695313915,3.4649598598480225,2019-06-20 16:46:47:341
9.848397888183593,-3.7001820678710935,1.1336371459960937,0.03237607017803931,0.038898983925484014,0.013721061586305991,3.469951868057251,2019-06-20 16:46:47:346
9.844806640625,-3.7277149658203124,1.1288488159179688,0.03344133461407101,0.04102951279754741,0.014786326022337684,3.4749438762664795,2019-06-20 16:46:47:351
9.848397888183593,-3.7408828735351562,1.1180750732421876,0.03344133461407101,0.039564774198003826,0.013721061586305991,3.479935884475708,2019-06-20 16:46:47:356
9.84600372314453,-3.720532470703125,1.1360313110351563,0.03344133461407101,0.03836635170746817,0.013987377695313915,3.4849278926849365,2019-06-20 16:46:47:361
9.838821228027344,-3.7241237182617186,1.1228634033203124,0.034506599050102706,0.03863266781647609,0.013321587422794106,3.489919900894165,2019-06-20 16:46:47:366
9.850792053222657,-3.720532470703125,1.0905421752929687,0.03344133461407101,0.03849950976197213,0.01358790353180203,3.4949119091033936,2019-06-20 16:46:47:371
9.861565795898438,-3.707364562988281,1.106104248046875,0.033041860450559124,0.038898983925484014,0.01305527131378618,3.5000319480895996,2019-06-20 16:46:47:376
9.880719116210937,-3.731306213378906,1.1025130004882813,0.03330817655956705,0.0392984580889959,0.013188429368290141,3.505023956298828,2019-06-20 16:46:47:381
9.847200805664063,-3.7384887084960936,1.0989217529296875,0.03237607017803931,0.0392984580889959,0.014786326022337684,3.5100159645080566,2019-06-20 16:46:47:386
9.867551208496094,-3.7432770385742185,1.110892578125,0.03250922823254328,0.03916530003449194,0.012522639095770333,3.515007972717285,2019-06-20 16:46:47:391
9.850792053222657,-3.7384887084960936,1.12046923828125,0.03250922823254328,0.0392984580889959,0.013188429368290141,3.5199999809265137,2019-06-20 16:46:47:396
9.843609558105468,-3.731306213378906,1.1456079711914062,0.03250922823254328,0.0392984580889959,0.013188429368290141,3.524991989135742,2019-06-20 16:46:47:401
9.837624145507812,-3.7348974609375,1.1073013305664061,0.033041860450559124,0.0392984580889959,0.013454745477298068,3.5299839973449707,2019-06-20 16:46:47:406
9.857974548339843,-3.76362744140625,1.1300458984375,0.03357449266857497,0.03903214197998798,0.012788955204778256,3.534976005554199,2019-06-20 16:46:47:411
9.87353662109375,-3.74447412109375,1.0893450927734374,0.033041860450559124,0.04023056447052364,0.013854219640809953,3.5399680137634277,2019-06-20 16:46:47:416
9.8639599609375,-3.702576232910156,1.0905421752929687,0.03397396683208686,0.03836635170746817,0.012389481041266371,3.5449600219726562,2019-06-20 16:46:47:421
9.878324951171875,-3.7193353881835938,1.1049071655273437,0.0327755443415512,0.03849950976197213,0.012922113259282218,3.5499520301818848,2019-06-20 16:46:47:426
9.87473370361328,-3.730109130859375,1.0761771850585937,0.03437344099559874,0.038898983925484014,0.01305527131378618,3.5549440383911133,2019-06-20 16:46:47:431
9.868748291015624,-3.731306213378906,1.1049071655273437,0.033707650723078936,0.03943161614349987,0.012788955204778256,3.559936046600342,2019-06-20 16:46:47:436
9.844806640625,-3.736094543457031,1.1228634033203124,0.03290870239605516,0.038765825870980056,0.011324216605234675,3.5649280548095703,2019-06-20 16:46:47:441
9.85438330078125,-3.7408828735351562,1.0941334228515625,0.03317501850506309,0.037966877543956286,0.012655797150274295,3.569920063018799,2019-06-20 16:46:47:446
9.8639599609375,-3.750459533691406,1.1324400634765626,0.03344133461407101,0.038100035598460244,0.011856848823250525,3.5749120712280273,2019-06-20 16:46:47:451
9.8639599609375,-3.70616748046875,1.1001188354492186,0.0327755443415512,0.037966877543956286,0.012788955204778256,3.5800318717956543,2019-06-20 16:46:47:456
9.872339538574218,-3.7289120483398435,1.1216663208007813,0.03330817655956705,0.03903214197998798,0.012788955204778256,3.585023880004883,2019-06-20 16:46:47:461
9.857974548339843,-3.7265178833007813,1.10131591796875,0.033840808777582894,0.038765825870980056,0.014120535749817876,3.5900158882141113,2019-06-20 16:46:47:466
9.865157043457032,-3.6858170776367185,1.1096954956054688,0.033840808777582894,0.03849950976197213,0.01305527131378618,3.59500789642334,2019-06-20 16:46:47:471
9.886704528808593,-3.7121528930664063,1.1503963012695313,0.03344133461407101,0.038765825870980056,0.01225632298676241,3.5999999046325684,2019-06-20 16:46:47:476
9.857974548339843,-3.701379150390625,1.1408196411132812,0.034506599050102706,0.0392984580889959,0.012788955204778256,3.604991912841797,2019-06-20 16:46:47:481
9.877127868652343,-3.6750433349609373,1.1228634033203124,0.03397396683208686,0.039964248361515714,0.012389481041266371,3.6099839210510254,2019-06-20 16:46:47:486
9.895084106445312,-3.6965908203124997,1.1324400634765626,0.033707650723078936,0.039564774198003826,0.012655797150274295,3.614975929260254,2019-06-20 16:46:47:491
9.850792053222657,-3.7097587280273436,1.0905421752929687,0.032642386287047236,0.038898983925484014,0.012123164932258448,3.6199679374694824,2019-06-20 16:46:47:496
9.865157043457032,-3.7181383056640622,1.1671554565429687,0.03210975406903139,0.03903214197998798,0.013454745477298068,3.624959945678711,2019-06-20 16:46:47:501
9.861565795898438,-3.7001820678710935,1.134834228515625,0.031843437960023466,0.03969793225250779,0.014520009913329761,3.6299519538879395,2019-06-20 16:46:47:506
9.843609558105468,-3.70616748046875,1.1300458984375,0.03250922823254328,0.04009740641601968,0.014120535749817876,3.634943962097168,2019-06-20 16:46:47:511
9.849594970703125,-3.7133499755859374,1.1228634033203124,0.03330817655956705,0.03916530003449194,0.014520009913329761,3.6399359703063965,2019-06-20 16:46:47:516
9.856777465820313,-3.7121528930664063,1.1132867431640625,0.03250922823254328,0.03969793225250779,0.014919484076841646,3.644927978515625,2019-06-20 16:46:47:521
9.859171630859375,-3.7109558105468747,1.1527904663085937,0.03317501850506309,0.03916530003449194,0.014520009913329761,3.6499199867248535,2019-06-20 16:46:47:526
9.853186218261719,-3.7229266357421875,1.14919921875,0.032642386287047236,0.038898983925484014,0.013987377695313915,3.654911994934082,2019-06-20 16:46:47:531
9.878324951171875,-3.7109558105468747,1.1037100830078124,0.03317501850506309,0.039564774198003826,0.014653167967833723,3.660032033920288,2019-06-20 16:46:47:536
9.878324951171875,-3.7241237182617186,1.0905421752929687,0.03237607017803931,0.03863266781647609,0.015851590458369383,3.6650240421295166,2019-06-20 16:46:47:541
9.87473370361328,-3.7265178833007813,1.0701917724609376,0.031843437960023466,0.03916530003449194,0.015585274349361458,3.670016050338745,2019-06-20 16:46:47:546
9.869945373535156,-3.707364562988281,1.0809655151367188,0.031443963796511584,0.03863266781647609,0.015585274349361458,3.6750080585479736,2019-06-20 16:46:47:551
9.867551208496094,-3.70616748046875,1.0749801025390624,0.03091133157849573,0.04089635474304345,0.015452116294857496,3.680000066757202,2019-06-20 16:46:47:556
9.860368713378906,-3.6941966552734375,1.106104248046875,0.032642386287047236,0.04169530307006722,0.01571843240386542,3.6849920749664307,2019-06-20 16:46:47:561
9.875930786132812,-3.7265178833007813,1.13962255859375,0.03290870239605516,0.04102951279754741,0.01571843240386542,3.689984083175659,2019-06-20 16:46:47:566
9.862762878417968,-3.7109558105468747,1.1240604858398437,0.03197659601452743,0.03969793225250779,0.015585274349361458,3.6949758529663086,2019-06-20 16:46:47:571
9.8639599609375,-3.707364562988281,1.1216663208007813,0.032242912123535354,0.03983109030701175,0.015452116294857496,3.699967861175537,2019-06-20 16:46:47:576
9.836427062988282,-3.7121528930664063,1.1049071655273437,0.03344133461407101,0.03916530003449194,0.016117906567377306,3.7049598693847656,2019-06-20 16:46:47:581
9.84600372314453,-3.715744140625,1.1276517333984375,0.03317501850506309,0.039564774198003826,0.016783696839897114,3.709951877593994,2019-06-20 16:46:47:586
9.856777465820313,-3.715744140625,1.110892578125,0.03131080574200762,0.0392984580889959,0.017183171003409,3.7149438858032227,2019-06-20 16:46:47:591
9.844806640625,-3.720532470703125,1.1659583740234374,0.031443963796511584,0.03863266781647609,0.016916854894401076,3.719935894012451,2019-06-20 16:46:47:596
