ACCELEROMETER X (m/s²),ACCELEROMETER Y (m/s²),ACCELEROMETER Z (m/s²),GYROSCOPE X (rad/s),GYROSCOPE Y (rad/s),GYROSCOPE Z (rad/s),Time since start in ms ,YYYY-MO-DD HH-MI-SS_SSS
7.5547877807617185,7.142991394042968,0.18554779052734374,0.018261316400619353,0.034504768126853276,0.03888793596814939,0.0,2019-06-20 14:47:17:456
7.623021484375,7.137005981445312,0.1699857177734375,0.018394474455123315,0.034637926181357234,0.03635793293257412,0.0048639774322509766,2019-06-20 14:47:17:461
7.588306091308594,7.133414733886719,0.1723798828125,0.022122899981234248,0.03690161310792459,0.03515951044203846,0.009984016418457031,2019-06-20 14:47:17:466
7.587109008789063,7.108276000976562,0.19273028564453124,0.023454480526273865,0.03849950976197213,0.03276266338037254,0.014847993850708008,2019-06-20 14:47:17:471
7.547605285644531,7.0867285156249995,0.16280322265625,0.022122899981234248,0.037167929216932516,0.030765292562813115,0.019968032836914062,2019-06-20 14:47:17:476
7.589503173828125,7.1058818359375,0.1460440673828125,0.025585009398337258,0.03770056143494836,0.028767921745253687,0.02483201026916504,2019-06-20 14:47:17:481
7.581123596191406,7.062786865234375,0.15921197509765625,0.026383957725361028,0.03903214197998798,0.026770550927694255,0.029952049255371094,2019-06-20 14:47:17:486
7.511692810058594,7.093911010742187,0.1843507080078125,0.02744922216139272,0.0392984580889959,0.025039496219142754,0.03481602668762207,2019-06-20 14:47:17:491
7.572744018554688,7.091516845703125,0.158014892578125,0.029047118815440268,0.04102951279754741,0.022376335129063514,0.039936065673828125,2019-06-20 14:47:17:496
7.551196533203125,7.1465826416015625,0.2226573486328125,0.03250922823254328,0.04049688057953156,0.02117791263852786,0.0448000431060791,2019-06-20 14:47:17:501
7.563167358398437,7.09630517578125,0.1699857177734375,0.030245541305975922,0.041428986961059296,0.018248435439440696,0.049920082092285156,2019-06-20 14:47:17:506
7.470992004394531,7.152568054199219,0.18554779052734374,0.031443963796511584,0.04182846112457118,0.018248435439440696,0.05504012107849121,2019-06-20 14:47:17:511
7.494933654785156,7.157356384277343,0.14963531494140625,0.031044489632999692,0.04262740945159495,0.016251064621881268,0.05990409851074219,2019-06-20 14:47:17:516
7.484159912109375,7.190874694824219,0.19751861572265625,0.031843437960023466,0.04249425139709099,0.015318958240353535,0.06502413749694824,2019-06-20 14:47:17:521
7.457824096679687,7.247137573242187,0.11132867431640625,0.032642386287047236,0.0420947772335791,0.015452116294857496,0.06988811492919922,2019-06-20 14:47:17:526
7.486554077148437,7.272276306152343,0.14364990234375,0.03410712488659082,0.042361093342587024,0.015318958240353535,0.07500791549682617,2019-06-20 14:47:17:531
7.4817657470703125,7.235166748046875,0.16639447021484374,0.03477291515911063,0.04102951279754741,0.015318958240353535,0.07987213134765625,2019-06-20 14:47:17:536
7.487751159667969,7.275867553710937,0.18315362548828124,0.03503923126811855,0.04102951279754741,0.015318958240353535,0.0849919319152832,2019-06-20 14:47:17:541
7.49852490234375,7.293823791503906,0.18315362548828124,0.03344133461407101,0.042361093342587024,0.017050012948905038,0.08985614776611328,2019-06-20 14:47:17:546
7.485356994628906,7.253122985839844,0.1508323974609375,0.03344133461407101,0.04196161917907514,0.017449487112416926,0.09497594833374023,2019-06-20 14:47:17:551
7.474583251953125,7.2483346557617185,0.13766448974609374,0.03330817655956705,0.040763196688539484,0.01864790960295258,0.09983992576599121,2019-06-20 14:47:17:556
7.503313232421875,7.271079223632812,0.16160614013671876,0.03437344099559874,0.040630038634035526,0.021044754584023898,0.10495996475219727,2019-06-20 14:47:17:561
7.4961307373046875,7.195663024902344,0.22385443115234374,0.03410712488659082,0.04089635474304345,0.021444228747535782,0.10982394218444824,2019-06-20 14:47:17:566
7.482962829589844,7.202845520019531,0.1723798828125,0.03597133764964629,0.04102951279754741,0.020911596529519936,0.1149439811706543,2019-06-20 14:47:17:571
7.4889482421875,7.19207177734375,0.1699857177734375,0.038101866521709674,0.040630038634035526,0.021843702911047667,0.11980795860290527,2019-06-20 14:47:17:576
7.497327819824219,7.170524291992187,0.20470111083984374,0.03823502457621364,0.04089635474304345,0.02290896734707936,0.12492799758911133,2019-06-20 14:47:17:581
7.526057800292969,7.2040426025390625,0.22385443115234374,0.04089818566629288,0.041562145015563254,0.023175283456087284,0.13004803657531738,2019-06-20 14:47:17:586
7.503313232421875,7.188480529785156,0.1939273681640625,0.04369450481087608,0.04249425139709099,0.022243177074559552,0.13491201400756836,2019-06-20 14:47:17:591
7.5104957275390625,7.1609476318359375,0.15921197509765625,0.04475976924690778,0.0420947772335791,0.020378964311504086,0.14003205299377441,2019-06-20 14:47:17:596
7.502116149902344,7.170524291992187,0.215474853515625,0.04595819173744343,0.04249425139709099,0.019313699875472393,0.1448960304260254,2019-06-20 14:47:17:601
7.4961307373046875,7.1753126220703125,0.21906610107421876,0.04768924644599493,0.04129582890655533,0.020112648202496163,0.15001606941223145,2019-06-20 14:47:17:606
7.499721984863281,7.170524291992187,0.20948944091796876,0.05088503975409001,0.043426357778618724,0.01918054182096843,0.15488004684448242,2019-06-20 14:47:17:611
7.494933654785156,7.154962219238281,0.1508323974609375,0.051683988081113796,0.04515741248717022,0.01918054182096843,0.16000008583068848,2019-06-20 14:47:17:616
7.449444519042968,7.180100952148437,0.14724114990234374,0.05288241057164945,0.044624780269154375,0.018381593493944658,0.16486406326293945,2019-06-20 14:47:17:621
7.473386169433594,7.196860107421875,0.12090533447265625,0.05221662029912964,0.043426357778618724,0.01864790960295258,0.1699841022491455,2019-06-20 14:47:17:626
7.49852490234375,7.251925903320313,0.1508323974609375,0.050751881699586054,0.044092148051138536,0.01918054182096843,0.17484807968139648,2019-06-20 14:47:17:631
7.5104957275390625,7.224393005371094,0.04788330078125,0.051817146135617755,0.04329319972411476,0.01851475154844862,0.17996811866760254,2019-06-20 14:47:17:636
7.457824096679687,7.229181335449218,0.071824951171875,0.054080833062185106,0.0448910963781623,0.01904738376646447,0.18483209609985352,2019-06-20 14:47:17:641
7.425502868652344,7.265093811035156,0.07302203369140625,0.05048556559057813,0.04569004470518608,0.020512122366008047,0.18995213508605957,2019-06-20 14:47:17:646
7.435079528808593,7.302203369140625,0.0311241455078125,0.05141767197210587,0.04382583194213061,0.02290896734707936,0.19481611251831055,2019-06-20 14:47:17:651
7.470992004394531,7.3345245971679685,-0.01795623779296875,0.050751881699586054,0.04369267388762665,0.023841073728607096,0.1999359130859375,2019-06-20 14:47:17:656
7.432685363769531,7.292626708984375,0.01077374267578125,0.04475976924690778,0.04169530307006722,0.025971602600670485,0.20480012893676758,2019-06-20 14:47:17:661
7.4386707763671875,7.273473388671875,0.02872998046875,0.039966079284765144,0.04182846112457118,0.028368447581741802,0.20991992950439453,2019-06-20 14:47:17:666
7.472189086914062,7.254320068359375,0.061051208496093745,0.03983292123026118,0.04169530307006722,0.028767921745253687,0.21503996849060059,2019-06-20 14:47:17:671
7.4817657470703125,7.257911315917968,0.07661328125,0.03930028901224533,0.0420947772335791,0.030232660344797265,0.21990394592285156,2019-06-20 14:47:17:676
7.475780334472656,7.293823791503906,0.07421911621093749,0.038767656794229485,0.04276056750609891,0.03209687310785273,0.22502398490905762,2019-06-20 14:47:17:681
7.445853271484375,7.322553771972656,0.11611700439453125,0.03903397290323741,0.04249425139709099,0.03342845365289235,0.2298879623413086,2019-06-20 14:47:17:686
7.472189086914062,7.24953173828125,0.15921197509765625,0.03677028597667006,0.04089635474304345,0.0328958214348765,0.23500800132751465,2019-06-20 14:47:17:691
7.456627014160156,7.231575500488281,0.0790074462890625,0.034506599050102706,0.04009740641601968,0.03436056003442009,0.23987197875976562,2019-06-20 14:47:17:696
7.473386169433594,7.201648437499999,0.11252575683593749,0.03490607321361459,0.0392984580889959,0.035026352387534494,0.24499201774597168,2019-06-20 14:47:17:701
7.482962829589844,7.193268859863281,0.138861572265625,0.03637081181315817,0.03849950976197213,0.035825300714558264,0.24985599517822266,2019-06-20 14:47:17:706
7.505707397460937,7.216013427734375,0.12569366455078124,0.034639757104606664,0.04023056447052364,0.036091616823566194,0.2549760341644287,2019-06-20 14:47:17:711
7.487751159667969,7.236363830566406,0.08738702392578125,0.034506599050102706,0.04089635474304345,0.036091616823566194,0.2598400115966797,2019-06-20 14:47:17:716
7.478174499511718,7.227984252929687,0.14245281982421876,0.03543870543163044,0.0392984580889959,0.036890565150589964,0.26496005058288574,2019-06-20 14:47:17:721
7.5104957275390625,7.2208017578125,0.07302203369140625,0.03237607017803931,0.03903214197998798,0.03795582958662166,0.2698240280151367,2019-06-20 14:47:17:726
7.5104957275390625,7.190874694824219,0.0790074462890625,0.031044489632999692,0.03849950976197213,0.03795582958662166,0.2749440670013428,2019-06-20 14:47:17:731
7.514086975097656,7.200451354980468,0.0885841064453125,0.031843437960023466,0.039564774198003826,0.03742319736860581,0.27980804443359375,2019-06-20 14:47:17:736
7.504510314941406,7.210028015136719,0.11851116943359374,0.03197659601452743,0.038765825870980056,0.03702372320509393,0.2849280834197998,2019-06-20 14:47:17:741
7.4817657470703125,7.21122509765625,0.07062786865234374,0.031843437960023466,0.03916530003449194,0.036757407096086006,0.29004812240600586,2019-06-20 14:47:17:746
7.522466552734375,7.242349243164062,0.05865704345703125,0.031177647687503654,0.04009740641601968,0.03822214569562958,0.29491209983825684,2019-06-20 14:47:17:751
7.520072387695312,7.219604675292969,0.08978118896484374,0.029446592978952153,0.0392984580889959,0.03702372320509393,0.3000321388244629,2019-06-20 14:47:17:756
7.53683154296875,7.206436767578125,0.100554931640625,0.027848696324904613,0.038765825870980056,0.03729003931410185,0.30489611625671387,2019-06-20 14:47:17:761
7.511692810058594,7.21122509765625,0.0598541259765625,0.028115012433912536,0.038898983925484014,0.03715688125959789,0.3100159168243408,2019-06-20 14:47:17:766
7.557181945800781,7.196860107421875,0.06583953857421875,0.029712909087960076,0.03903214197998798,0.035692142660054306,0.3148801326751709,2019-06-20 14:47:17:771
7.539225708007812,7.170524291992187,0.10893450927734374,0.029047118815440268,0.03823319365296421,0.03622477487807015,0.31999993324279785,2019-06-20 14:47:17:776
7.5272548828125,7.1824951171875,0.1268907470703125,0.029579751033456114,0.03916530003449194,0.03635793293257412,0.32486414909362793,2019-06-20 14:47:17:781
7.559576110839844,7.165735961914062,0.1340732421875,0.028780802706432344,0.04009740641601968,0.03436056003442009,0.3299839496612549,2019-06-20 14:47:17:786
7.564364440917968,7.157356384277343,0.081401611328125,0.028780802706432344,0.03903214197998798,0.03342845365289235,0.33484792709350586,2019-06-20 14:47:17:791
7.566758605957031,7.1753126220703125,0.12449658203125,0.027582380215896683,0.03823319365296421,0.03382792781640424,0.3399679660797119,2019-06-20 14:47:17:796
7.577532348632812,7.142991394042968,0.19512445068359374,0.027848696324904613,0.04009740641601968,0.0328958214348765,0.3448319435119629,2019-06-20 14:47:17:801
7.5691527709960935,7.154962219238281,0.1556207275390625,0.028647644651928383,0.04089635474304345,0.031164766726325004,0.34995198249816895,2019-06-20 14:47:17:806
7.570349853515625,7.139400146484375,0.1556207275390625,0.029047118815440268,0.04169530307006722,0.030498976453805192,0.3548159599304199,2019-06-20 14:47:17:811
7.530846130371094,7.119049743652344,0.14245281982421876,0.02918027686994423,0.04249425139709099,0.030632134508309154,0.359935998916626,2019-06-20 14:47:17:816
7.561970275878906,7.148976806640625,0.1173140869140625,0.029712909087960076,0.04182846112457118,0.028634763690749725,0.36479997634887695,2019-06-20 14:47:17:821
7.582320678710937,7.163341796875,0.138861572265625,0.031044489632999692,0.0420947772335791,0.028368447581741802,0.369920015335083,2019-06-20 14:47:17:826
7.5655615234375,7.128626403808593,0.114919921875,0.032642386287047236,0.042361093342587024,0.027170025091206144,0.37504005432128906,2019-06-20 14:47:17:831
7.561970275878906,7.1166555786132815,0.1268907470703125,0.03317501850506309,0.04249425139709099,0.026770550927694255,0.37990403175354004,2019-06-20 14:47:17:836
7.541619873046875,7.1609476318359375,0.10893450927734374,0.0327755443415512,0.04262740945159495,0.025971602600670485,0.3850240707397461,2019-06-20 14:47:17:841
7.549999450683593,7.176509704589844,0.09696368408203125,0.03237607017803931,0.040763196688539484,0.025705286491662562,0.38988804817199707,2019-06-20 14:47:17:846
7.559576110839844,7.199254272460937,0.14245281982421876,0.032642386287047236,0.04102951279754741,0.0255721284371586,0.3950080871582031,2019-06-20 14:47:17:851
7.5404227905273435,7.194465942382812,0.1460440673828125,0.03357449266857497,0.041428986961059296,0.02477318011013483,0.3998720645904541,2019-06-20 14:47:17:856
7.544014038085938,7.19207177734375,0.10654034423828125,0.03330817655956705,0.04196161917907514,0.02477318011013483,0.40499210357666016,2019-06-20 14:47:17:861
7.511692810058594,7.171721374511718,0.090978271484375,0.03410712488659082,0.04196161917907514,0.02623791870967841,0.40985608100891113,2019-06-20 14:47:17:866
7.528451965332031,7.159750549316406,0.1077374267578125,0.03397396683208686,0.04249425139709099,0.025305812328150677,0.4149761199951172,2019-06-20 14:47:17:871
7.5248607177734375,7.159750549316406,0.12808782958984374,0.03290870239605516,0.042227935288083066,0.024373705946622946,0.41984009742736816,2019-06-20 14:47:17:876
7.506904479980468,7.184889282226562,0.15442364501953124,0.031443963796511584,0.04196161917907514,0.023841073728607096,0.4249601364135742,2019-06-20 14:47:17:881
7.520072387695312,7.196860107421875,0.119708251953125,0.03237607017803931,0.041428986961059296,0.024240547892118984,0.4298241138458252,2019-06-20 14:47:17:886
7.504510314941406,7.210028015136719,0.13287615966796876,0.03171027990551951,0.04102951279754741,0.02543897038265464,0.43494391441345215,2019-06-20 14:47:17:891
7.505707397460937,7.198057189941406,0.14364990234375,0.03157712185101554,0.03983109030701175,0.026104760655174447,0.4398081302642822,2019-06-20 14:47:17:896
7.503313232421875,7.200451354980468,0.10534326171875,0.03091133157849573,0.04009740641601968,0.025838444546166524,0.4449279308319092,2019-06-20 14:47:17:901
7.515284057617188,7.196860107421875,0.12928491210937498,0.03011238325147196,0.038765825870980056,0.02623791870967841,0.45004796981811523,2019-06-20 14:47:17:906
7.528451965332031,7.21122509765625,0.1173140869140625,0.030645015469487807,0.03943161614349987,0.026104760655174447,0.4549119472503662,2019-06-20 14:47:17:911
7.520072387695312,7.177706787109375,0.12329949951171874,0.029846067142464038,0.03916530003449194,0.026104760655174447,0.46003198623657227,2019-06-20 14:47:17:916
7.542816955566406,7.177706787109375,0.11132867431640625,0.029979225196968,0.03849950976197213,0.02690370898219822,0.46489596366882324,2019-06-20 14:47:17:921
7.506904479980468,7.206436767578125,0.10414617919921874,0.029579751033456114,0.038898983925484014,0.025971602600670485,0.4700160026550293,2019-06-20 14:47:17:926
7.509298645019531,7.195663024902344,0.09935784912109374,0.028780802706432344,0.039564774198003826,0.026504234818686332,0.4748799800872803,2019-06-20 14:47:17:931
7.500919067382812,7.184889282226562,0.100554931640625,0.028248170488416498,0.03969793225250779,0.027036867036702182,0.48000001907348633,2019-06-20 14:47:17:936
7.529649047851563,7.190874694824219,0.14005865478515625,0.028913960760936306,0.03690161310792459,0.026504234818686332,0.4848639965057373,2019-06-20 14:47:17:941
7.512889892578125,7.186086364746093,0.14843823242187498,0.02838132854292046,0.036502138944412704,0.027968973418229917,0.48998403549194336,2019-06-20 14:47:17:946
7.503313232421875,7.1896776123046875,0.1939273681640625,0.02851448659742442,0.03703477116242855,0.028634763690749725,0.49484801292419434,2019-06-20 14:47:17:951
7.521269470214843,7.1441884765624994,0.17357696533203124,0.029047118815440268,0.03743424532594044,0.02756949925471803,0.4999680519104004,2019-06-20 14:47:17:956
7.506904479980468,7.184889282226562,0.1723798828125,0.029446592978952153,0.03743424532594044,0.027968973418229917,0.5048320293426514,2019-06-20 14:47:17:961
7.502116149902344,7.1896776123046875,0.1364674072265625,0.029712909087960076,0.03703477116242855,0.02823528952723784,0.5099520683288574,2019-06-20 14:47:17:966
7.521269470214843,7.195663024902344,0.1508323974609375,0.027848696324904613,0.038898983925484014,0.028767921745253687,0.5148160457611084,2019-06-20 14:47:17:971
7.534437377929687,7.176509704589844,0.1460440673828125,0.028780802706432344,0.0375674033804444,0.029566870072277457,0.5199360847473145,2019-06-20 14:47:17:976
7.511692810058594,7.166933044433594,0.1508323974609375,0.029047118815440268,0.037301087271436474,0.02983318618128538,0.5248000621795654,2019-06-20 14:47:17:981
7.520072387695312,7.168130126953125,0.1268907470703125,0.028647644651928383,0.037167929216932516,0.028501605636245764,0.5299201011657715,2019-06-20 14:47:17:986
7.529649047851563,7.172918457031249,0.11851116943359374,0.02851448659742442,0.036502138944412704,0.027968973418229917,0.5350401401519775,2019-06-20 14:47:17:991
7.553590698242187,7.159750549316406,0.1364674072265625,0.028647644651928383,0.0375674033804444,0.028634763690749725,0.5399041175842285,2019-06-20 14:47:17:996
7.53683154296875,7.169327209472656,0.14484698486328124,0.02838132854292046,0.038100035598460244,0.02890107979975765,0.5450239181518555,2019-06-20 14:47:18:001
7.549999450683593,7.15376513671875,0.14364990234375,0.029047118815440268,0.03690161310792459,0.029433712017773495,0.5498881340026855,2019-06-20 14:47:18:006
7.533240295410156,7.128626403808593,0.1460440673828125,0.028780802706432344,0.03676845505342063,0.02823528952723784,0.5550079345703125,2019-06-20 14:47:18:011
7.53683154296875,7.145385559082031,0.1699857177734375,0.029446592978952153,0.0375674033804444,0.029167395908765572,0.5598721504211426,2019-06-20 14:47:18:016
7.535634460449218,7.181298034667969,0.1268907470703125,0.030645015469487807,0.03770056143494836,0.030498976453805192,0.5649919509887695,2019-06-20 14:47:18:021
7.552393615722656,7.1753126220703125,0.1316790771484375,0.03091133157849573,0.03770056143494836,0.02890107979975765,0.5698559284210205,2019-06-20 14:47:18:026
7.558379028320313,7.162144714355469,0.16759155273437498,0.03210975406903139,0.03770056143494836,0.02970002812678142,0.5749759674072266,2019-06-20 14:47:18:031
7.559576110839844,7.1824951171875,0.1532265625,0.031843437960023466,0.037966877543956286,0.029433712017773495,0.5798399448394775,2019-06-20 14:47:18:036
7.549999450683593,7.166933044433594,0.1316790771484375,0.03131080574200762,0.037966877543956286,0.029566870072277457,0.5849599838256836,2019-06-20 14:47:18:041
7.564364440917968,7.159750549316406,0.12090533447265625,0.031443963796511584,0.03783371948945232,0.029566870072277457,0.5898239612579346,2019-06-20 14:47:18:046
7.559576110839844,7.147779724121094,0.114919921875,0.031843437960023466,0.038100035598460244,0.029433712017773495,0.5949440002441406,2019-06-20 14:47:18:051
7.548802368164062,7.171721374511718,0.119708251953125,0.03171027990551951,0.03863266781647609,0.029300553963269534,0.5998079776763916,2019-06-20 14:47:18:056
7.552393615722656,7.169327209472656,0.11252575683593749,0.0327755443415512,0.03916530003449194,0.029566870072277457,0.6049280166625977,2019-06-20 14:47:18:061
7.546408203125,7.170524291992187,0.12210241699218749,0.03330817655956705,0.03916530003449194,0.029566870072277457,0.6100480556488037,2019-06-20 14:47:18:066
7.570349853515625,7.184889282226562,0.09217535400390625,0.033840808777582894,0.03983109030701175,0.028767921745253687,0.6149120330810547,2019-06-20 14:47:18:071
7.564364440917968,7.186086364746093,0.10294909667968749,0.03477291515911063,0.03863266781647609,0.028634763690749725,0.6200320720672607,2019-06-20 14:47:18:076
7.564364440917968,7.180100952148437,0.15921197509765625,0.03517238932262252,0.0392984580889959,0.029433712017773495,0.6248960494995117,2019-06-20 14:47:18:081
7.578729431152343,7.156159301757812,0.15921197509765625,0.034639757104606664,0.04102951279754741,0.02890107979975765,0.6300160884857178,2019-06-20 14:47:18:086
7.5691527709960935,7.165735961914062,0.1460440673828125,0.03543870543163044,0.040630038634035526,0.02903423785426161,0.6348800659179688,2019-06-20 14:47:18:091
7.547605285644531,7.165735961914062,0.1173140869140625,0.03543870543163044,0.041562145015563254,0.030232660344797265,0.6400001049041748,2019-06-20 14:47:18:096
7.526057800292969,7.166933044433594,0.13287615966796876,0.0366371279221661,0.04129582890655533,0.028767921745253687,0.6448640823364258,2019-06-20 14:47:18:101
7.529649047851563,7.162144714355469,0.13048199462890625,0.03623765375865421,0.040763196688539484,0.029433712017773495,0.6499841213226318,2019-06-20 14:47:18:106
7.5547877807617185,7.158553466796874,0.08379577636718749,0.03597133764964629,0.04049688057953156,0.028368447581741802,0.6548480987548828,2019-06-20 14:47:18:111
7.55598486328125,7.181298034667969,0.08259869384765625,0.03477291515911063,0.040763196688539484,0.02810213147273388,0.6599681377410889,2019-06-20 14:47:18:116
7.560773193359375,7.176509704589844,0.0957666015625,0.03437344099559874,0.04196161917907514,0.028767921745253687,0.6648321151733398,2019-06-20 14:47:18:121
7.53683154296875,7.176509704589844,0.13048199462890625,0.0355718634861344,0.041428986961059296,0.027436341200214067,0.6699519157409668,2019-06-20 14:47:18:126
7.549999450683593,7.1609476318359375,0.114919921875,0.03583817959514232,0.04089635474304345,0.028501605636245764,0.6748161315917969,2019-06-20 14:47:18:131
7.545211120605469,7.163341796875,0.12808782958984374,0.03490607321361459,0.04089635474304345,0.02810213147273388,0.6799359321594238,2019-06-20 14:47:18:136
7.544014038085938,7.157356384277343,0.11132867431640625,0.03437344099559874,0.04129582890655533,0.028634763690749725,0.6848001480102539,2019-06-20 14:47:18:141
7.542816955566406,7.164538879394531,0.14364990234375,0.03503923126811855,0.04196161917907514,0.029167395908765572,0.6899199485778809,2019-06-20 14:47:18:146
7.547605285644531,7.172918457031249,0.09935784912109374,0.03517238932262252,0.041562145015563254,0.030632134508309154,0.6950399875640869,2019-06-20 14:47:18:151
7.558379028320313,7.165735961914062,0.12449658203125,0.03517238932262252,0.041562145015563254,0.029167395908765572,0.6999039649963379,2019-06-20 14:47:18:156
7.542816955566406,7.1609476318359375,0.119708251953125,0.03397396683208686,0.041562145015563254,0.02970002812678142,0.705024003982544,2019-06-20 14:47:18:161
7.549999450683593,7.163341796875,0.12329949951171874,0.033840808777582894,0.04102951279754741,0.029433712017773495,0.7098879814147949,2019-06-20 14:47:18:166
7.5655615234375,7.176509704589844,0.11611700439453125,0.033840808777582894,0.04009740641601968,0.030365818399301227,0.715008020401001,2019-06-20 14:47:18:171
7.567955688476562,7.141794311523437,0.1077374267578125,0.03344133461407101,0.04023056447052364,0.02970002812678142,0.719871997833252,2019-06-20 14:47:18:176
7.566758605957031,7.1322176513671875,0.0981607666015625,0.03330817655956705,0.04116267085205137,0.030632134508309154,0.724992036819458,2019-06-20 14:47:18:181
7.578729431152343,7.142991394042968,0.110131591796875,0.03330817655956705,0.04129582890655533,0.03129792478082896,0.729856014251709,2019-06-20 14:47:18:186
7.567955688476562,7.164538879394531,0.12569366455078124,0.032642386287047236,0.04196161917907514,0.03183055699884481,0.734976053237915,2019-06-20 14:47:18:191
7.546408203125,7.200451354980468,0.0957666015625,0.033041860450559124,0.0420947772335791,0.031564240889836885,0.739840030670166,2019-06-20 14:47:18:196
7.570349853515625,7.177706787109375,0.13048199462890625,0.031843437960023466,0.04182846112457118,0.03103160867182104,0.7449600696563721,2019-06-20 14:47:18:201
7.55598486328125,7.184889282226562,0.12210241699218749,0.031443963796511584,0.04129582890655533,0.03169739894434085,0.749824047088623,2019-06-20 14:47:18:206
7.570349853515625,7.157356384277343,0.100554931640625,0.031843437960023466,0.04089635474304345,0.03183055699884481,0.7549440860748291,2019-06-20 14:47:18:211
7.572744018554688,7.142991394042968,0.11372283935546874,0.0327755443415512,0.03983109030701175,0.030765292562813115,0.7598080635070801,2019-06-20 14:47:18:216
7.5547877807617185,7.142991394042968,0.12090533447265625,0.03210975406903139,0.04023056447052364,0.029566870072277457,0.7649281024932861,2019-06-20 14:47:18:221
7.5655615234375,7.122640991210937,0.119708251953125,0.031177647687503654,0.04009740641601968,0.030632134508309154,0.7700481414794922,2019-06-20 14:47:18:226
7.593094421386718,7.12503515625,0.1364674072265625,0.03077817352399177,0.03849950976197213,0.030099502290293303,0.7749121189117432,2019-06-20 14:47:18:231
7.5835177612304685,7.13461181640625,0.119708251953125,0.031443963796511584,0.03983109030701175,0.03143108283533293,0.7800319194793701,2019-06-20 14:47:18:236
7.578729431152343,7.138203063964844,0.11851116943359374,0.03077817352399177,0.040763196688539484,0.03129792478082896,0.7848961353302002,2019-06-20 14:47:18:241
7.573941101074219,7.168130126953125,0.12090533447265625,0.029979225196968,0.04023056447052364,0.030632134508309154,0.7900159358978271,2019-06-20 14:47:18:246
7.573941101074219,7.1322176513671875,0.14245281982421876,0.030245541305975922,0.039564774198003826,0.030632134508309154,0.7948799133300781,2019-06-20 14:47:18:251
7.588306091308594,7.157356384277343,0.13527032470703124,0.03077817352399177,0.0403637225250276,0.030232660344797265,0.7999999523162842,2019-06-20 14:47:18:256
7.566758605957031,7.158553466796874,0.14843823242187498,0.03091133157849573,0.039564774198003826,0.030765292562813115,0.8048639297485352,2019-06-20 14:47:18:261
7.572744018554688,7.147779724121094,0.09935784912109374,0.029979225196968,0.038765825870980056,0.030232660344797265,0.8099839687347412,2019-06-20 14:47:18:266
7.560773193359375,7.133414733886719,0.14963531494140625,0.029712909087960076,0.03836635170746817,0.030898450617317077,0.8148479461669922,2019-06-20 14:47:18:271
7.577532348632812,7.1441884765624994,0.16280322265625,0.029712909087960076,0.04009740641601968,0.03143108283533293,0.8199679851531982,2019-06-20 14:47:18:276
7.5835177612304685,7.138203063964844,0.12808782958984374,0.030245541305975922,0.040630038634035526,0.030099502290293303,0.8248319625854492,2019-06-20 14:47:18:281
7.563167358398437,7.128626403808593,0.08978118896484374,0.029979225196968,0.04049688057953156,0.029167395908765572,0.8299520015716553,2019-06-20 14:47:18:286
7.567955688476562,7.133414733886719,0.08499285888671874,0.030645015469487807,0.03863266781647609,0.028501605636245764,0.8348159790039062,2019-06-20 14:47:18:291
7.578729431152343,7.135808898925781,0.13766448974609374,0.031044489632999692,0.0375674033804444,0.028368447581741802,0.8399360179901123,2019-06-20 14:47:18:296
7.581123596191406,7.0879255981445315,0.13048199462890625,0.03157712185101554,0.03836635170746817,0.028767921745253687,0.8447999954223633,2019-06-20 14:47:18:301
7.558379028320313,7.103487670898438,0.07421911621093749,0.03171027990551951,0.038765825870980056,0.028501605636245764,0.8499200344085693,2019-06-20 14:47:18:306
7.58471484375,7.108276000976562,0.07661328125,0.03131080574200762,0.038765825870980056,0.02890107979975765,0.8550400733947754,2019-06-20 14:47:18:311
7.551196533203125,7.121443908691406,0.14005865478515625,0.030511857414983846,0.03983109030701175,0.029300553963269534,0.8599040508270264,2019-06-20 14:47:18:316
7.566758605957031,7.12503515625,0.11611700439453125,0.030645015469487807,0.04009740641601968,0.029966344235789342,0.8650240898132324,2019-06-20 14:47:18:321
7.589503173828125,7.1058818359375,0.114919921875,0.030645015469487807,0.04009740641601968,0.030099502290293303,0.8698880672454834,2019-06-20 14:47:18:326
7.611050659179687,7.133414733886719,0.13527032470703124,0.030511857414983846,0.03969793225250779,0.029167395908765572,0.8750081062316895,2019-06-20 14:47:18:331
7.600276916503906,7.123838073730469,0.1460440673828125,0.030245541305975922,0.04023056447052364,0.029566870072277457,0.8798720836639404,2019-06-20 14:47:18:336
7.564364440917968,7.1154584960937495,0.13048199462890625,0.03091133157849573,0.039964248361515714,0.029433712017773495,0.8849921226501465,2019-06-20 14:47:18:341
7.5691527709960935,7.107078918457031,0.1340732421875,0.030645015469487807,0.03916530003449194,0.028634763690749725,0.8898561000823975,2019-06-20 14:47:18:346
7.561970275878906,7.120246826171875,0.14724114990234374,0.030511857414983846,0.03903214197998798,0.028501605636245764,0.8949761390686035,2019-06-20 14:47:18:351
7.591897338867187,7.12503515625,0.15442364501953124,0.03237607017803931,0.038898983925484014,0.02903423785426161,0.8998401165008545,2019-06-20 14:47:18:356
7.621824401855468,7.110670166015625,0.1460440673828125,0.03344133461407101,0.03943161614349987,0.02890107979975765,0.9049599170684814,2019-06-20 14:47:18:361
7.608656494140625,7.120246826171875,0.1460440673828125,0.03250922823254328,0.03983109030701175,0.028501605636245764,0.9098241329193115,2019-06-20 14:47:18:366
7.579926513671875,7.122640991210937,0.13048199462890625,0.032642386287047236,0.03969793225250779,0.029300553963269534,0.9149439334869385,2019-06-20 14:47:18:371
7.5978827514648435,7.120246826171875,0.15202947998046876,0.03290870239605516,0.039964248361515714,0.028368447581741802,0.9198081493377686,2019-06-20 14:47:18:376
7.5978827514648435,7.109473083496094,0.1268907470703125,0.03237607017803931,0.04023056447052364,0.028501605636245764,0.9249279499053955,2019-06-20 14:47:18:381
7.609853576660156,7.109473083496094,0.1173140869140625,0.03237607017803931,0.04009740641601968,0.027702657309221994,0.9300479888916016,2019-06-20 14:47:18:386
7.5978827514648435,7.1154584960937495,0.1077374267578125,0.03250922823254328,0.03943161614349987,0.02690370898219822,0.9349119663238525,2019-06-20 14:47:18:391
7.58471484375,7.108276000976562,0.09337243652343749,0.0327755443415512,0.039964248361515714,0.025305812328150677,0.9400320053100586,2019-06-20 14:47:18:396
7.606262329101562,7.1022905883789065,0.0981607666015625,0.03317501850506309,0.03983109030701175,0.0255721284371586,0.9448959827423096,2019-06-20 14:47:18:401
7.6038681640625,7.141794311523437,0.119708251953125,0.03317501850506309,0.04049688057953156,0.02623791870967841,0.9500160217285156,2019-06-20 14:47:18:406
7.587109008789063,7.158553466796874,0.1532265625,0.03357449266857497,0.039964248361515714,0.02690370898219822,0.9548799991607666,2019-06-20 14:47:18:411
7.589503173828125,7.142991394042968,0.14005865478515625,0.033707650723078936,0.04049688057953156,0.027436341200214067,0.9600000381469727,2019-06-20 14:47:18:416
7.579926513671875,7.159750549316406,0.1412557373046875,0.03290870239605516,0.039564774198003826,0.027170025091206144,0.9648640155792236,2019-06-20 14:47:18:421
7.561970275878906,7.1298234863281245,0.12449658203125,0.03210975406903139,0.04023056447052364,0.02690370898219822,0.9699840545654297,2019-06-20 14:47:18:426
7.614641906738281,7.138203063964844,0.138861572265625,0.032242912123535354,0.04089635474304345,0.02690370898219822,0.9748480319976807,2019-06-20 14:47:18:431
7.578729431152343,7.119049743652344,0.158014892578125,0.03317501850506309,0.04116267085205137,0.026770550927694255,0.9799680709838867,2019-06-20 14:47:18:436
7.5835177612304685,7.1322176513671875,0.11132867431640625,0.03290870239605516,0.04089635474304345,0.028634763690749725,0.9848320484161377,2019-06-20 14:47:18:441
7.590700256347656,7.15376513671875,0.15202947998046876,0.0327755443415512,0.0403637225250276,0.027436341200214067,0.9899520874023438,2019-06-20 14:47:18:446
7.614641906738281,7.145385559082031,0.11851116943359374,0.03250922823254328,0.039564774198003826,0.02903423785426161,0.9948160648345947,2019-06-20 14:47:18:451
7.608656494140625,7.123838073730469,0.14364990234375,0.03317501850506309,0.0403637225250276,0.028634763690749725,0.9999361038208008,2019-06-20 14:47:18:456
7.601473999023438,7.13461181640625,0.12569366455078124,0.033041860450559124,0.039564774198003826,0.027702657309221994,1.0048000812530518,2019-06-20 14:47:18:461
7.596685668945312,7.117852661132813,0.10534326171875,0.0327755443415512,0.040630038634035526,0.027303183145710105,1.0099201202392578,2019-06-20 14:47:18:466
7.605065246582031,7.078348937988281,0.12928491210937498,0.03357449266857497,0.04009740641601968,0.027436341200214067,1.0150399208068848,2019-06-20 14:47:18:471
7.590700256347656,7.097502258300781,0.10294909667968749,0.032242912123535354,0.03943161614349987,0.026770550927694255,1.0199041366577148,2019-06-20 14:47:18:476
7.61344482421875,7.121443908691406,0.1077374267578125,0.03197659601452743,0.04023056447052364,0.027170025091206144,1.0250239372253418,2019-06-20 14:47:18:481
7.615838989257813,7.108276000976562,0.0981607666015625,0.03344133461407101,0.04009740641601968,0.027303183145710105,1.0298879146575928,2019-06-20 14:47:18:486
7.579926513671875,7.117852661132813,0.119708251953125,0.03344133461407101,0.0403637225250276,0.025838444546166524,1.0350079536437988,2019-06-20 14:47:18:491
7.582320678710937,7.113064331054687,0.12210241699218749,0.03437344099559874,0.04023056447052364,0.025838444546166524,1.0398719310760498,2019-06-20 14:47:18:496
7.576335266113281,7.1154584960937495,0.14005865478515625,0.03410712488659082,0.04009740641601968,0.026504234818686332,1.0449919700622559,2019-06-20 14:47:18:501
7.570349853515625,7.151370971679687,0.0790074462890625,0.03344133461407101,0.04102951279754741,0.02623791870967841,1.0498559474945068,2019-06-20 14:47:18:506
7.573941101074219,7.1465826416015625,0.11252575683593749,0.03317501850506309,0.04023056447052364,0.026504234818686332,1.054975986480713,2019-06-20 14:47:18:511
7.5978827514648435,7.135808898925781,0.114919921875,0.03317501850506309,0.04009740641601968,0.026637392873190294,1.0598399639129639,2019-06-20 14:47:18:516
7.6038681640625,7.138203063964844,0.119708251953125,0.033041860450559124,0.03983109030701175,0.026104760655174447,1.06496000289917,2019-06-20 14:47:18:521
7.59429150390625,7.150173889160156,0.10654034423828125,0.033041860450559124,0.04023056447052364,0.027303183145710105,1.069823980331421,2019-06-20 14:47:18:526
7.55598486328125,7.121443908691406,0.10414617919921874,0.03344133461407101,0.0403637225250276,0.027835815363725955,1.074944019317627,2019-06-20 14:47:18:531
7.600276916503906,7.122640991210937,0.07661328125,0.033840808777582894,0.039564774198003826,0.027303183145710105,1.079807996749878,2019-06-20 14:47:18:536
7.58471484375,7.128626403808593,0.09337243652343749,0.0327755443415512,0.03849950976197213,0.027303183145710105,1.084928035736084,2019-06-20 14:47:18:541
7.605065246582031,7.117852661132813,0.12210241699218749,0.031843437960023466,0.03969793225250779,0.02637107676418237,1.09004807472229,2019-06-20 14:47:18:546
7.606262329101562,7.138203063964844,0.1340732421875,0.03011238325147196,0.0392984580889959,0.02756949925471803,1.094912052154541,2019-06-20 14:47:18:551
7.58471484375,7.113064331054687,0.114919921875,0.03131080574200762,0.03943161614349987,0.027436341200214067,1.100032091140747,2019-06-20 14:47:18:556
7.58471484375,7.099896423339843,0.11132867431640625,0.03250922823254328,0.03943161614349987,0.02810213147273388,1.104896068572998,2019-06-20 14:47:18:561
7.605065246582031,7.084334350585937,0.1340732421875,0.03317501850506309,0.0392984580889959,0.027436341200214067,1.110016107559204,2019-06-20 14:47:18:566
7.61344482421875,7.12503515625,0.1460440673828125,0.03330817655956705,0.039564774198003826,0.027436341200214067,1.114880084991455,2019-06-20 14:47:18:571
7.611050659179687,7.1022905883789065,0.110131591796875,0.031843437960023466,0.04089635474304345,0.02623791870967841,1.1200001239776611,2019-06-20 14:47:18:576
7.593094421386718,7.074757690429688,0.12808782958984374,0.032642386287047236,0.039964248361515714,0.025971602600670485,1.124864101409912,2019-06-20 14:47:18:581
7.5978827514648435,7.113064331054687,0.14843823242187498,0.03237607017803931,0.038765825870980056,0.025971602600670485,1.1299841403961182,2019-06-20 14:47:18:586
7.58471484375,7.103487670898438,0.1340732421875,0.03131080574200762,0.03983109030701175,0.025838444546166524,1.1348481178283691,2019-06-20 14:47:18:591
7.609853576660156,7.098699340820312,0.12569366455078124,0.032242912123535354,0.0403637225250276,0.025305812328150677,1.139967918395996,2019-06-20 14:47:18:596
7.585911926269531,7.121443908691406,0.14005865478515625,0.03290870239605516,0.0403637225250276,0.025705286491662562,1.1448321342468262,2019-06-20 14:47:18:601
7.609853576660156,7.140597229003906,0.12329949951171874,0.032642386287047236,0.0403637225250276,0.025705286491662562,1.1499519348144531,2019-06-20 14:47:18:606
7.631401062011719,7.1310205688476564,0.1508323974609375,0.03250922823254328,0.040630038634035526,0.024240547892118984,1.1548161506652832,2019-06-20 14:47:18:611
7.611050659179687,7.126232238769531,0.12808782958984374,0.03210975406903139,0.039964248361515714,0.025039496219142754,1.1599359512329102,2019-06-20 14:47:18:616
7.591897338867187,7.111867248535156,0.1412557373046875,0.03237607017803931,0.03983109030701175,0.025172654273646716,1.1647999286651611,2019-06-20 14:47:18:621
7.590700256347656,7.128626403808593,0.11851116943359374,0.03210975406903139,0.040763196688539484,0.023574757619599172,1.1699199676513672,2019-06-20 14:47:18:626
7.600276916503906,7.107078918457031,0.1340732421875,0.03171027990551951,0.040630038634035526,0.023574757619599172,1.1750400066375732,2019-06-20 14:47:18:631
7.605065246582031,7.097502258300781,0.11372283935546874,0.031177647687503654,0.03969793225250779,0.024373705946622946,1.1799039840698242,2019-06-20 14:47:18:636
7.621824401855468,7.097502258300781,0.1604090576171875,0.03197659601452743,0.04009740641601968,0.02410738983761502,1.1850240230560303,2019-06-20 14:47:18:641
7.631401062011719,7.085531433105468,0.12808782958984374,0.032242912123535354,0.039964248361515714,0.02330844151059125,1.1898880004882812,2019-06-20 14:47:18:646
7.633795227050781,7.075954772949219,0.11132867431640625,0.03237607017803931,0.0403637225250276,0.023175283456087284,1.1950080394744873,2019-06-20 14:47:18:651
7.608656494140625,7.081940185546875,0.0981607666015625,0.03237607017803931,0.03969793225250779,0.023042125401583322,1.1998720169067383,2019-06-20 14:47:18:656
7.615838989257813,7.0879255981445315,0.11132867431640625,0.031443963796511584,0.0403637225250276,0.023042125401583322,1.2049920558929443,2019-06-20 14:47:18:661
7.624218566894531,7.07715185546875,0.13766448974609374,0.03237607017803931,0.04049688057953156,0.021577386802039744,1.2098560333251953,2019-06-20 14:47:18:666
7.617036071777344,7.1166555786132815,0.12329949951171874,0.033707650723078936,0.04009740641601968,0.020512122366008047,1.2149760723114014,2019-06-20 14:47:18:671
7.639780639648437,7.090319763183594,0.14724114990234374,0.03424028294109478,0.04009740641601968,0.021843702911047667,1.2198400497436523,2019-06-20 14:47:18:676
7.629006896972656,7.103487670898438,0.1268907470703125,0.031443963796511584,0.040763196688539484,0.021710544856543706,1.2249600887298584,2019-06-20 14:47:18:681
7.601473999023438,7.1010935058593745,0.14963531494140625,0.032642386287047236,0.03969793225250779,0.02117791263852786,1.2298240661621094,2019-06-20 14:47:18:686
7.627809814453125,7.123838073730469,0.10534326171875,0.03330817655956705,0.039564774198003826,0.020512122366008047,1.2349441051483154,2019-06-20 14:47:18:691
7.623021484375,7.084334350585937,0.138861572265625,0.03197659601452743,0.0392984580889959,0.01984633209348824,1.2398080825805664,2019-06-20 14:47:18:696
7.630203979492188,7.103487670898438,0.11372283935546874,0.03197659601452743,0.03969793225250779,0.019580015984480316,1.2449281215667725,2019-06-20 14:47:18:701
7.605065246582031,7.1022905883789065,0.13527032470703124,0.033041860450559124,0.039564774198003826,0.019713174038984278,1.2500479221343994,2019-06-20 14:47:18:706
7.619430236816406,7.123838073730469,0.13766448974609374,0.03237607017803931,0.038765825870980056,0.020512122366008047,1.2549121379852295,2019-06-20 14:47:18:711
7.6266127319335935,7.114261413574218,0.1508323974609375,0.032242912123535354,0.03969793225250779,0.019313699875472393,1.2600319385528564,2019-06-20 14:47:18:716
7.639780639648437,7.092713928222656,0.14724114990234374,0.0327755443415512,0.03903214197998798,0.0199794901479922,1.2648959159851074,2019-06-20 14:47:18:721
7.617036071777344,7.09630517578125,0.13766448974609374,0.03250922823254328,0.04009740641601968,0.019313699875472393,1.2700159549713135,2019-06-20 14:47:18:726
7.624218566894531,7.0879255981445315,0.14484698486328124,0.031177647687503654,0.039564774198003826,0.01918054182096843,1.2748799324035645,2019-06-20 14:47:18:731
7.645766052246094,7.107078918457031,0.12090533447265625,0.03157712185101554,0.040763196688539484,0.018914225711960504,1.2799999713897705,2019-06-20 14:47:18:736
7.620627319335937,7.104684753417969,0.158014892578125,0.03290870239605516,0.03983109030701175,0.01918054182096843,1.2848639488220215,2019-06-20 14:47:18:741
7.605065246582031,7.085531433105468,0.15681781005859374,0.03237607017803931,0.0392984580889959,0.018914225711960504,1.2899839878082275,2019-06-20 14:47:18:746
7.620627319335937,7.089122680664063,0.12449658203125,0.031443963796511584,0.03969793225250779,0.019446857929976354,1.2948479652404785,2019-06-20 14:47:18:751
7.596685668945312,7.081940185546875,0.13527032470703124,0.031443963796511584,0.03903214197998798,0.019580015984480316,1.2999680042266846,2019-06-20 14:47:18:756
7.624218566894531,7.0879255981445315,0.138861572265625,0.03157712185101554,0.038765825870980056,0.019446857929976354,1.3048319816589355,2019-06-20 14:47:18:761
7.6565397949218745,7.1166555786132815,0.13048199462890625,0.03210975406903139,0.03916530003449194,0.018248435439440696,1.3099520206451416,2019-06-20 14:47:18:766
7.624218566894531,7.1022905883789065,0.11132867431640625,0.032642386287047236,0.03943161614349987,0.01851475154844862,1.3148159980773926,2019-06-20 14:47:18:771
7.602671081542969,7.095108093261719,0.1532265625,0.032642386287047236,0.03943161614349987,0.01918054182096843,1.3199360370635986,2019-06-20 14:47:18:776
7.619430236816406,7.114261413574218,0.1460440673828125,0.03237607017803931,0.0392984580889959,0.01918054182096843,1.3250560760498047,2019-06-20 14:47:18:781
7.627809814453125,7.1022905883789065,0.1340732421875,0.03330817655956705,0.03863266781647609,0.018248435439440696,1.3299200534820557,2019-06-20 14:47:18:786
7.638583557128906,7.133414733886719,0.15202947998046876,0.03290870239605516,0.03943161614349987,0.01784896127592881,1.3350400924682617,2019-06-20 14:47:18:791
7.6266127319335935,7.120246826171875,0.12569366455078124,0.03210975406903139,0.039964248361515714,0.017982119330432773,1.3399040699005127,2019-06-20 14:47:18:796
7.631401062011719,7.117852661132813,0.12090533447265625,0.031843437960023466,0.04196161917907514,0.01864790960295258,1.3450241088867188,2019-06-20 14:47:18:801
7.627809814453125,7.097502258300781,0.12449658203125,0.03290870239605516,0.040763196688539484,0.017316329057912964,1.3498880863189697,2019-06-20 14:47:18:806
7.63259814453125,7.120246826171875,0.138861572265625,0.03410712488659082,0.040763196688539484,0.016650538785393153,1.3550081253051758,2019-06-20 14:47:18:811
7.63259814453125,7.123838073730469,0.1077374267578125,0.033041860450559124,0.037966877543956286,0.016251064621881268,1.3598721027374268,2019-06-20 14:47:18:816
7.630203979492188,7.092713928222656,0.13287615966796876,0.03290870239605516,0.03823319365296421,0.017050012948905038,1.3649921417236328,2019-06-20 14:47:18:821
7.607459411621093,7.104684753417969,0.12569366455078124,0.03171027990551951,0.03863266781647609,0.016783696839897114,1.3698561191558838,2019-06-20 14:47:18:826
7.607459411621093,7.078348937988281,0.15681781005859374,0.031177647687503654,0.0392984580889959,0.01638422267638523,1.3749759197235107,2019-06-20 14:47:18:831
7.619430236816406,7.092713928222656,0.13527032470703124,0.03171027990551951,0.0392984580889959,0.016916854894401076,1.3798401355743408,2019-06-20 14:47:18:836
7.593094421386718,7.104684753417969,0.12329949951171874,0.033041860450559124,0.038765825870980056,0.018248435439440696,1.3849599361419678,2019-06-20 14:47:18:841
7.614641906738281,7.081940185546875,0.12808782958984374,0.0327755443415512,0.039564774198003826,0.01638422267638523,1.3898239135742188,2019-06-20 14:47:18:846
7.623021484375,7.093911010742187,0.1412557373046875,0.033041860450559124,0.038898983925484014,0.01651738073088919,1.3949439525604248,2019-06-20 14:47:18:851
7.624218566894531,7.07715185546875,0.09456951904296874,0.03237607017803931,0.0392984580889959,0.017050012948905038,1.3998079299926758,2019-06-20 14:47:18:856
7.621824401855468,7.063983947753906,0.08259869384765625,0.03237607017803931,0.03969793225250779,0.016117906567377306,1.4049279689788818,2019-06-20 14:47:18:861
7.631401062011719,7.079546020507812,0.12329949951171874,0.0327755443415512,0.03849950976197213,0.01638422267638523,1.410048007965088,2019-06-20 14:47:18:866
7.614641906738281,7.097502258300781,0.08738702392578125,0.033840808777582894,0.03983109030701175,0.014253693804321838,1.4149119853973389,2019-06-20 14:47:18:871
7.624218566894531,7.083137268066406,0.08259869384765625,0.03317501850506309,0.04023056447052364,0.014653167967833723,1.420032024383545,2019-06-20 14:47:18:876
7.634992309570312,7.104684753417969,0.14364990234375,0.03330817655956705,0.040630038634035526,0.014520009913329761,1.424896001815796,2019-06-20 14:47:18:881
7.631401062011719,7.092713928222656,0.13527032470703124,0.03410712488659082,0.04009740641601968,0.015452116294857496,1.430016040802002,2019-06-20 14:47:18:886
7.59429150390625,7.1058818359375,0.14843823242187498,0.03317501850506309,0.03943161614349987,0.014919484076841646,1.434880018234253,2019-06-20 14:47:18:891
7.625415649414062,7.097502258300781,0.13287615966796876,0.03330817655956705,0.039964248361515714,0.013854219640809953,1.440000057220459,2019-06-20 14:47:18:896
7.61344482421875,7.098699340820312,0.09456951904296874,0.03410712488659082,0.0392984580889959,0.014253693804321838,1.44486403465271,2019-06-20 14:47:18:901
7.63259814453125,7.091516845703125,0.10294909667968749,0.034639757104606664,0.04009740641601968,0.012788955204778256,1.449984073638916,2019-06-20 14:47:18:906
7.61344482421875,7.07715185546875,0.119708251953125,0.03477291515911063,0.04009740641601968,0.014253693804321838,1.454848051071167,2019-06-20 14:47:18:911
7.59429150390625,7.0675751953125,0.12569366455078124,0.03237607017803931,0.04009740641601968,0.015851590458369383,1.459968090057373,2019-06-20 14:47:18:916
7.619430236816406,7.080743103027344,0.1340732421875,0.032642386287047236,0.03943161614349987,0.014653167967833723,1.464832067489624,2019-06-20 14:47:18:921
7.615838989257813,7.089122680664063,0.12808782958984374,0.032242912123535354,0.03903214197998798,0.013854219640809953,1.46995210647583,2019-06-20 14:47:18:926
7.618233154296875,7.091516845703125,0.114919921875,0.032242912123535354,0.03983109030701175,0.014120535749817876,1.474816083908081,2019-06-20 14:47:18:931
7.6122477416992185,7.091516845703125,0.12569366455078124,0.03210975406903139,0.04089635474304345,0.015452116294857496,1.479936122894287,2019-06-20 14:47:18:936
7.629006896972656,7.091516845703125,0.13048199462890625,0.031443963796511584,0.03916530003449194,0.014120535749817876,1.484800100326538,2019-06-20 14:47:18:941
7.61344482421875,7.109473083496094,0.114919921875,0.031843437960023466,0.03916530003449194,0.013987377695313915,1.4899201393127441,2019-06-20 14:47:18:946
7.631401062011719,7.104684753417969,0.13527032470703124,0.032642386287047236,0.04009740641601968,0.012788955204778256,1.495039939880371,2019-06-20 14:47:18:951
7.630203979492188,7.103487670898438,0.14843823242187498,0.03250922823254328,0.0403637225250276,0.012655797150274295,1.499903917312622,2019-06-20 14:47:18:956
7.618233154296875,7.09630517578125,0.12210241699218749,0.03250922823254328,0.04089635474304345,0.01305527131378618,1.5050239562988281,2019-06-20 14:47:18:961
7.619430236816406,7.1166555786132815,0.1340732421875,0.03210975406903139,0.039564774198003826,0.012788955204778256,1.509887933731079,2019-06-20 14:47:18:966
7.621824401855468,7.109473083496094,0.14724114990234374,0.03157712185101554,0.039564774198003826,0.013321587422794106,1.5150079727172852,2019-06-20 14:47:18:971
7.639780639648437,7.104684753417969,0.14724114990234374,0.03210975406903139,0.03983109030701175,0.013854219640809953,1.5198719501495361,2019-06-20 14:47:18:976
7.6266127319335935,7.107078918457031,0.14245281982421876,0.03131080574200762,0.03903214197998798,0.013188429368290141,1.5249919891357422,2019-06-20 14:47:18:981
7.609853576660156,7.095108093261719,0.14245281982421876,0.03131080574200762,0.040763196688539484,0.012922113259282218,1.5298559665679932,2019-06-20 14:47:18:986
7.621824401855468,7.090319763183594,0.13048199462890625,0.03237607017803931,0.0403637225250276,0.012922113259282218,1.5349760055541992,2019-06-20 14:47:18:991
7.61344482421875,7.1166555786132815,0.12210241699218749,0.03131080574200762,0.04009740641601968,0.013321587422794106,1.5398399829864502,2019-06-20 14:47:18:996
7.607459411621093,7.085531433105468,0.1412557373046875,0.031044489632999692,0.03983109030701175,0.011856848823250525,1.5449600219726562,2019-06-20 14:47:19:001
7.631401062011719,7.095108093261719,0.14484698486328124,0.03131080574200762,0.03916530003449194,0.011590532714242601,1.5498239994049072,2019-06-20 14:47:19:006
7.6122477416992185,7.103487670898438,0.14005865478515625,0.03171027990551951,0.038765825870980056,0.013188429368290141,1.5549440383911133,2019-06-20 14:47:19:011
7.615838989257813,7.12503515625,0.1532265625,0.03157712185101554,0.03903214197998798,0.01305527131378618,1.5598080158233643,2019-06-20 14:47:19:016
7.621824401855468,7.085531433105468,0.11611700439453125,0.03157712185101554,0.038765825870980056,0.013188429368290141,1.5649280548095703,2019-06-20 14:47:19:021
7.6122477416992185,7.111867248535156,0.08618994140625,0.03210975406903139,0.03903214197998798,0.013454745477298068,1.5700480937957764,2019-06-20 14:47:19:026
7.576335266113281,7.119049743652344,0.07781036376953125,0.031443963796511584,0.03863266781647609,0.012922113259282218,1.5749120712280273,2019-06-20 14:47:19:031
7.615838989257813,7.127429321289062,0.10294909667968749,0.031443963796511584,0.03836635170746817,0.012389481041266371,1.5800321102142334,2019-06-20 14:47:19:036
7.607459411621093,7.0879255981445315,0.12808782958984374,0.03091133157849573,0.03836635170746817,0.012522639095770333,1.5848960876464844,2019-06-20 14:47:19:041
7.608656494140625,7.092713928222656,0.1340732421875,0.03157712185101554,0.03916530003449194,0.012123164932258448,1.5900161266326904,2019-06-20 14:47:19:046
7.649357299804687,7.078348937988281,0.1316790771484375,0.032242912123535354,0.038100035598460244,0.01225632298676241,1.5948801040649414,2019-06-20 14:47:19:051
7.619430236816406,7.110670166015625,0.1364674072265625,0.03131080574200762,0.038100035598460244,0.011590532714242601,1.6000001430511475,2019-06-20 14:47:19:056
7.607459411621093,7.093911010742187,0.12329949951171874,0.031177647687503654,0.038100035598460244,0.012123164932258448,1.6048641204833984,2019-06-20 14:47:19:061
7.61344482421875,7.097502258300781,0.14245281982421876,0.031843437960023466,0.038765825870980056,0.013321587422794106,1.6099839210510254,2019-06-20 14:47:19:066
7.620627319335937,7.110670166015625,0.1508323974609375,0.031044489632999692,0.0392984580889959,0.013188429368290141,1.6148481369018555,2019-06-20 14:47:19:071
7.643371887207031,7.090319763183594,0.15442364501953124,0.03077817352399177,0.039564774198003826,0.013721061586305991,1.6199679374694824,2019-06-20 14:47:19:076
7.633795227050781,7.090319763183594,0.12210241699218749,0.031044489632999692,0.039964248361515714,0.013721061586305991,1.6248319149017334,2019-06-20 14:47:19:081
7.605065246582031,7.095108093261719,0.12090533447265625,0.031177647687503654,0.03849950976197213,0.014253693804321838,1.6299519538879395,2019-06-20 14:47:19:086
7.614641906738281,7.092713928222656,0.10175201416015625,0.031177647687503654,0.038898983925484014,0.01358790353180203,1.6348159313201904,2019-06-20 14:47:19:091
7.634992309570312,7.079546020507812,0.09935784912109374,0.03197659601452743,0.03969793225250779,0.012389481041266371,1.6399359703063965,2019-06-20 14:47:19:096
7.633795227050781,7.062786865234375,0.12090533447265625,0.03250922823254328,0.03916530003449194,0.01305527131378618,1.6447999477386475,2019-06-20 14:47:19:101
7.605065246582031,7.063983947753906,0.13287615966796876,0.0327755443415512,0.03916530003449194,0.01305527131378618,1.6499199867248535,2019-06-20 14:47:19:106
7.607459411621093,7.085531433105468,0.1340732421875,0.03290870239605516,0.038765825870980056,0.013188429368290141,1.6550400257110596,2019-06-20 14:47:19:111
7.617036071777344,7.104684753417969,0.14245281982421876,0.03237607017803931,0.03969793225250779,0.01305527131378618,1.6599040031433105,2019-06-20 14:47:19:116
7.623021484375,7.1010935058593745,0.12210241699218749,0.032242912123535354,0.03943161614349987,0.012922113259282218,1.6650240421295166,2019-06-20 14:47:19:121
7.609853576660156,7.113064331054687,0.1723798828125,0.0327755443415512,0.03849950976197213,0.013854219640809953,1.6698880195617676,2019-06-20 14:47:19:126
7.631401062011719,7.095108093261719,0.14963531494140625,0.033041860450559124,0.038898983925484014,0.0143868518588258,1.6750080585479736,2019-06-20 14:47:19:131
7.633795227050781,7.090319763183594,0.16639447021484374,0.032242912123535354,0.038898983925484014,0.01305527131378618,1.6798720359802246,2019-06-20 14:47:19:136
7.6266127319335935,7.097502258300781,0.11851116943359374,0.03157712185101554,0.03863266781647609,0.013188429368290141,1.6849920749664307,2019-06-20 14:47:19:141
7.608656494140625,7.121443908691406,0.11252575683593749,0.032642386287047236,0.03983109030701175,0.013454745477298068,1.6898560523986816,2019-06-20 14:47:19:146
7.614641906738281,7.0735606079101565,0.14963531494140625,0.03290870239605516,0.039564774198003826,0.01358790353180203,1.6949760913848877,2019-06-20 14:47:19:151
7.627809814453125,7.097502258300781,0.11611700439453125,0.03330817655956705,0.039964248361515714,0.013721061586305991,1.6998400688171387,2019-06-20 14:47:19:156
7.614641906738281,7.103487670898438,0.14005865478515625,0.03330817655956705,0.040763196688539484,0.014786326022337684,1.7049601078033447,2019-06-20 14:47:19:161
7.61344482421875,7.107078918457031,0.14963531494140625,0.03290870239605516,0.03916530003449194,0.014520009913329761,1.7098240852355957,2019-06-20 14:47:19:166
7.601473999023438,7.114261413574218,0.14963531494140625,0.032242912123535354,0.03863266781647609,0.014520009913329761,1.7149441242218018,2019-06-20 14:47:19:171
7.614641906738281,7.117852661132813,0.10893450927734374,0.03250922823254328,0.03916530003449194,0.014786326022337684,1.7198081016540527,2019-06-20 14:47:19:176
7.633795227050781,7.1022905883789065,0.12928491210937498,0.032642386287047236,0.038765825870980056,0.014253693804321838,1.7249281406402588,2019-06-20 14:47:19:181
7.6409777221679684,7.092713928222656,0.14484698486328124,0.03317501850506309,0.03903214197998798,0.014120535749817876,1.7300479412078857,2019-06-20 14:47:19:186
7.629006896972656,7.1010935058593745,0.16639447021484374,0.03357449266857497,0.038765825870980056,0.014253693804321838,1.7349119186401367,2019-06-20 14:47:19:191
7.600276916503906,7.103487670898438,0.12928491210937498,0.033707650723078936,0.039964248361515714,0.0143868518588258,1.7400319576263428,2019-06-20 14:47:19:196
7.61344482421875,7.107078918457031,0.11132867431640625,0.032642386287047236,0.04049688057953156,0.015851590458369383,1.7448959350585938,2019-06-20 14:47:19:201
7.645766052246094,7.091516845703125,0.14364990234375,0.03317501850506309,0.03943161614349987,0.016251064621881268,1.7500159740447998,2019-06-20 14:47:19:206
7.617036071777344,7.085531433105468,0.1556207275390625,0.03317501850506309,0.03969793225250779,0.014786326022337684,1.7548799514770508,2019-06-20 14:47:19:211
7.630203979492188,7.080743103027344,0.1460440673828125,0.03317501850506309,0.03969793225250779,0.013987377695313915,1.7599999904632568,2019-06-20 14:47:19:216
7.620627319335937,7.113064331054687,0.138861572265625,0.033840808777582894,0.03903214197998798,0.014253693804321838,1.7648639678955078,2019-06-20 14:47:19:221
7.602671081542969,7.097502258300781,0.13527032470703124,0.032642386287047236,0.0403637225250276,0.014653167967833723,1.7699840068817139,2019-06-20 14:47:19:226
7.605065246582031,7.099896423339843,0.12928491210937498,0.03344133461407101,0.03903214197998798,0.014120535749817876,1.7748479843139648,2019-06-20 14:47:19:231
7.596685668945312,7.103487670898438,0.1173140869140625,0.034506599050102706,0.038765825870980056,0.0143868518588258,1.779968023300171,2019-06-20 14:47:19:236
7.618233154296875,7.113064331054687,0.090978271484375,0.03357449266857497,0.038898983925484014,0.015452116294857496,1.7848320007324219,2019-06-20 14:47:19:241
7.611050659179687,7.089122680664063,0.08379577636718749,0.03397396683208686,0.03903214197998798,0.015185800185849573,1.789952039718628,2019-06-20 14:47:19:246
7.625415649414062,7.099896423339843,0.13048199462890625,0.033840808777582894,0.03903214197998798,0.015452116294857496,1.794816017150879,2019-06-20 14:47:19:251
7.624218566894531,7.0867285156249995,0.11611700439453125,0.03397396683208686,0.04023056447052364,0.015585274349361458,1.799936056137085,2019-06-20 14:47:19:256
7.621824401855468,7.127429321289062,0.11252575683593749,0.033707650723078936,0.038898983925484014,0.015585274349361458,1.805056095123291,2019-06-20 14:47:19:261
7.600276916503906,7.110670166015625,0.12808782958984374,0.03197659601452743,0.03849950976197213,0.014653167967833723,1.809920072555542,2019-06-20 14:47:19:266
7.591897338867187,7.091516845703125,0.17357696533203124,0.03197659601452743,0.03903214197998798,0.015052642131345608,1.815040111541748,2019-06-20 14:47:19:271
7.615838989257813,7.104684753417969,0.15921197509765625,0.03250922823254328,0.03916530003449194,0.015585274349361458,1.819904088973999,2019-06-20 14:47:19:276
7.596685668945312,7.104684753417969,0.081401611328125,0.03290870239605516,0.038100035598460244,0.016251064621881268,1.825024127960205,2019-06-20 14:47:19:281
7.630203979492188,7.103487670898438,0.12210241699218749,0.03330817655956705,0.038765825870980056,0.015185800185849573,1.829888105392456,2019-06-20 14:47:19:286
7.6122477416992185,7.099896423339843,0.11132867431640625,0.03250922823254328,0.03863266781647609,0.016650538785393153,1.835008144378662,2019-06-20 14:47:19:291
7.606262329101562,7.095108093261719,0.13048199462890625,0.03290870239605516,0.039564774198003826,0.016650538785393153,1.839872121810913,2019-06-20 14:47:19:296
7.639780639648437,7.079546020507812,0.12569366455078124,0.03437344099559874,0.038765825870980056,0.01638422267638523,1.84499192237854,2019-06-20 14:47:19:301
7.629006896972656,7.095108093261719,0.1364674072265625,0.03477291515911063,0.03969793225250779,0.017050012948905038,1.8498561382293701,2019-06-20 14:47:19:306
7.618233154296875,7.09630517578125,0.13048199462890625,0.034639757104606664,0.04049688057953156,0.016916854894401076,1.854975938796997,2019-06-20 14:47:19:311
7.607459411621093,7.093911010742187,0.11252575683593749,0.033840808777582894,0.040763196688539484,0.017316329057912964,1.859839916229248,2019-06-20 14:47:19:316
7.6421748046874995,7.103487670898438,0.10414617919921874,0.033041860450559124,0.04009740641601968,0.016251064621881268,1.864959955215454,2019-06-20 14:47:19:321
7.645766052246094,7.126232238769531,0.12449658203125,0.03397396683208686,0.03903214197998798,0.017183171003409,1.869823932647705,2019-06-20 14:47:19:326
7.638583557128906,7.090319763183594,0.10654034423828125,0.033041860450559124,0.038765825870980056,0.01638422267638523,1.8749439716339111,2019-06-20 14:47:19:331
7.645766052246094,7.099896423339843,0.11851116943359374,0.03330817655956705,0.03836635170746817,0.017582645166920888,1.879807949066162,2019-06-20 14:47:19:336
7.606262329101562,7.098699340820312,0.11611700439453125,0.03237607017803931,0.039964248361515714,0.01864790960295258,1.8849279880523682,2019-06-20 14:47:19:341
7.617036071777344,7.103487670898438,0.14963531494140625,0.03344133461407101,0.039564774198003826,0.018248435439440696,1.8900480270385742,2019-06-20 14:47:19:346
7.620627319335937,7.107078918457031,0.11252575683593749,0.03330817655956705,0.04049688057953156,0.018248435439440696,1.8949120044708252,2019-06-20 14:47:19:351
7.596685668945312,7.095108093261719,0.13287615966796876,0.03131080574200762,0.039564774198003826,0.018115277384936734,1.9000320434570312,2019-06-20 14:47:19:356
7.629006896972656,7.1010935058593745,0.12329949951171874,0.031044489632999692,0.03863266781647609,0.01784896127592881,1.9048960208892822,2019-06-20 14:47:19:361
7.623021484375,7.079546020507812,0.10654034423828125,0.03197659601452743,0.03836635170746817,0.017316329057912964,1.9100160598754883,2019-06-20 14:47:19:366
7.6122477416992185,7.068772277832031,0.1412557373046875,0.031044489632999692,0.0392984580889959,0.015984748512873345,1.9148800373077393,2019-06-20 14:47:19:371
7.625415649414062,7.091516845703125,0.13527032470703124,0.030245541305975922,0.039564774198003826,0.017050012948905038,1.9200000762939453,2019-06-20 14:47:19:376
7.63259814453125,7.081940185546875,0.12569366455078124,0.03011238325147196,0.03903214197998798,0.01771580322142485,1.9248640537261963,2019-06-20 14:47:19:381
7.621824401855468,7.095108093261719,0.11132867431640625,0.031177647687503654,0.03743424532594044,0.018115277384936734,1.9299840927124023,2019-06-20 14:47:19:386
7.623021484375,7.1058818359375,0.09217535400390625,0.03157712185101554,0.03863266781647609,0.01784896127592881,1.9348480701446533,2019-06-20 14:47:19:391
7.646963134765625,7.092713928222656,0.12928491210937498,0.030645015469487807,0.03916530003449194,0.01851475154844862,1.9399681091308594,2019-06-20 14:47:19:396
7.6409777221679684,7.069969360351562,0.1532265625,0.03157712185101554,0.04049688057953156,0.017982119330432773,1.9448320865631104,2019-06-20 14:47:19:401
7.644568969726563,7.090319763183594,0.12449658203125,0.03011238325147196,0.039564774198003826,0.01851475154844862,1.9499521255493164,2019-06-20 14:47:19:406
7.620627319335937,7.069969360351562,0.09456951904296874,0.029579751033456114,0.0403637225250276,0.018381593493944658,1.9548161029815674,2019-06-20 14:47:19:411
7.620627319335937,7.085531433105468,0.0957666015625,0.03011238325147196,0.04129582890655533,0.016650538785393153,1.9599361419677734,2019-06-20 14:47:19:416
7.605065246582031,7.092713928222656,0.12210241699218749,0.03157712185101554,0.04023056447052364,0.015318958240353535,1.9648001194000244,2019-06-20 14:47:19:421
7.648160217285156,7.0579985351562495,0.16280322265625,0.031443963796511584,0.03849950976197213,0.01651738073088919,1.9699199199676514,2019-06-20 14:47:19:426
7.652948547363281,7.0867285156249995,0.14364990234375,0.031177647687503654,0.037167929216932516,0.01784896127592881,1.9750399589538574,2019-06-20 14:47:19:431
7.620627319335937,7.085531433105468,0.15921197509765625,0.03077817352399177,0.0375674033804444,0.01864790960295258,1.9799039363861084,2019-06-20 14:47:19:436
7.627809814453125,7.085531433105468,0.16639447021484374,0.031443963796511584,0.038765825870980056,0.016783696839897114,1.9850239753723145,2019-06-20 14:47:19:441
7.618233154296875,7.090319763183594,0.1412557373046875,0.031843437960023466,0.03863266781647609,0.01638422267638523,1.9898879528045654,2019-06-20 14:47:19:446
7.623021484375,7.0675751953125,0.14005865478515625,0.03157712185101554,0.0392984580889959,0.016251064621881268,1.9950079917907715,2019-06-20 14:47:19:451
7.625415649414062,7.084334350585937,0.16280322265625,0.03171027990551951,0.039964248361515714,0.01651738073088919,1.9998719692230225,2019-06-20 14:47:19:456
7.666116455078125,7.0675751953125,0.16639447021484374,0.032242912123535354,0.040630038634035526,0.016117906567377306,2.0049920082092285,2019-06-20 14:47:19:461
7.643371887207031,7.052013122558594,0.14724114990234374,0.03210975406903139,0.03983109030701175,0.0143868518588258,2.0098559856414795,2019-06-20 14:47:19:466
7.63259814453125,7.075954772949219,0.14963531494140625,0.0327755443415512,0.04102951279754741,0.014253693804321838,2.0149760246276855,2019-06-20 14:47:19:471
7.617036071777344,7.060392700195313,0.16280322265625,0.032642386287047236,0.04023056447052364,0.013854219640809953,2.0198400020599365,2019-06-20 14:47:19:476
7.623021484375,7.065181030273437,0.18075946044921876,0.03437344099559874,0.0403637225250276,0.013188429368290141,2.0249600410461426,2019-06-20 14:47:19:481
7.627809814453125,7.068772277832031,0.14484698486328124,0.033707650723078936,0.04023056447052364,0.012788955204778256,2.0298240184783936,2019-06-20 14:47:19:486
7.615838989257813,7.0675751953125,0.1532265625,0.033707650723078936,0.04009740641601968,0.012655797150274295,2.0349440574645996,2019-06-20 14:47:19:491
7.634992309570312,7.099896423339843,0.17836529541015625,0.033041860450559124,0.03983109030701175,0.0143868518588258,2.0398080348968506,2019-06-20 14:47:19:496
7.645766052246094,7.065181030273437,0.14364990234375,0.03317501850506309,0.03983109030701175,0.013987377695313915,2.0449280738830566,2019-06-20 14:47:19:501
7.633795227050781,7.091516845703125,0.14364990234375,0.032642386287047236,0.03983109030701175,0.014919484076841646,2.0500481128692627,2019-06-20 14:47:19:506
7.644568969726563,7.093911010742187,0.13766448974609374,0.03317501850506309,0.040630038634035526,0.013454745477298068,2.0549120903015137,2019-06-20 14:47:19:511
7.637386474609375,7.103487670898438,0.1843507080078125,0.03290870239605516,0.04009740641601968,0.013721061586305991,2.0600321292877197,2019-06-20 14:47:19:516
7.620627319335937,7.107078918457031,0.10294909667968749,0.033707650723078936,0.03903214197998798,0.01305527131378618,2.0648961067199707,2019-06-20 14:47:19:521
7.608656494140625,7.113064331054687,0.10534326171875,0.033707650723078936,0.03983109030701175,0.01305527131378618,2.0700161457061768,2019-06-20 14:47:19:526
7.629006896972656,7.0867285156249995,0.12329949951171874,0.03344133461407101,0.040763196688539484,0.01358790353180203,2.0748801231384277,2019-06-20 14:47:19:531
7.627809814453125,7.083137268066406,0.110131591796875,0.033041860450559124,0.04009740641601968,0.013721061586305991,2.0799999237060547,2019-06-20 14:47:19:536
7.615838989257813,7.109473083496094,0.11372283935546874,0.03344133461407101,0.038898983925484014,0.013854219640809953,2.0848641395568848,2019-06-20 14:47:19:541
7.623021484375,7.084334350585937,0.10654034423828125,0.033707650723078936,0.0392984580889959,0.013854219640809953,2.0899839401245117,2019-06-20 14:47:19:546
7.615838989257813,7.081940185546875,0.12329949951171874,0.03197659601452743,0.038765825870980056,0.014520009913329761,2.0948479175567627,2019-06-20 14:47:19:551
7.605065246582031,7.083137268066406,0.16160614013671876,0.03250922823254328,0.03849950976197213,0.015052642131345608,2.0999679565429688,2019-06-20 14:47:19:556
7.634992309570312,7.114261413574218,0.158014892578125,0.03237607017803931,0.03969793225250779,0.015185800185849573,2.1048319339752197,2019-06-20 14:47:19:561
7.617036071777344,7.113064331054687,0.114919921875,0.03317501850506309,0.03943161614349987,0.015585274349361458,2.109951972961426,2019-06-20 14:47:19:566
7.59429150390625,7.121443908691406,0.16280322265625,0.033041860450559124,0.03836635170746817,0.015984748512873345,2.1148159503936768,2019-06-20 14:47:19:571
7.6122477416992185,7.104684753417969,0.11252575683593749,0.03250922823254328,0.0392984580889959,0.014786326022337684,2.119935989379883,2019-06-20 14:47:19:576
7.6122477416992185,7.107078918457031,0.1412557373046875,0.03344133461407101,0.03903214197998798,0.015052642131345608,2.125056028366089,2019-06-20 14:47:19:581
7.6038681640625,7.083137268066406,0.11851116943359374,0.033041860450559124,0.0375674033804444,0.016117906567377306,2.12992000579834,2019-06-20 14:47:19:586
7.615838989257813,7.083137268066406,0.10654034423828125,0.03357449266857497,0.03849950976197213,0.016916854894401076,2.135040044784546,2019-06-20 14:47:19:591
7.6038681640625,7.1022905883789065,0.15202947998046876,0.03317501850506309,0.03916530003449194,0.014919484076841646,2.139904022216797,2019-06-20 14:47:19:596
7.595488586425781,7.123838073730469,0.158014892578125,0.03357449266857497,0.03943161614349987,0.01571843240386542,2.145024061203003,2019-06-20 14:47:19:601
7.623021484375,7.126232238769531,0.1364674072265625,0.0327755443415512,0.038898983925484014,0.016916854894401076,2.149888038635254,2019-06-20 14:47:19:606
7.6266127319335935,7.121443908691406,0.090978271484375,0.03131080574200762,0.03903214197998798,0.01651738073088919,2.15500807762146,2019-06-20 14:47:19:611
7.646963134765625,7.1154584960937495,0.1412557373046875,0.031843437960023466,0.03823319365296421,0.017183171003409,2.159872055053711,2019-06-20 14:47:19:616
7.633795227050781,7.099896423339843,0.12210241699218749,0.03131080574200762,0.03903214197998798,0.017050012948905038,2.164992094039917,2019-06-20 14:47:19:621
7.627809814453125,7.097502258300781,0.13048199462890625,0.03077817352399177,0.039564774198003826,0.015851590458369383,2.169856071472168,2019-06-20 14:47:19:626
7.629006896972656,7.085531433105468,0.1268907470703125,0.03171027990551951,0.03903214197998798,0.015585274349361458,2.174976110458374,2019-06-20 14:47:19:631
7.620627319335937,7.081940185546875,0.138861572265625,0.03250922823254328,0.0375674033804444,0.016783696839897114,2.179840087890625,2019-06-20 14:47:19:636
7.617036071777344,7.080743103027344,0.18794195556640625,0.031177647687503654,0.03943161614349987,0.017316329057912964,2.184960126876831,2019-06-20 14:47:19:641
7.648160217285156,7.103487670898438,0.1556207275390625,0.03011238325147196,0.03969793225250779,0.017316329057912964,2.189824104309082,2019-06-20 14:47:19:646
7.666116455078125,7.097502258300781,0.14005865478515625,0.03197659601452743,0.03849950976197213,0.016783696839897114,2.194944143295288,2019-06-20 14:47:19:651
7.650554382324218,7.107078918457031,0.12210241699218749,0.032642386287047236,0.04023056447052364,0.016650538785393153,2.199808120727539,2019-06-20 14:47:19:656
7.645766052246094,7.071166442871093,0.13527032470703124,0.032242912123535354,0.04049688057953156,0.017316329057912964,2.204927921295166,2019-06-20 14:47:19:661
7.644568969726563,7.099896423339843,0.14364990234375,0.032242912123535354,0.03983109030701175,0.016650538785393153,2.210047960281372,2019-06-20 14:47:19:666
7.627809814453125,7.1154584960937495,0.12210241699218749,0.03330817655956705,0.03916530003449194,0.01651738073088919,2.214911937713623,2019-06-20 14:47:19:671
7.6266127319335935,7.104684753417969,0.13048199462890625,0.03330817655956705,0.04023056447052364,0.016783696839897114,2.220031976699829,2019-06-20 14:47:19:676
7.621824401855468,7.095108093261719,0.13527032470703124,0.03317501850506309,0.039564774198003826,0.01638422267638523,2.22489595413208,2019-06-20 14:47:19:681
7.6122477416992185,7.1010935058593745,0.11611700439453125,0.033041860450559124,0.039564774198003826,0.016783696839897114,2.230015993118286,2019-06-20 14:47:19:686
7.638583557128906,7.068772277832031,0.11252575683593749,0.03237607017803931,0.04023056447052364,0.017316329057912964,2.234879970550537,2019-06-20 14:47:19:691
7.631401062011719,7.0735606079101565,0.11611700439453125,0.03357449266857497,0.039564774198003826,0.016916854894401076,2.240000009536743,2019-06-20 14:47:19:696
7.669707702636718,7.109473083496094,0.12928491210937498,0.03290870239605516,0.039964248361515714,0.015984748512873345,2.244863986968994,2019-06-20 14:47:19:701
7.650554382324218,7.092713928222656,0.11611700439453125,0.03210975406903139,0.03983109030701175,0.016916854894401076,2.2499840259552,2019-06-20 14:47:19:706
7.643371887207031,7.080743103027344,0.14364990234375,0.03330817655956705,0.03969793225250779,0.016783696839897114,2.254848003387451,2019-06-20 14:47:19:711
7.639780639648437,7.078348937988281,0.11252575683593749,0.03397396683208686,0.03903214197998798,0.015984748512873345,2.2599680423736572,2019-06-20 14:47:19:716
7.661328125,7.079546020507812,0.110131591796875,0.033840808777582894,0.0392984580889959,0.015452116294857496,2.264832019805908,2019-06-20 14:47:19:721
7.652948547363281,7.095108093261719,0.0957666015625,0.032242912123535354,0.039964248361515714,0.015851590458369383,2.2699520587921143,2019-06-20 14:47:19:726
7.625415649414062,7.1010935058593745,0.1173140869140625,0.03357449266857497,0.0392984580889959,0.016783696839897114,2.2748160362243652,2019-06-20 14:47:19:731
7.629006896972656,7.0867285156249995,0.12210241699218749,0.035705021540638364,0.039564774198003826,0.016117906567377306,2.2799360752105713,2019-06-20 14:47:19:736
7.627809814453125,7.07715185546875,0.1316790771484375,0.03437344099559874,0.03983109030701175,0.014520009913329761,2.2848000526428223,2019-06-20 14:47:19:741
7.5978827514648435,7.093911010742187,0.12928491210937498,0.033041860450559124,0.039964248361515714,0.015452116294857496,2.2899200916290283,2019-06-20 14:47:19:746
7.629006896972656,7.103487670898438,0.1556207275390625,0.03357449266857497,0.038765825870980056,0.016117906567377306,2.2950401306152344,2019-06-20 14:47:19:751
7.638583557128906,7.092713928222656,0.13527032470703124,0.03397396683208686,0.03969793225250779,0.016916854894401076,2.2999041080474854,2019-06-20 14:47:19:756
7.611050659179687,7.09630517578125,0.14364990234375,0.03330817655956705,0.04009740641601968,0.016251064621881268,2.3050241470336914,2019-06-20 14:47:19:761
7.6122477416992185,7.084334350585937,0.14724114990234374,0.032642386287047236,0.03969793225250779,0.01638422267638523,2.3098881244659424,2019-06-20 14:47:19:766
7.614641906738281,7.097502258300781,0.16400030517578124,0.03330817655956705,0.03903214197998798,0.016251064621881268,2.3150079250335693,2019-06-20 14:47:19:771
7.63259814453125,7.110670166015625,0.1340732421875,0.03330817655956705,0.038100035598460244,0.015984748512873345,2.3198721408843994,2019-06-20 14:47:19:776
7.634992309570312,7.133414733886719,0.15202947998046876,0.03437344099559874,0.038898983925484014,0.017050012948905038,2.3249919414520264,2019-06-20 14:47:19:781
7.6421748046874995,7.111867248535156,0.16280322265625,0.03357449266857497,0.03969793225250779,0.017183171003409,2.3298559188842773,2019-06-20 14:47:19:786
7.637386474609375,7.098699340820312,0.16400030517578124,0.033041860450559124,0.04023056447052364,0.017050012948905038,2.3349759578704834,2019-06-20 14:47:19:791
7.600276916503906,7.103487670898438,0.119708251953125,0.03290870239605516,0.039564774198003826,0.016251064621881268,2.3398399353027344,2019-06-20 14:47:19:796
7.608656494140625,7.108276000976562,0.1364674072265625,0.03197659601452743,0.03916530003449194,0.016650538785393153,2.3449599742889404,2019-06-20 14:47:19:801
7.631401062011719,7.090319763183594,0.13527032470703124,0.03250922823254328,0.039964248361515714,0.018115277384936734,2.3498239517211914,2019-06-20 14:47:19:806
7.5978827514648435,7.103487670898438,0.10893450927734374,0.032642386287047236,0.040630038634035526,0.01851475154844862,2.3549439907073975,2019-06-20 14:47:19:811
7.607459411621093,7.095108093261719,0.13766448974609374,0.03237607017803931,0.0403637225250276,0.017183171003409,2.3598079681396484,2019-06-20 14:47:19:816
7.639780639648437,7.098699340820312,0.1173140869140625,0.033041860450559124,0.03836635170746817,0.015984748512873345,2.3649280071258545,2019-06-20 14:47:19:821
7.623021484375,7.091516845703125,0.12808782958984374,0.03237607017803931,0.03836635170746817,0.015452116294857496,2.3700480461120605,2019-06-20 14:47:19:826
7.617036071777344,7.090319763183594,0.10654034423828125,0.031177647687503654,0.03863266781647609,0.018248435439440696,2.3749120235443115,2019-06-20 14:47:19:831
7.606262329101562,7.074757690429688,0.14005865478515625,0.03210975406903139,0.037966877543956286,0.018914225711960504,2.3800320625305176,2019-06-20 14:47:19:836
7.6038681640625,7.092713928222656,0.13048199462890625,0.032242912123535354,0.03823319365296421,0.018115277384936734,2.3848960399627686,2019-06-20 14:47:19:841
7.58471484375,7.090319763183594,0.12569366455078124,0.031443963796511584,0.03836635170746817,0.01851475154844862,2.3900160789489746,2019-06-20 14:47:19:846
7.606262329101562,7.07715185546875,0.09337243652343749,0.03210975406903139,0.038765825870980056,0.019313699875472393,2.3948800563812256,2019-06-20 14:47:19:851
7.611050659179687,7.080743103027344,0.138861572265625,0.03210975406903139,0.038898983925484014,0.01864790960295258,2.4000000953674316,2019-06-20 14:47:19:856
7.644568969726563,7.0675751953125,0.138861572265625,0.03131080574200762,0.03969793225250779,0.018381593493944658,2.4048640727996826,2019-06-20 14:47:19:861
7.636189392089843,7.078348937988281,0.15921197509765625,0.03290870239605516,0.03903214197998798,0.01904738376646447,2.4099841117858887,2019-06-20 14:47:19:866
7.609853576660156,7.07715185546875,0.13287615966796876,0.0327755443415512,0.03836635170746817,0.01904738376646447,2.4148480892181396,2019-06-20 14:47:19:871
7.617036071777344,7.099896423339843,0.1173140869140625,0.031843437960023466,0.03836635170746817,0.018914225711960504,2.4199681282043457,2019-06-20 14:47:19:876
7.634992309570312,7.07715185546875,0.10893450927734374,0.030511857414983846,0.03863266781647609,0.018781067657456543,2.4248321056365967,2019-06-20 14:47:19:881
7.662525207519531,7.063983947753906,0.13766448974609374,0.03131080574200762,0.038765825870980056,0.019713174038984278,2.4299521446228027,2019-06-20 14:47:19:886
7.634992309570312,7.052013122558594,0.10414617919921874,0.03171027990551951,0.038765825870980056,0.01918054182096843,2.4348161220550537,2019-06-20 14:47:19:891
7.627809814453125,7.090319763183594,0.14005865478515625,0.032242912123535354,0.03916530003449194,0.01851475154844862,2.4399359226226807,2019-06-20 14:47:19:896
7.658933959960938,7.097502258300781,0.0957666015625,0.03210975406903139,0.03969793225250779,0.018115277384936734,2.4450559616088867,2019-06-20 14:47:19:901
7.643371887207031,7.060392700195313,0.11132867431640625,0.03157712185101554,0.03849950976197213,0.01864790960295258,2.4499199390411377,2019-06-20 14:47:19:906
7.634992309570312,7.07715185546875,0.09337243652343749,0.03131080574200762,0.03863266781647609,0.01904738376646447,2.4550399780273438,2019-06-20 14:47:19:911
7.614641906738281,7.093911010742187,0.100554931640625,0.031843437960023466,0.03863266781647609,0.01864790960295258,2.4599039554595947,2019-06-20 14:47:19:916
7.636189392089843,7.099896423339843,0.12090533447265625,0.031843437960023466,0.03916530003449194,0.019580015984480316,2.465023994445801,2019-06-20 14:47:19:921
7.666116455078125,7.0675751953125,0.114919921875,0.03197659601452743,0.038765825870980056,0.020378964311504086,2.4698879718780518,2019-06-20 14:47:19:926
7.644568969726563,7.069969360351562,0.12090533447265625,0.03197659601452743,0.038898983925484014,0.018914225711960504,2.475008010864258,2019-06-20 14:47:19:931
7.634992309570312,7.113064331054687,0.11132867431640625,0.032242912123535354,0.03823319365296421,0.01918054182096843,2.479871988296509,2019-06-20 14:47:19:936
7.63259814453125,7.1022905883789065,0.0981607666015625,0.03210975406903139,0.03783371948945232,0.020245806257000124,2.484992027282715,2019-06-20 14:47:19:941
7.609853576660156,7.061589782714844,0.11132867431640625,0.03237607017803931,0.038765825870980056,0.018914225711960504,2.489856004714966,2019-06-20 14:47:19:946
7.618233154296875,7.0723635253906245,0.1412557373046875,0.03237607017803931,0.040630038634035526,0.019446857929976354,2.494976043701172,2019-06-20 14:47:19:951
7.633795227050781,7.09630517578125,0.1532265625,0.03237607017803931,0.0392984580889959,0.019713174038984278,2.499840021133423,2019-06-20 14:47:19:956
7.6409777221679684,7.081940185546875,0.1077374267578125,0.03210975406903139,0.03916530003449194,0.01784896127592881,2.504960060119629,2019-06-20 14:47:19:961
7.631401062011719,7.065181030273437,0.119708251953125,0.03250922823254328,0.03983109030701175,0.01918054182096843,2.50982403755188,2019-06-20 14:47:19:966
7.668510620117187,7.0579985351562495,0.0885841064453125,0.0327755443415512,0.03863266781647609,0.01851475154844862,2.514944076538086,2019-06-20 14:47:19:971
7.639780639648437,7.0735606079101565,0.1699857177734375,0.032642386287047236,0.038898983925484014,0.020112648202496163,2.519808053970337,2019-06-20 14:47:19:976
7.6421748046874995,7.0723635253906245,0.1412557373046875,0.03290870239605516,0.03943161614349987,0.020378964311504086,2.524928092956543,2019-06-20 14:47:19:981
7.6421748046874995,7.0723635253906245,0.1412557373046875,0.03290870239605516,0.03943161614349987,0.020378964311504086,2.5277440547943115,2019-06-20 14:47:19:984
7.663722290039062,7.090319763183594,0.119708251953125,0.031843437960023466,0.039564774198003826,0.01851475154844862,2.534912109375,2019-06-20 14:47:19:991
7.663722290039062,7.090319763183594,0.119708251953125,0.031843437960023466,0.039564774198003826,0.01851475154844862,2.5377280712127686,2019-06-20 14:47:19:994
7.6409777221679684,7.069969360351562,0.1364674072265625,0.032242912123535354,0.03969793225250779,0.018248435439440696,2.544896125793457,2019-06-20 14:47:20:001
7.6409777221679684,7.069969360351562,0.1364674072265625,0.032242912123535354,0.03969793225250779,0.018248435439440696,2.5477120876312256,2019-06-20 14:47:20:004
7.636189392089843,7.098699340820312,0.158014892578125,0.0327755443415512,0.03983109030701175,0.01984633209348824,2.554880142211914,2019-06-20 14:47:20:011
7.6266127319335935,7.079546020507812,0.1723798828125,0.03344133461407101,0.03983109030701175,0.019580015984480316,2.559999942779541,2019-06-20 14:47:20:016
7.624218566894531,7.083137268066406,0.11851116943359374,0.03437344099559874,0.03903214197998798,0.01864790960295258,2.564863920211792,2019-06-20 14:47:20:021
7.631401062011719,7.089122680664063,0.12928491210937498,0.034639757104606664,0.03943161614349987,0.019313699875472393,2.569983959197998,2019-06-20 14:47:20:026
7.657736877441406,7.080743103027344,0.110131591796875,0.033041860450559124,0.0392984580889959,0.01864790960295258,2.574847936630249,2019-06-20 14:47:20:031
7.624218566894531,7.079546020507812,0.12569366455078124,0.03157712185101554,0.0403637225250276,0.018381593493944658,2.579967975616455,2019-06-20 14:47:20:036
7.6409777221679684,7.095108093261719,0.1173140869140625,0.03210975406903139,0.0403637225250276,0.01904738376646447,2.584831953048706,2019-06-20 14:47:20:041
7.620627319335937,7.080743103027344,0.0957666015625,0.03197659601452743,0.03903214197998798,0.01851475154844862,2.589951992034912,2019-06-20 14:47:20:046
7.630203979492188,7.085531433105468,0.13527032470703124,0.03171027990551951,0.04023056447052364,0.018781067657456543,2.594815969467163,2019-06-20 14:47:20:051
7.630203979492188,7.085531433105468,0.13527032470703124,0.03250922823254328,0.04009740641601968,0.01984633209348824,2.599936008453369,2019-06-20 14:47:20:056
7.629006896972656,7.07715185546875,0.1556207275390625,0.03237607017803931,0.040630038634035526,0.020245806257000124,2.60479998588562,2019-06-20 14:47:20:061
7.625415649414062,7.081940185546875,0.16280322265625,0.03317501850506309,0.04049688057953156,0.0199794901479922,2.609920024871826,2019-06-20 14:47:20:066
7.625415649414062,7.080743103027344,0.14724114990234374,0.03424028294109478,0.04023056447052364,0.017449487112416926,2.6150400638580322,2019-06-20 14:47:20:071
7.645766052246094,7.079546020507812,0.14364990234375,0.03437344099559874,0.03983109030701175,0.017582645166920888,2.619904041290283,2019-06-20 14:47:20:076
7.639780639648437,7.089122680664063,0.1532265625,0.03344133461407101,0.039564774198003826,0.018381593493944658,2.6250240802764893,2019-06-20 14:47:20:081
7.658933959960938,7.084334350585937,0.14245281982421876,0.033707650723078936,0.04102951279754741,0.017183171003409,2.6298880577087402,2019-06-20 14:47:20:086
7.648160217285156,7.065181030273437,0.13287615966796876,0.033707650723078936,0.04089635474304345,0.017316329057912964,2.6350080966949463,2019-06-20 14:47:20:091
7.619430236816406,7.0735606079101565,0.14484698486328124,0.03330817655956705,0.04009740641601968,0.018914225711960504,2.6398720741271973,2019-06-20 14:47:20:096
7.6421748046874995,7.065181030273437,0.09935784912109374,0.033041860450559124,0.04102951279754741,0.018381593493944658,2.6449921131134033,2019-06-20 14:47:20:101
7.660131042480469,7.084334350585937,0.11372283935546874,0.033041860450559124,0.03969793225250779,0.01784896127592881,2.6498560905456543,2019-06-20 14:47:20:106
7.648160217285156,7.074757690429688,0.09935784912109374,0.03410712488659082,0.03983109030701175,0.017183171003409,2.6549761295318604,2019-06-20 14:47:20:111
7.633795227050781,7.103487670898438,0.12569366455078124,0.03330817655956705,0.04102951279754741,0.018781067657456543,2.6598401069641113,2019-06-20 14:47:20:116
7.620627319335937,7.083137268066406,0.1268907470703125,0.034506599050102706,0.04049688057953156,0.018381593493944658,2.6649601459503174,2019-06-20 14:47:20:121
7.599079833984375,7.0879255981445315,0.1651973876953125,0.03357449266857497,0.03916530003449194,0.018248435439440696,2.6698241233825684,2019-06-20 14:47:20:126
7.629006896972656,7.093911010742187,0.1843507080078125,0.03250922823254328,0.03969793225250779,0.017449487112416926,2.6749439239501953,2019-06-20 14:47:20:131
7.627809814453125,7.084334350585937,0.12569366455078124,0.032642386287047236,0.040630038634035526,0.017582645166920888,2.6798081398010254,2019-06-20 14:47:20:136
7.6409777221679684,7.091516845703125,0.10654034423828125,0.032642386287047236,0.03916530003449194,0.01771580322142485,2.6849279403686523,2019-06-20 14:47:20:141
7.6421748046874995,7.079546020507812,0.14484698486328124,0.03210975406903139,0.03903214197998798,0.01851475154844862,2.6900479793548584,2019-06-20 14:47:20:146
7.627809814453125,7.049618957519531,0.14484698486328124,0.032242912123535354,0.0403637225250276,0.018248435439440696,2.6949119567871094,2019-06-20 14:47:20:151
7.63259814453125,7.083137268066406,0.14843823242187498,0.03197659601452743,0.04129582890655533,0.019580015984480316,2.7000319957733154,2019-06-20 14:47:20:156
7.637386474609375,7.071166442871093,0.1460440673828125,0.03210975406903139,0.040763196688539484,0.019580015984480316,2.7048959732055664,2019-06-20 14:47:20:161
7.618233154296875,7.083137268066406,0.1651973876953125,0.032242912123535354,0.039564774198003826,0.018248435439440696,2.7100160121917725,2019-06-20 14:47:20:166
7.650554382324218,7.0879255981445315,0.16280322265625,0.03290870239605516,0.038100035598460244,0.018115277384936734,2.7148799896240234,2019-06-20 14:47:20:171
7.61344482421875,7.085531433105468,0.11611700439453125,0.03237607017803931,0.03903214197998798,0.017449487112416926,2.7200000286102295,2019-06-20 14:47:20:176
7.63259814453125,7.075954772949219,0.11372283935546874,0.032642386287047236,0.039964248361515714,0.018115277384936734,2.7248640060424805,2019-06-20 14:47:20:181
7.619430236816406,7.081940185546875,0.09696368408203125,0.032642386287047236,0.038765825870980056,0.02064528042051201,2.7299840450286865,2019-06-20 14:47:20:186
7.627809814453125,7.085531433105468,0.07302203369140625,0.03250922823254328,0.03903214197998798,0.020245806257000124,2.7348480224609375,2019-06-20 14:47:20:191
7.645766052246094,7.083137268066406,0.12090533447265625,0.03490607321361459,0.039964248361515714,0.01918054182096843,2.7399680614471436,2019-06-20 14:47:20:196
7.627809814453125,7.1022905883789065,0.12808782958984374,0.034506599050102706,0.039964248361515714,0.01984633209348824,2.7448320388793945,2019-06-20 14:47:20:201
7.633795227050781,7.097502258300781,0.10175201416015625,0.03344133461407101,0.03836635170746817,0.0199794901479922,2.7499520778656006,2019-06-20 14:47:20:206
7.646963134765625,7.093911010742187,0.090978271484375,0.03197659601452743,0.0392984580889959,0.02117791263852786,2.7548160552978516,2019-06-20 14:47:20:211
7.6266127319335935,7.1010935058593745,0.046686218261718745,0.03210975406903139,0.04049688057953156,0.020245806257000124,2.7599360942840576,2019-06-20 14:47:20:216
7.636189392089843,7.097502258300781,0.10654034423828125,0.031177647687503654,0.0403637225250276,0.01904738376646447,2.7650561332702637,2019-06-20 14:47:20:221
7.658933959960938,7.085531433105468,0.0885841064453125,0.031843437960023466,0.039964248361515714,0.019713174038984278,2.7699201107025146,2019-06-20 14:47:20:226
7.6721018676757815,7.09630517578125,0.10893450927734374,0.031843437960023466,0.039564774198003826,0.020911596529519936,2.7750401496887207,2019-06-20 14:47:20:231
7.645766052246094,7.079546020507812,0.1316790771484375,0.030645015469487807,0.03863266781647609,0.020778438475015974,2.7799041271209717,2019-06-20 14:47:20:236
7.638583557128906,7.074757690429688,0.13766448974609374,0.029979225196968,0.03849950976197213,0.020512122366008047,2.7850239276885986,2019-06-20 14:47:20:241
7.633795227050781,7.089122680664063,0.12808782958984374,0.031177647687503654,0.03783371948945232,0.021444228747535782,2.7898881435394287,2019-06-20 14:47:20:246
7.61344482421875,7.071166442871093,0.12928491210937498,0.03171027990551951,0.038100035598460244,0.020245806257000124,2.7950079441070557,2019-06-20 14:47:20:251
7.6409777221679684,7.047224792480469,0.1412557373046875,0.031443963796511584,0.03943161614349987,0.020245806257000124,2.7998719215393066,2019-06-20 14:47:20:256
7.65175146484375,7.056801452636718,0.1508323974609375,0.031177647687503654,0.03836635170746817,0.020245806257000124,2.8049919605255127,2019-06-20 14:47:20:261
7.633795227050781,7.037648132324218,0.1723798828125,0.030378699360479884,0.03916530003449194,0.01918054182096843,2.8098559379577637,2019-06-20 14:47:20:266
7.639780639648437,7.052013122558594,0.15681781005859374,0.031044489632999692,0.038765825870980056,0.018781067657456543,2.8149759769439697,2019-06-20 14:47:20:271
7.649357299804687,7.056801452636718,0.14484698486328124,0.032242912123535354,0.03863266781647609,0.018115277384936734,2.8198399543762207,2019-06-20 14:47:20:276
7.643371887207031,7.078348937988281,0.1340732421875,0.032242912123535354,0.03836635170746817,0.016916854894401076,2.8249599933624268,2019-06-20 14:47:20:281
7.654145629882812,7.03884521484375,0.110131591796875,0.03197659601452743,0.0392984580889959,0.017582645166920888,2.8298239707946777,2019-06-20 14:47:20:286
7.660131042480469,7.0436335449218745,0.11851116943359374,0.03237607017803931,0.03943161614349987,0.017183171003409,2.834944009780884,2019-06-20 14:47:20:291
7.662525207519531,7.047224792480469,0.1508323974609375,0.0327755443415512,0.04049688057953156,0.016117906567377306,2.8398079872131348,2019-06-20 14:47:20:296
7.6709047851562495,7.0280714721679685,0.14484698486328124,0.030511857414983846,0.0392984580889959,0.0143868518588258,2.844928026199341,2019-06-20 14:47:20:301
7.663722290039062,7.053210205078125,0.1556207275390625,0.031443963796511584,0.038765825870980056,0.015585274349361458,2.850048065185547,2019-06-20 14:47:20:306
7.646963134765625,7.047224792480469,0.1364674072265625,0.032242912123535354,0.038898983925484014,0.016251064621881268,2.854912042617798,2019-06-20 14:47:20:311
7.658933959960938,7.061589782714844,0.138861572265625,0.03237607017803931,0.038898983925484014,0.014919484076841646,2.860032081604004,2019-06-20 14:47:20:316
7.650554382324218,7.049618957519531,0.1556207275390625,0.03171027990551951,0.03863266781647609,0.013854219640809953,2.864896059036255,2019-06-20 14:47:20:321
7.6709047851562495,7.056801452636718,0.14005865478515625,0.031177647687503654,0.0392984580889959,0.013854219640809953,2.870016098022461,2019-06-20 14:47:20:326
7.644568969726563,7.037648132324218,0.1532265625,0.03197659601452743,0.03969793225250779,0.01225632298676241,2.874880075454712,2019-06-20 14:47:20:331
7.658933959960938,7.048421875,0.13527032470703124,0.031443963796511584,0.04009740641601968,0.011990006877754486,2.880000114440918,2019-06-20 14:47:20:336
7.673298950195313,7.055604370117187,0.16160614013671876,0.03157712185101554,0.038765825870980056,0.012389481041266371,2.884864091873169,2019-06-20 14:47:20:341
7.654145629882812,7.060392700195313,0.15442364501953124,0.0327755443415512,0.03836635170746817,0.011590532714242601,2.889984130859375,2019-06-20 14:47:20:346
7.6709047851562495,7.046027709960938,0.14724114990234374,0.03357449266857497,0.039564774198003826,0.013454745477298068,2.894848108291626,2019-06-20 14:47:20:351
7.65175146484375,7.075954772949219,0.1532265625,0.03197659601452743,0.03943161614349987,0.011990006877754486,2.899968147277832,2019-06-20 14:47:20:356
7.676890197753906,7.0675751953125,0.14843823242187498,0.03210975406903139,0.04023056447052364,0.011191058550730713,2.904832124710083,2019-06-20 14:47:20:361
7.655342712402343,7.090319763183594,0.1651973876953125,0.03330817655956705,0.04009740641601968,0.009726319951187133,2.90995192527771,2019-06-20 14:47:20:366
7.657736877441406,7.0723635253906245,0.17836529541015625,0.03330817655956705,0.040630038634035526,0.009859478005691095,2.91481614112854,2019-06-20 14:47:20:371
7.649357299804687,7.03884521484375,0.17597113037109374,0.03410712488659082,0.0403637225250276,0.010392110223706943,2.919935941696167,2019-06-20 14:47:20:376
7.658933959960938,7.081940185546875,0.1340732421875,0.03317501850506309,0.03903214197998798,0.009992636060195056,2.924799919128418,2019-06-20 14:47:20:381
7.643371887207031,7.090319763183594,0.11252575683593749,0.03317501850506309,0.0392984580889959,0.010525268278210905,2.929919958114624,2019-06-20 14:47:20:386
7.657736877441406,7.084334350585937,0.12090533447265625,0.03424028294109478,0.03969793225250779,0.010392110223706943,2.93503999710083,2019-06-20 14:47:20:391
7.650554382324218,7.071166442871093,0.14484698486328124,0.03424028294109478,0.039964248361515714,0.010791584387218828,2.939903974533081,2019-06-20 14:47:20:396
7.6409777221679684,7.084334350585937,0.1556207275390625,0.03477291515911063,0.04023056447052364,0.009992636060195056,2.945024013519287,2019-06-20 14:47:20:401
7.644568969726563,7.092713928222656,0.1532265625,0.03490607321361459,0.038898983925484014,0.01092474244172279,2.949887990951538,2019-06-20 14:47:20:406
7.643371887207031,7.060392700195313,0.12449658203125,0.03330817655956705,0.038898983925484014,0.01092474244172279,2.955008029937744,2019-06-20 14:47:20:411
7.650554382324218,7.091516845703125,0.13766448974609374,0.033707650723078936,0.037966877543956286,0.011324216605234675,2.959872007369995,2019-06-20 14:47:20:416
7.638583557128906,7.085531433105468,0.14245281982421876,0.03357449266857497,0.038100035598460244,0.009060529678667323,2.964992046356201,2019-06-20 14:47:20:421
7.664919372558594,7.081940185546875,0.11611700439453125,0.03330817655956705,0.03863266781647609,0.009326845787675248,2.969856023788452,2019-06-20 14:47:20:426
7.63259814453125,7.081940185546875,0.1460440673828125,0.033707650723078936,0.03903214197998798,0.010525268278210905,2.974976062774658,2019-06-20 14:47:20:431
7.631401062011719,7.0867285156249995,0.1508323974609375,0.032242912123535354,0.03969793225250779,0.010791584387218828,2.979840040206909,2019-06-20 14:47:20:436
7.596685668945312,7.0867285156249995,0.12928491210937498,0.03210975406903139,0.03823319365296421,0.011723690768746563,2.9849600791931152,2019-06-20 14:47:20:441
7.624218566894531,7.0735606079101565,0.1340732421875,0.031843437960023466,0.03849950976197213,0.011324216605234675,2.989824056625366,2019-06-20 14:47:20:446
7.660131042480469,7.062786865234375,0.138861572265625,0.03317501850506309,0.038898983925484014,0.01305527131378618,2.9949440956115723,2019-06-20 14:47:20:451
7.65175146484375,7.091516845703125,0.15202947998046876,0.03290870239605516,0.038898983925484014,0.012522639095770333,2.9998080730438232,2019-06-20 14:47:20:456
7.630203979492188,7.074757690429688,0.1316790771484375,0.032642386287047236,0.039564774198003826,0.013454745477298068,3.0049281120300293,2019-06-20 14:47:20:461
7.644568969726563,7.097502258300781,0.138861572265625,0.032642386287047236,0.04129582890655533,0.012922113259282218,3.0100479125976562,2019-06-20 14:47:20:466
7.65175146484375,7.081940185546875,0.1460440673828125,0.032642386287047236,0.039564774198003826,0.012522639095770333,3.0149121284484863,2019-06-20 14:47:20:471
7.652948547363281,7.085531433105468,0.0981607666015625,0.031843437960023466,0.038765825870980056,0.012522639095770333,3.0200319290161133,2019-06-20 14:47:20:476
7.63259814453125,7.0879255981445315,0.11252575683593749,0.03330817655956705,0.03823319365296421,0.013854219640809953,3.0248961448669434,2019-06-20 14:47:20:481
7.644568969726563,7.104684753417969,0.12329949951171874,0.03290870239605516,0.03823319365296421,0.01358790353180203,3.0300159454345703,2019-06-20 14:47:20:486
7.645766052246094,7.063983947753906,0.13048199462890625,0.0327755443415512,0.03849950976197213,0.013188429368290141,3.0348799228668213,2019-06-20 14:47:20:491
7.638583557128906,7.093911010742187,0.1460440673828125,0.03330817655956705,0.03916530003449194,0.013454745477298068,3.0399999618530273,2019-06-20 14:47:20:496
7.630203979492188,7.060392700195313,0.1699857177734375,0.03357449266857497,0.0392984580889959,0.014520009913329761,3.0448639392852783,2019-06-20 14:47:20:501
7.634992309570312,7.084334350585937,0.14005865478515625,0.032642386287047236,0.03903214197998798,0.015318958240353535,3.0499839782714844,2019-06-20 14:47:20:506
7.637386474609375,7.080743103027344,0.11851116943359374,0.03250922823254328,0.038100035598460244,0.014253693804321838,3.0548479557037354,2019-06-20 14:47:20:511
7.648160217285156,7.079546020507812,0.1460440673828125,0.03237607017803931,0.03943161614349987,0.013321587422794106,3.0599679946899414,2019-06-20 14:47:20:516
7.6421748046874995,7.065181030273437,0.1604090576171875,0.03171027990551951,0.03863266781647609,0.013321587422794106,3.0648319721221924,2019-06-20 14:47:20:521
7.646963134765625,7.063983947753906,0.15681781005859374,0.03197659601452743,0.03916530003449194,0.01358790353180203,3.0699520111083984,2019-06-20 14:47:20:526
7.6409777221679684,7.075954772949219,0.14963531494140625,0.032642386287047236,0.03783371948945232,0.013854219640809953,3.0748159885406494,2019-06-20 14:47:20:531
7.663722290039062,7.0723635253906245,0.17118280029296876,0.032242912123535354,0.038100035598460244,0.013721061586305991,3.0799360275268555,2019-06-20 14:47:20:536
7.6709047851562495,7.065181030273437,0.11611700439453125,0.03131080574200762,0.03849950976197213,0.011990006877754486,3.0848000049591064,2019-06-20 14:47:20:541
7.660131042480469,7.080743103027344,0.12210241699218749,0.03250922823254328,0.039964248361515714,0.01225632298676241,3.0899200439453125,2019-06-20 14:47:20:546
7.654145629882812,7.0723635253906245,0.13766448974609374,0.03317501850506309,0.0403637225250276,0.012788955204778256,3.0950400829315186,2019-06-20 14:47:20:551
7.664919372558594,7.062786865234375,0.100554931640625,0.03290870239605516,0.03903214197998798,0.011856848823250525,3.0999040603637695,2019-06-20 14:47:20:556
7.664919372558594,7.0735606079101565,0.10534326171875,0.033041860450559124,0.03943161614349987,0.012123164932258448,3.1050240993499756,2019-06-20 14:47:20:561
7.6804814453125,7.065181030273437,0.10175201416015625,0.033041860450559124,0.03983109030701175,0.012788955204778256,3.1098880767822266,2019-06-20 14:47:20:566
7.644568969726563,7.07715185546875,0.10294909667968749,0.033041860450559124,0.039964248361515714,0.012655797150274295,3.1150081157684326,2019-06-20 14:47:20:571
7.638583557128906,7.069969360351562,0.13048199462890625,0.033840808777582894,0.038898983925484014,0.012123164932258448,3.1198720932006836,2019-06-20 14:47:20:576
7.624218566894531,7.0591956176757815,0.13287615966796876,0.033041860450559124,0.039564774198003826,0.012522639095770333,3.1249921321868896,2019-06-20 14:47:20:581
7.6409777221679684,7.061589782714844,0.09217535400390625,0.03357449266857497,0.0403637225250276,0.01358790353180203,3.1298561096191406,2019-06-20 14:47:20:586
7.629006896972656,7.0675751953125,0.14364990234375,0.03317501850506309,0.040763196688539484,0.011856848823250525,3.1349761486053467,2019-06-20 14:47:20:591
7.624218566894531,7.0735606079101565,0.13048199462890625,0.03250922823254328,0.039964248361515714,0.012522639095770333,3.1398401260375977,2019-06-20 14:47:20:596
7.637386474609375,7.083137268066406,0.114919921875,0.0327755443415512,0.0392984580889959,0.012655797150274295,3.1449599266052246,2019-06-20 14:47:20:601
7.621824401855468,7.079546020507812,0.15921197509765625,0.03171027990551951,0.03983109030701175,0.01358790353180203,3.1498241424560547,2019-06-20 14:47:20:606
7.615838989257813,7.052013122558594,0.14484698486328124,0.03250922823254328,0.040630038634035526,0.01305527131378618,3.1549439430236816,2019-06-20 14:47:20:611
7.624218566894531,7.061589782714844,0.12329949951171874,0.03250922823254328,0.040630038634035526,0.01305527131378618,3.1598079204559326,2019-06-20 14:47:20:616
7.629006896972656,7.081940185546875,0.1508323974609375,0.032642386287047236,0.03969793225250779,0.013321587422794106,3.1649279594421387,2019-06-20 14:47:20:621
7.643371887207031,7.0723635253906245,0.14245281982421876,0.03290870239605516,0.039564774198003826,0.013321587422794106,3.1700479984283447,2019-06-20 14:47:20:626
7.643371887207031,7.093911010742187,0.13048199462890625,0.03157712185101554,0.03943161614349987,0.013188429368290141,3.1749119758605957,2019-06-20 14:47:20:631
7.637386474609375,7.069969360351562,0.12449658203125,0.03290870239605516,0.04116267085205137,0.011723690768746563,3.1800320148468018,2019-06-20 14:47:20:636
7.630203979492188,7.0735606079101565,0.12210241699218749,0.03237607017803931,0.03969793225250779,0.012655797150274295,3.1848959922790527,2019-06-20 14:47:20:641
7.621824401855468,7.066378112792969,0.14005865478515625,0.03197659601452743,0.0403637225250276,0.013321587422794106,3.190016031265259,2019-06-20 14:47:20:646
7.6122477416992185,7.098699340820312,0.14364990234375,0.03210975406903139,0.039964248361515714,0.012655797150274295,3.1948800086975098,2019-06-20 14:47:20:651
7.633795227050781,7.0675751953125,0.1316790771484375,0.03250922823254328,0.04009740641601968,0.012788955204778256,3.200000047683716,2019-06-20 14:47:20:656
7.650554382324218,7.085531433105468,0.1460440673828125,0.0327755443415512,0.040763196688539484,0.012922113259282218,3.204864025115967,2019-06-20 14:47:20:661
7.646963134765625,7.085531433105468,0.138861572265625,0.032242912123535354,0.03969793225250779,0.013987377695313915,3.209984064102173,2019-06-20 14:47:20:666
7.633795227050781,7.0579985351562495,0.1340732421875,0.03197659601452743,0.03916530003449194,0.014919484076841646,3.214848041534424,2019-06-20 14:47:20:671
7.669707702636718,7.03884521484375,0.12090533447265625,0.0327755443415512,0.038898983925484014,0.013854219640809953,3.21996808052063,2019-06-20 14:47:20:676
7.6565397949218745,7.047224792480469,0.14245281982421876,0.0327755443415512,0.03903214197998798,0.014253693804321838,3.224832057952881,2019-06-20 14:47:20:681
7.644568969726563,7.075954772949219,0.13287615966796876,0.03197659601452743,0.03983109030701175,0.013987377695313915,3.229952096939087,2019-06-20 14:47:20:686
7.646963134765625,7.081940185546875,0.13048199462890625,0.03157712185101554,0.03969793225250779,0.013188429368290141,3.234816074371338,2019-06-20 14:47:20:691
7.646963134765625,7.07715185546875,0.1460440673828125,0.031044489632999692,0.03943161614349987,0.01358790353180203,3.239936113357544,2019-06-20 14:47:20:696
7.660131042480469,7.107078918457031,0.14843823242187498,0.030511857414983846,0.03916530003449194,0.012522639095770333,3.244800090789795,2019-06-20 14:47:20:701
7.6421748046874995,7.063983947753906,0.12569366455078124,0.031177647687503654,0.03916530003449194,0.01305527131378618,3.249920129776001,2019-06-20 14:47:20:706
7.6421748046874995,7.066378112792969,0.11372283935546874,0.031443963796511584,0.03943161614349987,0.012655797150274295,3.255039930343628,2019-06-20 14:47:20:711
7.661328125,7.075954772949219,0.14364990234375,0.03077817352399177,0.03903214197998798,0.013188429368290141,3.259904146194458,2019-06-20 14:47:20:716
7.630203979492188,7.092713928222656,0.12808782958984374,0.03197659601452743,0.03849950976197213,0.01358790353180203,3.265023946762085,2019-06-20 14:47:20:721
7.646963134765625,7.085531433105468,0.17357696533203124,0.032642386287047236,0.03849950976197213,0.013721061586305991,3.269887924194336,2019-06-20 14:47:20:726
7.646963134765625,7.035253967285156,0.16400030517578124,0.032242912123535354,0.038898983925484014,0.01305527131378618,3.275007963180542,2019-06-20 14:47:20:731
7.644568969726563,7.0424364624023434,0.119708251953125,0.03091133157849573,0.03969793225250779,0.01358790353180203,3.279871940612793,2019-06-20 14:47:20:736
7.654145629882812,7.069969360351562,0.13048199462890625,0.03157712185101554,0.03983109030701175,0.013321587422794106,3.284991979598999,2019-06-20 14:47:20:741
7.596685668945312,7.0879255981445315,0.14245281982421876,0.031044489632999692,0.04102951279754741,0.013987377695313915,3.28985595703125,2019-06-20 14:47:20:746
7.661328125,7.066378112792969,0.12090533447265625,0.031843437960023466,0.04009740641601968,0.014253693804321838,3.294975996017456,2019-06-20 14:47:20:751
7.655342712402343,7.062786865234375,0.14364990234375,0.03171027990551951,0.03916530003449194,0.013454745477298068,3.299839973449707,2019-06-20 14:47:20:756
7.652948547363281,7.074757690429688,0.14724114990234374,0.032242912123535354,0.03849950976197213,0.01305527131378618,3.304960012435913,2019-06-20 14:47:20:761
7.660131042480469,7.081940185546875,0.15442364501953124,0.031843437960023466,0.03916530003449194,0.012788955204778256,3.309823989868164,2019-06-20 14:47:20:766
7.646963134765625,7.081940185546875,0.1460440673828125,0.03210975406903139,0.038898983925484014,0.012655797150274295,3.31494402885437,2019-06-20 14:47:20:771
7.61344482421875,7.049618957519531,0.14963531494140625,0.031443963796511584,0.04023056447052364,0.013321587422794106,3.319808006286621,2019-06-20 14:47:20:776
7.639780639648437,7.065181030273437,0.13287615966796876,0.0327755443415512,0.03983109030701175,0.014919484076841646,3.324928045272827,2019-06-20 14:47:20:781
7.6266127319335935,7.056801452636718,0.12928491210937498,0.03330817655956705,0.03903214197998798,0.014786326022337684,3.330048084259033,2019-06-20 14:47:20:786
7.637386474609375,7.085531433105468,0.12449658203125,0.03197659601452743,0.03903214197998798,0.013188429368290141,3.334912061691284,2019-06-20 14:47:20:791
7.639780639648437,7.065181030273437,0.1460440673828125,0.03131080574200762,0.03983109030701175,0.012389481041266371,3.3400321006774902,2019-06-20 14:47:20:796
7.644568969726563,7.0436335449218745,0.1651973876953125,0.03197659601452743,0.038898983925484014,0.011990006877754486,3.344896078109741,2019-06-20 14:47:20:801
7.663722290039062,7.0591956176757815,0.1604090576171875,0.03317501850506309,0.038765825870980056,0.012788955204778256,3.3500161170959473,2019-06-20 14:47:20:806
7.644568969726563,7.079546020507812,0.1723798828125,0.03171027990551951,0.03969793225250779,0.012788955204778256,3.3548800945281982,2019-06-20 14:47:20:811
7.655342712402343,7.060392700195313,0.13048199462890625,0.03330817655956705,0.04023056447052364,0.011191058550730713,3.3600001335144043,2019-06-20 14:47:20:816
7.636189392089843,7.065181030273437,0.15681781005859374,0.033041860450559124,0.04009740641601968,0.01305527131378618,3.3648641109466553,2019-06-20 14:47:20:821
7.63259814453125,7.075954772949219,0.12928491210937498,0.0327755443415512,0.04116267085205137,0.01225632298676241,3.3699841499328613,2019-06-20 14:47:20:826
7.637386474609375,7.063983947753906,0.11252575683593749,0.03317501850506309,0.039564774198003826,0.012389481041266371,3.3748481273651123,2019-06-20 14:47:20:831
7.654145629882812,7.079546020507812,0.10893450927734374,0.033707650723078936,0.03903214197998798,0.012522639095770333,3.3799679279327393,2019-06-20 14:47:20:836
7.6266127319335935,7.074757690429688,0.13527032470703124,0.032642386287047236,0.03983109030701175,0.011191058550730713,3.3848321437835693,2019-06-20 14:47:20:841
7.637386474609375,7.081940185546875,0.13287615966796876,0.033840808777582894,0.0403637225250276,0.010791584387218828,3.3899519443511963,2019-06-20 14:47:20:846
7.615838989257813,7.093911010742187,0.12808782958984374,0.034506599050102706,0.03849950976197213,0.011856848823250525,3.3948159217834473,2019-06-20 14:47:20:851
7.644568969726563,7.092713928222656,0.14843823242187498,0.034506599050102706,0.03943161614349987,0.011723690768746563,3.3999359607696533,2019-06-20 14:47:20:856
7.644568969726563,7.080743103027344,0.14245281982421876,0.033840808777582894,0.039964248361515714,0.011191058550730713,3.4047999382019043,2019-06-20 14:47:20:861
7.63259814453125,7.080743103027344,0.138861572265625,0.033840808777582894,0.04049688057953156,0.011590532714242601,3.4099199771881104,2019-06-20 14:47:20:866
7.621824401855468,7.061589782714844,0.1364674072265625,0.03290870239605516,0.03903214197998798,0.011191058550730713,3.4150400161743164,2019-06-20 14:47:20:871
7.636189392089843,7.066378112792969,0.13527032470703124,0.03210975406903139,0.03916530003449194,0.012389481041266371,3.4199039936065674,2019-06-20 14:47:20:876
7.649357299804687,7.080743103027344,0.11372283935546874,0.03210975406903139,0.03770056143494836,0.011324216605234675,3.4250240325927734,2019-06-20 14:47:20:881
7.6409777221679684,7.084334350585937,0.110131591796875,0.032242912123535354,0.03783371948945232,0.011590532714242601,3.4298880100250244,2019-06-20 14:47:20:886
7.637386474609375,7.060392700195313,0.12329949951171874,0.03290870239605516,0.03969793225250779,0.011723690768746563,3.4350080490112305,2019-06-20 14:47:20:891
7.643371887207031,7.0675751953125,0.13287615966796876,0.033041860450559124,0.03943161614349987,0.011590532714242601,3.4398720264434814,2019-06-20 14:47:20:896
7.633795227050781,7.0723635253906245,0.13766448974609374,0.032242912123535354,0.037966877543956286,0.011057900496226753,3.4449920654296875,2019-06-20 14:47:20:901
7.648160217285156,7.0879255981445315,0.11611700439453125,0.03237607017803931,0.03823319365296421,0.011191058550730713,3.4498560428619385,2019-06-20 14:47:20:906
7.6266127319335935,7.085531433105468,0.13287615966796876,0.0327755443415512,0.038765825870980056,0.011723690768746563,3.4549760818481445,2019-06-20 14:47:20:911
7.625415649414062,7.083137268066406,0.14005865478515625,0.03197659601452743,0.037966877543956286,0.01092474244172279,3.4598400592803955,2019-06-20 14:47:20:916
7.657736877441406,7.068772277832031,0.1340732421875,0.03237607017803931,0.03770056143494836,0.010525268278210905,3.4649600982666016,2019-06-20 14:47:20:921
7.674496032714844,7.065181030273437,0.1173140869140625,0.03197659601452743,0.03823319365296421,0.01092474244172279,3.4698240756988525,2019-06-20 14:47:20:926
7.657736877441406,7.061589782714844,0.13766448974609374,0.03250922823254328,0.03863266781647609,0.011723690768746563,3.4749441146850586,2019-06-20 14:47:20:931
7.648160217285156,7.062786865234375,0.090978271484375,0.03317501850506309,0.038100035598460244,0.011723690768746563,3.4798080921173096,2019-06-20 14:47:20:936
7.639780639648437,7.07715185546875,0.110131591796875,0.03330817655956705,0.038100035598460244,0.011723690768746563,3.4849281311035156,2019-06-20 14:47:20:941
7.6266127319335935,7.098699340820312,0.12090533447265625,0.03290870239605516,0.03743424532594044,0.011990006877754486,3.4900479316711426,2019-06-20 14:47:20:946
7.6409777221679684,7.079546020507812,0.12449658203125,0.032642386287047236,0.03849950976197213,0.012123164932258448,3.4949121475219727,2019-06-20 14:47:20:951
7.649357299804687,7.063983947753906,0.1340732421875,0.03197659601452743,0.038100035598460244,0.011191058550730713,3.5000319480895996,2019-06-20 14:47:20:956
7.634992309570312,7.085531433105468,0.16160614013671876,0.03237607017803931,0.038898983925484014,0.010791584387218828,3.5048959255218506,2019-06-20 14:47:20:961
7.624218566894531,7.075954772949219,0.14364990234375,0.03330817655956705,0.03916530003449194,0.011057900496226753,3.5100159645080566,2019-06-20 14:47:20:966
7.648160217285156,7.1010935058593745,0.10414617919921874,0.032642386287047236,0.039564774198003826,0.011191058550730713,3.5148799419403076,2019-06-20 14:47:20:971
7.648160217285156,7.09630517578125,0.1268907470703125,0.03237607017803931,0.039964248361515714,0.01092474244172279,3.5199999809265137,2019-06-20 14:47:20:976
7.629006896972656,7.107078918457031,0.1364674072265625,0.03237607017803931,0.0392984580889959,0.01012579411469902,3.5248639583587646,2019-06-20 14:47:20:981
7.638583557128906,7.111867248535156,0.1364674072265625,0.03171027990551951,0.03849950976197213,0.010791584387218828,3.5299839973449707,2019-06-20 14:47:20:986
7.6421748046874995,7.083137268066406,0.11252575683593749,0.0327755443415512,0.03916530003449194,0.011590532714242601,3.5348479747772217,2019-06-20 14:47:20:991
7.654145629882812,7.047224792480469,0.1316790771484375,0.03237607017803931,0.03863266781647609,0.01145737465973864,3.5399680137634277,2019-06-20 14:47:20:996
7.620627319335937,7.069969360351562,0.12210241699218749,0.032242912123535354,0.03969793225250779,0.010525268278210905,3.5448319911956787,2019-06-20 14:47:21:001
7.630203979492188,7.104684753417969,0.11372283935546874,0.03330817655956705,0.04023056447052364,0.01145737465973864,3.5499520301818848,2019-06-20 14:47:21:006
7.624218566894531,7.090319763183594,0.12808782958984374,0.032642386287047236,0.03849950976197213,0.011990006877754486,3.5548160076141357,2019-06-20 14:47:21:011
7.607459411621093,7.089122680664063,0.1077374267578125,0.0327755443415512,0.03770056143494836,0.011990006877754486,3.559936046600342,2019-06-20 14:47:21:016
7.646963134765625,7.093911010742187,0.12808782958984374,0.0327755443415512,0.03783371948945232,0.011590532714242601,3.5648000240325928,2019-06-20 14:47:21:021
7.629006896972656,7.099896423339843,0.12210241699218749,0.03397396683208686,0.0392984580889959,0.011191058550730713,3.569920063018799,2019-06-20 14:47:21:026
7.625415649414062,7.081940185546875,0.10175201416015625,0.03344133461407101,0.03903214197998798,0.011590532714242601,3.575040102005005,2019-06-20 14:47:21:031
7.63259814453125,7.083137268066406,0.1268907470703125,0.03317501850506309,0.04023056447052364,0.011324216605234675,3.579904079437256,2019-06-20 14:47:21:036
7.63259814453125,7.092713928222656,0.0957666015625,0.033041860450559124,0.039564774198003826,0.011723690768746563,3.585024118423462,2019-06-20 14:47:21:041
7.629006896972656,7.068772277832031,0.11252575683593749,0.033041860450559124,0.0392984580889959,0.012788955204778256,3.589888095855713,2019-06-20 14:47:21:046
7.63259814453125,7.065181030273437,0.11372283935546874,0.03317501850506309,0.0403637225250276,0.013854219640809953,3.595008134841919,2019-06-20 14:47:21:051
7.650554382324218,7.0579985351562495,0.114919921875,0.033041860450559124,0.04009740641601968,0.01305527131378618,3.59987211227417,2019-06-20 14:47:21:056
7.65175146484375,7.098699340820312,0.16400030517578124,0.03210975406903139,0.038765825870980056,0.011990006877754486,3.604991912841797,2019-06-20 14:47:21:061
7.676890197753906,7.0579985351562495,0.12329949951171874,0.03197659601452743,0.03916530003449194,0.012655797150274295,3.609856128692627,2019-06-20 14:47:21:066
7.6266127319335935,7.0436335449218745,0.10414617919921874,0.03237607017803931,0.03983109030701175,0.011856848823250525,3.614975929260254,2019-06-20 14:47:21:071
7.636189392089843,7.092713928222656,0.13048199462890625,0.03210975406903139,0.039564774198003826,0.01305527131378618,3.619840145111084,2019-06-20 14:47:21:076
7.639780639648437,7.081940185546875,0.12329949951171874,0.03237607017803931,0.03863266781647609,0.014520009913329761,3.624959945678711,2019-06-20 14:47:21:081
7.638583557128906,7.093911010742187,0.1460440673828125,0.03171027990551951,0.03903214197998798,0.014786326022337684,3.629823923110962,2019-06-20 14:47:21:086
7.629006896972656,7.065181030273437,0.15442364501953124,0.032242912123535354,0.03903214197998798,0.012655797150274295,3.634943962097168,2019-06-20 14:47:21:091
7.611050659179687,7.098699340820312,0.1699857177734375,0.03290870239605516,0.03836635170746817,0.012389481041266371,3.639807939529419,2019-06-20 14:47:21:096
7.611050659179687,7.080743103027344,0.1723798828125,0.031843437960023466,0.03849950976197213,0.012655797150274295,3.644927978515625,2019-06-20 14:47:21:101
7.650554382324218,7.081940185546875,0.14724114990234374,0.032642386287047236,0.039964248361515714,0.013721061586305991,3.650048017501831,2019-06-20 14:47:21:106
7.661328125,7.078348937988281,0.16280322265625,0.032642386287047236,0.04009740641601968,0.013721061586305991,3.654911994934082,2019-06-20 14:47:21:111
7.630203979492188,7.065181030273437,0.14245281982421876,0.03237607017803931,0.03903214197998798,0.014653167967833723,3.660032033920288,2019-06-20 14:47:21:116
7.634992309570312,7.056801452636718,0.1651973876953125,0.032242912123535354,0.03836635170746817,0.014786326022337684,3.664896011352539,2019-06-20 14:47:21:121
7.654145629882812,7.081940185546875,0.09456951904296874,0.031843437960023466,0.0392984580889959,0.013854219640809953,3.670016050338745,2019-06-20 14:47:21:126
7.664919372558594,7.07715185546875,0.1340732421875,0.032242912123535354,0.039964248361515714,0.012788955204778256,3.674880027770996,2019-06-20 14:47:21:131
7.617036071777344,7.068772277832031,0.1316790771484375,0.030511857414983846,0.039564774198003826,0.012788955204778256,3.680000066757202,2019-06-20 14:47:21:136
7.634992309570312,7.062786865234375,0.16878863525390625,0.031044489632999692,0.04009740641601968,0.013454745477298068,3.684864044189453,2019-06-20 14:47:21:141
7.657736877441406,7.071166442871093,0.1532265625,0.032242912123535354,0.0392984580889959,0.013454745477298068,3.689984083175659,2019-06-20 14:47:21:146
7.629006896972656,7.074757690429688,0.11851116943359374,0.03171027990551951,0.03916530003449194,0.013454745477298068,3.69484806060791,2019-06-20 14:47:21:151
7.661328125,7.09630517578125,0.119708251953125,0.03171027990551951,0.03903214197998798,0.01305527131378618,3.699968099594116,2019-06-20 14:47:21:156
7.637386474609375,7.117852661132813,0.12090533447265625,0.032242912123535354,0.0392984580889959,0.012788955204778256,3.704832077026367,2019-06-20 14:47:21:161
7.645766052246094,7.09630517578125,0.15442364501953124,0.03210975406903139,0.039964248361515714,0.01358790353180203,3.7099521160125732,2019-06-20 14:47:21:166
7.634992309570312,7.085531433105468,0.158014892578125,0.03237607017803931,0.03916530003449194,0.013721061586305991,3.714816093444824,2019-06-20 14:47:21:171
7.664919372558594,7.075954772949219,0.1460440673828125,0.03290870239605516,0.03916530003449194,0.013188429368290141,3.7199361324310303,2019-06-20 14:47:21:176
7.629006896972656,7.093911010742187,0.119708251953125,0.03250922823254328,0.039964248361515714,0.013321587422794106,3.7248001098632812,2019-06-20 14:47:21:181
7.6421748046874995,7.099896423339843,0.12090533447265625,0.0327755443415512,0.0392984580889959,0.014120535749817876,3.7299201488494873,2019-06-20 14:47:21:186
7.620627319335937,7.084334350585937,0.12928491210937498,0.032242912123535354,0.03903214197998798,0.01358790353180203,3.7350399494171143,2019-06-20 14:47:21:191
7.652948547363281,7.0675751953125,0.14724114990234374,0.032642386287047236,0.03903214197998798,0.014120535749817876,3.7399039268493652,2019-06-20 14:47:21:196
