ACCELEROMETER X (m/s²),ACCELEROMETER Y (m/s²),ACCELEROMETER Z (m/s²),LINEAR ACCELERATION X (m/s²),LINEAR ACCELERATION Y (m/s²),LINEAR ACCELERATION Z (m/s²),GYROSCOPE X (rad/s),GYROSCOPE Y (rad/s),GYROSCOPE Z (rad/s),Time since start in ms ,YYYY-MO-DD HH-MI-SS_SSS
-0.15,-0.6,9.88,-0.04,0.0,-0.03,0.0,0.0,0.0,16,2019-04-29 17:21:51:647
-0.15,-0.6,9.88,-0.04,0.0,-0.03,0.0,0.0,0.0,22,2019-04-29 17:21:51:653
-0.15,-0.6,9.88,-0.04,0.0,-0.03,0.0,0.0,0.0,26,2019-04-29 17:21:51:657
-0.27,-0.73,9.95,-0.17,-0.13,0.03,0.0,0.0,0.0,31,2019-04-29 17:21:51:662
-0.27,-0.73,9.95,-0.17,-0.13,0.03,0.0,0.0,0.0,37,2019-04-29 17:21:51:668
-0.27,-0.73,9.95,-0.17,-0.13,0.03,0.0,0.0,0.0,42,2019-04-29 17:21:51:673
-0.27,-0.73,9.95,-0.17,-0.13,0.03,0.0,0.0,0.0,47,2019-04-29 17:21:51:678
-0.23,-0.75,9.99,-0.11,-0.16,0.07,0.0,0.0,0.0,51,2019-04-29 17:21:51:682
-0.23,-0.75,9.99,-0.11,-0.16,0.07,0.0,0.0,0.0,56,2019-04-29 17:21:51:687
-0.23,-0.75,9.99,-0.11,-0.16,0.07,0.0,0.0,0.0,62,2019-04-29 17:21:51:693
-0.23,-0.75,9.99,-0.11,-0.16,0.07,0.0,0.0,0.0,67,2019-04-29 17:21:51:698
-0.23,-0.58,9.89,-0.14,0.0,-0.03,0.0,0.0,0.0,72,2019-04-29 17:21:51:703
-0.23,-0.58,9.89,-0.14,0.0,-0.03,0.0,0.0,0.0,77,2019-04-29 17:21:51:708
-0.23,-0.58,9.89,-0.14,0.0,-0.03,0.0,0.0,0.0,81,2019-04-29 17:21:51:712
-0.13,-0.69,9.99,0.0,0.07,-0.08,0.0,0.0,0.0,87,2019-04-29 17:21:51:718
-0.13,-0.69,9.99,0.0,0.07,-0.08,0.0,0.0,0.0,91,2019-04-29 17:21:51:722
-0.13,-0.69,9.99,0.0,0.07,-0.08,0.0,0.0,0.0,96,2019-04-29 17:21:51:727
-0.13,-0.69,9.99,0.0,0.07,-0.08,0.0,0.0,0.0,102,2019-04-29 17:21:51:733
-0.13,-0.69,9.99,0.0,0.07,-0.08,0.0,0.0,0.0,107,2019-04-29 17:21:51:738
-0.02,-0.49,9.89,0.05,0.09,-0.04,0.0,0.0,0.0,111,2019-04-29 17:21:51:742
-0.02,-0.49,9.89,0.05,0.09,-0.04,0.0,0.0,0.0,117,2019-04-29 17:21:51:748
-0.02,-0.49,9.89,0.05,0.09,-0.04,0.0,0.0,0.0,122,2019-04-29 17:21:51:753
-0.02,-0.49,9.89,0.05,0.09,-0.04,0.0,0.0,0.0,126,2019-04-29 17:21:51:757
0.0,-0.58,10.02,0.08,0.0,0.09,0.0,0.0,0.0,131,2019-04-29 17:21:51:762
0.0,-0.58,10.02,0.08,0.0,0.09,0.0,0.0,0.0,136,2019-04-29 17:21:51:767
0.0,-0.58,10.02,0.08,0.0,0.09,0.0,0.0,0.0,142,2019-04-29 17:21:51:773
0.0,-0.58,10.02,0.08,0.0,0.09,0.0,0.0,0.0,147,2019-04-29 17:21:51:778
-0.05,-0.58,9.99,0.04,0.0,0.05,0.0,0.0,0.0,151,2019-04-29 17:21:51:782
-0.05,-0.58,9.99,0.04,0.0,0.05,0.0,0.0,0.0,157,2019-04-29 17:21:51:788
-0.05,-0.58,9.99,0.04,0.0,0.05,0.0,0.0,0.0,161,2019-04-29 17:21:51:792
-0.05,-0.58,9.99,0.04,0.0,0.05,0.0,0.0,0.0,167,2019-04-29 17:21:51:798
-0.08,-0.55,9.93,0.02,0.03,0.0,0.0,0.0,0.0,172,2019-04-29 17:21:51:803
-0.08,-0.55,9.93,0.02,0.03,0.0,0.0,0.0,0.0,176,2019-04-29 17:21:51:807
-0.08,-0.55,9.93,0.02,0.03,0.0,0.0,0.0,0.0,182,2019-04-29 17:21:51:813
-0.1,-0.56,9.93,0.0,0.02,0.0,0.0,0.0,0.0,187,2019-04-29 17:21:51:818
-0.1,-0.56,9.93,0.0,0.02,0.0,0.0,0.0,0.0,192,2019-04-29 17:21:51:823
-0.1,-0.56,9.93,0.0,0.02,0.0,0.0,0.0,0.0,198,2019-04-29 17:21:51:829
-0.1,-0.56,9.93,0.0,0.02,0.0,0.0,0.0,0.0,202,2019-04-29 17:21:51:833
-0.1,-0.56,9.93,0.0,0.02,0.0,0.0,0.0,0.0,207,2019-04-29 17:21:51:838
-0.11,-0.63,9.91,-0.02,-0.05,-0.02,0.0,0.0,0.0,211,2019-04-29 17:21:51:842
-0.11,-0.63,9.91,-0.02,-0.05,-0.02,0.0,0.0,0.0,216,2019-04-29 17:21:51:847
-0.1,-0.65,9.96,-0.01,-0.08,0.02,0.0,0.0,0.0,222,2019-04-29 17:21:51:853
-0.1,-0.65,9.96,-0.01,-0.08,0.02,0.0,0.0,0.0,227,2019-04-29 17:21:51:858
-0.1,-0.65,9.96,-0.01,-0.08,0.02,0.0,0.0,0.0,232,2019-04-29 17:21:51:863
-0.1,-0.65,9.96,-0.01,-0.08,0.02,0.0,0.0,0.0,236,2019-04-29 17:21:51:867
-0.05,-0.55,9.91,0.03,0.01,-0.01,0.0,0.0,0.0,242,2019-04-29 17:21:51:873
-0.05,-0.55,9.91,0.03,0.01,-0.01,0.0,0.0,0.0,247,2019-04-29 17:21:51:878
-0.05,-0.55,9.91,0.03,0.01,-0.01,0.0,0.0,0.0,251,2019-04-29 17:21:51:882
-0.05,-0.55,9.91,0.03,0.01,-0.01,0.0,0.0,0.0,257,2019-04-29 17:21:51:888
-0.05,-0.55,9.91,0.03,0.01,-0.01,0.0,0.0,0.0,261,2019-04-29 17:21:51:892
-0.05,-0.55,9.91,0.03,0.01,-0.01,0.0,0.0,0.0,267,2019-04-29 17:21:51:898
0.0,-0.5,9.89,0.08,0.07,-0.03,0.0,0.0,0.0,272,2019-04-29 17:21:51:903
0.0,-0.5,9.89,0.08,0.07,-0.03,0.0,0.0,0.0,277,2019-04-29 17:21:51:908
0.0,-0.5,9.89,0.08,0.07,-0.03,0.0,0.0,0.0,281,2019-04-29 17:21:51:912
0.0,-0.5,9.89,0.08,0.07,-0.03,0.0,0.0,0.0,286,2019-04-29 17:21:51:917
-0.08,-0.52,9.9,0.0,0.05,-0.02,0.0,0.0,0.0,291,2019-04-29 17:21:51:922
-0.08,-0.52,9.9,0.0,0.05,-0.02,0.0,0.0,0.0,297,2019-04-29 17:21:51:928
-0.08,-0.52,9.9,0.0,0.05,-0.02,0.0,0.0,0.0,301,2019-04-29 17:21:51:932
-0.08,-0.52,9.9,0.0,0.05,-0.02,0.0,0.0,0.0,306,2019-04-29 17:21:51:937
-0.11,-0.57,9.93,-0.01,0.0,0.0,0.0,0.0,0.0,311,2019-04-29 17:21:51:942
-0.11,-0.57,9.93,-0.01,0.0,0.0,0.0,0.0,0.0,316,2019-04-29 17:21:51:947
-0.11,-0.57,9.93,-0.01,0.0,0.0,0.0,0.0,0.0,321,2019-04-29 17:21:51:952
-0.11,-0.57,9.93,-0.01,0.0,0.0,0.0,0.0,0.0,326,2019-04-29 17:21:51:957
-0.11,-0.57,9.93,-0.01,0.0,0.0,0.0,0.0,0.0,331,2019-04-29 17:21:51:962
-0.17,-0.62,9.96,-0.07,-0.04,0.03,0.0,0.0,0.0,336,2019-04-29 17:21:51:967
-0.17,-0.62,9.96,-0.07,-0.04,0.03,0.0,0.0,0.0,341,2019-04-29 17:21:51:972
-0.17,-0.62,9.96,-0.07,-0.04,0.03,0.0,0.0,0.0,347,2019-04-29 17:21:51:978
-0.17,-0.62,9.96,-0.07,-0.04,0.03,0.0,0.0,0.0,352,2019-04-29 17:21:51:983
-0.17,-0.62,9.96,-0.07,-0.04,0.03,0.0,0.0,0.0,356,2019-04-29 17:21:51:987
-0.12,-0.52,9.93,-0.02,0.04,0.0,0.0,0.0,0.0,361,2019-04-29 17:21:51:992
-0.12,-0.52,9.93,-0.02,0.04,0.0,0.0,0.0,0.0,367,2019-04-29 17:21:51:998
-0.12,-0.52,9.93,-0.02,0.04,0.0,0.0,0.0,0.0,371,2019-04-29 17:21:52:002
-0.12,-0.52,9.93,-0.02,0.04,0.0,0.0,0.0,0.0,376,2019-04-29 17:21:52:007
-0.12,-0.52,9.93,-0.02,0.04,0.0,0.0,0.0,0.0,381,2019-04-29 17:21:52:012
-0.07,-0.53,9.95,0.01,0.03,0.01,0.0,0.0,0.0,388,2019-04-29 17:21:52:019
-0.07,-0.53,9.95,0.01,0.03,0.01,0.0,0.0,0.0,392,2019-04-29 17:21:52:023
-0.07,-0.53,9.95,0.01,0.03,0.01,0.0,0.0,0.0,396,2019-04-29 17:21:52:027
-0.07,-0.53,9.95,0.01,0.03,0.01,0.0,0.0,0.0,402,2019-04-29 17:21:52:033
-0.07,-0.53,9.95,0.01,0.03,0.01,0.0,0.0,0.0,407,2019-04-29 17:21:52:038
-0.02,-0.56,9.96,0.06,0.0,0.03,0.0,0.0,0.0,412,2019-04-29 17:21:52:043
-0.02,-0.56,9.96,0.06,0.0,0.03,0.0,0.0,0.0,417,2019-04-29 17:21:52:048
-0.13,-0.59,9.9,-0.04,-0.03,-0.03,0.0,0.0,0.0,422,2019-04-29 17:21:52:053
-0.13,-0.59,9.9,-0.04,-0.03,-0.03,0.0,0.0,0.0,427,2019-04-29 17:21:52:058
-0.13,-0.59,9.9,-0.04,-0.03,-0.03,0.0,0.0,0.0,432,2019-04-29 17:21:52:063
-0.13,-0.59,9.9,-0.04,-0.03,-0.03,0.0,0.0,0.0,437,2019-04-29 17:21:52:068
-0.13,-0.59,9.9,-0.04,-0.03,-0.03,0.0,0.0,0.0,441,2019-04-29 17:21:52:072
-0.13,-0.59,9.9,-0.04,-0.03,-0.03,0.0,0.0,0.0,446,2019-04-29 17:21:52:077
-0.05,-0.52,9.96,0.03,0.03,0.03,0.0,0.0,0.0,452,2019-04-29 17:21:52:083
-0.05,-0.52,9.96,0.03,0.03,0.03,0.0,0.0,0.0,456,2019-04-29 17:21:52:087
-0.05,-0.52,9.96,0.03,0.03,0.03,0.0,0.0,0.0,462,2019-04-29 17:21:52:093
-0.05,-0.52,9.96,0.03,0.03,0.03,0.0,0.0,0.0,466,2019-04-29 17:21:52:097
-0.05,-0.52,9.96,0.03,0.03,0.03,0.0,0.0,0.0,472,2019-04-29 17:21:52:103
-0.05,-0.52,9.96,0.03,0.03,0.03,0.0,0.0,0.0,477,2019-04-29 17:21:52:108
-0.14,-0.54,9.93,-0.05,0.01,0.0,0.0,0.0,0.0,482,2019-04-29 17:21:52:113
-0.14,-0.54,9.93,-0.05,0.01,0.0,0.0,0.0,0.0,486,2019-04-29 17:21:52:117
-0.14,-0.54,9.93,-0.05,0.01,0.0,0.0,0.0,0.0,492,2019-04-29 17:21:52:123
-0.14,-0.54,9.93,-0.05,0.01,0.0,0.0,0.0,0.0,497,2019-04-29 17:21:52:128
-0.11,-0.6,9.93,-0.02,-0.03,0.0,0.0,0.0,0.0,501,2019-04-29 17:21:52:132
-0.11,-0.6,9.93,-0.02,-0.03,0.0,0.0,0.0,0.0,507,2019-04-29 17:21:52:138
-0.11,-0.6,9.93,-0.02,-0.03,0.0,0.0,0.0,0.0,512,2019-04-29 17:21:52:143
-0.12,-0.54,9.89,-0.03,0.01,-0.03,0.0,0.0,0.0,525,2019-04-29 17:21:52:156
-0.12,-0.54,9.89,-0.03,0.01,-0.03,0.0,0.0,0.0,527,2019-04-29 17:21:52:158
-0.12,-0.54,9.89,-0.03,0.01,-0.03,0.0,0.0,0.0,528,2019-04-29 17:21:52:159
-0.12,-0.54,9.89,-0.03,0.01,-0.03,0.0,0.0,0.0,531,2019-04-29 17:21:52:162
-0.12,-0.54,9.89,-0.03,0.01,-0.03,0.0,0.0,0.0,536,2019-04-29 17:21:52:167
-0.12,-0.54,9.89,-0.03,0.01,-0.03,0.0,0.0,0.0,541,2019-04-29 17:21:52:172
-0.12,-0.54,9.89,-0.03,0.01,-0.03,0.0,0.0,0.0,546,2019-04-29 17:21:52:177
-0.04,-0.5,9.92,0.04,0.04,-0.01,0.0,0.0,0.0,552,2019-04-29 17:21:52:183
-0.04,-0.5,9.92,0.04,0.04,-0.01,0.0,0.0,0.0,557,2019-04-29 17:21:52:188
-0.13,-0.6,9.91,0.04,0.04,-0.01,0.0,0.0,0.0,562,2019-04-29 17:21:52:193
-0.13,-0.6,9.91,-0.04,-0.04,-0.01,0.0,0.0,0.0,566,2019-04-29 17:21:52:197
-0.13,-0.6,9.91,-0.04,-0.04,-0.01,0.0,0.0,0.0,572,2019-04-29 17:21:52:203
-0.13,-0.6,9.91,-0.04,-0.04,-0.01,0.0,0.0,0.0,577,2019-04-29 17:21:52:208
-0.13,-0.6,9.91,-0.04,-0.04,-0.01,0.0,0.0,0.0,582,2019-04-29 17:21:52:213
-0.03,-0.54,9.94,0.05,0.01,0.01,0.0,0.0,0.0,587,2019-04-29 17:21:52:218
-0.03,-0.54,9.94,0.05,0.01,0.01,0.0,0.0,0.0,594,2019-04-29 17:21:52:225
-0.03,-0.54,9.94,0.05,0.01,0.01,0.0,0.0,0.0,597,2019-04-29 17:21:52:228
-0.03,-0.54,9.94,0.05,0.01,0.01,0.0,0.0,0.0,601,2019-04-29 17:21:52:232
-0.04,-0.58,9.93,0.04,-0.02,0.0,0.0,0.0,0.0,606,2019-04-29 17:21:52:237
-0.04,-0.58,9.93,0.04,-0.02,0.0,0.0,0.0,0.0,611,2019-04-29 17:21:52:242
-0.04,-0.58,9.93,0.04,-0.02,0.0,0.0,0.0,0.0,617,2019-04-29 17:21:52:248
-0.06,-0.54,9.92,0.02,0.0,0.0,0.0,0.0,0.0,621,2019-04-29 17:21:52:252
-0.06,-0.54,9.92,0.02,0.0,0.0,0.0,0.0,0.0,626,2019-04-29 17:21:52:257
-0.06,-0.54,9.92,0.02,0.0,0.0,0.0,0.0,0.0,632,2019-04-29 17:21:52:263
-0.06,-0.54,9.92,0.02,0.0,0.0,0.0,0.0,0.0,637,2019-04-29 17:21:52:268
-0.11,-0.52,9.97,-0.02,0.02,0.03,0.0,0.0,0.0,642,2019-04-29 17:21:52:273
-0.11,-0.52,9.97,-0.02,0.02,0.03,0.0,0.0,0.0,646,2019-04-29 17:21:52:277
-0.11,-0.52,9.97,-0.02,0.02,0.03,0.0,0.0,0.0,652,2019-04-29 17:21:52:283
-0.11,-0.52,9.97,-0.02,0.02,0.03,0.0,0.0,0.0,656,2019-04-29 17:21:52:287
-0.11,-0.52,9.97,-0.02,0.02,0.03,0.0,0.0,0.0,661,2019-04-29 17:21:52:292
-0.11,-0.52,9.97,-0.02,0.02,0.03,0.0,0.0,0.0,667,2019-04-29 17:21:52:298
-0.13,-0.54,9.93,-0.04,0.0,0.0,0.0,0.0,0.0,671,2019-04-29 17:21:52:302
-0.13,-0.54,9.93,-0.04,0.0,0.0,0.0,0.0,0.0,677,2019-04-29 17:21:52:308
-0.13,-0.54,9.93,-0.04,0.0,0.0,0.0,0.0,0.0,681,2019-04-29 17:21:52:312
-0.08,-0.53,9.97,-0.01,0.01,0.03,0.0,0.0,0.0,686,2019-04-29 17:21:52:317
-0.08,-0.53,9.97,-0.01,0.01,0.03,0.0,0.0,0.0,692,2019-04-29 17:21:52:323
-0.08,-0.53,9.97,-0.01,0.01,0.03,0.0,0.0,0.0,697,2019-04-29 17:21:52:328
-0.07,-0.56,9.91,0.0,-0.01,-0.02,0.0,0.0,0.0,702,2019-04-29 17:21:52:333
-0.07,-0.56,9.91,0.0,-0.01,-0.02,0.0,0.0,0.0,706,2019-04-29 17:21:52:337
-0.07,-0.56,9.91,0.0,-0.01,-0.02,0.0,0.0,0.0,711,2019-04-29 17:21:52:342
-0.07,-0.56,9.91,0.0,-0.01,-0.02,0.0,0.0,0.0,717,2019-04-29 17:21:52:348
-0.07,-0.52,9.95,0.0,0.02,0.01,0.0,0.0,0.0,722,2019-04-29 17:21:52:353
-0.07,-0.52,9.95,0.0,0.02,0.01,0.0,0.0,0.0,727,2019-04-29 17:21:52:358
-0.07,-0.52,9.95,0.0,0.02,0.01,0.0,0.0,0.0,732,2019-04-29 17:21:52:363
-0.07,-0.52,9.95,0.0,0.02,0.01,0.0,0.0,0.0,737,2019-04-29 17:21:52:368
-0.09,-0.53,9.9,-0.01,0.01,-0.04,0.0,0.0,0.0,742,2019-04-29 17:21:52:373
-0.09,-0.53,9.9,-0.01,0.01,-0.04,0.0,0.0,0.0,747,2019-04-29 17:21:52:378
-0.09,-0.53,9.9,-0.01,0.01,-0.04,0.0,0.0,0.0,752,2019-04-29 17:21:52:383
-0.09,-0.53,9.9,-0.01,0.01,-0.04,0.0,0.0,0.0,756,2019-04-29 17:21:52:387
-0.08,-0.54,9.96,0.0,0.0,0.02,0.0,0.0,0.0,762,2019-04-29 17:21:52:393
-0.08,-0.54,9.96,0.0,0.0,0.02,0.0,0.0,0.0,767,2019-04-29 17:21:52:398
-0.08,-0.54,9.96,0.0,0.0,0.02,0.0,0.0,0.0,771,2019-04-29 17:21:52:402
-0.08,-0.54,9.96,0.0,0.0,0.02,0.0,0.0,0.0,776,2019-04-29 17:21:52:407
-0.08,-0.54,9.96,0.0,0.0,0.02,0.0,0.0,0.0,781,2019-04-29 17:21:52:412
-0.08,-0.53,9.97,0.0,0.0,0.02,0.0,0.0,0.0,786,2019-04-29 17:21:52:417
-0.08,-0.53,9.97,0.0,0.0,0.02,0.0,0.0,0.0,791,2019-04-29 17:21:52:422
-0.08,-0.53,9.97,0.0,0.0,0.02,0.0,0.0,0.0,797,2019-04-29 17:21:52:428
-0.08,-0.53,9.97,0.0,0.0,0.02,0.0,0.0,0.0,802,2019-04-29 17:21:52:433
-0.08,-0.53,9.97,0.0,0.0,0.02,0.0,0.0,0.0,807,2019-04-29 17:21:52:438
-0.08,-0.53,9.92,0.0,0.0,-0.01,0.0,0.0,0.0,812,2019-04-29 17:21:52:443
-0.08,-0.53,9.92,0.0,0.0,-0.01,0.0,0.0,0.0,816,2019-04-29 17:21:52:447
-0.08,-0.54,9.96,0.0,0.0,0.02,0.0,0.0,0.0,821,2019-04-29 17:21:52:452
-0.08,-0.54,9.96,0.0,0.0,0.02,0.0,0.0,0.0,826,2019-04-29 17:21:52:457
-0.08,-0.54,9.96,0.0,0.0,0.02,0.0,0.0,0.0,831,2019-04-29 17:21:52:462
-0.08,-0.54,9.96,0.0,0.0,0.02,0.0,0.0,0.0,836,2019-04-29 17:21:52:467
-0.05,-0.53,9.88,0.02,0.01,-0.05,0.0,0.0,0.0,842,2019-04-29 17:21:52:473
-0.05,-0.53,9.88,0.02,0.01,-0.05,0.0,0.0,0.0,847,2019-04-29 17:21:52:478
-0.05,-0.53,9.88,0.02,0.01,-0.05,0.0,0.0,0.0,851,2019-04-29 17:21:52:482
-0.05,-0.53,9.88,0.02,0.01,-0.05,0.0,0.0,0.0,856,2019-04-29 17:21:52:487
-0.1,-0.55,9.93,-0.02,-0.01,0.0,0.0,0.0,0.0,862,2019-04-29 17:21:52:493
-0.1,-0.55,9.93,-0.02,-0.01,0.0,0.0,0.0,0.0,867,2019-04-29 17:21:52:498
-0.1,-0.55,9.93,-0.02,-0.01,0.0,0.0,0.0,0.0,872,2019-04-29 17:21:52:503
-0.1,-0.55,9.93,-0.02,-0.01,0.0,0.0,0.0,0.0,876,2019-04-29 17:21:52:507
-0.1,-0.55,9.93,-0.02,-0.01,0.0,0.0,0.0,0.0,882,2019-04-29 17:21:52:513
-0.1,-0.55,9.93,-0.02,-0.01,0.0,0.0,0.0,0.0,887,2019-04-29 17:21:52:518
-0.07,-0.54,9.92,0.0,0.0,-0.01,0.0,0.0,0.0,892,2019-04-29 17:21:52:523
-0.07,-0.54,9.92,0.0,0.0,-0.01,0.0,0.0,0.0,897,2019-04-29 17:21:52:528
-0.07,-0.54,9.92,0.0,0.0,-0.01,0.0,0.0,0.0,902,2019-04-29 17:21:52:533
-0.07,-0.54,9.92,0.0,0.0,-0.01,0.0,0.0,0.0,907,2019-04-29 17:21:52:538
-0.11,-0.56,9.87,-0.02,-0.01,-0.06,0.0,0.0,0.0,911,2019-04-29 17:21:52:542
-0.11,-0.56,9.87,-0.02,-0.01,-0.06,0.0,0.0,0.0,916,2019-04-29 17:21:52:547
-0.09,-0.55,9.93,0.0,-0.01,0.01,0.0,0.0,0.0,921,2019-04-29 17:21:52:552
-0.09,-0.55,9.93,0.0,-0.01,0.01,0.0,0.0,0.0,926,2019-04-29 17:21:52:557
-0.09,-0.55,9.93,0.0,-0.01,0.01,0.0,0.0,0.0,931,2019-04-29 17:21:52:562
-0.09,-0.55,9.93,0.0,-0.01,0.01,0.0,0.0,0.0,936,2019-04-29 17:21:52:567
-0.11,-0.56,9.89,-0.02,-0.01,-0.03,0.0,0.0,0.0,941,2019-04-29 17:21:52:572
-0.11,-0.56,9.89,-0.02,-0.01,-0.03,0.0,0.0,0.0,947,2019-04-29 17:21:52:578
-0.11,-0.56,9.89,-0.02,-0.01,-0.03,0.0,0.0,0.0,951,2019-04-29 17:21:52:582
-0.11,-0.56,9.89,-0.02,-0.01,-0.03,0.0,0.0,0.0,957,2019-04-29 17:21:52:588
-0.05,-0.54,9.93,0.02,0.0,0.0,0.0,0.0,0.0,961,2019-04-29 17:21:52:592
-0.05,-0.54,9.93,0.02,0.0,0.0,0.0,0.0,0.0,966,2019-04-29 17:21:52:597
-0.05,-0.54,9.93,0.02,0.0,0.0,0.0,0.0,0.0,971,2019-04-29 17:21:52:602
-0.05,-0.54,9.93,0.02,0.0,0.0,0.0,0.0,0.0,977,2019-04-29 17:21:52:608
-0.08,-0.58,9.91,0.02,0.0,0.0,0.0,0.0,0.0,982,2019-04-29 17:21:52:613
-0.08,-0.58,9.91,0.0,-0.03,-0.01,0.0,0.0,0.0,986,2019-04-29 17:21:52:617
-0.08,-0.58,9.91,0.0,-0.03,-0.01,0.0,0.0,0.0,992,2019-04-29 17:21:52:623
-0.08,-0.58,9.91,0.0,-0.03,-0.01,0.0,0.0,0.0,997,2019-04-29 17:21:52:628
-0.08,-0.58,9.91,0.0,-0.03,-0.01,0.0,0.0,0.0,1002,2019-04-29 17:21:52:633
-0.08,-0.58,9.91,0.0,-0.03,-0.01,0.0,0.0,0.0,1007,2019-04-29 17:21:52:638
-0.07,-0.56,9.92,0.0,-0.01,-0.01,0.0,0.0,0.0,1012,2019-04-29 17:21:52:643
-0.07,-0.56,9.92,0.0,-0.01,-0.01,0.0,0.0,0.0,1017,2019-04-29 17:21:52:648
-0.06,-0.54,9.97,0.0,-0.01,-0.01,0.0,0.0,0.0,1022,2019-04-29 17:21:52:653
-0.06,-0.54,9.97,0.0,-0.01,-0.01,0.0,0.0,0.0,1027,2019-04-29 17:21:52:658
-0.06,-0.54,9.97,0.0,-0.01,-0.01,0.0,0.0,0.0,1032,2019-04-29 17:21:52:663
-0.06,-0.54,9.97,0.0,-0.01,-0.01,0.0,0.0,0.0,1036,2019-04-29 17:21:52:667
-0.04,-0.54,9.92,0.03,0.0,-0.01,0.0,0.0,0.0,1041,2019-04-29 17:21:52:672
-0.04,-0.54,9.92,0.03,0.0,-0.01,0.0,0.0,0.0,1046,2019-04-29 17:21:52:677
-0.04,-0.54,9.92,0.03,0.0,-0.01,0.0,0.0,0.0,1052,2019-04-29 17:21:52:683
-0.04,-0.54,9.92,0.03,0.0,-0.01,0.0,0.0,0.0,1057,2019-04-29 17:21:52:688
-0.08,-0.57,9.95,0.0,-0.02,0.02,0.0,0.0,0.0,1061,2019-04-29 17:21:52:692
-0.08,-0.57,9.95,0.0,-0.02,0.02,0.0,0.0,0.0,1066,2019-04-29 17:21:52:697
-0.08,-0.57,9.95,0.0,-0.02,0.02,0.0,0.0,0.0,1072,2019-04-29 17:21:52:703
-0.08,-0.57,9.95,0.0,-0.02,0.02,0.0,0.0,0.0,1076,2019-04-29 17:21:52:707
-0.08,-0.57,9.95,0.0,-0.02,0.02,0.0,0.0,0.0,1081,2019-04-29 17:21:52:712
-0.05,-0.6,9.92,0.02,-0.04,0.0,0.0,0.0,0.0,1087,2019-04-29 17:21:52:718
-0.05,-0.6,9.92,0.02,-0.04,0.0,0.0,0.0,0.0,1091,2019-04-29 17:21:52:722
-0.05,-0.6,9.92,0.02,-0.04,0.0,0.0,0.0,0.0,1097,2019-04-29 17:21:52:728
-0.05,-0.6,9.92,0.02,-0.04,0.0,0.0,0.0,0.0,1102,2019-04-29 17:21:52:733
-0.05,-0.6,9.92,0.02,-0.04,0.0,0.0,0.0,0.0,1107,2019-04-29 17:21:52:738
-0.08,-0.54,9.91,0.0,0.0,-0.01,0.0,0.0,0.0,1111,2019-04-29 17:21:52:742
-0.08,-0.54,9.91,0.0,0.0,-0.01,0.0,0.0,0.0,1116,2019-04-29 17:21:52:747
-0.08,-0.54,9.91,0.0,0.0,-0.01,0.0,0.0,0.0,1121,2019-04-29 17:21:52:752
-0.08,-0.54,9.91,0.0,0.0,-0.01,0.0,0.0,0.0,1126,2019-04-29 17:21:52:757
-0.08,-0.54,9.91,0.0,0.0,-0.01,0.0,0.0,0.0,1131,2019-04-29 17:21:52:762
-0.08,-0.54,9.91,0.0,0.0,-0.01,0.0,0.0,0.0,1136,2019-04-29 17:21:52:767
-0.07,-0.58,9.95,0.0,-0.02,0.01,0.0,0.0,0.0,1142,2019-04-29 17:21:52:773
-0.07,-0.58,9.95,0.0,-0.02,0.01,0.0,0.0,0.0,1147,2019-04-29 17:21:52:778
-0.07,-0.58,9.95,0.0,-0.02,0.01,0.0,0.0,0.0,1152,2019-04-29 17:21:52:783
-0.07,-0.58,9.95,0.0,-0.02,0.01,0.0,0.0,0.0,1156,2019-04-29 17:21:52:787
-0.04,-0.54,9.9,0.02,0.01,-0.03,0.0,0.0,0.0,1161,2019-04-29 17:21:52:792
-0.04,-0.54,9.9,0.02,0.01,-0.03,0.0,0.0,0.0,1166,2019-04-29 17:21:52:797
-0.04,-0.54,9.9,0.02,0.01,-0.03,0.0,0.0,0.0,1171,2019-04-29 17:21:52:802
-0.04,-0.54,9.9,0.02,0.01,-0.03,0.0,0.0,0.0,1177,2019-04-29 17:21:52:808
-0.04,-0.54,9.9,0.02,0.01,-0.03,0.0,0.0,0.0,1182,2019-04-29 17:21:52:813
-0.04,-0.54,9.9,0.02,0.01,-0.03,0.0,0.0,0.0,1186,2019-04-29 17:21:52:817
-0.09,-0.56,9.9,-0.01,0.0,-0.02,0.0,0.0,0.0,1191,2019-04-29 17:21:52:822
-0.09,-0.56,9.9,-0.01,0.0,-0.02,0.0,0.0,0.0,1197,2019-04-29 17:21:52:828
-0.09,-0.56,9.9,-0.01,0.0,-0.02,0.0,0.0,0.0,1203,2019-04-29 17:21:52:834
-0.09,-0.56,9.9,-0.01,0.0,-0.02,0.0,0.0,0.0,1206,2019-04-29 17:21:52:837
-0.11,-0.53,9.94,-0.03,0.02,0.01,0.0,0.0,0.0,1211,2019-04-29 17:21:52:842
-0.11,-0.53,9.94,-0.03,0.02,0.01,0.0,0.0,0.0,1217,2019-04-29 17:21:52:848
-0.11,-0.53,9.94,-0.03,0.02,0.01,0.0,0.0,0.0,1222,2019-04-29 17:21:52:853
-0.11,-0.53,9.94,-0.03,0.02,0.01,0.0,0.0,0.0,1227,2019-04-29 17:21:52:858
-0.11,-0.53,9.94,-0.03,0.02,0.01,0.0,0.0,0.0,1232,2019-04-29 17:21:52:863
-0.1,-0.53,9.9,-0.02,0.02,-0.03,0.0,0.0,0.0,1237,2019-04-29 17:21:52:868
-0.1,-0.53,9.9,-0.02,0.02,-0.03,0.0,0.0,0.0,1241,2019-04-29 17:21:52:872
-0.1,-0.53,9.9,-0.02,0.02,-0.03,0.0,0.0,0.0,1247,2019-04-29 17:21:52:878
-0.07,-0.57,9.94,0.0,-0.01,0.0,0.0,0.0,0.0,1252,2019-04-29 17:21:52:883
-0.07,-0.57,9.94,0.0,-0.01,0.0,0.0,0.0,0.0,1256,2019-04-29 17:21:52:887
-0.07,-0.57,9.94,0.0,-0.01,0.0,0.0,0.0,0.0,1261,2019-04-29 17:21:52:892
-0.07,-0.57,9.94,0.0,-0.01,0.0,0.0,0.0,0.0,1266,2019-04-29 17:21:52:897
-0.07,-0.57,9.94,0.0,-0.01,0.0,0.0,0.0,0.0,1272,2019-04-29 17:21:52:903
-0.07,-0.57,9.94,0.0,-0.01,0.0,0.0,0.0,0.0,1276,2019-04-29 17:21:52:907
-0.07,-0.57,9.94,0.0,-0.01,0.0,0.0,0.0,0.0,1281,2019-04-29 17:21:52:912
-0.11,-0.56,9.98,-0.03,0.0,0.04,0.0,0.0,0.0,1286,2019-04-29 17:21:52:917
-0.11,-0.56,9.98,-0.03,0.0,0.04,0.0,0.0,0.0,1292,2019-04-29 17:21:52:923
-0.11,-0.56,9.98,-0.03,0.0,0.04,0.0,0.0,0.0,1297,2019-04-29 17:21:52:928
-0.11,-0.56,9.98,-0.03,0.0,0.04,0.0,0.0,0.0,1302,2019-04-29 17:21:52:933
-0.11,-0.56,9.98,-0.03,0.0,0.04,0.0,0.0,0.0,1306,2019-04-29 17:21:52:937
-0.07,-0.54,9.94,0.01,0.01,0.01,0.0,0.0,0.0,1311,2019-04-29 17:21:52:942
-0.07,-0.54,9.94,0.01,0.01,0.01,0.0,0.0,0.0,1316,2019-04-29 17:21:52:947
-0.07,-0.54,9.94,0.01,0.01,0.01,0.0,0.0,0.0,1322,2019-04-29 17:21:52:953
-0.07,-0.54,9.94,0.01,0.01,0.01,0.0,0.0,0.0,1326,2019-04-29 17:21:52:957
-0.07,-0.54,9.94,0.01,0.01,0.01,0.0,0.0,0.0,1331,2019-04-29 17:21:52:962
-0.1,-0.54,9.92,-0.02,0.01,-0.01,0.0,0.0,0.0,1336,2019-04-29 17:21:52:967
-0.1,-0.54,9.92,-0.02,0.01,-0.01,0.0,0.0,0.0,1341,2019-04-29 17:21:52:972
-0.1,-0.54,9.92,-0.02,0.01,-0.01,0.0,0.0,0.0,1346,2019-04-29 17:21:52:977
-0.1,-0.54,9.92,-0.02,0.01,-0.01,0.0,0.0,0.0,1352,2019-04-29 17:21:52:983
-0.1,-0.54,9.92,-0.02,0.01,-0.01,0.0,0.0,0.0,1357,2019-04-29 17:21:52:988
-0.07,-0.57,9.98,0.01,-0.01,0.04,0.0,0.0,0.0,1362,2019-04-29 17:21:52:993
-0.07,-0.57,9.98,0.01,-0.01,0.04,0.0,0.0,0.0,1367,2019-04-29 17:21:52:998
-0.07,-0.57,9.98,0.01,-0.01,0.04,0.0,0.0,0.0,1372,2019-04-29 17:21:53:003
-0.07,-0.57,9.98,0.01,-0.01,0.04,0.0,0.0,0.0,1377,2019-04-29 17:21:53:008
-0.07,-0.57,9.98,0.01,-0.01,0.04,0.0,0.0,0.0,1382,2019-04-29 17:21:53:013
-0.06,-0.56,9.92,0.02,0.0,-0.02,0.0,0.0,0.0,1387,2019-04-29 17:21:53:018
-0.06,-0.56,9.92,0.02,0.0,-0.02,0.0,0.0,0.0,1391,2019-04-29 17:21:53:022
-0.06,-0.56,9.92,0.02,0.0,-0.02,0.0,0.0,0.0,1396,2019-04-29 17:21:53:027
-0.07,-0.55,9.94,0.0,0.0,0.0,0.0,0.0,0.0,1402,2019-04-29 17:21:53:033
-0.07,-0.55,9.94,0.0,0.0,0.0,0.0,0.0,0.0,1407,2019-04-29 17:21:53:038
-0.07,-0.55,9.94,0.0,0.0,0.0,0.0,0.0,0.0,1412,2019-04-29 17:21:53:043
-0.07,-0.55,9.94,0.0,0.0,0.0,0.0,0.0,0.0,1417,2019-04-29 17:21:53:048
-0.07,-0.55,9.94,0.0,0.0,0.0,0.0,0.0,0.0,1422,2019-04-29 17:21:53:053
-0.07,-0.55,9.94,0.0,0.0,0.0,0.0,0.0,0.0,1426,2019-04-29 17:21:53:057
-0.08,-0.58,9.96,0.0,-0.02,0.01,0.0,0.0,0.0,1431,2019-04-29 17:21:53:062
-0.08,-0.58,9.96,0.0,-0.02,0.01,0.0,0.0,0.0,1436,2019-04-29 17:21:53:067
-0.08,-0.58,9.96,0.0,0.0,0.0,0.0,0.0,0.0,1442,2019-04-29 17:21:53:073
-0.08,-0.58,9.96,0.0,0.0,0.0,0.0,0.0,0.0,1447,2019-04-29 17:21:53:078
-0.08,-0.58,9.96,0.0,0.0,0.0,0.0,0.0,0.0,1454,2019-04-29 17:21:53:085
-0.08,-0.58,9.96,0.0,0.0,0.0,0.0,0.0,0.0,1457,2019-04-29 17:21:53:088
-0.08,-0.53,9.92,0.0,0.01,-0.01,0.0,0.0,0.0,1466,2019-04-29 17:21:53:097
-0.08,-0.53,9.92,0.0,0.01,-0.01,0.0,0.0,0.0,1477,2019-04-29 17:21:53:108
-0.08,-0.53,9.92,0.0,0.01,-0.01,0.0,0.0,0.0,1478,2019-04-29 17:21:53:109
-0.08,-0.53,9.92,0.0,0.01,-0.01,0.0,0.0,0.0,1478,2019-04-29 17:21:53:109
-0.1,-0.54,9.92,0.0,0.01,-0.01,0.0,0.0,0.0,1481,2019-04-29 17:21:53:112
-0.1,-0.54,9.92,-0.02,0.0,-0.02,0.0,0.0,0.0,1486,2019-04-29 17:21:53:117
-0.1,-0.54,9.92,-0.02,0.0,-0.02,0.0,0.0,0.0,1492,2019-04-29 17:21:53:123
-0.1,-0.54,9.92,-0.02,0.0,-0.02,0.0,0.0,0.0,1497,2019-04-29 17:21:53:128
-0.09,-0.55,9.94,-0.01,0.0,0.0,0.0,0.0,0.0,1501,2019-04-29 17:21:53:132
-0.09,-0.55,9.94,-0.01,0.0,0.0,0.0,0.0,0.0,1506,2019-04-29 17:21:53:137
-0.09,-0.55,9.94,-0.01,0.0,0.0,0.0,0.0,0.0,1512,2019-04-29 17:21:53:143
-0.09,-0.55,9.94,-0.01,0.0,0.0,0.0,0.0,0.0,1517,2019-04-29 17:21:53:148
-0.09,-0.55,9.94,-0.01,0.0,0.0,0.0,0.0,0.0,1522,2019-04-29 17:21:53:153
-0.09,-0.55,9.94,-0.01,0.0,0.0,0.0,0.0,0.0,1527,2019-04-29 17:21:53:158
-0.07,-0.53,9.91,0.0,0.01,-0.02,0.0,0.0,0.0,1534,2019-04-29 17:21:53:165
-0.07,-0.53,9.91,0.0,0.01,-0.02,0.0,0.0,0.0,1538,2019-04-29 17:21:53:169
-0.07,-0.53,9.91,0.0,0.01,-0.02,0.0,0.0,0.0,1544,2019-04-29 17:21:53:175
-0.06,-0.56,9.91,0.0,0.01,-0.02,0.0,0.0,0.0,1547,2019-04-29 17:21:53:178
-0.06,-0.56,9.91,0.01,-0.01,-0.01,0.0,0.0,0.0,1556,2019-04-29 17:21:53:187
-0.06,-0.56,9.91,0.01,-0.01,-0.01,0.0,0.0,0.0,1556,2019-04-29 17:21:53:187
-0.09,-0.55,9.96,0.01,-0.01,-0.01,0.0,0.0,0.0,1562,2019-04-29 17:21:53:193
-0.09,-0.55,9.96,0.01,-0.01,-0.01,0.0,0.0,0.0,1567,2019-04-29 17:21:53:198
-0.09,-0.55,9.96,0.01,-0.01,-0.01,0.0,0.0,0.0,1571,2019-04-29 17:21:53:202
-0.09,-0.55,9.96,0.01,-0.01,-0.01,0.0,0.0,0.0,1577,2019-04-29 17:21:53:208
-0.09,-0.55,9.96,0.01,-0.01,-0.01,0.0,0.0,0.0,1583,2019-04-29 17:21:53:214
-0.09,-0.55,9.96,0.01,-0.01,-0.01,0.0,0.0,0.0,1588,2019-04-29 17:21:53:219
-0.05,-0.57,9.94,0.02,-0.02,0.0,0.0,0.0,0.0,1592,2019-04-29 17:21:53:223
-0.05,-0.57,9.94,0.02,-0.02,0.0,0.0,0.0,0.0,1597,2019-04-29 17:21:53:228
-0.08,-0.54,9.94,0.0,-0.03,-0.02,0.0,0.0,0.0,1601,2019-04-29 17:21:53:232
-0.08,-0.54,9.94,0.0,-0.03,-0.02,0.0,0.0,0.0,1606,2019-04-29 17:21:53:237
-0.08,-0.54,9.94,0.0,-0.03,-0.02,0.0,0.0,0.0,1612,2019-04-29 17:21:53:243
-0.08,-0.54,9.94,0.0,-0.03,-0.02,0.0,0.0,0.0,1616,2019-04-29 17:21:53:247
-0.05,-0.55,9.9,0.02,0.0,-0.02,0.0,0.0,0.0,1621,2019-04-29 17:21:53:252
-0.05,-0.55,9.9,0.02,0.0,-0.02,0.0,0.0,0.0,1627,2019-04-29 17:21:53:258
-0.05,-0.55,9.9,0.02,0.0,-0.02,0.0,0.0,0.0,1633,2019-04-29 17:21:53:264
-0.05,-0.55,9.9,0.02,0.0,-0.02,0.0,0.0,0.0,1636,2019-04-29 17:21:53:267
-0.05,-0.55,9.9,0.02,0.0,-0.02,0.0,0.0,0.0,1642,2019-04-29 17:21:53:273
-0.05,-0.55,9.9,0.02,0.0,-0.02,0.0,0.0,0.0,1646,2019-04-29 17:21:53:277
-0.08,-0.55,9.93,0.0,0.0,0.0,0.0,0.0,0.0,1652,2019-04-29 17:21:53:283
-0.08,-0.55,9.93,0.0,0.0,0.0,0.0,0.0,0.0,1656,2019-04-29 17:21:53:287
-0.11,-0.53,9.93,-0.03,0.0,0.0,0.0,0.0,0.0,1661,2019-04-29 17:21:53:292
-0.11,-0.53,9.93,-0.03,0.0,0.0,0.0,0.0,0.0,1666,2019-04-29 17:21:53:297
-0.11,-0.53,9.93,-0.03,0.0,0.0,0.0,0.0,0.0,1672,2019-04-29 17:21:53:303
-0.11,-0.53,9.93,-0.03,0.0,0.0,0.0,0.0,0.0,1677,2019-04-29 17:21:53:308
-0.09,-0.55,9.91,-0.01,0.0,0.0,0.0,0.0,0.0,1681,2019-04-29 17:21:53:312
-0.09,-0.55,9.91,-0.01,0.0,0.0,0.0,0.0,0.0,1687,2019-04-29 17:21:53:318
-0.09,-0.55,9.91,-0.01,0.0,0.0,0.0,0.0,0.0,1691,2019-04-29 17:21:53:322
-0.09,-0.55,9.91,-0.01,0.0,0.0,0.0,0.0,0.0,1696,2019-04-29 17:21:53:327
-0.09,-0.55,9.92,-0.01,0.0,0.0,0.0,0.0,0.0,1701,2019-04-29 17:21:53:332
-0.09,-0.55,9.92,-0.01,0.0,0.0,0.0,0.0,0.0,1706,2019-04-29 17:21:53:337
-0.09,-0.55,9.92,-0.01,0.0,0.0,0.0,0.0,0.0,1712,2019-04-29 17:21:53:343
-0.09,-0.55,9.92,-0.01,0.0,0.0,0.0,0.0,0.0,1719,2019-04-29 17:21:53:350
-0.09,-0.55,9.92,-0.01,0.0,0.0,0.0,0.0,0.0,1722,2019-04-29 17:21:53:353
-0.09,-0.55,9.92,-0.01,0.0,0.0,0.0,0.0,0.0,1727,2019-04-29 17:21:53:358
-0.08,-0.57,9.94,0.0,-0.01,0.02,0.0,0.0,0.0,1732,2019-04-29 17:21:53:363
-0.08,-0.57,9.94,0.0,-0.01,0.02,0.0,0.0,0.0,1737,2019-04-29 17:21:53:368
-0.08,-0.57,9.94,0.0,-0.01,0.02,0.0,0.0,0.0,1742,2019-04-29 17:21:53:373
-0.08,-0.57,9.94,0.0,-0.01,0.02,0.0,0.0,0.0,1747,2019-04-29 17:21:53:378
-0.08,-0.57,9.94,0.0,-0.01,0.02,0.0,0.0,0.0,1751,2019-04-29 17:21:53:382
-0.09,-0.53,9.94,0.0,0.01,0.01,0.0,0.0,0.0,1757,2019-04-29 17:21:53:388
-0.09,-0.53,9.94,0.0,0.01,0.01,0.0,0.0,0.0,1762,2019-04-29 17:21:53:393
-0.09,-0.53,9.94,0.0,0.01,0.01,0.0,0.0,0.0,1766,2019-04-29 17:21:53:397
-0.06,-0.58,9.93,0.02,-0.02,0.01,0.0,0.0,0.0,1779,2019-04-29 17:21:53:410
-0.06,-0.58,9.93,0.02,-0.02,0.01,0.0,0.0,0.0,1781,2019-04-29 17:21:53:412
-0.06,-0.58,9.93,0.02,-0.02,0.01,0.0,0.0,0.0,1782,2019-04-29 17:21:53:413
-0.06,-0.58,9.93,0.02,-0.02,0.01,0.0,0.0,0.0,1787,2019-04-29 17:21:53:418
-0.06,-0.58,9.93,0.02,-0.02,0.01,0.0,0.0,0.0,1792,2019-04-29 17:21:53:423
-0.09,-0.52,9.96,-0.01,0.03,0.04,0.0,0.0,0.0,1797,2019-04-29 17:21:53:428
-0.09,-0.52,9.96,-0.01,0.03,0.04,0.0,0.0,0.0,1801,2019-04-29 17:21:53:432
-0.09,-0.52,9.96,-0.01,0.03,0.04,0.0,0.0,0.0,1807,2019-04-29 17:21:53:438
-0.09,-0.52,9.96,-0.01,0.03,0.04,0.0,0.0,0.0,1812,2019-04-29 17:21:53:443
-0.09,-0.52,9.96,-0.01,0.03,0.04,0.0,0.0,0.0,1817,2019-04-29 17:21:53:448
-0.09,-0.52,9.96,-0.01,0.03,0.04,0.0,0.0,0.0,1821,2019-04-29 17:21:53:452
-0.09,-0.52,9.96,-0.01,0.03,0.04,0.0,0.0,0.0,1826,2019-04-29 17:21:53:457
-0.09,-0.52,9.96,-0.01,0.03,0.04,0.0,0.0,0.0,1832,2019-04-29 17:21:53:463
-0.04,-0.58,9.94,0.03,-0.02,0.02,0.0,0.0,0.0,1836,2019-04-29 17:21:53:467
-0.04,-0.58,9.94,0.03,-0.02,0.02,0.0,0.0,0.0,1841,2019-04-29 17:21:53:472
-0.04,-0.58,9.94,0.03,-0.02,0.02,0.0,0.0,0.0,1847,2019-04-29 17:21:53:478
-0.04,-0.58,9.94,0.03,-0.02,0.02,0.0,0.0,0.0,1852,2019-04-29 17:21:53:483
-0.09,-0.58,9.96,0.0,-0.02,0.04,0.0,0.0,0.0,1857,2019-04-29 17:21:53:488
-0.09,-0.58,9.96,0.0,-0.02,0.04,0.0,0.0,0.0,1862,2019-04-29 17:21:53:493
-0.09,-0.58,9.96,0.0,-0.02,0.04,0.0,0.0,0.0,1867,2019-04-29 17:21:53:498
-0.09,-0.58,9.96,0.0,-0.02,0.04,0.0,0.0,0.0,1872,2019-04-29 17:21:53:503
-0.07,-0.55,9.93,0.0,0.0,0.0,0.0,0.0,0.0,1879,2019-04-29 17:21:53:510
-0.07,-0.55,9.93,0.0,0.0,0.0,0.0,0.0,0.0,1882,2019-04-29 17:21:53:513
-0.07,-0.55,9.93,0.0,0.0,0.0,0.0,0.0,0.0,1887,2019-04-29 17:21:53:518
-0.07,-0.55,9.93,0.0,0.0,0.0,0.0,0.0,0.0,1891,2019-04-29 17:21:53:522
-0.07,-0.55,9.93,0.0,0.0,0.0,0.0,0.0,0.0,1898,2019-04-29 17:21:53:529
-0.09,-0.51,9.95,-0.01,0.03,0.02,0.0,0.0,0.0,1901,2019-04-29 17:21:53:532
-0.09,-0.51,9.95,-0.01,0.03,0.02,0.0,0.0,0.0,1907,2019-04-29 17:21:53:538
-0.09,-0.51,9.95,-0.01,0.03,0.02,0.0,0.0,0.0,1911,2019-04-29 17:21:53:542
-0.09,-0.51,9.95,-0.01,0.03,0.02,0.0,0.0,0.0,1919,2019-04-29 17:21:53:550
-0.09,-0.51,9.95,-0.01,0.03,0.02,0.0,0.0,0.0,1921,2019-04-29 17:21:53:552
-0.09,-0.51,9.95,-0.01,0.03,0.02,0.0,0.0,0.0,1926,2019-04-29 17:21:53:557
-0.09,-0.55,9.95,0.0,0.0,0.02,0.0,0.0,0.0,1933,2019-04-29 17:21:53:564
-0.09,-0.55,9.95,0.0,0.0,0.02,0.0,0.0,0.0,1937,2019-04-29 17:21:53:568
-0.09,-0.55,9.95,0.0,0.0,0.02,0.0,0.0,0.0,1942,2019-04-29 17:21:53:573
-0.09,-0.55,9.95,0.0,0.0,0.02,0.0,0.0,0.0,1946,2019-04-29 17:21:53:577
-0.07,-0.57,9.96,0.0,-0.01,0.02,0.0,0.0,0.0,1951,2019-04-29 17:21:53:582
-0.07,-0.57,9.96,0.0,-0.01,0.02,0.0,0.0,0.0,1957,2019-04-29 17:21:53:588
-0.07,-0.57,9.96,0.0,-0.01,0.02,0.0,0.0,0.0,1963,2019-04-29 17:21:53:594
-0.07,-0.57,9.96,0.0,-0.01,0.02,0.0,0.0,0.0,1966,2019-04-29 17:21:53:597
-0.11,-0.57,9.91,-0.03,-0.01,-0.02,0.0,0.0,0.0,1971,2019-04-29 17:21:53:602
-0.11,-0.57,9.91,-0.03,-0.01,-0.02,0.0,0.0,0.0,1976,2019-04-29 17:21:53:607
-0.11,-0.57,9.91,-0.03,-0.01,-0.02,0.0,0.0,0.0,1982,2019-04-29 17:21:53:613
-0.09,-0.54,9.93,-0.01,0.01,0.0,0.0,0.0,0.0,1987,2019-04-29 17:21:53:618
-0.09,-0.54,9.93,-0.01,0.01,0.0,0.0,0.0,0.0,1992,2019-04-29 17:21:53:623
-0.09,-0.54,9.93,-0.01,0.01,0.0,0.0,0.0,0.0,1998,2019-04-29 17:21:53:629
-0.09,-0.54,9.93,-0.01,0.01,0.0,0.0,0.0,0.0,2002,2019-04-29 17:21:53:633
-0.09,-0.54,9.93,-0.01,0.01,0.0,0.0,0.0,0.0,2006,2019-04-29 17:21:53:637
-0.08,-0.55,9.9,0.0,0.0,-0.02,0.0,0.0,0.0,2012,2019-04-29 17:21:53:643
-0.08,-0.55,9.9,0.0,0.0,-0.02,0.0,0.0,0.0,2017,2019-04-29 17:21:53:648
-0.08,-0.55,9.9,0.0,0.0,-0.02,0.0,0.0,0.0,2021,2019-04-29 17:21:53:652
-0.08,-0.55,9.9,0.0,0.0,-0.02,0.0,0.0,0.0,2027,2019-04-29 17:21:53:658
-0.07,-0.57,9.93,0.01,-0.01,0.0,0.0,0.0,0.0,2031,2019-04-29 17:21:53:662
-0.07,-0.57,9.93,0.01,-0.01,0.0,0.0,0.0,0.0,2036,2019-04-29 17:21:53:667
-0.07,-0.57,9.93,0.01,-0.01,0.0,0.0,0.0,0.0,2041,2019-04-29 17:21:53:672
-0.07,-0.57,9.93,0.01,-0.01,0.0,0.0,0.0,0.0,2047,2019-04-29 17:21:53:678
-0.06,-0.57,9.9,0.02,-0.02,-0.03,0.0,0.0,0.0,2051,2019-04-29 17:21:53:682
-0.06,-0.57,9.9,0.02,-0.02,-0.03,0.0,0.0,0.0,2058,2019-04-29 17:21:53:689
-0.06,-0.57,9.9,0.02,-0.02,-0.03,0.0,0.0,0.0,2061,2019-04-29 17:21:53:692
-0.06,-0.57,9.9,0.02,-0.02,-0.03,0.0,0.0,0.0,2066,2019-04-29 17:21:53:697
-0.07,-0.54,9.91,0.0,0.0,-0.02,0.0,0.0,0.0,2072,2019-04-29 17:21:53:703
-0.07,-0.54,9.91,0.0,0.0,-0.02,0.0,0.0,0.0,2077,2019-04-29 17:21:53:708
-0.06,-0.56,9.91,0.01,-0.01,-0.01,0.0,0.0,0.0,2081,2019-04-29 17:21:53:712
-0.06,-0.56,9.91,0.01,-0.01,-0.01,0.0,0.0,0.0,2086,2019-04-29 17:21:53:717
-0.06,-0.56,9.91,0.01,-0.01,-0.01,0.0,0.0,0.0,2092,2019-04-29 17:21:53:723
-0.06,-0.56,9.91,0.01,-0.01,-0.01,0.0,0.0,0.0,2097,2019-04-29 17:21:53:728
-0.06,-0.56,9.91,0.01,-0.01,-0.01,0.0,0.0,0.0,2102,2019-04-29 17:21:53:733
-0.09,-0.57,9.97,0.0,-0.02,0.04,0.0,0.0,0.0,2106,2019-04-29 17:21:53:737
-0.09,-0.57,9.97,0.0,-0.02,0.04,0.0,0.0,0.0,2111,2019-04-29 17:21:53:742
-0.09,-0.57,9.97,0.0,-0.02,0.04,0.0,0.0,0.0,2117,2019-04-29 17:21:53:748
-0.09,-0.57,9.97,0.0,-0.02,0.04,0.0,0.0,0.0,2122,2019-04-29 17:21:53:753
-0.1,-0.56,9.96,-0.02,0.0,0.02,0.0,0.0,0.0,2126,2019-04-29 17:21:53:757
-0.1,-0.56,9.96,-0.02,0.0,0.02,0.0,0.0,0.0,2131,2019-04-29 17:21:53:762
-0.1,-0.56,9.96,-0.02,0.0,0.02,0.0,0.0,0.0,2136,2019-04-29 17:21:53:767
-0.11,-0.54,9.9,-0.02,0.0,0.02,0.0,0.0,0.0,2141,2019-04-29 17:21:53:772
-0.11,-0.54,9.9,-0.02,0.0,0.02,0.0,0.0,0.0,2146,2019-04-29 17:21:53:777
-0.11,-0.54,9.9,-0.02,0.0,-0.02,0.0,0.0,0.0,2151,2019-04-29 17:21:53:782
-0.11,-0.54,9.9,-0.02,0.0,-0.02,0.0,0.0,0.0,2157,2019-04-29 17:21:53:788
-0.09,-0.58,9.93,-0.02,0.0,-0.02,0.0,0.0,0.0,2161,2019-04-29 17:21:53:792
-0.09,-0.58,9.93,-0.01,-0.03,0.01,0.0,0.0,0.0,2166,2019-04-29 17:21:53:797
-0.09,-0.58,9.93,-0.01,-0.03,0.01,0.0,0.0,0.0,2173,2019-04-29 17:21:53:804
-0.09,-0.58,9.93,-0.01,-0.03,0.01,0.0,0.0,0.0,2177,2019-04-29 17:21:53:808
-0.08,-0.57,9.92,0.0,-0.01,-0.01,0.0,0.0,0.0,2181,2019-04-29 17:21:53:812
-0.08,-0.57,9.92,0.0,-0.01,-0.01,0.0,0.0,0.0,2186,2019-04-29 17:21:53:817
-0.08,-0.57,9.92,0.0,-0.01,-0.01,0.0,0.0,0.0,2192,2019-04-29 17:21:53:823
-0.08,-0.57,9.92,0.0,-0.01,-0.01,0.0,0.0,0.0,2196,2019-04-29 17:21:53:827
-0.07,-0.54,9.92,0.0,0.0,0.0,0.0,0.0,0.0,2201,2019-04-29 17:21:53:832
-0.07,-0.54,9.92,0.0,0.0,0.0,0.0,0.0,0.0,2206,2019-04-29 17:21:53:837
-0.07,-0.54,9.92,0.0,0.0,0.0,0.0,0.0,0.0,2213,2019-04-29 17:21:53:844
-0.07,-0.54,9.92,0.0,0.0,0.0,0.0,0.0,0.0,2216,2019-04-29 17:21:53:847
-0.07,-0.54,9.92,0.0,0.0,0.0,0.0,0.0,0.0,2224,2019-04-29 17:21:53:855
-0.07,-0.54,9.92,0.0,0.0,0.0,0.0,0.0,0.0,2226,2019-04-29 17:21:53:857
-0.09,-0.55,9.93,0.0,0.0,0.0,0.0,0.0,0.0,2231,2019-04-29 17:21:53:862
-0.09,-0.55,9.93,0.0,0.0,0.0,0.0,0.0,0.0,2236,2019-04-29 17:21:53:867
-0.09,-0.55,9.93,0.0,0.0,0.0,0.0,0.0,0.0,2242,2019-04-29 17:21:53:873
-0.07,-0.54,9.94,0.01,0.0,0.01,0.0,0.0,0.0,2247,2019-04-29 17:21:53:878
-0.07,-0.54,9.94,0.01,0.0,0.01,0.0,0.0,0.0,2256,2019-04-29 17:21:53:887
-0.07,-0.54,9.94,0.01,0.0,0.01,0.0,0.0,0.0,2257,2019-04-29 17:21:53:888
-0.07,-0.54,9.94,0.01,0.0,0.01,0.0,0.0,0.0,2261,2019-04-29 17:21:53:892
-0.07,-0.54,9.94,0.01,0.0,0.01,0.0,0.0,0.0,2267,2019-04-29 17:21:53:898
-0.08,-0.55,9.93,0.0,0.0,0.0,0.0,0.0,0.0,2272,2019-04-29 17:21:53:903
-0.08,-0.55,9.93,0.0,0.0,0.0,0.0,0.0,0.0,2276,2019-04-29 17:21:53:907
-0.08,-0.55,9.93,0.0,0.0,0.0,0.0,0.0,0.0,2282,2019-04-29 17:21:53:913
-0.08,-0.55,9.93,0.0,0.0,0.0,0.0,0.0,0.0,2287,2019-04-29 17:21:53:918
-0.08,-0.55,9.93,0.0,0.0,0.0,0.0,0.0,0.0,2292,2019-04-29 17:21:53:923
-0.08,-0.55,9.93,0.0,0.0,0.0,0.0,0.0,0.0,2300,2019-04-29 17:21:53:931
-0.08,-0.55,9.93,0.0,0.0,0.0,0.0,0.0,0.0,2301,2019-04-29 17:21:53:932
-0.08,-0.55,9.93,0.0,0.0,0.0,0.0,0.0,0.0,2307,2019-04-29 17:21:53:938
-0.07,-0.53,9.96,0.01,0.01,0.02,0.0,0.0,0.0,2311,2019-04-29 17:21:53:942
-0.07,-0.53,9.96,0.01,0.01,0.02,0.0,0.0,0.0,2316,2019-04-29 17:21:53:947
-0.07,-0.53,9.96,0.01,0.01,0.02,0.0,0.0,0.0,2321,2019-04-29 17:21:53:952
-0.07,-0.53,9.96,0.01,0.01,0.02,0.0,0.0,0.0,2326,2019-04-29 17:21:53:957
-0.07,-0.53,9.96,0.01,0.01,0.02,0.0,0.0,0.0,2332,2019-04-29 17:21:53:963
-0.07,-0.53,9.96,0.01,0.01,0.02,0.0,0.0,0.0,2336,2019-04-29 17:21:53:967
-0.08,-0.57,9.92,0.0,-0.02,-0.01,0.0,0.0,0.0,2341,2019-04-29 17:21:53:972
-0.08,-0.57,9.92,0.0,-0.02,-0.01,0.0,0.0,0.0,2347,2019-04-29 17:21:53:978
-0.08,-0.57,9.92,0.0,-0.02,-0.01,0.0,0.0,0.0,2356,2019-04-29 17:21:53:987
-0.08,-0.57,9.92,0.0,-0.02,-0.01,0.0,0.0,0.0,2357,2019-04-29 17:21:53:988
-0.08,-0.54,9.92,0.0,0.0,0.0,0.0,0.0,0.0,2362,2019-04-29 17:21:53:993
-0.08,-0.54,9.92,0.0,0.0,0.0,0.0,0.0,0.0,2367,2019-04-29 17:21:53:998
-0.08,-0.54,9.92,0.0,0.0,0.0,0.0,0.0,0.0,2372,2019-04-29 17:21:54:003
-0.08,-0.54,9.92,0.0,0.0,0.0,0.0,0.0,0.0,2376,2019-04-29 17:21:54:007
-0.08,-0.54,9.92,0.0,0.0,0.0,0.0,0.0,0.0,2383,2019-04-29 17:21:54:014
-0.08,-0.54,9.92,0.0,0.0,0.0,0.0,0.0,0.0,2387,2019-04-29 17:21:54:018
-0.08,-0.54,9.92,0.0,0.0,0.0,0.0,0.0,0.0,2393,2019-04-29 17:21:54:024
-0.09,-0.54,9.97,0.0,0.0,0.04,0.0,0.0,0.0,2397,2019-04-29 17:21:54:028
-0.09,-0.54,9.97,0.0,0.0,0.04,0.0,0.0,0.0,2402,2019-04-29 17:21:54:033
-0.09,-0.54,9.97,0.0,0.0,0.04,0.0,0.0,0.0,2408,2019-04-29 17:21:54:039
-0.09,-0.54,9.97,0.0,0.0,0.04,0.0,0.0,0.0,2412,2019-04-29 17:21:54:043
-0.09,-0.54,9.97,0.0,0.0,0.04,0.0,0.0,0.0,2417,2019-04-29 17:21:54:048
-0.09,-0.54,9.97,0.0,0.0,0.04,0.0,0.0,0.0,2422,2019-04-29 17:21:54:053
-0.09,-0.54,9.97,0.0,0.0,0.04,0.0,0.0,0.0,2426,2019-04-29 17:21:54:057
-0.09,-0.54,9.97,0.0,0.0,0.04,0.0,0.0,0.0,2431,2019-04-29 17:21:54:062
-0.08,-0.56,9.97,0.0,-0.01,0.03,0.0,0.0,0.0,2437,2019-04-29 17:21:54:068
-0.08,-0.56,9.97,0.0,-0.01,0.03,0.0,0.0,0.0,2444,2019-04-29 17:21:54:075
-0.08,-0.56,9.97,0.0,-0.01,0.03,0.0,0.0,0.0,2446,2019-04-29 17:21:54:077
-0.08,-0.56,9.97,0.0,-0.01,0.03,0.0,0.0,0.0,2453,2019-04-29 17:21:54:084
-0.08,-0.56,9.97,0.0,-0.01,0.03,0.0,0.0,0.0,2456,2019-04-29 17:21:54:087
-0.08,-0.56,9.97,0.0,-0.01,0.03,0.0,0.0,0.0,2461,2019-04-29 17:21:54:092
-0.08,-0.56,9.97,0.0,-0.01,0.03,0.0,0.0,0.0,2467,2019-04-29 17:21:54:098
-0.09,-0.53,9.9,0.0,-0.01,0.03,0.0,0.0,0.0,2472,2019-04-29 17:21:54:103
-0.09,-0.53,9.9,0.0,0.01,-0.02,0.0,0.0,0.0,2476,2019-04-29 17:21:54:107
-0.13,-0.55,9.92,0.0,0.01,-0.02,0.0,0.0,0.0,2483,2019-04-29 17:21:54:114
-0.13,-0.55,9.92,0.0,0.01,-0.02,0.0,0.0,0.0,2486,2019-04-29 17:21:54:117
-0.13,-0.55,9.92,0.0,0.01,-0.02,0.0,0.0,0.0,2493,2019-04-29 17:21:54:124
-0.13,-0.55,9.92,0.0,0.01,-0.02,0.0,0.0,0.0,2497,2019-04-29 17:21:54:128
-0.13,-0.55,9.92,0.0,0.01,-0.02,0.0,0.0,0.0,2501,2019-04-29 17:21:54:132
-0.11,-0.55,9.92,-0.02,0.0,0.0,0.0,0.0,0.0,2507,2019-04-29 17:21:54:138
-0.11,-0.55,9.92,-0.02,0.0,0.0,0.0,0.0,0.0,2511,2019-04-29 17:21:54:142
-0.11,-0.55,9.92,-0.02,0.0,0.0,0.0,0.0,0.0,2519,2019-04-29 17:21:54:150
-0.11,-0.55,9.92,-0.02,0.0,0.0,0.0,0.0,0.0,2521,2019-04-29 17:21:54:152
-0.11,-0.55,9.92,-0.02,0.0,0.0,0.0,0.0,0.0,2526,2019-04-29 17:21:54:157
-0.09,-0.56,9.94,0.0,0.0,0.0,0.0,0.0,0.0,2533,2019-04-29 17:21:54:164
-0.09,-0.56,9.94,0.0,0.0,0.0,0.0,0.0,0.0,2538,2019-04-29 17:21:54:169
-0.09,-0.56,9.94,0.0,0.0,0.0,0.0,0.0,0.0,2544,2019-04-29 17:21:54:175
-0.09,-0.56,9.94,0.0,0.0,0.0,0.0,0.0,0.0,2546,2019-04-29 17:21:54:177
-0.09,-0.56,9.94,0.0,0.0,0.0,0.0,0.0,0.0,2553,2019-04-29 17:21:54:184
-0.09,-0.56,9.94,0.0,0.0,0.0,0.0,0.0,0.0,2557,2019-04-29 17:21:54:188
-0.09,-0.55,9.91,0.0,0.0,-0.01,0.0,0.0,0.0,2564,2019-04-29 17:21:54:195
-0.09,-0.55,9.91,0.0,0.0,-0.01,0.0,0.0,0.0,2567,2019-04-29 17:21:54:198
-0.09,-0.55,9.91,0.0,0.0,-0.01,0.0,0.0,0.0,2572,2019-04-29 17:21:54:203
-0.09,-0.55,9.91,0.0,0.0,-0.01,0.0,0.0,0.0,2577,2019-04-29 17:21:54:208
-0.07,-0.53,9.93,0.01,0.01,0.0,0.0,0.0,0.0,2582,2019-04-29 17:21:54:213
-0.07,-0.53,9.93,0.01,0.01,0.0,0.0,0.0,0.0,2587,2019-04-29 17:21:54:218
-0.07,-0.53,9.93,0.01,0.01,0.0,0.0,0.0,0.0,2592,2019-04-29 17:21:54:223
-0.07,-0.53,9.93,0.01,0.01,0.0,0.0,0.0,0.0,2599,2019-04-29 17:21:54:230
-0.07,-0.53,9.93,0.01,0.01,0.0,0.0,0.0,0.0,2601,2019-04-29 17:21:54:232
-0.07,-0.53,9.93,0.01,0.01,0.0,0.0,0.0,0.0,2606,2019-04-29 17:21:54:237
-0.07,-0.53,9.91,0.01,0.01,-0.01,0.0,0.0,0.0,2612,2019-04-29 17:21:54:243
-0.07,-0.53,9.91,0.01,0.01,-0.01,0.0,0.0,0.0,2617,2019-04-29 17:21:54:248
-0.07,-0.53,9.91,0.01,0.01,-0.01,0.0,0.0,0.0,2624,2019-04-29 17:21:54:255
-0.07,-0.53,9.91,0.01,0.01,-0.01,0.0,0.0,0.0,2626,2019-04-29 17:21:54:257
-0.09,-0.47,9.84,0.0,0.06,-0.08,0.0,0.0,0.0,2631,2019-04-29 17:21:54:262
-0.09,-0.47,9.84,0.0,0.06,-0.08,0.0,0.0,0.0,2636,2019-04-29 17:21:54:267
-0.09,-0.47,9.84,0.0,0.06,-0.08,0.0,0.0,0.0,2644,2019-04-29 17:21:54:275
-0.09,-0.47,9.84,0.0,0.06,-0.08,0.0,0.0,0.0,2646,2019-04-29 17:21:54:277
-0.09,-0.47,9.84,0.0,0.06,-0.08,0.0,0.0,0.0,2651,2019-04-29 17:21:54:282
-0.09,-0.47,9.84,0.0,0.06,-0.08,0.0,0.0,0.0,2656,2019-04-29 17:21:54:287
-0.01,-0.49,9.74,0.07,0.04,-0.19,0.0,0.0,0.0,2661,2019-04-29 17:21:54:292
-0.01,-0.49,9.74,0.07,0.04,-0.19,0.0,0.0,0.0,2666,2019-04-29 17:21:54:297
-0.01,-0.49,9.74,0.07,0.04,-0.19,0.0,0.0,0.0,2673,2019-04-29 17:21:54:304
-0.01,-0.49,9.74,0.07,0.04,-0.19,0.0,0.0,0.0,2676,2019-04-29 17:21:54:307
-0.01,-0.49,9.74,0.07,0.04,-0.19,0.0,0.0,0.0,2683,2019-04-29 17:21:54:314
-0.06,-0.53,9.91,0.07,0.04,-0.19,0.0,0.0,0.0,2687,2019-04-29 17:21:54:318
-0.06,-0.53,9.91,0.02,0.0,0.0,0.0,0.0,0.0,2692,2019-04-29 17:21:54:323
-0.06,-0.53,9.91,0.02,0.0,0.0,0.0,0.0,0.0,2696,2019-04-29 17:21:54:327
-0.07,-0.55,9.97,0.0,-0.01,0.03,0.0,0.0,0.0,2701,2019-04-29 17:21:54:332
-0.07,-0.55,9.97,0.0,-0.01,0.03,0.0,0.0,0.0,2707,2019-04-29 17:21:54:338
-0.07,-0.55,9.97,0.0,-0.01,0.03,0.0,0.0,0.0,2712,2019-04-29 17:21:54:343
-0.07,-0.55,9.97,0.0,-0.01,0.03,0.0,0.0,0.0,2717,2019-04-29 17:21:54:348
-0.07,-0.55,9.97,0.0,-0.01,0.03,0.0,0.0,0.0,2721,2019-04-29 17:21:54:352
-0.07,-0.54,9.86,0.0,-0.01,0.03,0.0,0.0,0.0,2727,2019-04-29 17:21:54:358
-0.17,-0.54,9.86,-0.09,-0.01,-0.06,0.0,0.0,0.0,2733,2019-04-29 17:21:54:364
-0.17,-0.54,9.86,-0.09,-0.01,-0.06,0.0,0.0,0.0,2737,2019-04-29 17:21:54:368
-0.12,-0.56,9.96,-0.04,-0.02,0.03,0.0,0.0,0.0,2746,2019-04-29 17:21:54:377
-0.12,-0.56,9.96,-0.04,-0.02,0.03,0.0,0.0,0.0,2747,2019-04-29 17:21:54:378
-0.12,-0.56,9.96,-0.04,-0.02,0.03,0.0,0.0,0.0,2752,2019-04-29 17:21:54:383
-0.12,-0.56,9.96,-0.04,-0.02,0.03,0.0,0.0,0.0,2756,2019-04-29 17:21:54:387
-0.12,-0.56,9.96,-0.04,-0.02,0.03,0.0,0.0,0.0,2766,2019-04-29 17:21:54:397
-0.12,-0.56,9.96,-0.04,-0.02,0.03,0.0,0.0,0.0,2768,2019-04-29 17:21:54:399
-0.06,-0.53,9.94,0.01,0.0,0.01,0.0,0.0,0.0,2772,2019-04-29 17:21:54:403
-0.06,-0.53,9.94,0.01,0.0,0.01,0.0,0.0,0.0,2776,2019-04-29 17:21:54:407
-0.06,-0.53,9.94,0.01,0.0,0.01,0.0,0.0,0.0,2783,2019-04-29 17:21:54:414
-0.06,-0.53,9.94,0.01,0.0,0.01,0.0,0.0,0.0,2787,2019-04-29 17:21:54:418
-0.16,-0.58,9.97,-0.07,-0.04,0.04,0.0,0.0,0.0,2792,2019-04-29 17:21:54:423
-0.16,-0.58,9.97,-0.07,-0.04,0.04,0.0,0.0,0.0,2797,2019-04-29 17:21:54:428
0.03,-0.6,9.93,-0.07,-0.04,0.04,0.0,0.0,0.0,2804,2019-04-29 17:21:54:435
0.03,-0.6,9.93,-0.07,-0.04,0.04,0.0,0.0,0.0,2807,2019-04-29 17:21:54:438
0.03,-0.6,9.93,-0.07,-0.04,0.04,0.0,0.0,0.0,2812,2019-04-29 17:21:54:443
0.03,-0.6,9.93,-0.07,-0.04,0.04,0.0,0.0,0.0,2816,2019-04-29 17:21:54:447
0.03,-0.6,9.93,-0.07,-0.04,0.04,0.0,0.0,0.0,2822,2019-04-29 17:21:54:453
0.1,-0.59,9.88,0.19,-0.05,-0.05,0.0,0.0,0.0,2827,2019-04-29 17:21:54:458
0.1,-0.59,9.88,0.19,-0.05,-0.05,0.0,0.0,0.0,2832,2019-04-29 17:21:54:463
0.1,-0.59,9.88,0.19,-0.05,-0.05,0.0,0.0,0.0,2836,2019-04-29 17:21:54:467
0.1,-0.59,9.88,0.19,-0.05,-0.05,0.0,0.0,0.0,2846,2019-04-29 17:21:54:477
0.1,-0.59,9.88,0.19,-0.05,-0.05,0.0,0.0,0.0,2847,2019-04-29 17:21:54:478
-0.03,-0.51,9.98,0.04,0.03,0.05,0.0,0.0,0.0,2852,2019-04-29 17:21:54:483
-0.03,-0.51,9.98,0.04,0.03,0.05,0.0,0.0,0.0,2856,2019-04-29 17:21:54:487
-0.03,-0.51,9.98,0.04,0.03,0.05,0.0,0.0,0.0,2866,2019-04-29 17:21:54:497
-0.03,-0.51,9.98,0.04,0.03,0.05,0.0,0.0,0.0,2868,2019-04-29 17:21:54:499
-0.08,-0.57,9.87,0.0,-0.02,-0.05,0.0,0.0,0.0,2871,2019-04-29 17:21:54:502
-0.08,-0.57,9.87,0.0,-0.02,-0.05,0.0,0.0,0.0,2878,2019-04-29 17:21:54:509
-0.08,-0.57,9.87,0.0,-0.02,-0.05,0.0,0.0,0.0,2882,2019-04-29 17:21:54:513
-0.08,-0.57,9.87,0.0,-0.02,-0.05,0.0,0.0,0.0,2886,2019-04-29 17:21:54:517
-0.14,-0.57,9.95,-0.05,-0.01,0.02,0.0,0.0,0.0,2891,2019-04-29 17:21:54:522
-0.14,-0.57,9.95,-0.05,-0.01,0.02,0.0,0.0,0.0,2896,2019-04-29 17:21:54:527
-0.14,-0.57,9.95,-0.05,-0.01,0.02,0.0,0.0,0.0,2901,2019-04-29 17:21:54:532
-0.14,-0.57,9.95,-0.05,-0.01,0.02,0.0,0.0,0.0,2910,2019-04-29 17:21:54:541
-0.14,-0.57,9.95,-0.05,-0.01,0.02,0.0,0.0,0.0,2911,2019-04-29 17:21:54:542
-0.14,-0.57,9.95,-0.05,-0.01,0.02,0.0,0.0,0.0,2916,2019-04-29 17:21:54:547
-0.17,-0.52,9.9,-0.07,0.03,-0.02,0.0,0.0,0.0,2923,2019-04-29 17:21:54:554
-0.17,-0.52,9.9,-0.07,0.03,-0.02,0.0,0.0,0.0,2926,2019-04-29 17:21:54:557
-0.17,-0.52,9.9,-0.07,0.03,-0.02,0.0,0.0,0.0,2931,2019-04-29 17:21:54:562
-0.17,-0.52,9.9,-0.07,0.03,-0.02,0.0,0.0,0.0,2937,2019-04-29 17:21:54:568
-0.17,-0.52,9.9,-0.07,0.03,-0.02,0.0,0.0,0.0,2944,2019-04-29 17:21:54:575
-0.17,-0.52,9.9,-0.07,0.03,-0.02,0.0,0.0,0.0,2946,2019-04-29 17:21:54:577
-0.13,-0.55,10.0,-0.02,0.0,0.06,0.0,0.0,0.0,2960,2019-04-29 17:21:54:591
-0.13,-0.55,10.0,-0.02,0.0,0.06,0.0,0.0,0.0,2962,2019-04-29 17:21:54:593
-0.13,-0.55,10.0,-0.02,0.0,0.06,0.0,0.0,0.0,2963,2019-04-29 17:21:54:594
-0.13,-0.55,10.0,-0.02,0.0,0.06,0.0,0.0,0.0,2966,2019-04-29 17:21:54:597
-0.13,-0.55,10.0,-0.02,0.0,0.06,0.0,0.0,0.0,2971,2019-04-29 17:21:54:602
-0.13,-0.55,10.0,-0.02,0.0,0.06,0.0,0.0,0.0,2976,2019-04-29 17:21:54:607
-0.13,-0.55,10.0,-0.02,0.0,0.06,0.0,0.0,0.0,2984,2019-04-29 17:21:54:615
-0.13,-0.55,10.0,-0.02,0.0,0.06,0.0,0.0,0.0,2990,2019-04-29 17:21:54:621
-0.13,-0.55,10.0,-0.02,0.0,0.06,0.0,0.0,0.0,2993,2019-04-29 17:21:54:624
-0.13,-0.55,10.0,-0.02,0.0,0.06,0.0,0.0,0.0,2998,2019-04-29 17:21:54:629
-0.13,-0.55,10.0,-0.02,0.0,0.06,0.0,0.0,0.0,3001,2019-04-29 17:21:54:632
-0.13,-0.55,10.0,-0.02,0.0,0.06,0.0,0.0,0.0,3009,2019-04-29 17:21:54:640
-0.13,-0.55,10.0,-0.02,0.0,0.06,0.0,0.0,0.0,3011,2019-04-29 17:21:54:642
0.0,-0.57,9.88,0.11,-0.01,-0.04,0.0,0.0,0.0,3016,2019-04-29 17:21:54:647
0.0,-0.57,9.88,0.11,-0.01,-0.04,0.0,0.0,0.0,3021,2019-04-29 17:21:54:652
0.0,-0.57,9.88,0.11,-0.01,-0.04,0.0,0.0,0.0,3026,2019-04-29 17:21:54:657
-0.22,-0.65,9.96,-0.13,-0.06,0.03,0.0,0.0,0.0,3032,2019-04-29 17:21:54:663
-0.22,-0.65,9.96,-0.13,-0.06,0.03,0.0,0.0,0.0,3038,2019-04-29 17:21:54:669
-0.22,-0.65,9.96,-0.13,-0.06,0.03,0.0,0.0,0.0,3041,2019-04-29 17:21:54:672
-0.22,-0.65,9.96,-0.13,-0.06,0.03,0.0,0.0,0.0,3046,2019-04-29 17:21:54:677
-0.22,-0.65,9.96,-0.13,-0.06,0.03,0.0,0.0,0.0,3051,2019-04-29 17:21:54:682
-0.22,-0.65,9.96,-0.13,-0.06,0.03,0.0,0.0,0.0,3057,2019-04-29 17:21:54:688
-0.22,-0.65,9.96,-0.13,-0.06,0.03,0.0,0.0,0.0,3061,2019-04-29 17:21:54:692
-0.16,-0.57,9.84,-0.05,0.03,-0.08,0.0,0.0,0.0,3066,2019-04-29 17:21:54:697
-0.16,-0.57,9.84,-0.05,0.03,-0.08,0.0,0.0,0.0,3072,2019-04-29 17:21:54:703
-0.16,-0.57,9.84,-0.05,0.03,-0.08,0.0,0.0,0.0,3079,2019-04-29 17:21:54:710
-0.16,-0.57,9.84,-0.05,0.03,-0.08,0.0,0.0,0.0,3081,2019-04-29 17:21:54:712
-0.06,-0.59,9.93,0.04,0.01,0.0,0.0,0.0,0.01,3086,2019-04-29 17:21:54:717
-0.06,-0.59,9.93,0.04,0.01,0.0,0.0,0.0,0.01,3091,2019-04-29 17:21:54:722
-0.06,-0.59,9.93,0.04,0.01,0.0,0.0,0.0,0.01,3097,2019-04-29 17:21:54:728
-0.06,-0.59,9.93,0.04,0.01,0.0,0.0,0.0,0.01,3103,2019-04-29 17:21:54:734
-0.06,-0.59,9.93,0.04,0.01,0.0,0.0,0.0,0.01,3107,2019-04-29 17:21:54:738
-0.04,-0.54,9.98,0.04,0.06,0.04,0.0,0.0,0.0,3112,2019-04-29 17:21:54:743
-0.04,-0.54,9.98,0.04,0.06,0.04,0.0,0.0,0.0,3116,2019-04-29 17:21:54:747
-0.04,-0.54,9.98,0.04,0.06,0.04,0.0,0.0,0.0,3121,2019-04-29 17:21:54:752
-0.04,-0.54,9.98,0.04,0.06,0.04,0.0,0.0,0.0,3126,2019-04-29 17:21:54:757
-0.04,-0.47,9.87,0.03,0.12,-0.06,0.0,0.0,0.0,3132,2019-04-29 17:21:54:763
-0.04,-0.47,9.87,0.03,0.12,-0.06,0.0,0.0,0.0,3136,2019-04-29 17:21:54:767
-0.04,-0.47,9.87,0.03,0.12,-0.06,0.0,0.0,0.0,3142,2019-04-29 17:21:54:773
-0.04,-0.47,9.87,0.03,0.12,-0.06,0.0,0.0,0.0,3147,2019-04-29 17:21:54:778
-0.04,-0.47,9.87,0.03,0.12,-0.06,0.0,0.0,0.0,3152,2019-04-29 17:21:54:783
-0.04,-0.47,9.87,0.03,0.12,-0.06,0.0,0.0,0.0,3157,2019-04-29 17:21:54:788
-0.04,-0.49,9.92,0.02,0.1,-0.01,0.0,0.0,0.0,3162,2019-04-29 17:21:54:793
-0.04,-0.49,9.92,0.02,0.1,-0.01,0.0,0.0,0.0,3167,2019-04-29 17:21:54:798
-0.04,-0.49,9.92,0.02,0.1,-0.01,0.0,0.0,0.0,3172,2019-04-29 17:21:54:803
-0.04,-0.49,9.92,0.02,0.1,-0.01,0.0,0.0,0.0,3177,2019-04-29 17:21:54:808
-0.08,-0.5,10.0,-0.01,0.08,0.05,0.0,0.0,0.0,3182,2019-04-29 17:21:54:813
-0.08,-0.5,10.0,-0.01,0.08,0.05,0.0,0.0,0.0,3187,2019-04-29 17:21:54:818
-0.08,-0.5,10.0,-0.01,0.08,0.05,0.0,0.0,0.0,3192,2019-04-29 17:21:54:823
-0.08,-0.5,10.0,-0.01,0.08,0.05,0.0,0.0,0.0,3196,2019-04-29 17:21:54:827
-0.08,-0.49,9.95,0.0,0.07,0.0,0.0,0.0,0.0,3201,2019-04-29 17:21:54:832
-0.08,-0.49,9.95,0.0,0.07,0.0,0.0,0.0,0.0,3207,2019-04-29 17:21:54:838
-0.08,-0.49,9.95,0.0,0.07,0.0,0.0,0.0,0.0,3211,2019-04-29 17:21:54:842
-0.18,-0.54,9.92,-0.09,0.01,-0.02,0.0,0.0,-0.01,3217,2019-04-29 17:21:54:848
-0.18,-0.54,9.92,-0.09,0.01,-0.02,0.0,0.0,-0.01,3222,2019-04-29 17:21:54:853
-0.18,-0.54,9.92,-0.09,0.01,-0.02,0.0,0.0,-0.01,3227,2019-04-29 17:21:54:858
-0.13,-0.44,9.95,-0.04,0.09,0.0,0.0,0.0,-0.01,3232,2019-04-29 17:21:54:863
-0.13,-0.44,9.95,-0.04,0.09,0.0,0.0,0.0,-0.01,3236,2019-04-29 17:21:54:867
-0.13,-0.44,9.95,-0.04,0.09,0.0,0.0,0.0,-0.01,3241,2019-04-29 17:21:54:872
-0.13,-0.44,9.95,-0.04,0.09,0.0,0.0,0.0,-0.01,3247,2019-04-29 17:21:54:878
-0.09,-0.52,9.83,0.0,0.0,-0.1,0.0,0.0,-0.01,3252,2019-04-29 17:21:54:883
-0.09,-0.52,9.83,0.0,0.0,-0.1,0.0,0.0,-0.01,3256,2019-04-29 17:21:54:887
-0.09,-0.52,9.83,0.0,0.0,-0.1,0.0,0.0,-0.01,3266,2019-04-29 17:21:54:897
-0.09,-0.52,9.83,0.0,0.0,-0.1,0.0,0.0,-0.01,3266,2019-04-29 17:21:54:897
-0.14,-0.56,9.96,-0.05,-0.04,0.02,0.0,0.0,-0.01,3271,2019-04-29 17:21:54:902
-0.14,-0.56,9.96,-0.05,-0.04,0.02,0.0,0.0,-0.01,3276,2019-04-29 17:21:54:907
-0.14,-0.56,9.96,-0.05,-0.04,0.02,0.0,0.0,-0.01,3282,2019-04-29 17:21:54:913
-0.14,-0.56,9.96,-0.05,-0.04,0.02,0.0,0.0,-0.01,3286,2019-04-29 17:21:54:917
-0.06,-0.53,9.94,0.01,-0.02,0.0,0.0,0.0,-0.01,3291,2019-04-29 17:21:54:922
-0.06,-0.53,9.94,0.01,-0.02,0.0,0.0,0.0,-0.01,3296,2019-04-29 17:21:54:927
-0.06,-0.53,9.94,0.01,-0.02,0.0,0.0,0.0,-0.01,3301,2019-04-29 17:21:54:932
-0.06,-0.53,9.94,0.01,-0.02,0.0,0.0,0.0,-0.01,3307,2019-04-29 17:21:54:938
0.02,-0.47,9.89,0.1,0.03,-0.03,0.0,0.0,-0.02,3312,2019-04-29 17:21:54:943
0.02,-0.47,9.89,0.1,0.03,-0.03,0.0,0.0,-0.02,3316,2019-04-29 17:21:54:947
0.02,-0.47,9.89,0.1,0.03,-0.03,0.0,0.0,-0.02,3321,2019-04-29 17:21:54:952
0.02,-0.47,9.89,0.1,0.03,-0.03,0.0,0.0,-0.02,3326,2019-04-29 17:21:54:957
0.02,-0.43,10.03,0.1,0.06,0.08,0.0,0.0,-0.02,3333,2019-04-29 17:21:54:964
0.02,-0.43,10.03,0.1,0.06,0.08,0.0,0.0,-0.02,3336,2019-04-29 17:21:54:967
0.02,-0.43,10.03,0.1,0.06,0.08,0.0,0.0,-0.02,3342,2019-04-29 17:21:54:973
0.02,-0.43,10.03,0.1,0.06,0.08,0.0,0.0,-0.02,3347,2019-04-29 17:21:54:978
0.02,-0.43,10.03,0.1,0.06,0.08,0.0,0.0,-0.02,3353,2019-04-29 17:21:54:984
0.06,-0.54,10.04,0.1,0.06,0.08,0.0,0.0,-0.02,3357,2019-04-29 17:21:54:988
0.06,-0.54,10.04,0.1,0.06,0.08,0.0,0.0,-0.02,3362,2019-04-29 17:21:54:993
0.06,-0.54,10.04,0.13,-0.04,0.09,0.0,0.0,-0.03,3366,2019-04-29 17:21:54:997
0.06,-0.54,10.04,0.13,-0.04,0.09,0.0,0.0,-0.03,3371,2019-04-29 17:21:55:002
0.06,-0.54,10.04,0.13,-0.04,0.09,0.0,0.0,-0.03,3376,2019-04-29 17:21:55:007
-0.09,-0.54,9.81,-0.02,-0.04,-0.11,0.0,0.0,-0.03,3381,2019-04-29 17:21:55:012
-0.09,-0.54,9.81,-0.02,-0.04,-0.11,0.0,0.0,-0.03,3391,2019-04-29 17:21:55:022
-0.09,-0.54,9.81,-0.02,-0.04,-0.11,0.0,0.0,-0.03,3397,2019-04-29 17:21:55:028
-0.09,-0.54,9.81,-0.02,-0.04,-0.11,0.0,0.0,-0.03,3398,2019-04-29 17:21:55:029
-0.09,-0.54,9.81,-0.02,-0.04,-0.11,0.0,0.0,-0.03,3402,2019-04-29 17:21:55:033
-0.15,-0.52,9.8,-0.08,-0.02,-0.12,0.0,0.0,-0.03,3411,2019-04-29 17:21:55:042
-0.15,-0.52,9.8,-0.08,-0.02,-0.12,0.0,0.0,-0.03,3411,2019-04-29 17:21:55:042
-0.15,-0.52,9.8,-0.08,-0.02,-0.12,0.0,0.0,-0.03,3416,2019-04-29 17:21:55:047
-0.15,-0.52,9.8,-0.08,-0.02,-0.12,0.0,0.0,-0.03,3422,2019-04-29 17:21:55:053
-0.15,-0.52,9.8,-0.08,-0.02,-0.12,0.0,0.0,-0.03,3426,2019-04-29 17:21:55:057
-0.29,-0.49,9.89,-0.21,0.0,-0.03,0.0,0.0,-0.02,3431,2019-04-29 17:21:55:062
-0.29,-0.49,9.89,-0.21,0.0,-0.03,0.0,0.0,-0.02,3436,2019-04-29 17:21:55:067
-0.29,-0.49,9.89,-0.21,0.0,-0.03,0.0,0.0,-0.02,3443,2019-04-29 17:21:55:074
-0.29,-0.49,9.89,-0.21,0.0,-0.03,0.0,0.0,-0.02,3447,2019-04-29 17:21:55:078
-0.29,-0.49,9.89,-0.21,0.0,-0.03,0.0,0.0,-0.02,3452,2019-04-29 17:21:55:083
-0.29,-0.49,9.89,-0.21,0.0,-0.03,0.0,0.0,-0.02,3457,2019-04-29 17:21:55:088
-0.12,-0.55,10.04,-0.03,-0.04,0.1,0.0,0.0,-0.01,3465,2019-04-29 17:21:55:096
-0.12,-0.55,10.04,-0.03,-0.04,0.1,0.0,0.0,-0.01,3466,2019-04-29 17:21:55:097
-0.12,-0.55,10.04,-0.03,-0.04,0.1,0.0,0.0,-0.01,3472,2019-04-29 17:21:55:103
-0.12,-0.55,10.04,-0.03,-0.04,0.1,0.0,0.0,-0.01,3477,2019-04-29 17:21:55:108
-0.03,-0.56,10.04,0.06,-0.05,0.11,0.0,0.0,0.0,3484,2019-04-29 17:21:55:115
-0.03,-0.56,10.04,0.06,-0.05,0.11,0.0,0.0,0.0,3486,2019-04-29 17:21:55:117
-0.03,-0.56,10.04,0.06,-0.05,0.11,0.0,0.0,0.0,3491,2019-04-29 17:21:55:122
-0.03,-0.56,10.04,0.06,-0.05,0.11,0.0,0.0,0.0,3497,2019-04-29 17:21:55:128
-0.03,-0.56,10.04,0.06,-0.05,0.11,0.0,0.0,0.0,3502,2019-04-29 17:21:55:133
-0.03,-0.56,10.04,0.06,-0.05,0.11,0.0,0.0,0.0,3506,2019-04-29 17:21:55:137
-0.03,-0.56,10.04,0.06,-0.05,0.11,0.0,0.0,0.0,3511,2019-04-29 17:21:55:142
-0.03,-0.56,10.04,0.06,-0.05,0.11,0.0,0.0,0.0,3517,2019-04-29 17:21:55:148
-0.03,-0.56,10.04,0.06,-0.05,0.11,0.0,0.0,0.0,3521,2019-04-29 17:21:55:152
-0.03,-0.54,9.88,0.05,-0.03,-0.03,0.0,0.0,0.0,3528,2019-04-29 17:21:55:159
-0.03,-0.54,9.88,0.05,-0.03,-0.03,0.0,0.0,0.0,3534,2019-04-29 17:21:55:165
-0.03,-0.54,9.88,0.05,-0.03,-0.03,0.0,0.0,0.0,3538,2019-04-29 17:21:55:169
-0.03,-0.54,9.88,0.01,0.0,0.0,0.0,0.0,0.0,3541,2019-04-29 17:21:55:172
-0.03,-0.54,9.88,0.01,0.0,0.0,0.0,0.0,0.0,3546,2019-04-29 17:21:55:177
-0.03,-0.66,9.96,0.01,0.0,0.0,0.0,0.0,0.0,3552,2019-04-29 17:21:55:183
-0.03,-0.66,9.96,0.01,0.0,0.0,0.0,0.0,0.0,3556,2019-04-29 17:21:55:187
-0.03,-0.66,9.96,0.01,0.0,0.0,0.0,0.0,0.0,3561,2019-04-29 17:21:55:192
-0.03,-0.66,9.96,0.01,0.0,0.0,0.0,0.0,0.0,3566,2019-04-29 17:21:55:197
-0.09,-0.56,9.99,0.01,-0.02,0.06,0.0,0.0,0.0,3576,2019-04-29 17:21:55:207
-0.09,-0.56,9.99,0.01,-0.02,0.06,0.0,0.0,0.0,3577,2019-04-29 17:21:55:208
-0.09,-0.56,9.99,0.01,-0.02,0.06,0.0,0.0,0.0,3582,2019-04-29 17:21:55:213
-0.09,-0.56,9.99,0.01,-0.02,0.06,0.0,0.0,0.0,3589,2019-04-29 17:21:55:220
-0.09,-0.56,9.99,0.01,-0.02,0.06,0.0,0.0,0.0,3592,2019-04-29 17:21:55:223
-0.09,-0.56,9.99,0.01,-0.02,0.06,0.0,0.0,0.0,3598,2019-04-29 17:21:55:229
-0.09,-0.56,9.99,0.01,-0.02,0.06,0.0,0.0,0.0,3604,2019-04-29 17:21:55:235
-0.19,-0.5,9.93,-0.07,0.03,0.0,0.0,0.0,0.01,3606,2019-04-29 17:21:55:237
-0.19,-0.5,9.93,-0.07,0.03,0.0,0.0,0.0,0.01,3611,2019-04-29 17:21:55:242
-0.19,-0.5,9.93,-0.07,0.03,0.0,0.0,0.0,0.01,3617,2019-04-29 17:21:55:248
-0.19,-0.5,9.93,-0.07,0.03,0.0,0.0,0.0,0.01,3622,2019-04-29 17:21:55:253
-0.19,-0.5,9.93,-0.07,0.03,0.0,0.0,0.0,0.01,3626,2019-04-29 17:21:55:257
-0.17,-0.53,9.94,-0.07,0.01,0.01,0.0,0.0,0.01,3632,2019-04-29 17:21:55:263
-0.17,-0.53,9.94,-0.07,0.01,0.01,0.0,0.0,0.01,3637,2019-04-29 17:21:55:268
-0.17,-0.53,9.94,-0.07,0.01,0.01,0.0,0.0,0.01,3642,2019-04-29 17:21:55:273
-0.17,-0.53,9.94,-0.07,0.01,0.01,0.0,0.0,0.01,3647,2019-04-29 17:21:55:278
-0.09,-0.57,9.92,-0.07,0.01,0.01,0.0,0.0,0.01,3652,2019-04-29 17:21:55:283
-0.09,-0.57,9.92,-0.07,0.01,0.01,0.0,0.0,0.01,3657,2019-04-29 17:21:55:288
-0.09,-0.57,9.92,0.0,-0.01,0.0,0.0,0.0,0.02,3661,2019-04-29 17:21:55:292
-0.09,-0.57,9.92,0.0,-0.01,0.0,0.0,0.0,0.02,3667,2019-04-29 17:21:55:298
-0.05,-0.58,9.85,0.0,-0.01,0.0,0.0,0.0,0.02,3671,2019-04-29 17:21:55:302
-0.05,-0.58,9.85,0.0,-0.01,0.0,0.0,0.0,0.02,3676,2019-04-29 17:21:55:307
-0.05,-0.58,9.85,0.0,-0.01,0.0,0.0,0.0,0.02,3681,2019-04-29 17:21:55:312
-0.05,-0.58,9.85,0.0,-0.01,0.0,0.0,0.0,0.02,3686,2019-04-29 17:21:55:317
0.0,-0.74,10.29,-0.15,0.01,0.04,0.0,0.0,0.02,3691,2019-04-29 17:21:55:322
0.0,-0.74,10.29,-0.15,0.01,0.04,0.0,0.0,0.02,3696,2019-04-29 17:21:55:327
0.0,-0.74,10.29,-0.15,0.01,0.04,0.0,0.0,0.02,3701,2019-04-29 17:21:55:332
0.0,-0.74,10.29,-0.15,0.01,0.04,0.0,0.0,0.02,3706,2019-04-29 17:21:55:337
-0.23,-0.59,10.15,-0.15,0.01,0.04,0.0,0.0,0.02,3711,2019-04-29 17:21:55:342
-0.23,-0.59,10.15,-0.15,0.01,0.04,0.0,0.0,0.02,3717,2019-04-29 17:21:55:348
-0.23,-0.59,10.15,-0.15,0.01,0.04,0.0,0.0,0.02,3753,2019-04-29 17:21:55:384
-0.23,-0.59,10.15,-0.15,0.01,0.04,0.0,0.0,0.02,3754,2019-04-29 17:21:55:385
-0.23,-0.59,10.15,-0.15,0.01,0.04,0.0,0.0,0.02,3755,2019-04-29 17:21:55:386
-0.23,-0.59,10.15,-0.15,0.01,0.04,0.0,0.0,0.02,3756,2019-04-29 17:21:55:387
-0.23,-0.59,10.15,-0.15,0.01,0.04,0.0,0.0,0.02,3757,2019-04-29 17:21:55:388
-0.23,-0.59,10.15,-0.15,0.01,0.04,0.0,0.0,0.02,3757,2019-04-29 17:21:55:388
-0.23,-0.59,10.15,-0.15,0.01,0.04,0.0,0.0,0.02,3757,2019-04-29 17:21:55:388
-0.23,-0.59,10.15,-0.15,0.01,0.04,0.0,0.0,0.02,3758,2019-04-29 17:21:55:389
-0.23,-0.59,10.15,-0.15,0.01,0.04,0.0,0.0,0.02,3761,2019-04-29 17:21:55:392
-0.23,-0.59,10.15,-0.15,0.01,0.04,0.0,0.0,0.02,3768,2019-04-29 17:21:55:399
-0.23,-0.59,10.15,-0.15,0.01,0.04,0.0,0.0,0.02,3772,2019-04-29 17:21:55:403
-0.07,-0.77,9.96,-0.12,-0.02,0.18,0.0,0.0,0.02,3777,2019-04-29 17:21:55:408
-0.07,-0.77,9.96,-0.12,-0.02,0.18,0.0,0.0,0.02,3782,2019-04-29 17:21:55:413
-0.07,-0.77,9.96,-0.12,-0.02,0.18,0.0,0.0,0.02,3787,2019-04-29 17:21:55:418
-0.07,-0.77,9.96,-0.12,-0.02,0.18,0.0,0.0,0.02,3791,2019-04-29 17:21:55:422
-0.07,-0.77,9.96,-0.12,-0.02,0.18,0.0,0.0,0.02,3797,2019-04-29 17:21:55:428
-0.02,-0.57,9.73,0.02,0.02,-0.26,0.0,0.0,0.01,3802,2019-04-29 17:21:55:433
-0.02,-0.57,9.73,0.02,0.02,-0.26,0.0,0.0,0.01,3808,2019-04-29 17:21:55:439
-0.02,-0.57,9.73,0.02,0.02,-0.26,0.0,0.0,0.0,3811,2019-04-29 17:21:55:442
-0.02,-0.57,9.73,0.1,0.17,0.01,0.0,0.0,0.0,3816,2019-04-29 17:21:55:447
-0.02,-0.57,9.73,0.1,0.17,0.01,0.0,0.0,0.0,3822,2019-04-29 17:21:55:453
-0.02,-0.57,9.73,0.1,0.17,0.01,0.0,0.0,0.0,3827,2019-04-29 17:21:55:458
-0.02,-0.57,9.73,0.1,0.17,0.01,0.0,0.0,0.0,3831,2019-04-29 17:21:55:462
-0.07,-0.57,9.81,-0.05,0.01,-0.16,0.0,0.0,0.0,3836,2019-04-29 17:21:55:467
-0.07,-0.57,9.81,-0.05,0.01,-0.16,0.0,0.0,0.0,3841,2019-04-29 17:21:55:472
-0.07,-0.57,9.81,-0.05,0.01,-0.16,0.0,0.0,0.0,3846,2019-04-29 17:21:55:477
-0.07,-0.57,9.81,-0.05,0.01,-0.16,0.0,0.0,0.0,3852,2019-04-29 17:21:55:483
-0.07,-0.57,9.81,-0.05,0.01,-0.16,0.0,0.0,0.0,3856,2019-04-29 17:21:55:487
-0.03,-0.44,9.79,-0.01,0.13,-0.17,0.0,0.0,0.0,3861,2019-04-29 17:21:55:492
-0.03,-0.44,9.79,-0.01,0.13,-0.17,0.0,0.0,0.0,3866,2019-04-29 17:21:55:497
-0.03,-0.44,9.79,-0.01,0.13,-0.17,0.0,0.0,0.0,3872,2019-04-29 17:21:55:503
0.07,-0.46,10.11,0.09,0.11,0.13,0.0,0.0,0.0,3878,2019-04-29 17:21:55:509
0.07,-0.46,10.11,0.09,0.11,0.13,0.0,0.0,0.0,3882,2019-04-29 17:21:55:513
-0.1,-0.59,10.11,0.09,0.11,0.13,0.0,0.0,-0.01,3887,2019-04-29 17:21:55:518
-0.1,-0.59,10.11,-0.06,-0.03,0.17,0.0,0.0,-0.01,3893,2019-04-29 17:21:55:524
-0.1,-0.59,10.11,-0.06,-0.03,0.17,0.0,0.0,-0.01,3897,2019-04-29 17:21:55:528
-0.1,-0.59,10.11,-0.06,-0.03,0.17,0.0,0.0,-0.01,3901,2019-04-29 17:21:55:532
-0.1,-0.59,10.11,-0.06,-0.03,0.17,0.0,0.0,-0.01,3907,2019-04-29 17:21:55:538
-0.1,-0.59,10.11,-0.06,-0.03,0.17,0.0,0.0,-0.01,3911,2019-04-29 17:21:55:542
-0.1,-0.59,10.11,-0.06,-0.03,0.17,0.0,0.0,-0.01,3916,2019-04-29 17:21:55:547
-0.15,-0.48,9.8,-0.11,0.05,-0.12,0.0,0.0,-0.01,3921,2019-04-29 17:21:55:552
-0.15,-0.48,9.8,-0.11,0.05,-0.12,0.0,0.0,-0.01,3926,2019-04-29 17:21:55:557
-0.15,-0.48,9.8,-0.11,0.05,-0.12,0.0,0.0,-0.01,3931,2019-04-29 17:21:55:562
-0.15,-0.48,9.8,-0.11,0.05,-0.12,0.0,0.0,-0.01,3936,2019-04-29 17:21:55:567
-0.15,-0.48,9.8,-0.11,0.05,-0.12,0.0,0.0,-0.01,3941,2019-04-29 17:21:55:572
-0.15,-0.48,9.8,-0.11,0.05,-0.12,0.0,0.0,-0.01,3946,2019-04-29 17:21:55:577
0.04,-0.49,10.79,0.1,0.03,0.83,0.0,0.0,-0.01,3951,2019-04-29 17:21:55:582
0.04,-0.49,10.79,0.1,0.03,0.83,0.0,0.0,-0.01,3956,2019-04-29 17:21:55:587
0.04,-0.49,10.79,0.1,0.03,0.83,0.0,0.0,-0.01,3962,2019-04-29 17:21:55:593
0.04,-0.49,10.79,0.1,0.03,0.83,0.0,0.0,-0.01,3967,2019-04-29 17:21:55:598
0.02,-0.31,9.25,0.09,0.2,-0.64,0.01,0.0,-0.01,3972,2019-04-29 17:21:55:603
0.02,-0.31,9.25,0.09,0.2,-0.64,0.01,0.0,-0.01,3977,2019-04-29 17:21:55:608
0.02,-0.31,9.25,0.09,0.2,-0.64,0.01,0.0,-0.01,3982,2019-04-29 17:21:55:613
0.02,-0.31,9.25,0.09,0.2,-0.64,0.01,0.0,-0.01,3986,2019-04-29 17:21:55:617
-0.1,-0.53,9.96,-0.04,-0.01,0.07,0.0,0.0,-0.01,3991,2019-04-29 17:21:55:622
-0.1,-0.53,9.96,-0.04,-0.01,0.07,0.0,0.0,-0.01,3996,2019-04-29 17:21:55:627
-0.1,-0.53,9.96,-0.04,-0.01,0.07,0.0,0.0,-0.01,4001,2019-04-29 17:21:55:632
-0.1,-0.53,9.96,-0.04,-0.01,0.07,0.0,0.0,-0.01,4006,2019-04-29 17:21:55:637
-0.5,-0.71,10.27,-0.4,-0.19,0.34,-0.01,0.0,-0.01,4012,2019-04-29 17:21:55:643
-0.5,-0.71,10.27,-0.4,-0.19,0.34,-0.01,0.0,-0.01,4016,2019-04-29 17:21:55:647
-0.5,-0.71,10.27,-0.4,-0.19,0.34,-0.01,0.0,-0.01,4022,2019-04-29 17:21:55:653
-0.5,-0.71,10.27,-0.4,-0.19,0.34,-0.01,0.0,-0.01,4027,2019-04-29 17:21:55:658
-0.53,-0.65,9.42,-0.42,-0.12,-0.49,0.0,0.0,-0.01,4032,2019-04-29 17:21:55:663
-0.53,-0.65,9.42,-0.42,-0.12,-0.49,0.0,0.0,-0.01,4036,2019-04-29 17:21:55:667
-0.53,-0.65,9.42,-0.42,-0.12,-0.49,0.0,0.0,-0.01,4042,2019-04-29 17:21:55:673
-0.53,-0.65,9.42,-0.42,-0.12,-0.49,0.0,0.0,-0.01,4047,2019-04-29 17:21:55:678
-0.71,-0.49,9.72,-0.58,0.04,-0.18,0.0,0.01,-0.01,4051,2019-04-29 17:21:55:682
-0.71,-0.49,9.72,-0.58,0.04,-0.18,0.0,0.01,-0.01,4056,2019-04-29 17:21:55:687
-0.71,-0.49,9.72,-0.58,0.04,-0.18,0.0,0.01,-0.01,4061,2019-04-29 17:21:55:692
-0.71,-0.49,9.72,-0.58,0.04,-0.18,0.0,0.01,-0.01,4066,2019-04-29 17:21:55:697
-0.71,-0.49,9.72,-0.58,0.04,-0.18,0.0,0.01,-0.01,4072,2019-04-29 17:21:55:703
-0.29,-0.46,9.76,-0.17,0.07,-0.14,0.0,0.0,0.0,4076,2019-04-29 17:21:55:707
-0.29,-0.46,9.76,-0.17,0.07,-0.14,0.0,0.0,0.0,4082,2019-04-29 17:21:55:713
-0.29,-0.46,9.76,-0.17,0.07,-0.14,0.0,0.0,0.0,4086,2019-04-29 17:21:55:717
-0.29,-0.46,9.76,-0.17,0.07,-0.14,0.0,0.0,0.0,4091,2019-04-29 17:21:55:722
-0.29,-0.46,9.76,-0.17,0.07,-0.14,0.0,0.0,0.0,4097,2019-04-29 17:21:55:728
-0.09,-0.63,10.07,0.0,-0.08,0.13,0.0,0.0,0.0,4102,2019-04-29 17:21:55:733
-0.09,-0.63,10.07,0.0,-0.08,0.13,0.0,0.0,0.0,4106,2019-04-29 17:21:55:737
-0.09,-0.63,10.07,0.0,-0.08,0.13,-0.01,0.0,0.0,4112,2019-04-29 17:21:55:743
-0.09,-0.63,10.07,0.0,-0.08,0.13,-0.01,0.0,0.0,4116,2019-04-29 17:21:55:747
-0.09,-0.63,10.07,0.0,-0.08,0.13,-0.01,0.0,0.0,4121,2019-04-29 17:21:55:752
-0.09,-0.63,10.07,0.0,-0.08,0.13,-0.01,0.0,0.0,4126,2019-04-29 17:21:55:757
0.07,-0.59,10.19,0.15,-0.03,0.26,0.0,0.0,0.0,4131,2019-04-29 17:21:55:762
0.07,-0.59,10.19,0.15,-0.03,0.26,0.0,0.0,0.0,4136,2019-04-29 17:21:55:767
0.07,-0.59,10.19,0.15,-0.03,0.26,0.0,0.0,0.0,4141,2019-04-29 17:21:55:772
0.07,-0.59,10.19,0.15,-0.03,0.26,0.0,0.0,0.0,4147,2019-04-29 17:21:55:778
0.0,-0.36,9.9,0.07,0.17,0.01,0.01,0.0,0.0,4152,2019-04-29 17:21:55:783
0.0,-0.36,9.9,0.07,0.17,0.01,0.01,0.0,0.0,4156,2019-04-29 17:21:55:787
0.0,-0.36,9.9,0.07,0.17,0.01,0.01,0.0,0.0,4161,2019-04-29 17:21:55:792
0.0,-0.36,9.9,0.07,0.17,0.01,0.01,0.0,0.0,4166,2019-04-29 17:21:55:797
0.0,-0.36,9.9,0.07,0.17,0.01,0.01,0.0,0.0,4171,2019-04-29 17:21:55:802
-0.23,-0.38,9.75,-0.14,0.15,-0.17,0.0,0.0,0.0,4176,2019-04-29 17:21:55:807
-0.23,-0.38,9.75,-0.14,0.15,-0.17,0.0,0.0,0.0,4182,2019-04-29 17:21:55:813
-0.23,-0.38,9.75,-0.14,0.15,-0.17,0.0,0.0,0.0,4187,2019-04-29 17:21:55:818
-0.23,-0.38,9.75,-0.14,0.15,-0.17,0.0,0.0,0.0,4192,2019-04-29 17:21:55:823
-0.23,-0.38,9.75,-0.14,0.15,-0.17,0.0,0.0,0.0,4196,2019-04-29 17:21:55:827
-0.23,-0.38,9.75,-0.14,0.15,-0.17,0.0,0.0,0.0,4201,2019-04-29 17:21:55:832
-0.33,-0.57,9.92,-0.21,-0.02,-0.02,0.0,0.0,0.0,4206,2019-04-29 17:21:55:837
-0.33,-0.57,9.92,-0.21,-0.02,-0.02,0.0,0.0,0.0,4212,2019-04-29 17:21:55:843
-0.33,-0.57,9.92,-0.21,-0.02,-0.02,0.0,0.0,0.0,4216,2019-04-29 17:21:55:847
-0.33,-0.57,9.92,-0.21,-0.02,-0.02,0.0,0.0,0.0,4221,2019-04-29 17:21:55:852
-0.33,-0.57,9.92,-0.21,-0.02,-0.02,0.0,0.0,0.0,4226,2019-04-29 17:21:55:857
-0.23,-0.67,9.98,-0.13,-0.12,0.04,0.0,0.0,0.0,4231,2019-04-29 17:21:55:862
-0.23,-0.67,9.98,-0.13,-0.12,0.04,0.0,0.0,0.0,4237,2019-04-29 17:21:55:868
-0.23,-0.67,9.98,-0.13,-0.12,0.04,0.0,0.0,0.0,4241,2019-04-29 17:21:55:872
-0.23,-0.67,9.98,-0.13,-0.12,0.04,0.0,0.0,0.0,4246,2019-04-29 17:21:55:877
-0.13,-0.45,9.84,-0.05,0.09,-0.1,0.01,0.0,0.0,4251,2019-04-29 17:21:55:882
-0.13,-0.45,9.84,-0.05,0.09,-0.1,0.01,0.0,0.0,4256,2019-04-29 17:21:55:887
-0.13,-0.45,9.84,-0.05,0.09,-0.1,0.01,0.0,0.0,4262,2019-04-29 17:21:55:893
-0.13,-0.45,9.84,-0.05,0.09,-0.1,0.01,0.0,0.0,4266,2019-04-29 17:21:55:897
0.04,-0.35,9.81,-0.05,0.09,-0.1,0.01,0.0,0.0,4272,2019-04-29 17:21:55:903
0.04,-0.35,9.81,-0.05,0.09,-0.1,0.01,0.0,0.0,4310,2019-04-29 17:21:55:941
0.04,-0.35,9.81,-0.05,0.09,-0.1,0.01,0.0,0.0,4312,2019-04-29 17:21:55:943
0.04,-0.35,9.81,-0.05,0.09,-0.1,0.01,0.0,0.0,4312,2019-04-29 17:21:55:943
-0.15,-0.69,9.94,0.12,0.19,-0.12,0.0,0.0,0.0,4313,2019-04-29 17:21:55:944
-0.15,-0.69,9.94,0.12,0.19,-0.12,0.0,0.0,0.0,4317,2019-04-29 17:21:55:948
-0.15,-0.69,9.94,0.12,0.19,-0.12,0.0,0.0,0.0,4319,2019-04-29 17:21:55:950
-0.15,-0.69,9.94,0.12,0.19,-0.12,0.0,0.0,0.0,4320,2019-04-29 17:21:55:951
-0.15,-0.69,9.94,0.12,0.19,-0.12,0.0,0.0,0.0,4322,2019-04-29 17:21:55:953
-0.15,-0.69,9.94,0.12,0.19,-0.12,0.0,0.0,0.0,4323,2019-04-29 17:21:55:954
-0.15,-0.69,9.94,0.12,0.19,-0.12,0.0,0.0,0.0,4324,2019-04-29 17:21:55:955
-0.15,-0.69,9.94,0.12,0.19,-0.12,0.0,0.0,0.0,4326,2019-04-29 17:21:55:957
-0.15,-0.69,9.94,0.12,0.19,-0.12,0.0,0.0,0.0,4331,2019-04-29 17:21:55:962
-0.15,-0.69,9.94,0.12,0.19,-0.12,0.0,0.0,0.0,4337,2019-04-29 17:21:55:968
-0.04,-0.59,10.02,0.04,-0.04,0.08,0.0,0.0,0.01,4342,2019-04-29 17:21:55:973
-0.04,-0.59,10.02,0.04,-0.04,0.08,0.0,0.0,0.01,4347,2019-04-29 17:21:55:978
-0.04,-0.59,10.02,0.04,-0.04,0.08,0.0,0.0,0.01,4356,2019-04-29 17:21:55:987
-0.04,-0.59,10.02,0.04,-0.04,0.08,0.0,0.0,0.01,4357,2019-04-29 17:21:55:988
-0.04,-0.59,10.02,0.04,-0.04,0.08,0.0,0.0,0.01,4361,2019-04-29 17:21:55:992
-0.04,-0.59,10.02,0.04,-0.04,0.08,0.0,0.0,0.01,4367,2019-04-29 17:21:55:998
-0.04,-0.59,10.02,0.04,-0.04,0.08,0.0,0.0,0.01,4371,2019-04-29 17:21:56:002
-0.04,-0.59,10.02,0.04,-0.04,0.08,0.0,0.0,0.01,4376,2019-04-29 17:21:56:007
-0.04,-0.59,10.02,0.04,-0.04,0.08,0.0,0.0,0.01,4382,2019-04-29 17:21:56:013
-0.04,-0.59,10.02,0.04,-0.04,0.08,0.0,0.0,0.01,4386,2019-04-29 17:21:56:017
-0.04,-0.59,10.02,0.04,-0.04,0.08,0.0,0.0,0.01,4392,2019-04-29 17:21:56:023
-0.04,-0.59,10.02,0.04,-0.04,0.08,0.0,0.0,0.01,4397,2019-04-29 17:21:56:028
-0.04,-0.59,10.02,0.04,-0.04,0.08,0.0,0.0,0.01,4401,2019-04-29 17:21:56:032
-0.04,-0.59,10.02,0.04,-0.04,0.08,0.0,0.0,0.01,4407,2019-04-29 17:21:56:038
-0.04,-0.59,10.02,0.04,-0.04,0.08,0.0,0.0,0.01,4412,2019-04-29 17:21:56:043
-0.04,-0.59,10.02,0.04,-0.04,0.08,0.0,0.0,0.01,4416,2019-04-29 17:21:56:047
-0.04,-0.59,10.02,0.04,-0.04,0.08,0.0,0.0,0.01,4421,2019-04-29 17:21:56:052
-0.14,-0.46,9.8,-0.05,0.08,-0.13,0.0,0.0,0.0,4426,2019-04-29 17:21:56:057
-0.14,-0.46,9.8,-0.05,0.08,-0.13,0.0,0.0,0.0,4431,2019-04-29 17:21:56:062
-0.14,-0.46,9.8,-0.05,0.08,-0.13,0.0,0.0,0.0,4438,2019-04-29 17:21:56:069
-0.1,-0.56,9.89,-0.02,-0.01,-0.03,0.0,0.0,0.0,4445,2019-04-29 17:21:56:076
-0.1,-0.56,9.89,-0.02,-0.01,-0.03,0.0,0.0,0.0,4446,2019-04-29 17:21:56:077
-0.1,-0.56,9.89,-0.02,-0.01,-0.03,0.0,0.0,0.0,4451,2019-04-29 17:21:56:082
-0.11,-0.65,9.98,-0.03,-0.11,0.05,0.0,0.0,0.0,4456,2019-04-29 17:21:56:087
-0.11,-0.65,9.98,-0.03,-0.11,0.05,0.0,0.0,0.0,4461,2019-04-29 17:21:56:092
-0.11,-0.65,9.98,-0.03,-0.11,0.05,0.0,0.0,0.0,4466,2019-04-29 17:21:56:097
-0.11,-0.65,9.98,-0.03,-0.11,0.05,0.0,0.0,0.0,4471,2019-04-29 17:21:56:102
-0.11,-0.65,9.98,-0.03,-0.11,0.05,0.0,0.0,0.0,4498,2019-04-29 17:21:56:129
-0.11,-0.65,9.98,-0.03,-0.11,0.05,0.0,0.0,0.0,4499,2019-04-29 17:21:56:130
-0.11,-0.65,9.98,-0.03,-0.11,0.05,0.0,0.0,0.0,4499,2019-04-29 17:21:56:130
-0.11,-0.65,9.98,-0.03,-0.11,0.05,0.0,0.0,0.0,4500,2019-04-29 17:21:56:131
-0.11,-0.65,9.98,-0.03,-0.11,0.05,0.0,0.0,0.0,4500,2019-04-29 17:21:56:131
-0.11,-0.65,9.98,-0.03,-0.11,0.05,0.0,0.0,0.0,4501,2019-04-29 17:21:56:132
-0.03,-0.48,9.93,0.05,0.07,0.0,0.0,0.0,0.0,4506,2019-04-29 17:21:56:137
-0.03,-0.48,9.93,0.05,0.07,0.0,0.0,0.0,0.0,4511,2019-04-29 17:21:56:142
-0.03,-0.48,9.93,0.05,0.07,0.0,0.0,0.0,0.0,4517,2019-04-29 17:21:56:148
-0.03,-0.48,9.93,0.05,0.07,0.0,0.0,0.0,0.0,4521,2019-04-29 17:21:56:152
-0.03,-0.48,9.93,0.05,0.07,0.0,0.0,0.0,0.0,4526,2019-04-29 17:21:56:157
-0.04,-0.53,9.92,0.03,0.01,-0.01,0.0,0.0,0.0,4531,2019-04-29 17:21:56:162
-0.04,-0.53,9.92,0.03,0.01,-0.01,0.0,0.0,0.0,4536,2019-04-29 17:21:56:167
-0.04,-0.53,9.92,0.03,0.01,-0.01,0.0,0.0,0.0,4542,2019-04-29 17:21:56:173
-0.04,-0.53,9.92,0.03,0.01,-0.01,0.0,0.0,0.0,4547,2019-04-29 17:21:56:178
-0.04,-0.53,9.92,0.03,0.01,-0.01,0.0,0.0,0.0,4551,2019-04-29 17:21:56:182
-0.04,-0.53,9.92,0.03,0.01,-0.01,0.0,0.0,0.0,4557,2019-04-29 17:21:56:188
-0.06,-0.5,9.91,0.03,0.01,-0.01,0.0,0.0,0.0,4562,2019-04-29 17:21:56:193
-0.06,-0.5,9.91,0.03,0.01,-0.01,0.0,0.0,0.0,4566,2019-04-29 17:21:56:197
-0.05,-0.49,9.97,0.0,0.05,-0.03,0.0,0.0,0.0,4573,2019-04-29 17:21:56:204
-0.05,-0.49,9.97,0.0,0.05,-0.03,0.0,0.0,0.0,4576,2019-04-29 17:21:56:207
-0.05,-0.49,9.97,0.0,0.05,-0.03,0.0,0.0,0.0,4581,2019-04-29 17:21:56:212
-0.05,-0.49,9.98,0.0,0.05,-0.03,0.0,0.0,0.0,4588,2019-04-29 17:21:56:219
-0.08,-0.58,9.98,-0.01,-0.04,0.03,0.0,0.0,0.0,4592,2019-04-29 17:21:56:223
-0.08,-0.58,9.98,-0.01,-0.04,0.03,0.0,0.0,0.0,4597,2019-04-29 17:21:56:228
-0.08,-0.58,9.98,-0.01,-0.04,0.03,0.0,0.0,0.0,4601,2019-04-29 17:21:56:232
-0.11,-0.6,9.95,-0.04,-0.05,0.0,0.0,0.0,0.0,4608,2019-04-29 17:21:56:239
-0.11,-0.6,9.95,-0.04,-0.05,0.0,0.0,0.0,0.0,4612,2019-04-29 17:21:56:243
-0.11,-0.6,9.95,-0.04,-0.05,0.0,0.0,0.0,0.0,4616,2019-04-29 17:21:56:247
-0.11,-0.6,9.95,-0.04,-0.05,0.0,0.0,0.0,0.0,4621,2019-04-29 17:21:56:252
-0.11,-0.6,9.95,-0.04,-0.05,0.0,0.0,0.0,0.0,4626,2019-04-29 17:21:56:257
-0.11,-0.6,9.95,-0.04,-0.05,0.0,0.0,0.0,0.0,4631,2019-04-29 17:21:56:262
-0.11,-0.6,9.95,-0.04,-0.05,0.0,0.0,0.0,0.0,4636,2019-04-29 17:21:56:267
-0.11,-0.6,9.95,-0.04,-0.05,0.0,0.0,0.0,0.0,4641,2019-04-29 17:21:56:272
-0.11,-0.6,9.95,-0.04,-0.05,0.0,0.0,0.0,0.0,4648,2019-04-29 17:21:56:279
-0.11,-0.6,9.95,-0.04,-0.05,0.0,0.0,0.0,0.0,4651,2019-04-29 17:21:56:282
-0.11,-0.6,9.95,-0.04,-0.05,0.0,0.0,0.0,0.0,4657,2019-04-29 17:21:56:288
-0.11,-0.6,9.95,-0.04,-0.05,0.0,0.0,0.0,0.0,4661,2019-04-29 17:21:56:292
-0.11,-0.6,9.95,-0.04,-0.05,0.0,0.0,0.0,0.0,4666,2019-04-29 17:21:56:297
-0.11,-0.6,9.95,-0.04,-0.05,0.0,0.0,0.0,0.0,4671,2019-04-29 17:21:56:302
-0.11,-0.6,9.95,-0.04,-0.05,0.0,0.0,0.0,0.0,4676,2019-04-29 17:21:56:307
-0.11,-0.6,9.95,-0.04,-0.05,0.0,0.0,0.0,0.0,4681,2019-04-29 17:21:56:312
-0.11,-0.6,9.95,-0.04,-0.05,0.0,0.0,0.0,0.0,4686,2019-04-29 17:21:56:317
-0.07,-0.52,9.95,0.0,0.02,0.0,0.0,0.0,0.0,4692,2019-04-29 17:21:56:323
-0.07,-0.52,9.95,0.0,0.02,0.0,0.0,0.0,0.0,4698,2019-04-29 17:21:56:329
-0.03,-0.61,9.97,0.05,-0.05,0.02,0.0,0.0,0.0,4703,2019-04-29 17:21:56:334
-0.03,-0.61,9.97,0.05,-0.05,0.02,0.0,0.0,0.0,4712,2019-04-29 17:21:56:343
-0.03,-0.61,9.97,0.05,-0.05,0.02,0.0,0.0,0.0,4712,2019-04-29 17:21:56:343
-0.03,-0.61,9.97,0.05,-0.05,0.02,0.0,0.0,0.0,4717,2019-04-29 17:21:56:348
-0.03,-0.57,9.96,0.04,-0.01,0.01,0.0,0.0,0.0,4722,2019-04-29 17:21:56:353
-0.03,-0.57,9.96,0.04,-0.01,0.01,0.0,0.0,0.0,4726,2019-04-29 17:21:56:357
-0.03,-0.57,9.96,0.04,-0.01,0.01,0.0,0.0,0.0,4732,2019-04-29 17:21:56:363
-0.05,-0.55,9.9,0.02,0.0,-0.03,0.0,0.0,0.0,4737,2019-04-29 17:21:56:368
-0.05,-0.55,9.9,0.02,0.0,-0.03,0.0,0.0,0.0,4742,2019-04-29 17:21:56:373
-0.05,-0.55,9.9,0.02,0.0,-0.03,0.0,0.0,0.0,4747,2019-04-29 17:21:56:378
-0.05,-0.55,9.9,0.02,0.0,-0.03,0.0,0.0,0.0,4751,2019-04-29 17:21:56:382
-0.05,-0.55,9.9,0.02,0.0,-0.03,0.0,0.0,0.0,4756,2019-04-29 17:21:56:387
-0.1,-0.51,9.95,-0.01,0.04,0.0,0.0,0.0,0.0,4761,2019-04-29 17:21:56:392
-0.1,-0.51,9.95,-0.01,0.04,0.0,0.0,0.0,0.0,4767,2019-04-29 17:21:56:398
-0.1,-0.52,9.92,-0.01,0.04,0.0,0.0,0.0,0.0,4771,2019-04-29 17:21:56:402
-0.1,-0.52,9.92,-0.01,0.04,0.0,0.0,0.0,0.0,4776,2019-04-29 17:21:56:407
-0.1,-0.52,9.92,-0.01,0.04,0.0,0.0,0.0,0.0,4781,2019-04-29 17:21:56:412
-0.1,-0.52,9.92,-0.01,0.04,0.0,0.0,0.0,0.0,4786,2019-04-29 17:21:56:417
-0.1,-0.52,9.92,-0.01,0.04,0.0,0.0,0.0,0.0,4791,2019-04-29 17:21:56:422
-0.1,-0.52,9.92,-0.01,0.04,0.0,0.0,0.0,0.0,4796,2019-04-29 17:21:56:427
-0.1,-0.52,9.92,-0.01,0.04,0.0,0.0,0.0,0.0,4801,2019-04-29 17:21:56:432
-0.1,-0.62,9.96,-0.01,-0.06,0.01,0.0,0.0,0.0,4806,2019-04-29 17:21:56:437
-0.1,-0.62,9.96,-0.01,-0.06,0.01,0.0,0.0,0.0,4811,2019-04-29 17:21:56:442
-0.1,-0.62,9.96,-0.01,-0.06,0.01,0.0,0.0,0.0,4817,2019-04-29 17:21:56:448
-0.1,-0.55,9.92,-0.01,0.0,-0.02,0.0,0.0,0.0,4822,2019-04-29 17:21:56:453
-0.1,-0.55,9.92,-0.01,0.0,-0.02,0.0,0.0,0.0,4826,2019-04-29 17:21:56:457
-0.1,-0.55,9.92,-0.01,0.0,-0.02,0.0,0.0,0.0,4832,2019-04-29 17:21:56:463
-0.1,-0.55,9.92,-0.01,0.0,-0.02,0.0,0.0,0.0,4837,2019-04-29 17:21:56:468
-0.1,-0.55,9.92,-0.01,0.0,-0.02,0.0,0.0,0.0,4842,2019-04-29 17:21:56:473
-0.1,-0.55,9.92,-0.01,0.0,-0.02,0.0,0.0,0.0,4846,2019-04-29 17:21:56:477
-0.14,-0.56,9.89,-0.05,0.0,-0.05,0.0,0.0,0.0,4852,2019-04-29 17:21:56:483
-0.14,-0.56,9.89,-0.05,0.0,-0.05,0.0,0.0,0.0,4856,2019-04-29 17:21:56:487
-0.14,-0.56,9.89,-0.05,0.0,-0.05,0.0,0.0,0.0,4861,2019-04-29 17:21:56:492
-0.14,-0.56,9.89,-0.05,0.0,-0.05,0.0,0.0,0.0,4866,2019-04-29 17:21:56:497
-0.11,-0.57,9.93,-0.03,-0.01,0.0,0.0,0.0,0.0,4872,2019-04-29 17:21:56:503
-0.11,-0.57,9.93,-0.03,-0.01,0.0,0.0,0.0,0.0,4876,2019-04-29 17:21:56:507
-0.11,-0.57,9.93,-0.03,-0.01,0.0,0.0,0.0,0.0,4882,2019-04-29 17:21:56:513
-0.11,-0.57,9.93,-0.03,-0.01,0.0,0.0,0.0,0.0,4886,2019-04-29 17:21:56:517
-0.05,-0.56,10.03,0.02,0.0,0.08,0.0,0.0,0.0,4891,2019-04-29 17:21:56:522
-0.05,-0.56,10.03,0.02,0.0,0.08,0.0,0.0,0.0,4896,2019-04-29 17:21:56:527
-0.05,-0.56,10.03,0.02,0.0,0.08,0.0,0.0,0.0,4901,2019-04-29 17:21:56:532
-0.05,-0.56,10.03,0.02,0.0,0.08,0.0,0.0,0.0,4906,2019-04-29 17:21:56:537
-0.05,-0.56,10.03,0.02,0.0,0.08,0.0,0.0,0.0,4911,2019-04-29 17:21:56:542
-0.05,-0.56,10.03,0.02,0.0,0.08,0.0,0.0,0.0,4917,2019-04-29 17:21:56:548
-0.05,-0.56,10.03,0.02,0.0,0.08,0.0,0.0,0.0,4921,2019-04-29 17:21:56:552
-0.06,-0.55,9.94,0.01,0.0,0.0,0.0,0.0,0.0,4928,2019-04-29 17:21:56:559
-0.06,-0.55,9.94,0.01,0.0,0.0,0.0,0.0,0.0,4932,2019-04-29 17:21:56:563
-0.06,-0.55,9.94,0.01,0.0,0.0,0.0,0.0,0.0,4936,2019-04-29 17:21:56:567
-0.06,-0.55,9.94,0.01,0.0,0.0,0.0,0.0,0.0,4942,2019-04-29 17:21:56:573
-0.06,-0.55,9.94,0.01,0.0,0.0,0.0,0.0,0.0,4947,2019-04-29 17:21:56:578
-0.06,-0.55,9.94,0.01,0.0,0.0,0.0,0.0,0.0,4951,2019-04-29 17:21:56:582
-0.11,-0.5,9.96,-0.01,0.05,0.01,0.0,0.0,-0.01,4956,2019-04-29 17:21:56:587
-0.11,-0.5,9.96,-0.01,0.05,0.01,0.0,0.0,-0.01,4961,2019-04-29 17:21:56:592
-0.11,-0.5,9.96,-0.01,0.05,0.01,0.0,0.0,-0.01,4967,2019-04-29 17:21:56:598
0.0,-0.54,9.95,0.08,0.0,0.0,0.0,0.0,-0.01,4971,2019-04-29 17:21:56:602
0.0,-0.54,9.95,0.08,0.0,0.0,0.0,0.0,-0.01,4976,2019-04-29 17:21:56:607
0.0,-0.54,9.95,0.08,0.0,0.0,0.0,0.0,-0.01,4981,2019-04-29 17:21:56:612
0.0,-0.54,9.95,0.08,0.0,0.0,0.0,0.0,-0.01,4986,2019-04-29 17:21:56:617
0.0,-0.54,9.95,0.08,0.0,0.0,0.0,0.0,-0.01,4991,2019-04-29 17:21:56:622
0.0,-0.54,9.95,0.08,0.0,0.0,0.0,0.0,-0.01,4997,2019-04-29 17:21:56:628
0.0,-0.54,9.95,0.08,0.0,0.0,0.0,0.0,-0.01,5001,2019-04-29 17:21:56:632
-0.02,-0.63,10.0,0.05,-0.08,0.05,0.0,0.0,-0.01,5007,2019-04-29 17:21:56:638
-0.02,-0.63,10.0,0.05,-0.08,0.05,0.0,0.0,-0.01,5012,2019-04-29 17:21:56:643
-0.02,-0.63,10.0,0.05,-0.08,0.05,0.0,0.0,-0.01,5017,2019-04-29 17:21:56:648
-0.07,-0.46,9.81,0.0,0.08,-0.12,0.0,0.0,-0.01,5022,2019-04-29 17:21:56:653
-0.07,-0.46,9.81,0.0,0.08,-0.12,0.0,0.0,-0.01,5026,2019-04-29 17:21:56:657
-0.07,-0.46,9.81,0.0,0.08,-0.12,0.0,0.0,-0.01,5031,2019-04-29 17:21:56:662
-0.07,-0.46,9.81,0.0,0.08,-0.12,0.0,0.0,-0.01,5037,2019-04-29 17:21:56:668
-0.43,-0.46,9.85,-0.35,0.06,-0.08,0.0,0.0,-0.01,5041,2019-04-29 17:21:56:672
-0.43,-0.46,9.85,-0.35,0.06,-0.08,0.0,0.0,-0.01,5047,2019-04-29 17:21:56:678
-0.43,-0.46,9.85,-0.35,0.06,-0.08,0.0,0.0,-0.01,5051,2019-04-29 17:21:56:682
0.05,-0.62,9.9,0.12,-0.08,-0.03,0.0,0.0,0.0,5056,2019-04-29 17:21:56:687
0.05,-0.62,9.9,0.12,-0.08,-0.03,0.0,0.0,0.0,5062,2019-04-29 17:21:56:693
0.05,-0.62,9.9,0.12,-0.08,-0.03,0.0,0.0,0.0,5066,2019-04-29 17:21:56:697
0.05,-0.62,9.9,0.12,-0.08,-0.03,0.0,0.0,0.0,5071,2019-04-29 17:21:56:702
0.05,-0.62,9.9,0.12,-0.08,-0.03,0.0,0.0,0.0,5076,2019-04-29 17:21:56:707
-0.12,-0.59,9.95,-0.02,-0.05,0.03,0.0,0.0,0.0,5081,2019-04-29 17:21:56:712
-0.12,-0.59,9.95,-0.02,-0.05,0.03,0.0,0.0,0.0,5086,2019-04-29 17:21:56:717
-0.12,-0.59,9.95,-0.02,-0.05,0.03,0.0,0.0,0.0,5091,2019-04-29 17:21:56:722
-0.12,-0.59,9.95,-0.02,-0.05,0.03,0.0,0.0,0.0,5096,2019-04-29 17:21:56:727
-0.12,-0.59,9.95,-0.02,-0.05,0.03,0.0,0.0,0.0,5101,2019-04-29 17:21:56:732
-0.21,-0.6,9.9,-0.1,-0.06,-0.01,0.0,0.0,0.01,5107,2019-04-29 17:21:56:738
-0.21,-0.6,9.9,-0.1,-0.06,-0.01,0.0,0.0,0.01,5112,2019-04-29 17:21:56:743
-0.21,-0.6,9.9,-0.1,-0.06,-0.01,0.0,0.0,0.01,5117,2019-04-29 17:21:56:748
-0.01,-0.54,9.95,0.08,0.0,0.03,0.0,0.0,0.02,5121,2019-04-29 17:21:56:752
-0.01,-0.54,9.95,0.08,0.0,0.03,0.0,0.0,0.02,5126,2019-04-29 17:21:56:757
-0.01,-0.54,9.95,0.08,0.0,0.03,0.0,0.0,0.02,5131,2019-04-29 17:21:56:762
-0.01,-0.54,9.95,0.08,0.0,0.03,0.0,0.0,0.02,5137,2019-04-29 17:21:56:768
0.08,-0.64,9.82,0.17,-0.09,-0.08,0.0,0.0,0.02,5142,2019-04-29 17:21:56:773
0.08,-0.64,9.82,0.17,-0.09,-0.08,0.0,0.0,0.02,5146,2019-04-29 17:21:56:777
0.08,-0.64,9.82,0.17,-0.09,-0.08,0.0,0.0,0.02,5151,2019-04-29 17:21:56:782
0.11,-0.42,9.68,0.17,0.11,-0.21,0.01,0.0,0.03,5156,2019-04-29 17:21:56:787
0.11,-0.42,9.68,0.17,0.11,-0.21,0.01,0.0,0.03,5161,2019-04-29 17:21:56:792
0.11,-0.42,9.68,0.17,0.11,-0.21,0.01,0.0,0.03,5166,2019-04-29 17:21:56:797
-0.36,-0.6,9.94,-0.28,-0.04,0.01,0.02,-0.01,0.03,5172,2019-04-29 17:21:56:803
-0.36,-0.6,9.94,-0.28,-0.04,0.01,0.02,-0.01,0.03,5176,2019-04-29 17:21:56:807
-0.36,-0.6,9.94,-0.28,-0.04,0.01,0.02,-0.01,0.03,5181,2019-04-29 17:21:56:812
-0.36,-0.6,9.94,-0.28,-0.04,0.01,0.02,-0.01,0.03,5186,2019-04-29 17:21:56:817
-0.58,-0.91,9.37,-0.49,-0.32,-0.54,0.0,0.0,0.04,5191,2019-04-29 17:21:56:822
-0.58,-0.91,9.37,-0.49,-0.32,-0.54,0.0,0.0,0.04,5197,2019-04-29 17:21:56:828
-0.58,-0.91,9.37,-0.49,-0.32,-0.54,0.0,0.0,0.04,5201,2019-04-29 17:21:56:832
-0.58,-0.91,9.37,-0.49,-0.32,-0.54,0.0,0.0,0.04,5206,2019-04-29 17:21:56:837
-1.2,-0.94,9.12,-1.08,-0.32,-0.79,-0.01,0.0,0.05,5212,2019-04-29 17:21:56:843
-1.2,-0.94,9.12,-1.08,-0.32,-0.79,-0.01,0.0,0.05,5217,2019-04-29 17:21:56:848
-1.2,-0.94,9.12,-1.08,-0.32,-0.79,-0.01,0.0,0.05,5222,2019-04-29 17:21:56:853
-1.2,-0.94,9.12,-1.08,-0.32,-0.79,-0.01,0.0,0.05,5226,2019-04-29 17:21:56:857
-0.69,-0.68,10.21,-0.53,-0.05,0.28,0.0,0.01,0.06,5232,2019-04-29 17:21:56:863
-0.69,-0.68,10.21,-0.53,-0.05,0.28,0.0,0.01,0.06,5237,2019-04-29 17:21:56:868
-0.69,-0.68,10.21,-0.53,-0.05,0.28,0.0,0.01,0.06,5242,2019-04-29 17:21:56:873
-0.69,-0.68,10.21,-0.53,-0.05,0.28,0.0,0.01,0.06,5246,2019-04-29 17:21:56:877
-0.69,-0.68,10.21,-0.53,-0.05,0.28,0.0,0.01,0.06,5252,2019-04-29 17:21:56:883
0.21,-0.78,9.86,0.38,-0.13,-0.03,0.01,0.0,0.04,5257,2019-04-29 17:21:56:888
0.21,-0.78,9.86,0.38,-0.13,-0.03,0.01,0.0,0.04,5262,2019-04-29 17:21:56:893
0.21,-0.78,9.86,0.38,-0.13,-0.03,0.01,0.0,0.04,5267,2019-04-29 17:21:56:898
0.21,-0.78,9.86,0.38,-0.13,-0.03,0.01,0.0,0.04,5272,2019-04-29 17:21:56:903
0.21,-0.78,9.86,0.38,-0.13,-0.03,0.01,0.0,0.04,5276,2019-04-29 17:21:56:907
0.6,-0.44,10.08,0.38,-0.13,-0.03,0.01,0.0,0.04,5281,2019-04-29 17:21:56:912
0.6,-0.44,10.08,0.75,0.21,0.18,0.01,0.0,0.04,5287,2019-04-29 17:21:56:918
0.6,-0.44,10.08,0.75,0.21,0.18,0.01,0.0,0.04,5292,2019-04-29 17:21:56:923
0.6,-0.44,10.08,0.75,0.21,0.18,0.01,0.0,0.04,5297,2019-04-29 17:21:56:928
0.48,-0.37,10.37,0.63,0.28,0.46,0.0,0.0,0.02,5302,2019-04-29 17:21:56:933
0.48,-0.37,10.37,0.63,0.28,0.46,0.0,0.0,0.02,5307,2019-04-29 17:21:56:938
0.48,-0.37,10.37,0.63,0.28,0.46,0.0,0.0,0.02,5311,2019-04-29 17:21:56:942
0.48,-0.37,10.37,0.63,0.28,0.46,0.0,0.0,0.02,5316,2019-04-29 17:21:56:947
-0.05,-0.42,9.93,0.1,0.24,0.04,0.0,0.0,0.01,5322,2019-04-29 17:21:56:953
-0.05,-0.42,9.93,0.1,0.24,0.04,0.0,0.0,0.01,5326,2019-04-29 17:21:56:957
-0.05,-0.42,9.93,0.1,0.24,0.04,0.01,0.0,0.0,5331,2019-04-29 17:21:56:962
0.44,0.0,10.08,-0.18,0.27,-0.26,0.01,0.0,0.0,5336,2019-04-29 17:21:56:967
0.44,0.0,10.08,-0.18,0.27,-0.26,0.01,0.0,0.0,5341,2019-04-29 17:21:56:972
0.44,0.0,10.08,-0.18,0.27,-0.26,0.01,0.0,0.0,5346,2019-04-29 17:21:56:977
0.44,0.0,10.08,-0.18,0.27,-0.26,0.01,0.0,0.0,5351,2019-04-29 17:21:56:982
-0.42,-0.22,9.73,-0.24,0.38,-0.16,0.01,0.0,-0.01,5356,2019-04-29 17:21:56:987
-0.42,-0.22,9.73,-0.24,0.38,-0.16,0.01,0.0,-0.01,5361,2019-04-29 17:21:56:992
-0.42,-0.22,9.73,-0.24,0.38,-0.16,0.01,0.0,-0.01,5366,2019-04-29 17:21:56:997
-0.17,-0.05,9.82,-0.03,0.47,-0.05,0.0,0.0,-0.03,5372,2019-04-29 17:21:57:003
-0.17,-0.05,9.82,-0.03,0.47,-0.05,0.0,0.0,-0.03,5376,2019-04-29 17:21:57:007
-0.17,-0.05,9.82,-0.03,0.47,-0.05,0.0,0.0,-0.03,5381,2019-04-29 17:21:57:012
-0.17,-0.05,9.82,-0.03,0.47,-0.05,0.0,0.0,-0.03,5386,2019-04-29 17:21:57:017
-0.17,-0.05,9.82,-0.03,0.47,-0.05,0.0,0.0,-0.03,5391,2019-04-29 17:21:57:022
-0.17,-0.05,9.82,-0.03,0.47,-0.05,0.0,0.0,-0.03,5397,2019-04-29 17:21:57:028
0.06,0.24,9.93,0.14,0.66,0.06,0.0,0.0,-0.04,5402,2019-04-29 17:21:57:033
0.06,0.24,9.93,0.14,0.66,0.06,0.0,0.0,-0.04,5407,2019-04-29 17:21:57:038
0.06,0.24,9.93,0.14,0.66,0.06,0.0,0.0,-0.04,5411,2019-04-29 17:21:57:042
0.06,0.24,9.93,0.14,0.66,0.06,0.0,0.0,-0.04,5416,2019-04-29 17:21:57:047
0.06,0.24,9.93,0.14,0.66,0.06,0.0,0.0,-0.04,5421,2019-04-29 17:21:57:052
0.06,0.24,9.93,0.14,0.66,0.06,0.0,0.0,-0.04,5427,2019-04-29 17:21:57:058
0.06,0.2,10.25,0.07,0.45,0.35,0.0,0.0,-0.06,5431,2019-04-29 17:21:57:062
0.06,0.2,10.25,0.07,0.45,0.35,0.0,0.0,-0.06,5436,2019-04-29 17:21:57:067
0.06,0.2,10.25,0.07,0.45,0.35,0.0,0.0,-0.06,5441,2019-04-29 17:21:57:072
0.06,0.2,10.25,0.07,0.45,0.35,0.0,0.0,-0.06,5446,2019-04-29 17:21:57:077
0.06,0.2,10.25,0.07,0.45,0.35,0.0,0.0,-0.06,5452,2019-04-29 17:21:57:083
0.06,0.2,10.25,0.07,0.45,0.35,0.0,0.0,-0.06,5457,2019-04-29 17:21:57:088
-0.06,0.0,10.08,-0.05,0.17,0.15,0.0,0.0,-0.04,5463,2019-04-29 17:21:57:094
-0.06,0.0,10.08,-0.05,0.17,0.15,0.0,0.0,-0.04,5467,2019-04-29 17:21:57:098
-0.26,-0.16,10.06,-0.21,-0.05,0.11,0.01,0.0,-0.01,5471,2019-04-29 17:21:57:102
-0.26,-0.16,10.06,-0.21,-0.05,0.11,0.01,0.0,-0.01,5476,2019-04-29 17:21:57:107
-0.26,-0.16,10.06,-0.21,-0.05,0.11,0.01,0.0,-0.01,5482,2019-04-29 17:21:57:113
-0.26,-0.16,10.06,-0.21,-0.05,0.11,0.01,0.0,-0.01,5486,2019-04-29 17:21:57:117
-0.07,0.11,9.79,-0.03,0.17,-0.14,0.01,0.0,0.01,5491,2019-04-29 17:21:57:122
-0.07,0.11,9.79,-0.03,0.17,-0.14,0.01,0.0,0.01,5496,2019-04-29 17:21:57:127
-0.07,0.11,9.79,-0.03,0.17,-0.14,0.01,0.0,0.01,5502,2019-04-29 17:21:57:133
-0.07,0.11,9.79,-0.03,0.17,-0.14,0.01,0.0,0.01,5506,2019-04-29 17:21:57:137
-0.07,0.11,9.79,-0.03,0.17,-0.14,0.01,0.0,0.01,5512,2019-04-29 17:21:57:143
-0.07,0.11,9.79,-0.03,0.17,-0.14,0.01,0.0,0.01,5516,2019-04-29 17:21:57:147
-0.38,-0.08,10.01,-0.32,-0.07,0.06,0.0,0.0,0.05,5522,2019-04-29 17:21:57:153
-0.38,-0.08,10.01,-0.32,-0.07,0.06,0.0,0.0,0.05,5526,2019-04-29 17:21:57:157
-0.38,-0.08,10.01,-0.32,-0.07,0.06,0.0,0.0,0.05,5531,2019-04-29 17:21:57:162
-0.25,-0.36,9.91,-0.18,-0.35,-0.04,0.0,0.0,0.07,5537,2019-04-29 17:21:57:168
-0.25,-0.36,9.91,-0.18,-0.35,-0.04,0.0,0.0,0.07,5542,2019-04-29 17:21:57:173
-0.25,-0.36,9.91,-0.18,-0.35,-0.04,0.0,0.0,0.07,5547,2019-04-29 17:21:57:178
-0.24,-0.38,9.95,-0.15,-0.37,0.01,0.0,0.0,0.09,5552,2019-04-29 17:21:57:183
-0.24,-0.38,9.95,-0.15,-0.37,0.01,0.0,0.0,0.09,5557,2019-04-29 17:21:57:188
-0.24,-0.38,9.95,-0.15,-0.37,0.01,0.0,0.0,0.09,5562,2019-04-29 17:21:57:193
-0.24,-0.38,9.95,-0.15,-0.37,0.01,0.0,0.0,0.09,5567,2019-04-29 17:21:57:198
-0.13,0.05,9.86,-0.02,0.06,-0.06,0.01,0.0,0.09,5572,2019-04-29 17:21:57:203
-0.13,0.05,9.86,-0.02,0.06,-0.06,0.01,0.0,0.09,5577,2019-04-29 17:21:57:208
-0.13,0.05,9.86,-0.02,0.06,-0.06,0.01,0.0,0.09,5583,2019-04-29 17:21:57:214
-0.13,0.05,9.86,-0.02,0.06,-0.06,0.01,0.0,0.09,5587,2019-04-29 17:21:57:218
-0.13,0.05,9.86,-0.02,0.06,-0.06,0.01,0.0,0.09,5597,2019-04-29 17:21:57:228
0.17,0.16,9.86,0.31,0.18,-0.05,0.0,0.0,0.09,5598,2019-04-29 17:21:57:229
0.17,0.16,9.86,0.31,0.18,-0.05,0.0,0.0,0.09,5602,2019-04-29 17:21:57:233
0.17,0.16,9.86,0.31,0.18,-0.05,0.0,0.0,0.09,5607,2019-04-29 17:21:57:238
0.17,0.16,9.86,0.31,0.18,-0.05,0.0,0.0,0.09,5611,2019-04-29 17:21:57:242
0.17,0.16,9.86,0.31,0.18,-0.05,0.0,0.0,0.09,5616,2019-04-29 17:21:57:247
0.22,0.36,9.67,0.36,0.39,-0.24,0.0,0.0,0.08,5624,2019-04-29 17:21:57:255
0.22,0.36,9.67,0.36,0.39,-0.24,-0.01,0.0,0.08,5627,2019-04-29 17:21:57:258
0.22,0.36,9.67,0.36,0.39,-0.24,-0.01,0.0,0.08,5632,2019-04-29 17:21:57:263
0.22,0.36,9.67,0.36,0.39,-0.24,-0.01,0.0,0.08,5636,2019-04-29 17:21:57:267
0.22,0.36,9.67,0.36,0.39,-0.24,-0.01,0.0,0.08,5641,2019-04-29 17:21:57:272
0.22,0.36,9.67,0.36,0.39,-0.24,-0.01,0.0,0.08,5647,2019-04-29 17:21:57:278
-0.1,0.13,10.11,0.0,0.13,0.2,0.0,0.0,0.09,5655,2019-04-29 17:21:57:286
-0.1,0.13,10.11,0.0,0.13,0.2,0.0,0.0,0.09,5656,2019-04-29 17:21:57:287
-0.1,0.13,10.11,0.0,0.13,0.2,0.0,0.0,0.09,5662,2019-04-29 17:21:57:293
-0.1,0.13,10.11,0.0,0.13,0.2,0.0,0.0,0.09,5666,2019-04-29 17:21:57:297
-0.05,0.3,9.93,0.0,0.25,0.03,0.0,0.0,0.08,5672,2019-04-29 17:21:57:303
-0.05,0.3,9.93,0.0,0.25,0.03,0.0,0.0,0.08,5677,2019-04-29 17:21:57:308
-0.05,0.3,9.93,0.0,0.25,0.03,0.0,0.0,0.08,5682,2019-04-29 17:21:57:313
-0.05,0.3,9.93,0.0,0.25,0.03,0.0,0.0,0.08,5687,2019-04-29 17:21:57:318
-0.39,-0.3,9.88,-0.31,-0.33,-0.01,-0.01,0.0,0.08,5691,2019-04-29 17:21:57:322
-0.39,-0.3,9.88,-0.31,-0.33,-0.01,-0.01,0.0,0.08,5696,2019-04-29 17:21:57:327
-0.39,-0.3,9.88,-0.31,-0.33,-0.01,-0.01,0.0,0.08,5701,2019-04-29 17:21:57:332
-0.39,-0.3,9.88,-0.31,-0.33,-0.01,-0.01,0.0,0.08,5706,2019-04-29 17:21:57:337
-0.37,-0.83,9.78,-0.28,-0.8,-0.09,-0.01,0.0,0.07,5711,2019-04-29 17:21:57:342
-0.37,-0.83,9.78,-0.28,-0.8,-0.09,-0.01,0.0,0.07,5716,2019-04-29 17:21:57:347
-0.37,-0.83,9.78,-0.28,-0.8,-0.09,-0.01,0.0,0.07,5722,2019-04-29 17:21:57:353
-0.37,-0.83,9.78,-0.28,-0.8,-0.09,-0.01,0.0,0.07,5727,2019-04-29 17:21:57:358
-0.21,-1.22,9.92,-0.12,-1.1,0.04,-0.01,0.0,0.04,5732,2019-04-29 17:21:57:363
-0.21,-1.22,9.92,-0.12,-1.1,0.04,-0.01,0.0,0.04,5738,2019-04-29 17:21:57:369
-0.21,-1.22,9.92,-0.12,-1.1,0.04,-0.01,0.0,0.04,5742,2019-04-29 17:21:57:373
-0.21,-1.22,9.92,-0.12,-1.1,0.04,-0.01,0.0,0.04,5749,2019-04-29 17:21:57:380
0.08,-1.41,10.05,0.16,-1.17,0.16,-0.01,0.0,0.01,5752,2019-04-29 17:21:57:383
0.08,-1.41,10.05,0.16,-1.17,0.16,-0.01,0.0,0.01,5757,2019-04-29 17:21:57:388
0.08,-1.41,10.05,0.16,-1.17,0.16,-0.01,0.0,0.01,5762,2019-04-29 17:21:57:393
0.08,-1.41,10.05,0.16,-1.17,0.16,-0.01,0.0,0.01,5767,2019-04-29 17:21:57:398
0.08,-1.41,10.05,0.16,-1.17,0.16,-0.01,0.0,0.01,5772,2019-04-29 17:21:57:403
0.08,-1.41,10.05,0.16,-1.17,0.16,-0.01,0.0,0.01,5777,2019-04-29 17:21:57:408
0.05,-1.22,10.39,0.13,-0.83,0.46,-0.01,0.0,-0.01,5782,2019-04-29 17:21:57:413
0.05,-1.22,10.39,0.13,-0.83,0.46,-0.01,0.0,-0.01,5791,2019-04-29 17:21:57:422
0.05,-1.22,10.39,0.13,-0.83,0.46,-0.01,0.0,-0.01,5791,2019-04-29 17:21:57:422
0.05,-1.22,10.39,0.13,-0.83,0.46,-0.01,0.0,-0.01,5797,2019-04-29 17:21:57:428
0.05,-1.22,10.39,0.13,-0.83,0.46,-0.01,0.0,-0.01,5801,2019-04-29 17:21:57:432
0.12,-0.93,10.13,0.19,-0.42,0.16,-0.01,0.0,-0.02,5808,2019-04-29 17:21:57:439
0.12,-0.93,10.13,0.19,-0.42,0.16,-0.01,0.0,-0.02,5812,2019-04-29 17:21:57:443
0.02,-0.78,10.04,0.09,-0.17,0.07,-0.01,0.0,-0.03,5818,2019-04-29 17:21:57:449
0.02,-0.78,10.04,0.09,-0.17,0.07,-0.01,0.0,-0.03,5822,2019-04-29 17:21:57:453
0.02,-0.78,10.04,0.09,-0.17,0.07,-0.01,0.0,-0.03,5827,2019-04-29 17:21:57:458
0.02,-0.78,10.04,0.09,-0.17,0.07,-0.01,0.0,-0.03,5832,2019-04-29 17:21:57:463
0.02,-0.78,10.04,0.09,-0.17,0.07,-0.01,0.0,-0.03,5836,2019-04-29 17:21:57:467
-0.32,-0.45,10.35,-0.22,0.22,0.32,0.0,0.01,-0.03,5844,2019-04-29 17:21:57:475
-0.32,-0.45,10.35,-0.22,0.22,0.32,0.0,0.01,-0.03,5850,2019-04-29 17:21:57:481
-0.32,-0.45,10.35,-0.22,0.22,0.32,0.0,0.01,-0.03,5851,2019-04-29 17:21:57:482
-0.33,-0.44,10.09,-0.2,0.29,0.08,0.0,0.0,-0.02,5857,2019-04-29 17:21:57:488
-0.33,-0.44,10.09,-0.2,0.29,0.08,0.0,0.0,-0.02,5865,2019-04-29 17:21:57:496
-0.33,-0.44,10.09,-0.2,0.29,0.08,0.0,0.0,-0.02,5866,2019-04-29 17:21:57:497
-0.33,-0.44,10.09,-0.2,0.29,0.08,0.0,0.0,-0.02,5871,2019-04-29 17:21:57:502
-0.33,-0.44,10.09,-0.2,0.29,0.08,0.0,0.0,-0.02,5876,2019-04-29 17:21:57:507
-0.35,-0.53,9.21,-0.18,0.28,-0.77,0.0,0.0,-0.02,5881,2019-04-29 17:21:57:512
-0.35,-0.53,9.21,-0.18,0.28,-0.77,0.0,0.0,-0.02,5886,2019-04-29 17:21:57:517
-0.35,-0.53,9.21,0.13,0.27,0.6,0.0,0.0,-0.02,5892,2019-04-29 17:21:57:523
-0.35,-0.53,9.21,0.13,0.27,0.6,0.0,0.0,-0.02,5897,2019-04-29 17:21:57:528
-0.35,-0.53,9.21,0.13,0.27,0.6,0.0,0.0,-0.02,5905,2019-04-29 17:21:57:536
-0.35,-0.53,9.21,0.13,0.27,0.6,0.0,0.0,-0.02,5906,2019-04-29 17:21:57:537
-0.35,-0.53,9.21,0.13,0.27,0.6,0.0,0.0,-0.02,5911,2019-04-29 17:21:57:542
-0.35,-0.53,9.21,0.13,0.27,0.6,0.0,0.0,-0.02,5917,2019-04-29 17:21:57:548
0.33,-0.05,10.05,0.46,0.72,0.0,-0.01,0.0,-0.02,5922,2019-04-29 17:21:57:553
0.33,-0.05,10.05,0.46,0.72,0.0,-0.01,0.0,-0.02,5926,2019-04-29 17:21:57:557
-0.48,-0.26,8.58,0.45,0.1,0.32,0.0,0.0,-0.01,5932,2019-04-29 17:21:57:563
-0.48,-0.26,8.58,0.45,0.1,0.32,0.0,0.0,-0.01,5936,2019-04-29 17:21:57:567
-0.48,-0.26,8.58,0.45,0.1,0.32,0.0,0.0,-0.01,5941,2019-04-29 17:21:57:572
-0.48,-0.26,8.58,0.45,0.1,0.32,0.0,0.0,-0.01,5947,2019-04-29 17:21:57:578
1.07,-0.47,9.44,1.12,0.12,-0.53,0.0,0.0,0.02,5951,2019-04-29 17:21:57:582
1.07,-0.47,9.44,1.12,0.12,-0.53,0.0,0.0,0.02,5957,2019-04-29 17:21:57:588
1.07,-0.47,9.44,1.12,0.12,-0.53,0.0,0.0,0.02,5962,2019-04-29 17:21:57:593
1.07,-0.47,9.44,1.12,0.12,-0.53,0.0,0.0,0.02,5966,2019-04-29 17:21:57:597
1.07,-0.47,9.44,1.12,0.12,-0.53,0.0,0.0,0.02,5971,2019-04-29 17:21:57:602
1.07,-0.47,9.44,1.12,0.12,-0.53,0.0,0.0,0.02,5976,2019-04-29 17:21:57:607
-0.4,-0.14,8.93,-0.34,0.32,-0.92,0.0,-0.01,0.01,5982,2019-04-29 17:21:57:613
-0.4,-0.14,8.93,-0.34,0.32,-0.92,0.0,-0.01,0.01,5988,2019-04-29 17:21:57:619
-0.4,-0.14,8.93,-0.34,0.32,-0.92,0.0,-0.01,0.01,5992,2019-04-29 17:21:57:623
-0.4,-0.14,8.93,-0.34,0.32,-0.92,0.0,-0.01,0.01,5998,2019-04-29 17:21:57:629
-0.4,-0.14,8.93,-0.34,0.32,-0.92,0.0,-0.01,0.01,6005,2019-04-29 17:21:57:636
-1.36,0.04,8.82,-1.28,0.41,-1.0,-0.02,-0.01,0.01,6016,2019-04-29 17:21:57:647
-1.36,0.04,8.82,-1.28,0.41,-1.0,-0.02,-0.01,0.01,6018,2019-04-29 17:21:57:649
-1.36,0.04,8.82,-1.28,0.41,-1.0,-0.02,-0.01,0.01,6020,2019-04-29 17:21:57:651
-1.36,0.04,8.82,-1.28,0.41,-1.0,-0.02,-0.01,0.01,6022,2019-04-29 17:21:57:653
-1.36,0.04,8.82,-1.28,0.41,-1.0,-0.02,-0.01,0.01,6027,2019-04-29 17:21:57:658
-0.7,-0.32,10.49,-0.58,-0.08,0.72,-0.01,0.0,0.01,6032,2019-04-29 17:21:57:663
-0.7,-0.32,10.49,-0.58,-0.08,0.72,-0.01,0.0,0.01,6038,2019-04-29 17:21:57:669
-0.7,-0.32,10.49,-0.58,-0.08,0.72,-0.01,0.0,0.01,6041,2019-04-29 17:21:57:672
-0.7,-0.32,10.49,-0.58,-0.08,0.72,-0.01,0.0,0.01,6046,2019-04-29 17:21:57:677
-0.51,-0.23,9.98,-0.37,-0.03,0.21,0.0,0.0,0.02,6051,2019-04-29 17:21:57:682
-0.51,-0.23,9.98,-0.37,-0.03,0.21,0.0,0.0,0.02,6057,2019-04-29 17:21:57:688
-0.51,-0.23,9.98,-0.37,-0.03,0.21,0.0,0.0,0.02,6064,2019-04-29 17:21:57:695
-0.51,-0.23,9.98,-0.37,-0.03,0.21,0.0,0.0,0.02,6066,2019-04-29 17:21:57:697
-0.51,-0.23,9.98,-0.37,-0.03,0.21,0.0,0.0,0.02,6071,2019-04-29 17:21:57:702
-0.51,-0.23,9.98,-0.37,-0.03,0.21,0.0,0.0,0.02,6076,2019-04-29 17:21:57:707
0.2,-0.23,9.26,-0.37,-0.03,0.21,0.0,0.0,0.02,6081,2019-04-29 17:21:57:712
0.2,-0.23,9.26,0.31,-0.02,-0.49,-0.01,0.0,0.01,6086,2019-04-29 17:21:57:717
0.2,-0.23,9.26,0.31,-0.02,-0.49,-0.01,0.0,0.01,6092,2019-04-29 17:21:57:723
0.2,-0.23,9.26,0.31,-0.02,-0.49,-0.01,0.0,0.01,6098,2019-04-29 17:21:57:729
0.2,-0.23,9.26,0.31,-0.02,-0.49,-0.01,0.0,0.01,6102,2019-04-29 17:21:57:733
0.69,-0.02,10.45,0.74,0.17,0.67,-0.03,-0.01,0.0,6107,2019-04-29 17:21:57:738
0.69,-0.02,10.45,0.74,0.17,0.67,-0.03,-0.01,0.0,6112,2019-04-29 17:21:57:743
0.69,-0.02,10.45,0.74,0.17,0.67,-0.03,-0.01,0.0,6116,2019-04-29 17:21:57:747
0.22,-0.39,10.58,0.27,-0.17,0.8,-0.01,0.0,0.0,6122,2019-04-29 17:21:57:753
0.22,-0.39,10.58,0.27,-0.17,0.8,-0.01,0.0,0.0,6127,2019-04-29 17:21:57:758
0.22,-0.39,10.58,0.27,-0.17,0.8,0.0,0.0,-0.01,6132,2019-04-29 17:21:57:763
0.22,-0.39,10.58,0.27,-0.17,0.8,0.0,0.0,-0.01,6137,2019-04-29 17:21:57:768
0.22,-0.39,10.58,0.27,-0.17,0.8,0.0,0.0,-0.01,6142,2019-04-29 17:21:57:773
0.22,-0.39,10.58,0.27,-0.17,0.8,0.0,0.0,-0.01,6147,2019-04-29 17:21:57:778
0.22,-0.39,10.58,0.27,-0.17,0.8,0.0,0.0,-0.01,6152,2019-04-29 17:21:57:783
-0.22,0.0,9.85,-0.15,0.17,-0.04,0.0,0.01,-0.02,6157,2019-04-29 17:21:57:788
-0.22,0.0,9.85,-0.15,0.17,-0.04,0.0,0.01,-0.02,6162,2019-04-29 17:21:57:793
-0.22,0.0,9.85,-0.15,0.17,-0.04,0.0,0.01,-0.02,6167,2019-04-29 17:21:57:798
0.01,0.09,10.15,0.09,0.26,0.16,-0.01,0.0,-0.01,6172,2019-04-29 17:21:57:803
0.01,0.09,10.15,0.09,0.26,0.16,-0.01,0.0,-0.01,6177,2019-04-29 17:21:57:808
0.01,0.09,10.15,0.09,0.26,0.16,-0.01,0.0,-0.01,6182,2019-04-29 17:21:57:813
0.01,0.09,10.15,0.09,0.26,0.16,-0.01,0.0,-0.01,6187,2019-04-29 17:21:57:818
0.01,0.09,10.15,0.09,0.26,0.16,-0.01,0.0,-0.01,6191,2019-04-29 17:21:57:822
0.01,0.09,10.15,0.09,0.26,0.16,-0.01,0.0,-0.01,6197,2019-04-29 17:21:57:828
-0.12,-0.02,10.15,-0.02,0.12,0.14,0.0,0.0,-0.01,6201,2019-04-29 17:21:57:832
-0.12,-0.02,10.15,-0.02,0.12,0.14,0.0,0.0,-0.01,6206,2019-04-29 17:21:57:837
-0.12,-0.02,10.15,-0.02,0.12,0.14,0.0,0.0,-0.01,6212,2019-04-29 17:21:57:843
-0.12,-0.02,10.15,-0.02,0.12,0.14,0.0,0.0,-0.01,6217,2019-04-29 17:21:57:848
-0.03,0.16,9.99,0.06,0.27,-0.04,0.0,0.0,0.0,6222,2019-04-29 17:21:57:853
-0.03,0.16,9.99,0.06,0.27,-0.04,0.0,0.0,0.0,6227,2019-04-29 17:21:57:858
-0.03,0.16,9.99,0.06,0.27,-0.04,0.01,0.0,0.0,6232,2019-04-29 17:21:57:863
-0.03,0.16,9.99,0.36,0.4,-0.01,0.01,0.0,0.0,6237,2019-04-29 17:21:57:868
-0.03,0.16,9.99,0.36,0.4,-0.01,0.01,0.0,0.0,6242,2019-04-29 17:21:57:873
-0.03,0.16,9.99,0.36,0.4,-0.01,0.01,0.0,0.0,6248,2019-04-29 17:21:57:879
-0.03,0.16,9.99,0.36,0.4,-0.01,0.01,0.0,0.0,6252,2019-04-29 17:21:57:883
-0.16,0.37,9.64,-0.18,0.4,-0.36,0.0,0.0,0.01,6257,2019-04-29 17:21:57:888
-0.16,0.37,9.64,-0.18,0.4,-0.36,0.0,0.0,0.01,6261,2019-04-29 17:21:57:892
-0.16,0.37,9.64,-0.18,0.4,-0.36,0.0,0.0,0.01,6266,2019-04-29 17:21:57:897
-0.13,0.05,9.54,-0.16,0.02,-0.49,0.0,0.0,0.01,6271,2019-04-29 17:21:57:902
-0.13,0.05,9.54,-0.16,0.02,-0.49,0.0,0.0,0.01,6277,2019-04-29 17:21:57:908
-0.13,0.05,9.54,-0.16,0.02,-0.49,0.0,0.0,0.01,6282,2019-04-29 17:21:57:913
-0.25,0.19,10.08,-0.25,0.1,0.06,0.0,0.0,0.0,6289,2019-04-29 17:21:57:920
-0.25,0.19,10.08,-0.25,0.1,0.06,0.0,0.0,0.0,6293,2019-04-29 17:21:57:924
-0.25,0.19,10.08,-0.25,0.1,0.06,0.0,0.0,0.0,6297,2019-04-29 17:21:57:928
-0.25,0.19,10.08,-0.25,0.1,0.06,0.0,0.0,0.0,6301,2019-04-29 17:21:57:932
-0.25,0.19,10.08,-0.25,0.1,0.06,0.0,0.0,0.0,6306,2019-04-29 17:21:57:937
-0.25,0.19,10.08,-0.25,0.1,0.06,0.0,0.0,0.0,6311,2019-04-29 17:21:57:942
-0.25,0.19,10.08,-0.25,0.1,0.06,0.0,0.0,0.0,6316,2019-04-29 17:21:57:947
0.0,0.21,10.14,0.02,0.04,0.15,0.0,0.0,0.0,6323,2019-04-29 17:21:57:954
0.0,0.21,10.14,0.02,0.04,0.15,0.0,0.0,0.0,6326,2019-04-29 17:21:57:957
0.0,0.21,10.14,0.02,0.04,0.15,0.0,0.0,0.0,6331,2019-04-29 17:21:57:962
0.0,0.21,10.14,0.02,0.04,0.15,0.0,0.0,0.0,6337,2019-04-29 17:21:57:968
0.07,0.26,9.74,0.14,0.03,-0.19,0.01,0.01,-0.01,6341,2019-04-29 17:21:57:972
0.21,0.42,10.06,0.25,0.15,0.11,0.0,0.0,-0.03,6350,2019-04-29 17:21:57:981
0.21,0.42,10.06,0.25,0.15,0.11,0.0,0.0,-0.03,6351,2019-04-29 17:21:57:982
0.21,0.42,10.06,0.25,0.15,0.11,0.0,0.0,-0.03,6357,2019-04-29 17:21:57:988
0.21,0.42,10.06,0.25,0.15,0.11,0.0,0.0,-0.03,6362,2019-04-29 17:21:57:993
0.21,0.42,10.06,0.25,0.15,0.11,0.0,0.0,-0.03,6367,2019-04-29 17:21:57:998
0.21,0.42,10.06,0.25,0.15,0.11,0.0,0.0,-0.03,6371,2019-04-29 17:21:58:002
0.21,0.42,10.06,0.25,0.15,0.11,0.0,0.0,-0.03,6377,2019-04-29 17:21:58:008
0.04,0.14,10.02,0.07,-0.13,0.07,-0.01,0.0,-0.04,6381,2019-04-29 17:21:58:012
0.04,0.14,10.02,0.07,-0.13,0.07,-0.01,0.0,-0.04,6386,2019-04-29 17:21:58:017
0.04,0.14,10.02,0.07,-0.13,0.07,-0.01,0.0,-0.04,6391,2019-04-29 17:21:58:022
0.04,0.14,10.02,0.07,-0.13,0.07,-0.01,0.0,-0.04,6396,2019-04-29 17:21:58:027
-0.31,-0.74,10.25,-0.29,-0.98,0.29,0.0,0.0,-0.03,6402,2019-04-29 17:21:58:033
-0.31,-0.74,10.25,-0.29,-0.98,0.29,0.0,0.0,-0.03,6406,2019-04-29 17:21:58:037
-0.31,-0.74,10.25,-0.29,-0.98,0.29,0.0,0.0,-0.03,6412,2019-04-29 17:21:58:043
-0.31,-0.74,10.25,-0.29,-0.98,0.29,0.0,0.0,-0.03,6416,2019-04-29 17:21:58:047
-0.31,-0.74,10.25,-0.29,-0.98,0.29,0.0,0.0,-0.03,6422,2019-04-29 17:21:58:053
-0.31,-0.74,10.25,-0.29,-0.98,0.29,0.0,0.0,-0.03,6426,2019-04-29 17:21:58:057
-0.31,-0.74,10.25,-0.29,-0.98,0.29,0.0,0.0,-0.03,6431,2019-04-29 17:21:58:062
-0.31,-0.74,10.25,-0.29,-0.98,0.29,0.0,0.0,-0.03,6436,2019-04-29 17:21:58:067
-1.02,-1.18,9.47,-0.94,-1.12,-0.46,-0.01,-0.01,-0.02,6442,2019-04-29 17:21:58:073
-1.02,-1.18,9.47,-0.94,-1.12,-0.46,-0.01,-0.01,-0.02,6447,2019-04-29 17:21:58:078
-0.26,-1.37,10.21,-0.16,-1.12,0.21,0.0,0.0,-0.02,6452,2019-04-29 17:21:58:083
-0.26,-1.37,10.21,-0.16,-1.12,0.21,0.0,0.0,-0.02,6456,2019-04-29 17:21:58:087
-0.26,-1.37,10.21,-0.16,-1.12,0.21,0.0,0.0,-0.02,6461,2019-04-29 17:21:58:092
-0.26,-1.37,10.21,-0.16,-1.12,0.21,0.0,0.0,-0.02,6467,2019-04-29 17:21:58:098
-0.26,-1.37,10.21,-0.16,-1.12,0.21,0.0,0.0,-0.02,6471,2019-04-29 17:21:58:102
-0.26,-1.37,10.21,-0.16,-1.12,0.21,0.0,0.0,-0.02,6476,2019-04-29 17:21:58:107
1.21,-0.89,11.29,-0.16,-1.12,0.21,0.07,0.0,-0.06,6482,2019-04-29 17:21:58:113
1.21,-0.89,11.29,1.26,-0.58,1.17,0.07,0.0,-0.06,6487,2019-04-29 17:21:58:118
1.21,-0.89,11.29,1.26,-0.58,1.17,0.05,0.01,-0.09,6491,2019-04-29 17:21:58:122
0.0,-2.59,9.78,1.26,-0.58,1.17,0.05,0.01,-0.09,6496,2019-04-29 17:21:58:127
0.0,-2.59,9.78,1.26,-0.58,1.17,0.05,0.01,-0.09,6502,2019-04-29 17:21:58:133
0.0,-2.59,9.78,1.26,-0.58,1.17,0.05,0.01,-0.09,6507,2019-04-29 17:21:58:138
-0.35,-2.04,9.46,-0.26,-1.33,-0.44,-0.05,0.0,-0.1,6514,2019-04-29 17:21:58:145
-0.35,-2.04,9.46,-0.26,-1.33,-0.44,-0.05,0.0,-0.1,6517,2019-04-29 17:21:58:148
-0.35,-2.04,9.46,-0.26,-1.33,-0.44,-0.05,0.0,-0.1,6521,2019-04-29 17:21:58:152
-0.35,-2.04,9.46,-0.26,-1.33,-0.44,-0.05,0.0,-0.1,6527,2019-04-29 17:21:58:158
-0.75,-3.26,10.36,-0.26,-1.33,-0.44,-0.05,0.0,-0.1,6531,2019-04-29 17:21:58:162
-0.75,-3.26,10.36,-0.63,-2.16,0.36,-0.04,0.0,-0.09,6536,2019-04-29 17:21:58:167
-0.75,-3.26,10.36,-0.63,-2.16,0.36,-0.04,0.0,-0.09,6542,2019-04-29 17:21:58:173
-0.75,-3.26,10.36,-0.63,-2.16,0.36,-0.04,0.0,-0.09,6547,2019-04-29 17:21:58:178
-0.13,-4.07,10.16,0.01,-2.6,0.19,0.03,0.0,-0.08,6552,2019-04-29 17:21:58:183
-0.13,-4.07,10.16,0.01,-2.6,0.19,0.03,0.0,-0.08,6557,2019-04-29 17:21:58:188
-0.13,-4.07,10.16,0.01,-2.6,0.19,0.03,0.0,-0.08,6562,2019-04-29 17:21:58:193
-0.13,-4.07,10.16,0.01,-2.6,0.19,0.03,0.0,-0.08,6567,2019-04-29 17:21:58:198
-0.13,-4.07,10.16,0.01,-2.6,0.19,0.03,0.0,-0.08,6571,2019-04-29 17:21:58:202
-0.13,-4.07,10.16,0.01,-2.6,0.19,0.03,0.0,-0.08,6577,2019-04-29 17:21:58:208
-0.14,-4.38,9.73,0.0,-2.49,-0.17,0.05,-0.01,-0.07,6581,2019-04-29 17:21:58:212
-0.14,-4.38,9.73,0.0,-2.49,-0.17,0.05,-0.01,-0.07,6587,2019-04-29 17:21:58:218
0.07,-4.69,9.42,0.0,-2.49,-0.17,0.05,0.0,-0.08,6591,2019-04-29 17:21:58:222
0.07,-4.69,9.42,0.0,-2.49,-0.17,0.05,0.0,-0.08,6596,2019-04-29 17:21:58:227
0.07,-4.69,9.42,0.0,-2.49,-0.17,0.05,0.0,-0.08,6601,2019-04-29 17:21:58:232
0.07,-4.69,9.42,0.0,-2.49,-0.17,0.05,0.0,-0.08,6606,2019-04-29 17:21:58:237
0.11,-2.84,9.2,0.16,-0.3,-0.62,-0.02,0.0,-0.07,6611,2019-04-29 17:21:58:242
0.11,-2.84,9.2,0.16,-0.3,-0.62,-0.02,0.0,-0.07,6619,2019-04-29 17:21:58:250
0.11,-2.84,9.2,0.16,-0.3,-0.62,-0.02,0.0,-0.07,6623,2019-04-29 17:21:58:254
0.11,-2.84,9.2,0.16,-0.3,-0.62,-0.02,0.0,-0.07,6627,2019-04-29 17:21:58:258
-0.25,-2.93,10.2,-0.19,-0.25,0.39,0.0,0.01,-0.06,6632,2019-04-29 17:21:58:263
-0.25,-2.93,10.2,-0.19,-0.25,0.39,0.0,0.01,-0.06,6637,2019-04-29 17:21:58:268
-0.25,-2.93,10.2,-0.19,-0.25,0.39,0.0,0.01,-0.06,6642,2019-04-29 17:21:58:273
-0.25,-2.93,10.2,-0.19,-0.25,0.39,0.0,0.01,-0.06,6647,2019-04-29 17:21:58:278
0.01,-1.93,10.78,0.08,0.76,0.98,0.03,0.0,-0.03,6653,2019-04-29 17:21:58:284
0.01,-1.93,10.78,0.08,0.76,0.98,0.03,0.0,-0.03,6656,2019-04-29 17:21:58:287
0.01,-1.93,10.78,0.08,0.76,0.98,0.03,0.0,-0.03,6662,2019-04-29 17:21:58:293
0.01,-1.93,10.78,0.08,0.76,0.98,0.03,0.0,-0.03,6666,2019-04-29 17:21:58:297
-0.14,0.11,9.25,0.01,2.77,-0.36,0.06,0.0,0.0,6671,2019-04-29 17:21:58:302
-0.14,0.11,9.25,0.01,2.77,-0.36,0.06,0.0,0.0,6677,2019-04-29 17:21:58:308
-0.14,0.11,9.25,0.01,2.77,-0.36,0.06,0.0,0.0,6681,2019-04-29 17:21:58:312
-0.14,0.11,9.25,0.01,2.77,-0.36,0.06,0.0,0.0,6686,2019-04-29 17:21:58:317
0.15,2.62,9.31,0.31,5.05,-0.39,-0.01,0.0,0.04,6691,2019-04-29 17:21:58:322
0.15,2.62,9.31,0.31,5.05,-0.39,-0.01,0.0,0.04,6696,2019-04-29 17:21:58:327
0.15,2.62,9.31,0.31,5.05,-0.39,-0.01,0.0,0.04,6701,2019-04-29 17:21:58:332
0.15,2.62,9.31,0.31,5.05,-0.39,-0.01,0.0,0.04,6706,2019-04-29 17:21:58:337
0.04,4.51,9.79,0.19,6.39,0.0,-0.06,0.0,0.07,6711,2019-04-29 17:21:58:342
0.04,4.51,9.79,0.19,6.39,0.0,-0.06,0.0,0.07,6716,2019-04-29 17:21:58:347
0.04,4.51,9.79,0.19,6.39,0.0,-0.06,0.0,0.07,6721,2019-04-29 17:21:58:352
0.04,4.51,9.79,0.19,6.39,0.0,-0.06,0.0,0.07,6727,2019-04-29 17:21:58:358
0.0,2.2,11.45,0.19,6.39,0.0,-0.06,0.0,0.07,6731,2019-04-29 17:21:58:362
0.0,2.2,11.45,0.12,3.4,1.65,-0.01,0.0,0.09,6737,2019-04-29 17:21:58:368
0.0,2.2,11.45,0.12,3.4,1.65,-0.01,0.0,0.09,6741,2019-04-29 17:21:58:372
0.0,2.2,11.45,0.12,3.4,1.65,-0.01,0.0,0.09,6746,2019-04-29 17:21:58:377
0.15,-0.34,11.0,0.23,0.39,1.13,0.02,0.0,0.08,6752,2019-04-29 17:21:58:383
0.15,-0.34,11.0,0.23,0.39,1.13,0.02,0.0,0.08,6757,2019-04-29 17:21:58:388
-0.31,-1.22,8.45,-0.24,-0.77,-1.4,0.0,0.0,0.03,6765,2019-04-29 17:21:58:396
-0.31,-1.22,8.45,-0.24,-0.77,-1.4,0.0,0.0,0.03,6767,2019-04-29 17:21:58:398
-0.31,-1.22,8.45,-0.24,-0.77,-1.4,0.0,0.0,0.03,6772,2019-04-29 17:21:58:403
-0.31,-1.22,8.45,-0.24,-0.77,-1.4,0.0,0.0,0.03,6776,2019-04-29 17:21:58:407
-0.31,-1.22,8.45,0.9,-2.75,0.15,0.0,0.0,0.03,6781,2019-04-29 17:21:58:412
0.05,-2.63,8.21,0.9,-2.75,0.15,-0.06,-0.01,-0.04,6787,2019-04-29 17:21:58:418
0.05,-2.63,8.21,0.55,-3.01,0.23,-0.06,-0.01,-0.04,6791,2019-04-29 17:21:58:422
0.05,-2.63,8.21,0.55,-3.01,0.23,-0.06,-0.01,-0.04,6797,2019-04-29 17:21:58:428
0.05,-2.63,8.21,0.55,-3.01,0.23,-0.06,-0.01,-0.04,6803,2019-04-29 17:21:58:434
0.05,-2.63,8.21,0.55,-3.01,0.23,-0.06,-0.01,-0.04,6806,2019-04-29 17:21:58:437
-0.08,-3.39,9.88,-0.05,-3.09,0.0,-0.05,0.0,-0.09,6811,2019-04-29 17:21:58:442
-0.08,-3.39,9.88,-0.05,-3.09,0.0,-0.05,0.0,-0.09,6817,2019-04-29 17:21:58:448
-0.08,-3.39,9.88,-0.05,-3.09,0.0,-0.05,0.0,-0.09,6821,2019-04-29 17:21:58:452
-0.08,-3.39,9.88,-0.05,-3.09,0.0,-0.05,0.0,-0.09,6827,2019-04-29 17:21:58:458
-0.22,-3.51,10.12,-0.19,-3.16,0.28,0.0,0.01,-0.09,6831,2019-04-29 17:21:58:462
-0.22,-3.51,10.12,-0.19,-3.16,0.28,0.0,0.01,-0.09,6837,2019-04-29 17:21:58:468
-0.22,-3.51,10.12,-0.19,-3.16,0.28,0.0,0.01,-0.09,6842,2019-04-29 17:21:58:473
-0.22,-3.51,10.12,-0.19,-3.16,0.28,0.0,0.01,-0.09,6847,2019-04-29 17:21:58:478
-0.22,-3.51,10.12,-0.19,-3.16,0.28,0.0,0.01,-0.09,6851,2019-04-29 17:21:58:482
-0.58,-2.01,10.16,-0.51,-1.64,0.37,0.0,0.01,-0.04,6856,2019-04-29 17:21:58:487
-0.58,-2.01,10.16,-0.51,-1.64,0.37,0.0,0.01,-0.04,6861,2019-04-29 17:21:58:492
-0.58,-2.01,10.16,-0.51,-1.64,0.37,0.0,0.01,-0.04,6867,2019-04-29 17:21:58:498
-0.69,-0.39,9.35,-0.56,0.05,-0.5,-0.02,0.0,0.01,6872,2019-04-29 17:21:58:503
-0.69,-0.39,9.35,-0.56,0.05,-0.5,-0.02,0.0,0.01,6877,2019-04-29 17:21:58:508
-0.69,-0.39,9.35,-0.56,0.05,-0.5,-0.02,0.0,0.01,6881,2019-04-29 17:21:58:512
0.05,-0.17,9.98,-0.56,0.05,-0.5,-0.02,0.0,0.01,6887,2019-04-29 17:21:58:518
0.05,-0.17,9.98,0.2,0.58,0.13,0.0,-0.01,0.07,6892,2019-04-29 17:21:58:523
0.05,-0.17,9.98,0.2,0.58,0.13,0.0,-0.01,0.07,6896,2019-04-29 17:21:58:527
0.05,-0.17,9.98,0.2,0.58,0.13,0.0,-0.01,0.07,6901,2019-04-29 17:21:58:532
0.05,-0.17,9.98,0.2,0.58,0.13,0.0,-0.01,0.07,6907,2019-04-29 17:21:58:538
0.39,-0.06,10.25,0.53,0.91,0.38,-0.03,-0.02,0.05,6912,2019-04-29 17:21:58:543
0.39,-0.06,10.25,0.53,0.91,0.38,-0.03,-0.02,0.05,6917,2019-04-29 17:21:58:548
0.39,-0.06,10.25,0.53,0.91,0.38,-0.03,-0.02,0.05,6923,2019-04-29 17:21:58:554
0.39,-0.06,10.25,0.53,0.91,0.38,-0.03,-0.02,0.05,6926,2019-04-29 17:21:58:557
0.39,-0.06,10.25,0.53,0.91,0.38,-0.03,-0.02,0.05,6933,2019-04-29 17:21:58:564
0.59,-0.23,10.62,0.66,1.06,0.82,0.0,0.0,0.02,6936,2019-04-29 17:21:58:567
0.59,-0.23,10.62,0.66,1.06,0.82,0.0,0.0,0.02,6941,2019-04-29 17:21:58:572
0.59,-0.23,10.62,0.66,1.06,0.82,0.0,0.0,0.02,6947,2019-04-29 17:21:58:578
0.59,-0.23,10.62,0.66,1.06,0.82,0.0,0.0,0.02,6951,2019-04-29 17:21:58:582
0.16,0.23,10.18,0.19,1.61,0.41,0.0,0.0,-0.01,6958,2019-04-29 17:21:58:589
0.16,0.23,10.18,0.19,1.61,0.41,0.0,0.0,-0.01,6961,2019-04-29 17:21:58:592
0.16,0.23,10.18,0.19,1.61,0.41,0.0,0.0,-0.01,6966,2019-04-29 17:21:58:597
-0.13,-0.21,9.54,-0.1,1.09,-0.33,-0.04,0.0,-0.04,6973,2019-04-29 17:21:58:604
-0.13,-0.21,9.54,-0.1,1.09,-0.33,-0.04,0.0,-0.04,6977,2019-04-29 17:21:58:608
-0.13,-0.21,9.54,-0.1,1.09,-0.33,-0.04,0.0,-0.04,6982,2019-04-29 17:21:58:613
-0.13,-0.21,9.54,-0.1,1.09,-0.33,-0.04,0.0,-0.04,6986,2019-04-29 17:21:58:617
-0.02,-0.04,9.74,0.06,0.99,-0.16,-0.04,0.0,-0.04,6992,2019-04-29 17:21:58:623
-0.02,-0.04,9.74,0.06,0.99,-0.16,-0.04,0.0,-0.04,6997,2019-04-29 17:21:58:628
-0.02,-0.04,9.74,0.06,0.99,-0.16,-0.04,0.0,-0.04,7001,2019-04-29 17:21:58:632
-0.02,-0.04,9.74,0.06,0.99,-0.16,-0.04,0.0,-0.04,7006,2019-04-29 17:21:58:637
-0.17,-0.34,11.45,-0.01,0.39,1.44,-0.04,0.01,-0.01,7012,2019-04-29 17:21:58:643
-0.17,-0.34,11.45,-0.01,0.39,1.44,-0.04,0.01,-0.01,7016,2019-04-29 17:21:58:647
-0.51,-0.44,9.46,-0.01,0.39,1.44,0.02,0.0,0.02,7021,2019-04-29 17:21:58:652
-0.51,-0.44,9.46,-0.01,0.39,1.44,0.02,0.0,0.02,7026,2019-04-29 17:21:58:657
-0.51,-0.44,9.46,-0.01,0.39,1.44,0.02,0.0,0.02,7032,2019-04-29 17:21:58:663
-0.51,-0.44,9.46,-0.01,0.39,1.44,0.02,0.0,0.02,7039,2019-04-29 17:21:58:670
0.17,0.37,9.91,0.29,0.57,-0.1,0.0,-0.01,0.03,7041,2019-04-29 17:21:58:672
0.17,0.37,9.91,0.29,0.57,-0.1,0.0,-0.01,0.03,7049,2019-04-29 17:21:58:680
0.17,0.37,9.91,0.29,0.57,-0.1,0.0,-0.01,0.03,7051,2019-04-29 17:21:58:682
0.17,0.37,9.91,0.29,0.57,-0.1,0.0,-0.01,0.03,7056,2019-04-29 17:21:58:687
0.81,0.36,10.18,0.8,0.46,0.09,-0.02,0.0,0.02,7062,2019-04-29 17:21:58:693
0.81,0.36,10.18,0.8,0.46,0.09,-0.02,0.0,0.02,7066,2019-04-29 17:21:58:697
0.81,0.36,10.18,0.8,0.46,0.09,-0.02,0.0,0.02,7071,2019-04-29 17:21:58:702
0.81,0.36,10.18,0.8,0.46,0.09,-0.02,0.0,0.02,7076,2019-04-29 17:21:58:707
0.81,0.36,10.18,0.8,0.46,0.09,-0.02,0.0,0.02,7081,2019-04-29 17:21:58:712
-0.21,-0.03,9.68,-0.26,0.01,-0.37,-0.02,0.0,0.0,7086,2019-04-29 17:21:58:717
-0.21,-0.03,9.68,-0.26,0.01,-0.37,-0.02,0.0,0.0,7091,2019-04-29 17:21:58:722
-0.21,-0.03,9.68,-0.26,0.01,-0.37,-0.02,0.0,0.0,7098,2019-04-29 17:21:58:729
-0.21,-0.03,9.68,-0.26,0.01,-0.37,-0.02,0.0,0.0,7101,2019-04-29 17:21:58:732
-0.63,-0.64,10.08,-0.65,-0.58,0.01,0.0,0.0,-0.01,7106,2019-04-29 17:21:58:737
-0.63,-0.64,10.08,-0.65,-0.58,0.01,0.0,0.0,-0.01,7112,2019-04-29 17:21:58:743
-0.63,-0.64,10.08,-0.65,-0.58,0.01,0.0,0.0,-0.01,7117,2019-04-29 17:21:58:748
-0.27,-0.75,9.95,-0.24,-0.64,-0.1,0.02,0.0,-0.03,7122,2019-04-29 17:21:58:753
-0.27,-0.75,9.95,-0.24,-0.64,-0.1,0.02,0.0,-0.03,7126,2019-04-29 17:21:58:757
-0.27,-0.75,9.95,-0.24,-0.64,-0.1,0.02,0.0,-0.03,7132,2019-04-29 17:21:58:763
-0.27,-0.75,9.95,-0.24,-0.64,-0.1,0.02,0.0,-0.03,7136,2019-04-29 17:21:58:767
-0.13,-0.68,9.77,-0.03,-0.46,-0.24,0.0,0.0,-0.03,7143,2019-04-29 17:21:58:774
-0.13,-0.68,9.77,-0.03,-0.46,-0.24,0.0,0.0,-0.03,7148,2019-04-29 17:21:58:779
-0.13,-0.68,9.77,-0.03,-0.46,-0.24,0.0,0.0,-0.03,7153,2019-04-29 17:21:58:784
-0.13,-0.68,9.77,-0.03,-0.46,-0.24,0.0,0.0,-0.03,7156,2019-04-29 17:21:58:787
-0.14,-0.66,9.74,0.0,-0.37,-0.23,-0.02,0.0,-0.03,7161,2019-04-29 17:21:58:792
-0.14,-0.66,9.74,0.0,-0.37,-0.23,-0.02,0.0,-0.03,7167,2019-04-29 17:21:58:798
-0.14,-0.66,9.74,0.0,-0.37,-0.23,-0.02,0.0,-0.03,7171,2019-04-29 17:21:58:802
-0.14,-0.66,9.74,0.0,-0.37,-0.23,-0.02,0.0,-0.03,7177,2019-04-29 17:21:58:808
0.01,-1.06,9.84,0.15,-0.7,-0.17,-0.01,0.0,-0.02,7185,2019-04-29 17:21:58:816
0.01,-1.06,9.84,0.15,-0.7,-0.17,-0.01,0.0,-0.02,7186,2019-04-29 17:21:58:817
0.01,-1.06,9.84,0.15,-0.7,-0.17,-0.01,0.0,-0.02,7192,2019-04-29 17:21:58:823
0.01,-1.09,10.14,0.21,-0.65,0.23,0.0,0.0,-0.02,7200,2019-04-29 17:21:58:831
0.11,-1.09,10.14,0.21,-0.65,0.23,0.0,0.0,-0.02,7203,2019-04-29 17:21:58:834
0.11,-1.09,10.14,0.21,-0.65,0.23,0.0,0.0,-0.02,7206,2019-04-29 17:21:58:837
0.11,-1.09,10.14,0.21,-0.65,0.23,0.0,0.0,-0.02,7214,2019-04-29 17:21:58:845
0.11,-1.09,10.14,0.21,-0.65,0.23,0.0,0.0,-0.02,7216,2019-04-29 17:21:58:847
0.01,-0.82,9.84,0.05,-0.31,-0.08,0.0,0.0,-0.02,7221,2019-04-29 17:21:58:852
0.01,-0.82,9.84,0.05,-0.31,-0.08,0.0,0.0,-0.02,7226,2019-04-29 17:21:58:857
0.01,-0.82,9.84,0.05,-0.31,-0.08,0.0,0.0,-0.02,7232,2019-04-29 17:21:58:863
0.01,-0.82,9.84,0.05,-0.31,-0.08,0.0,0.0,-0.02,7236,2019-04-29 17:21:58:867
-0.22,-0.42,9.83,-0.15,0.15,-0.1,-0.02,0.0,-0.02,7241,2019-04-29 17:21:58:872
-0.22,-0.42,9.83,-0.15,0.15,-0.1,-0.02,0.0,-0.02,7248,2019-04-29 17:21:58:879
-0.22,-0.42,9.83,-0.15,0.15,-0.1,-0.02,0.0,-0.02,7252,2019-04-29 17:21:58:883
-0.22,-0.42,9.83,-0.15,0.15,-0.1,-0.02,0.0,-0.02,7257,2019-04-29 17:21:58:888
-0.22,-0.42,9.83,-0.15,0.15,-0.1,-0.02,0.0,-0.02,7262,2019-04-29 17:21:58:893
-0.22,-0.42,9.83,-0.15,0.15,-0.1,-0.02,0.0,-0.02,7266,2019-04-29 17:21:58:897
-0.18,-0.29,9.82,-0.08,0.34,-0.07,-0.03,0.0,-0.02,7272,2019-04-29 17:21:58:903
-0.18,-0.29,9.82,-0.08,0.34,-0.07,-0.03,0.0,-0.02,7277,2019-04-29 17:21:58:908
-0.18,-0.29,9.82,-0.08,0.34,-0.07,-0.01,0.0,-0.02,7282,2019-04-29 17:21:58:913
0.0,-0.03,9.68,0.08,0.09,0.07,-0.01,0.0,-0.02,7286,2019-04-29 17:21:58:917
0.0,-0.03,9.68,0.08,0.09,0.07,-0.01,0.0,-0.02,7291,2019-04-29 17:21:58:922
0.0,-0.03,9.68,0.08,0.09,0.07,-0.01,0.0,-0.02,7298,2019-04-29 17:21:58:929
-0.07,-0.34,10.05,0.03,0.32,0.17,0.0,0.0,-0.01,7302,2019-04-29 17:21:58:933
-0.07,-0.34,10.05,0.03,0.32,0.17,0.0,0.0,-0.01,7306,2019-04-29 17:21:58:937
-0.07,-0.34,10.05,0.03,0.32,0.17,0.0,0.0,-0.01,7312,2019-04-29 17:21:58:943
-0.18,0.0,9.92,0.03,0.32,0.17,0.0,0.0,-0.01,7316,2019-04-29 17:21:58:947
-0.18,0.0,9.92,-0.07,0.62,0.03,0.0,0.0,-0.01,7322,2019-04-29 17:21:58:953
-0.18,0.0,9.92,-0.07,0.62,0.03,0.0,0.0,-0.01,7326,2019-04-29 17:21:58:957
-0.18,0.0,9.92,-0.07,0.62,0.03,0.0,0.0,-0.01,7333,2019-04-29 17:21:58:964
-0.18,0.0,9.92,-0.07,0.62,0.03,0.0,0.0,-0.01,7336,2019-04-29 17:21:58:967
-0.18,0.0,9.92,-0.07,0.62,0.03,0.0,0.0,-0.01,7341,2019-04-29 17:21:58:972
-0.18,0.0,9.92,-0.07,0.62,0.03,0.0,0.0,-0.01,7346,2019-04-29 17:21:58:977
-0.06,0.2,9.86,0.02,0.76,-0.05,-0.02,0.0,-0.01,7351,2019-04-29 17:21:58:982
-0.06,0.2,9.86,0.02,0.76,-0.05,-0.02,0.0,-0.01,7356,2019-04-29 17:21:58:987
-0.06,0.2,9.86,0.02,0.76,-0.05,-0.02,0.0,-0.01,7362,2019-04-29 17:21:58:993
-0.06,0.2,9.86,0.02,0.76,-0.05,-0.02,0.0,-0.01,7367,2019-04-29 17:21:58:998
-0.06,0.2,9.86,0.02,0.76,-0.05,-0.02,0.0,-0.01,7372,2019-04-29 17:21:59:003
-0.06,0.2,9.86,0.02,0.76,-0.05,-0.02,0.0,-0.01,7377,2019-04-29 17:21:59:008
0.1,-0.19,10.13,0.14,0.16,0.17,0.0,0.0,-0.01,7382,2019-04-29 17:21:59:013
0.1,-0.19,10.13,0.14,0.16,0.17,0.0,0.0,-0.01,7387,2019-04-29 17:21:59:018
0.1,-0.19,10.13,0.14,0.16,0.17,0.0,0.0,-0.01,7392,2019-04-29 17:21:59:023
0.1,-0.19,10.13,0.14,0.16,0.17,0.0,0.0,-0.01,7396,2019-04-29 17:21:59:027
0.1,-0.19,10.13,0.14,0.16,0.17,0.0,0.0,-0.01,7403,2019-04-29 17:21:59:034
0.1,-0.19,10.13,0.14,0.16,0.17,0.0,0.0,-0.01,7406,2019-04-29 17:21:59:037
0.15,-0.18,10.49,0.18,0.07,0.49,0.0,0.0,-0.01,7411,2019-04-29 17:21:59:042
0.15,-0.18,10.49,0.18,0.07,0.49,0.0,0.0,-0.01,7420,2019-04-29 17:21:59:051
0.15,-0.18,10.49,0.18,0.07,0.49,0.0,0.0,-0.01,7422,2019-04-29 17:21:59:053
0.15,-0.18,10.49,0.18,0.07,0.49,0.0,0.0,-0.01,7427,2019-04-29 17:21:59:058
0.17,-0.04,10.01,0.18,0.07,0.49,0.0,0.01,-0.02,7432,2019-04-29 17:21:59:063
0.17,-0.04,10.01,0.18,0.13,0.0,0.0,0.01,-0.02,7437,2019-04-29 17:21:59:068
0.17,-0.04,10.01,0.18,0.13,0.0,0.0,0.01,-0.02,7442,2019-04-29 17:21:59:073
0.17,-0.04,10.01,0.18,0.13,0.0,0.0,0.01,-0.02,7448,2019-04-29 17:21:59:079
-0.28,0.13,9.61,-0.27,0.26,-0.41,-0.01,0.0,-0.02,7453,2019-04-29 17:21:59:084
-0.28,0.13,9.61,-0.27,0.26,-0.41,-0.01,0.0,-0.02,7456,2019-04-29 17:21:59:087
-0.28,0.13,9.61,-0.27,0.26,-0.41,-0.01,0.0,-0.02,7461,2019-04-29 17:21:59:092
-0.28,0.13,9.61,-0.27,0.26,-0.41,-0.01,0.0,-0.02,7467,2019-04-29 17:21:59:098
-0.48,0.1,9.6,-0.47,0.19,-0.43,-0.01,0.0,-0.03,7472,2019-04-29 17:21:59:103
-0.48,0.1,9.6,-0.47,0.19,-0.43,-0.01,0.0,-0.03,7477,2019-04-29 17:21:59:108
-0.48,0.1,9.6,-0.47,0.19,-0.43,-0.01,0.0,-0.03,7481,2019-04-29 17:21:59:112
-0.47,0.09,9.13,-0.17,-0.19,0.05,0.0,0.0,-0.03,7487,2019-04-29 17:21:59:118
-0.47,0.09,9.13,-0.17,-0.19,0.05,0.0,0.0,-0.03,7492,2019-04-29 17:21:59:123
-0.47,0.09,9.13,-0.17,-0.19,0.05,0.0,0.0,-0.03,7496,2019-04-29 17:21:59:127
0.07,-0.35,10.16,0.1,-0.3,0.12,0.01,0.0,-0.03,7504,2019-04-29 17:21:59:135
0.07,-0.35,10.16,0.1,-0.3,0.12,0.01,0.0,-0.03,7507,2019-04-29 17:21:59:138
0.07,-0.35,10.16,0.1,-0.3,0.12,0.01,0.0,-0.03,7512,2019-04-29 17:21:59:143
0.07,-0.35,10.16,0.1,-0.3,0.12,0.01,0.0,-0.03,7517,2019-04-29 17:21:59:148
0.07,-0.35,10.16,0.1,-0.3,0.12,0.01,0.0,-0.03,7522,2019-04-29 17:21:59:153
0.07,-0.35,10.16,0.1,-0.3,0.12,0.01,0.0,-0.03,7526,2019-04-29 17:21:59:157
0.5,-0.42,9.98,0.53,-0.35,-0.01,0.0,0.0,-0.03,7534,2019-04-29 17:21:59:165
0.5,-0.42,9.98,0.53,-0.35,-0.01,0.0,0.0,-0.03,7536,2019-04-29 17:21:59:167
-0.14,-1.13,10.25,0.53,-0.35,-0.01,-0.01,0.01,-0.02,7542,2019-04-29 17:21:59:173
-0.14,-1.13,10.25,0.53,-0.35,-0.01,-0.01,0.01,-0.02,7547,2019-04-29 17:21:59:178
-0.14,-1.13,10.25,0.53,-0.35,-0.01,-0.01,0.01,-0.02,7554,2019-04-29 17:21:59:185
-0.76,-0.9,9.37,-0.65,-0.66,-0.56,-0.02,0.0,0.0,7557,2019-04-29 17:21:59:188
-0.76,-0.9,9.37,-0.65,-0.66,-0.56,-0.02,0.0,0.0,7561,2019-04-29 17:21:59:192
-0.76,-0.9,9.37,-0.65,-0.66,-0.56,-0.02,0.0,0.0,7566,2019-04-29 17:21:59:197
-0.76,-0.9,9.37,-0.65,-0.66,-0.56,-0.02,0.0,0.0,7573,2019-04-29 17:21:59:204
-0.76,-0.9,9.37,-0.65,-0.66,-0.56,-0.02,0.0,0.0,7576,2019-04-29 17:21:59:207
-0.68,-0.86,9.7,-0.52,-0.53,-0.21,-0.01,0.0,0.01,7581,2019-04-29 17:21:59:212
-0.68,-0.86,9.7,-0.52,-0.53,-0.21,-0.01,0.0,0.01,7590,2019-04-29 17:21:59:221
-0.68,-0.86,9.7,-0.52,-0.53,-0.21,-0.01,0.0,0.01,7591,2019-04-29 17:21:59:222
-0.68,-0.86,9.7,-0.52,-0.53,-0.21,-0.01,0.0,0.01,7597,2019-04-29 17:21:59:228
-0.68,-0.86,9.7,-0.52,-0.53,-0.21,-0.01,0.0,0.01,7604,2019-04-29 17:21:59:235
-0.68,-0.86,9.7,-0.52,-0.53,-0.21,-0.01,0.0,0.01,7607,2019-04-29 17:21:59:238
0.0,-0.88,10.26,0.15,-0.48,0.35,0.0,-0.01,0.02,7611,2019-04-29 17:21:59:242
0.0,-0.88,10.26,0.15,-0.48,0.35,0.0,-0.01,0.02,7618,2019-04-29 17:21:59:249
0.0,-0.88,10.26,0.15,-0.48,0.35,0.0,-0.01,0.02,7622,2019-04-29 17:21:59:253
0.0,-0.88,10.26,0.15,-0.48,0.35,0.0,-0.01,0.02,7626,2019-04-29 17:21:59:257
0.2,-0.9,10.13,0.35,-0.43,0.22,0.0,0.0,0.01,7631,2019-04-29 17:21:59:262
0.2,-0.9,10.13,0.35,-0.43,0.22,0.0,0.0,0.01,7637,2019-04-29 17:21:59:268
0.2,-0.9,10.13,0.35,-0.43,0.22,0.0,0.0,0.01,7641,2019-04-29 17:21:59:272
0.2,-0.9,10.13,0.35,-0.43,0.22,0.0,0.0,0.01,7646,2019-04-29 17:21:59:277
-0.28,-0.54,10.12,-0.12,-0.02,0.2,-0.01,0.0,0.0,7653,2019-04-29 17:21:59:284
-0.28,-0.54,10.12,-0.12,-0.02,0.2,-0.01,0.0,0.0,7656,2019-04-29 17:21:59:287
-0.28,-0.54,10.12,-0.12,-0.02,0.2,-0.01,0.0,0.0,7661,2019-04-29 17:21:59:292
-0.23,-0.56,9.65,-0.06,0.01,-0.24,0.0,0.0,0.0,7669,2019-04-29 17:21:59:300
-0.23,-0.56,9.65,-0.06,0.01,-0.24,0.0,0.0,0.0,7671,2019-04-29 17:21:59:302
-0.23,-0.56,9.65,-0.06,0.01,-0.24,0.0,0.0,0.0,7676,2019-04-29 17:21:59:307
-0.23,-0.56,9.65,0.01,-0.21,-0.08,0.0,0.0,0.01,7682,2019-04-29 17:21:59:313
0.11,-1.05,9.78,0.01,-0.21,-0.08,0.0,0.0,0.01,7687,2019-04-29 17:21:59:318
0.11,-1.05,9.78,0.01,-0.21,-0.08,0.0,0.0,0.01,7692,2019-04-29 17:21:59:323
0.11,-1.05,9.78,0.01,-0.21,-0.08,0.0,0.0,0.01,7697,2019-04-29 17:21:59:328
0.2,-1.11,9.97,0.32,-0.35,0.06,0.0,-0.01,0.0,7703,2019-04-29 17:21:59:334
0.2,-1.11,9.97,0.32,-0.35,0.06,0.0,-0.01,0.0,7707,2019-04-29 17:21:59:338
0.2,-1.11,9.97,0.32,-0.35,0.06,0.0,-0.01,0.0,7712,2019-04-29 17:21:59:343
0.08,-0.95,9.98,0.19,-0.13,0.04,0.0,0.0,0.0,7717,2019-04-29 17:21:59:348
0.08,-0.95,9.98,0.19,-0.13,0.04,0.0,0.0,0.0,7721,2019-04-29 17:21:59:352
0.08,-0.95,9.98,0.19,-0.13,0.04,0.0,0.0,0.0,7726,2019-04-29 17:21:59:357
0.08,-0.95,9.98,0.19,-0.13,0.04,0.0,0.0,0.0,7731,2019-04-29 17:21:59:362
0.08,-0.95,9.98,0.19,-0.13,0.04,0.0,0.0,0.0,7736,2019-04-29 17:21:59:367
0.08,-0.95,9.98,0.19,-0.13,0.04,0.0,0.0,0.0,7741,2019-04-29 17:21:59:372
0.08,-0.95,9.98,0.19,-0.13,0.04,0.0,0.0,0.0,7746,2019-04-29 17:21:59:377
0.08,-0.88,9.81,0.14,-0.03,-0.12,0.0,0.0,0.0,7751,2019-04-29 17:21:59:382
0.08,-0.88,9.81,0.14,-0.03,-0.12,0.0,0.0,0.0,7756,2019-04-29 17:21:59:387
0.08,-0.88,9.81,0.14,-0.03,-0.12,0.0,0.0,0.0,7761,2019-04-29 17:21:59:392
0.08,-0.88,9.81,0.14,-0.03,-0.12,0.0,0.0,0.0,7766,2019-04-29 17:21:59:397
0.08,-0.88,9.81,0.14,-0.03,-0.12,0.0,0.0,0.0,7772,2019-04-29 17:21:59:403
0.08,-0.88,9.81,0.14,-0.03,-0.12,0.0,0.0,0.0,7777,2019-04-29 17:21:59:408
-0.1,-0.93,9.9,-0.11,-0.1,-0.04,0.0,0.0,0.0,7782,2019-04-29 17:21:59:413
-0.1,-0.93,9.9,-0.11,-0.1,-0.04,0.0,0.0,0.0,7786,2019-04-29 17:21:59:417
-0.1,-0.93,9.9,-0.11,-0.1,-0.04,0.0,0.0,0.0,7792,2019-04-29 17:21:59:423
-0.1,-0.93,9.9,-0.11,-0.1,-0.04,0.0,0.0,0.0,7797,2019-04-29 17:21:59:428
-0.1,-0.93,9.9,-0.11,-0.1,-0.04,0.0,0.0,0.0,7801,2019-04-29 17:21:59:432
-0.16,-1.06,9.89,-0.11,-0.1,-0.04,0.0,0.0,0.0,7807,2019-04-29 17:21:59:438
-0.16,-1.06,9.89,-0.16,-0.21,-0.03,0.0,0.0,0.0,7813,2019-04-29 17:21:59:444
-0.16,-1.06,9.89,-0.16,-0.21,-0.03,0.0,0.0,0.0,7816,2019-04-29 17:21:59:447
-0.16,-1.06,9.89,-0.16,-0.21,-0.03,0.0,0.0,0.0,7822,2019-04-29 17:21:59:453
-0.16,-1.06,9.89,-0.16,-0.21,-0.03,0.0,0.0,0.0,7826,2019-04-29 17:21:59:457
-0.1,-0.97,9.82,-0.08,-0.09,-0.09,0.0,0.0,0.0,7833,2019-04-29 17:21:59:464
-0.1,-0.97,9.82,-0.08,-0.09,-0.09,0.0,0.0,0.0,7842,2019-04-29 17:21:59:473
-0.1,-0.97,9.82,-0.08,-0.09,-0.09,0.0,0.0,0.0,7843,2019-04-29 17:21:59:474
-0.1,-0.97,9.82,-0.08,-0.09,-0.09,0.0,0.0,0.0,7848,2019-04-29 17:21:59:479
-0.16,-1.0,9.84,-0.13,-0.08,-0.04,-0.01,0.0,-0.01,7852,2019-04-29 17:21:59:483
-0.16,-1.0,9.84,-0.13,-0.08,-0.04,-0.01,0.0,-0.01,7856,2019-04-29 17:21:59:487
-0.16,-1.0,9.84,-0.13,-0.08,-0.04,-0.01,0.0,-0.01,7862,2019-04-29 17:21:59:493
-0.16,-1.0,9.84,-0.13,-0.08,-0.04,-0.01,0.0,-0.01,7866,2019-04-29 17:21:59:497
-0.27,-1.1,9.77,-0.23,-0.12,-0.11,0.0,0.0,-0.01,7872,2019-04-29 17:21:59:503
-0.27,-1.1,9.77,-0.23,-0.12,-0.11,0.0,0.0,-0.01,7876,2019-04-29 17:21:59:507
-0.27,-1.1,9.77,-0.23,-0.12,-0.11,0.0,0.0,-0.01,7881,2019-04-29 17:21:59:512
-0.27,-1.1,9.77,-0.23,-0.12,-0.11,0.0,0.0,-0.01,7887,2019-04-29 17:21:59:518
-0.24,-1.12,9.78,-0.18,-0.13,-0.1,0.0,0.0,-0.01,7891,2019-04-29 17:21:59:522
-0.24,-1.12,9.78,-0.18,-0.13,-0.1,0.0,0.0,-0.01,7897,2019-04-29 17:21:59:528
-0.24,-1.12,9.78,-0.18,-0.13,-0.1,0.0,0.0,-0.01,7904,2019-04-29 17:21:59:535
-0.24,-1.12,9.78,-0.18,-0.13,-0.1,0.0,0.0,-0.01,7906,2019-04-29 17:21:59:537
-0.19,-0.92,9.98,-0.1,0.05,0.09,0.0,0.0,0.0,7912,2019-04-29 17:21:59:543
-0.19,-0.92,9.98,-0.1,0.05,0.09,0.0,0.0,0.0,7917,2019-04-29 17:21:59:548
-0.05,-0.91,10.02,-0.1,0.05,0.09,0.0,0.0,0.0,7921,2019-04-29 17:21:59:552
-0.05,-0.91,10.02,-0.1,0.05,0.09,0.0,0.0,0.0,7927,2019-04-29 17:21:59:558
-0.05,-0.91,10.02,-0.1,0.05,0.09,0.0,0.0,0.0,7932,2019-04-29 17:21:59:563
-0.05,-0.91,10.02,-0.1,0.05,0.09,0.0,0.0,0.0,7937,2019-04-29 17:21:59:568
-0.05,-0.91,10.02,-0.1,0.05,0.09,0.0,0.0,0.0,7942,2019-04-29 17:21:59:573
-0.05,-0.91,10.02,-0.1,0.05,0.09,0.0,0.0,0.0,7947,2019-04-29 17:21:59:578
-0.04,-0.89,10.06,0.07,0.07,0.14,0.0,0.0,0.01,7952,2019-04-29 17:21:59:583
-0.04,-0.89,10.06,0.07,0.07,0.14,0.0,0.0,0.01,7956,2019-04-29 17:21:59:587
-0.04,-0.89,10.06,0.07,0.07,0.14,0.0,0.0,0.01,7962,2019-04-29 17:21:59:593
-0.04,-0.89,10.06,0.07,0.07,0.14,0.0,0.0,0.01,7967,2019-04-29 17:21:59:598
-0.11,-1.0,10.01,0.02,-0.01,0.09,0.0,0.0,0.01,7973,2019-04-29 17:21:59:604
-0.11,-1.0,10.01,0.02,-0.01,0.09,0.0,0.0,0.01,7977,2019-04-29 17:21:59:608
-0.08,-1.07,9.89,0.05,-0.05,-0.03,0.0,0.0,0.0,7983,2019-04-29 17:21:59:614
-0.08,-1.07,9.89,0.05,-0.05,-0.03,0.0,0.0,0.0,7987,2019-04-29 17:21:59:618
-0.08,-1.07,9.89,0.05,-0.05,-0.03,0.0,0.0,0.0,7991,2019-04-29 17:21:59:622
-0.08,-1.07,9.89,0.05,-0.05,-0.03,0.0,0.0,0.0,7996,2019-04-29 17:21:59:627
-0.06,-1.17,9.87,0.07,-0.15,-0.05,0.0,0.0,0.0,8003,2019-04-29 17:21:59:634
-0.06,-1.17,9.87,0.07,-0.15,-0.05,0.0,0.0,0.0,8006,2019-04-29 17:21:59:637
-0.06,-1.17,9.87,0.07,-0.15,-0.05,0.0,0.0,0.0,8013,2019-04-29 17:21:59:644
-0.06,-1.17,9.87,0.07,-0.15,-0.05,0.0,0.0,0.0,8021,2019-04-29 17:21:59:652
-0.06,-1.17,9.87,0.07,-0.15,-0.05,0.0,0.0,0.0,8023,2019-04-29 17:21:59:654
-0.1,-1.13,9.82,0.07,-0.15,-0.05,0.0,0.0,0.0,8027,2019-04-29 17:21:59:658
-0.1,-1.13,9.82,0.03,-0.08,-0.1,0.0,0.0,0.0,8040,2019-04-29 17:21:59:671
-0.1,-1.13,9.82,0.03,-0.08,-0.1,0.0,0.0,0.0,8041,2019-04-29 17:21:59:672
-0.1,-1.13,9.82,0.03,-0.08,-0.1,0.0,0.0,0.0,8041,2019-04-29 17:21:59:672
-0.1,-1.13,9.82,0.03,-0.08,-0.1,0.0,0.0,0.0,8047,2019-04-29 17:21:59:678
-0.1,-1.13,9.82,0.03,-0.08,-0.1,0.0,0.0,0.0,8051,2019-04-29 17:21:59:682
-0.1,-1.22,9.87,0.03,-0.15,-0.05,0.0,0.0,0.0,8056,2019-04-29 17:21:59:687
-0.1,-1.22,9.87,0.03,-0.15,-0.05,0.0,0.0,0.0,8064,2019-04-29 17:21:59:695
-0.15,-1.31,9.88,-0.03,-0.23,-0.03,0.0,0.0,0.0,8069,2019-04-29 17:21:59:700
-0.15,-1.31,9.88,-0.03,-0.23,-0.03,0.0,0.0,0.0,8071,2019-04-29 17:21:59:702
-0.15,-1.31,9.88,-0.03,-0.23,-0.03,0.0,0.0,0.0,8076,2019-04-29 17:21:59:707
