ACCELEROMETER X (m/s²),ACCELEROMETER Y (m/s²),ACCELEROMETER Z (m/s²),LINEAR ACCELERATION X (m/s²),LINEAR ACCELERATION Y (m/s²),LINEAR ACCELERATION Z (m/s²),GYROSCOPE X (rad/s),GYROSCOPE Y (rad/s),GYROSCOPE Z (rad/s),Time since start in ms ,YYYY-MO-DD HH-MI-SS_SSS
-0.15,-0.24,10.04,0.06,0.0,0.08,0.0,0.0,0.0,7,2019-04-29 17:29:30:440
-0.15,-0.24,10.04,0.06,0.0,0.08,0.0,0.0,0.0,13,2019-04-29 17:29:30:446
-0.07,-0.17,9.89,-0.01,0.01,-0.06,0.0,0.0,0.0,17,2019-04-29 17:29:30:450
-0.07,-0.17,9.89,-0.01,0.01,-0.06,0.0,0.0,0.0,22,2019-04-29 17:29:30:455
-0.07,-0.17,9.89,-0.01,0.01,-0.06,0.0,0.0,0.0,28,2019-04-29 17:29:30:461
-0.07,-0.17,9.89,-0.01,0.01,-0.06,0.0,0.0,0.0,33,2019-04-29 17:29:30:466
-0.07,-0.17,9.89,-0.01,0.01,-0.06,0.0,0.0,0.0,37,2019-04-29 17:29:30:470
-0.06,-0.21,10.04,-0.01,-0.02,0.07,0.0,0.0,0.0,42,2019-04-29 17:29:30:475
-0.06,-0.21,10.04,-0.01,-0.02,0.07,0.0,0.0,0.0,48,2019-04-29 17:29:30:481
-0.06,-0.21,10.04,-0.01,-0.02,0.07,0.0,0.0,0.0,53,2019-04-29 17:29:30:486
-0.02,-0.17,9.99,0.03,0.01,0.02,0.0,0.0,0.0,57,2019-04-29 17:29:30:490
-0.02,-0.17,9.99,0.03,0.01,0.02,0.0,0.0,0.0,63,2019-04-29 17:29:30:496
-0.02,-0.17,9.99,0.03,0.01,0.02,0.0,0.0,0.0,68,2019-04-29 17:29:30:501
-0.02,-0.17,9.99,0.03,0.01,0.02,0.0,0.0,0.0,73,2019-04-29 17:29:30:506
0.01,-0.16,9.91,0.06,0.01,-0.05,0.0,0.0,0.0,78,2019-04-29 17:29:30:511
0.01,-0.16,9.91,0.06,0.01,-0.05,0.0,0.0,0.0,82,2019-04-29 17:29:30:515
0.01,-0.16,9.91,0.06,0.01,-0.05,0.0,0.0,0.0,87,2019-04-29 17:29:30:520
0.01,-0.16,9.91,0.06,0.01,-0.05,0.0,0.0,0.0,93,2019-04-29 17:29:30:526
0.0,-0.15,9.99,0.05,0.02,0.03,0.0,0.0,0.0,97,2019-04-29 17:29:30:530
0.0,-0.15,9.99,0.05,0.02,0.03,0.0,0.0,0.0,102,2019-04-29 17:29:30:535
0.0,-0.15,9.99,0.05,0.02,0.03,0.0,0.0,0.0,108,2019-04-29 17:29:30:541
0.0,-0.15,9.99,0.05,0.02,0.03,0.0,0.0,0.0,112,2019-04-29 17:29:30:545
-0.01,-0.21,10.05,0.03,-0.03,0.07,0.0,0.0,0.0,117,2019-04-29 17:29:30:550
-0.01,-0.21,10.05,0.03,-0.03,0.07,0.0,0.0,0.0,122,2019-04-29 17:29:30:555
-0.01,-0.21,10.05,0.03,-0.03,0.07,0.0,0.0,0.0,128,2019-04-29 17:29:30:561
-0.01,-0.21,10.05,0.03,-0.03,0.07,0.0,0.0,0.0,132,2019-04-29 17:29:30:565
-0.01,-0.21,10.05,0.03,-0.03,0.07,0.0,0.0,0.0,137,2019-04-29 17:29:30:570
-0.01,-0.21,10.05,0.03,-0.03,0.07,0.0,0.0,0.0,143,2019-04-29 17:29:30:576
-0.02,-0.15,9.97,0.02,0.02,0.0,0.0,0.0,0.0,147,2019-04-29 17:29:30:580
-0.02,-0.15,9.97,0.02,0.02,0.0,0.0,0.0,0.0,152,2019-04-29 17:29:30:585
-0.02,-0.15,9.97,0.02,0.02,0.0,0.0,0.0,0.0,157,2019-04-29 17:29:30:590
-0.02,-0.15,9.97,0.02,0.02,0.0,0.0,0.0,0.0,163,2019-04-29 17:29:30:596
-0.04,-0.16,9.92,0.0,0.01,-0.04,0.0,0.0,0.0,168,2019-04-29 17:29:30:601
-0.04,-0.16,9.92,0.0,0.01,-0.04,0.0,0.0,0.0,172,2019-04-29 17:29:30:605
-0.04,-0.16,9.92,0.0,0.01,-0.04,0.0,0.0,0.0,178,2019-04-29 17:29:30:611
-0.04,-0.16,9.92,0.0,0.01,-0.04,0.0,0.0,0.0,183,2019-04-29 17:29:30:616
-0.04,-0.16,9.92,0.0,0.01,-0.04,0.0,0.0,0.0,187,2019-04-29 17:29:30:620
-0.04,-0.16,9.92,0.0,0.01,-0.04,0.0,0.0,0.0,192,2019-04-29 17:29:30:625
-0.06,-0.22,9.98,-0.02,-0.03,0.01,0.0,0.0,0.0,198,2019-04-29 17:29:30:631
-0.06,-0.22,9.98,-0.02,-0.03,0.01,0.0,0.0,0.0,202,2019-04-29 17:29:30:635
-0.06,-0.22,9.98,-0.02,-0.03,0.01,0.0,0.0,0.0,208,2019-04-29 17:29:30:641
-0.06,-0.22,9.98,-0.02,-0.03,0.01,0.0,0.0,0.0,213,2019-04-29 17:29:30:646
-0.08,-0.19,9.93,-0.03,0.0,-0.03,0.0,0.0,0.0,218,2019-04-29 17:29:30:651
-0.08,-0.19,9.93,-0.03,0.0,-0.03,0.0,0.0,0.0,222,2019-04-29 17:29:30:655
-0.08,-0.19,9.93,-0.03,0.0,-0.03,0.0,0.0,0.0,228,2019-04-29 17:29:30:661
-0.08,-0.19,9.93,-0.03,0.0,-0.03,0.0,0.0,0.0,233,2019-04-29 17:29:30:666
-0.08,-0.19,9.93,-0.03,0.0,-0.03,0.0,0.0,0.0,238,2019-04-29 17:29:30:671
-0.1,-0.2,9.93,-0.05,-0.01,-0.02,0.0,0.0,0.0,242,2019-04-29 17:29:30:675
-0.1,-0.2,9.93,-0.05,-0.01,-0.02,0.0,0.0,0.0,247,2019-04-29 17:29:30:680
-0.1,-0.2,9.93,-0.05,-0.01,-0.02,0.0,0.0,0.0,252,2019-04-29 17:29:30:685
-0.02,-0.22,10.06,0.01,-0.02,0.09,0.0,0.0,0.0,258,2019-04-29 17:29:30:691
-0.02,-0.22,10.06,0.01,-0.02,0.09,0.0,0.0,0.0,262,2019-04-29 17:29:30:695
-0.02,-0.22,10.06,0.01,-0.02,0.09,0.0,0.0,0.0,268,2019-04-29 17:29:30:701
-0.02,-0.22,10.06,-0.01,-0.04,0.02,0.0,0.0,0.0,272,2019-04-29 17:29:30:705
-0.02,-0.22,10.06,-0.01,-0.04,0.02,0.0,0.0,0.0,278,2019-04-29 17:29:30:711
-0.02,-0.22,10.06,-0.01,-0.04,0.02,0.0,0.0,0.0,283,2019-04-29 17:29:30:716
-0.02,-0.22,10.06,-0.01,-0.04,0.02,0.0,0.0,0.0,288,2019-04-29 17:29:30:721
-0.05,-0.17,9.95,0.0,0.01,-0.01,0.0,0.0,0.0,292,2019-04-29 17:29:30:725
-0.05,-0.17,9.95,0.0,0.01,-0.01,0.0,0.0,0.0,298,2019-04-29 17:29:30:731
-0.05,-0.17,9.95,0.0,0.01,-0.01,0.0,0.0,0.0,303,2019-04-29 17:29:30:736
-0.01,-0.23,10.0,0.02,-0.03,0.02,0.0,0.0,0.0,308,2019-04-29 17:29:30:741
-0.01,-0.23,10.0,0.02,-0.03,0.02,0.0,0.0,0.0,312,2019-04-29 17:29:30:745
-0.01,-0.23,10.0,0.02,-0.03,0.02,0.0,0.0,0.0,318,2019-04-29 17:29:30:751
-0.01,-0.23,10.0,0.02,-0.03,0.02,0.0,0.0,0.0,323,2019-04-29 17:29:30:756
0.0,-0.24,10.0,0.03,-0.04,0.03,0.0,0.0,0.0,327,2019-04-29 17:29:30:760
0.0,-0.24,10.0,0.03,-0.04,0.03,0.0,0.0,0.0,332,2019-04-29 17:29:30:765
0.0,-0.24,10.0,0.03,-0.04,0.03,0.0,0.0,0.0,337,2019-04-29 17:29:30:770
0.0,-0.24,10.0,0.03,-0.04,0.03,0.0,0.0,0.0,343,2019-04-29 17:29:30:776
-0.03,-0.18,9.96,0.0,0.01,0.0,0.0,0.0,0.0,347,2019-04-29 17:29:30:780
-0.03,-0.18,9.96,0.0,0.01,0.0,0.0,0.0,0.0,352,2019-04-29 17:29:30:785
-0.03,-0.18,9.96,0.0,0.01,0.0,0.0,0.0,0.0,358,2019-04-29 17:29:30:791
-0.03,-0.18,9.96,0.0,0.01,0.0,0.0,0.0,0.0,362,2019-04-29 17:29:30:795
-0.03,-0.2,9.94,0.0,0.0,-0.02,0.0,0.0,0.0,367,2019-04-29 17:29:30:800
-0.03,-0.2,9.94,0.0,0.0,-0.02,0.0,0.0,0.0,373,2019-04-29 17:29:30:806
-0.03,-0.2,9.94,0.0,0.0,-0.02,0.0,0.0,0.0,378,2019-04-29 17:29:30:811
-0.03,-0.2,9.94,0.0,0.0,-0.02,0.0,0.0,0.0,383,2019-04-29 17:29:30:816
-0.03,-0.2,9.94,0.0,0.0,-0.02,0.0,0.0,0.0,388,2019-04-29 17:29:30:821
-0.03,-0.2,9.94,0.0,0.0,-0.02,0.0,0.0,0.0,392,2019-04-29 17:29:30:825
-0.03,-0.2,9.94,0.0,0.0,-0.02,0.0,0.0,0.0,397,2019-04-29 17:29:30:830
-0.01,-0.22,9.95,0.01,-0.02,-0.01,0.0,0.0,0.0,403,2019-04-29 17:29:30:836
-0.01,-0.22,9.95,0.01,-0.02,-0.01,0.0,0.0,0.0,408,2019-04-29 17:29:30:841
-0.01,-0.22,9.95,0.01,-0.02,-0.01,0.0,0.0,0.0,413,2019-04-29 17:29:30:846
-0.07,-0.23,9.99,-0.03,-0.02,0.02,0.0,0.0,0.0,417,2019-04-29 17:29:30:850
-0.07,-0.23,9.99,-0.03,-0.02,0.02,0.0,0.0,0.0,423,2019-04-29 17:29:30:856
-0.07,-0.23,9.99,0.01,0.0,0.01,0.0,0.0,0.0,432,2019-04-29 17:29:30:865
-0.07,-0.23,9.99,0.01,0.0,0.01,0.0,0.0,0.0,434,2019-04-29 17:29:30:867
-0.07,-0.23,9.99,0.01,0.0,0.01,0.0,0.0,0.0,437,2019-04-29 17:29:30:870
-0.07,-0.23,9.99,0.01,0.0,0.01,0.0,0.0,0.0,443,2019-04-29 17:29:30:876
-0.07,-0.23,9.99,0.01,0.0,0.01,0.0,0.0,0.0,448,2019-04-29 17:29:30:881
-0.07,-0.23,9.99,0.01,0.0,0.01,0.0,0.0,0.0,453,2019-04-29 17:29:30:886
-0.07,-0.23,9.99,0.01,0.0,0.01,0.0,0.0,0.0,458,2019-04-29 17:29:30:891
-0.07,-0.23,9.99,0.01,0.0,0.01,0.0,0.0,0.0,463,2019-04-29 17:29:30:896
-0.05,-0.22,9.97,0.01,0.0,0.01,0.0,0.0,0.0,468,2019-04-29 17:29:30:901
-0.05,-0.22,9.97,-0.01,-0.01,0.0,0.0,0.0,0.0,473,2019-04-29 17:29:30:906
-0.05,-0.22,9.97,-0.01,-0.01,0.0,0.0,0.0,0.0,477,2019-04-29 17:29:30:910
-0.05,-0.22,9.97,-0.01,-0.01,0.0,0.0,0.0,0.0,483,2019-04-29 17:29:30:916
-0.05,-0.22,9.97,-0.01,-0.01,0.0,0.0,0.0,0.0,488,2019-04-29 17:29:30:921
-0.05,-0.17,9.92,-0.01,0.03,-0.04,0.0,0.0,0.0,493,2019-04-29 17:29:30:926
-0.05,-0.17,9.92,-0.01,0.03,-0.04,0.0,0.0,0.0,499,2019-04-29 17:29:30:932
-0.05,-0.17,9.92,-0.01,0.03,-0.04,0.0,0.0,0.0,504,2019-04-29 17:29:30:937
-0.07,-0.16,9.95,-0.03,0.04,-0.01,0.0,0.0,0.0,515,2019-04-29 17:29:30:948
-0.07,-0.16,9.95,-0.03,0.04,-0.01,0.0,0.0,0.0,517,2019-04-29 17:29:30:950
-0.07,-0.16,9.95,-0.03,0.04,-0.01,0.0,0.0,0.0,519,2019-04-29 17:29:30:952
-0.07,-0.16,9.95,-0.03,0.04,-0.01,0.0,0.0,0.0,523,2019-04-29 17:29:30:956
-0.05,-0.2,9.96,-0.03,0.04,-0.01,0.0,0.0,0.0,528,2019-04-29 17:29:30:961
-0.05,-0.2,9.96,-0.01,0.01,0.0,0.0,0.0,0.0,532,2019-04-29 17:29:30:965
-0.05,-0.2,9.96,-0.01,0.01,0.0,0.0,0.0,0.0,538,2019-04-29 17:29:30:971
-0.05,-0.2,9.96,-0.01,0.01,0.0,0.0,0.0,0.0,543,2019-04-29 17:29:30:976
-0.05,-0.2,9.96,-0.01,0.01,0.0,0.0,0.0,0.0,548,2019-04-29 17:29:30:981
-0.05,-0.2,9.96,-0.01,0.01,0.0,0.0,0.0,0.0,552,2019-04-29 17:29:30:985
0.01,-0.19,9.98,-0.01,0.01,0.0,0.0,0.0,0.0,557,2019-04-29 17:29:30:990
0.01,-0.19,9.98,0.05,0.01,0.01,0.0,0.0,0.0,563,2019-04-29 17:29:30:996
0.01,-0.19,9.98,0.05,0.01,0.01,0.0,0.0,0.0,567,2019-04-29 17:29:31:000
0.01,-0.19,9.98,0.05,0.01,0.01,0.0,0.0,0.0,572,2019-04-29 17:29:31:005
-0.05,-0.24,9.97,0.0,-0.03,0.01,0.0,0.0,0.0,578,2019-04-29 17:29:31:011
-0.05,-0.24,9.97,0.0,-0.03,0.01,0.0,0.0,0.0,582,2019-04-29 17:29:31:015
-0.05,-0.24,9.97,0.0,-0.03,0.01,0.0,0.0,0.0,588,2019-04-29 17:29:31:021
-0.04,-0.16,9.94,0.0,0.04,-0.02,0.0,0.0,0.0,593,2019-04-29 17:29:31:026
-0.04,-0.16,9.94,0.0,0.04,-0.02,0.0,0.0,0.0,597,2019-04-29 17:29:31:030
-0.04,-0.16,9.94,0.0,0.04,-0.02,0.0,0.0,0.0,603,2019-04-29 17:29:31:036
-0.02,-0.2,9.93,0.01,0.0,-0.02,0.0,0.0,0.0,608,2019-04-29 17:29:31:041
-0.02,-0.2,9.93,0.01,0.0,-0.02,0.0,0.0,0.0,612,2019-04-29 17:29:31:045
-0.02,-0.2,9.93,0.01,0.0,-0.02,0.0,0.0,0.0,619,2019-04-29 17:29:31:052
-0.02,-0.2,9.93,0.01,0.0,-0.02,0.0,0.0,0.0,623,2019-04-29 17:29:31:056
-0.05,-0.21,9.94,0.01,0.0,-0.02,0.0,0.0,0.0,627,2019-04-29 17:29:31:060
-0.05,-0.21,9.94,-0.01,-0.01,-0.01,0.0,0.0,0.0,633,2019-04-29 17:29:31:066
-0.05,-0.21,9.94,-0.01,-0.01,-0.01,0.0,0.0,0.0,638,2019-04-29 17:29:31:071
-0.05,-0.21,9.94,-0.01,-0.01,-0.01,0.0,0.0,0.0,643,2019-04-29 17:29:31:076
-0.04,-0.21,9.97,0.0,-0.01,0.02,0.0,0.0,0.0,648,2019-04-29 17:29:31:081
-0.04,-0.21,9.97,0.0,-0.01,0.02,0.0,0.0,0.0,653,2019-04-29 17:29:31:086
-0.04,-0.21,9.97,0.0,-0.01,0.02,0.0,0.0,0.0,658,2019-04-29 17:29:31:091
-0.04,-0.21,9.97,0.0,-0.01,0.02,0.0,0.0,0.0,663,2019-04-29 17:29:31:096
-0.05,-0.2,9.93,0.0,0.0,-0.02,0.0,0.0,0.0,667,2019-04-29 17:29:31:100
-0.05,-0.2,9.93,0.0,0.0,-0.02,0.0,0.0,0.0,673,2019-04-29 17:29:31:106
-0.05,-0.2,9.93,0.0,0.0,-0.02,0.0,0.0,0.0,677,2019-04-29 17:29:31:110
-0.05,-0.2,9.93,0.0,0.0,-0.02,0.0,0.0,0.0,682,2019-04-29 17:29:31:115
-0.05,-0.22,9.96,0.0,-0.03,0.0,0.0,0.0,0.0,690,2019-04-29 17:29:31:123
-0.05,-0.22,9.96,0.0,-0.03,0.0,0.0,0.0,0.0,692,2019-04-29 17:29:31:125
-0.05,-0.22,9.96,0.0,-0.03,0.0,0.0,0.0,0.0,698,2019-04-29 17:29:31:131
-0.05,-0.22,9.96,0.0,-0.03,0.0,0.0,0.0,0.0,702,2019-04-29 17:29:31:135
-0.06,-0.17,9.94,-0.01,0.01,-0.01,0.0,0.0,0.0,708,2019-04-29 17:29:31:141
-0.06,-0.17,9.94,-0.01,0.01,-0.01,0.0,0.0,0.0,712,2019-04-29 17:29:31:145
-0.06,-0.17,9.94,-0.01,0.01,-0.01,0.0,0.0,0.0,718,2019-04-29 17:29:31:151
-0.06,-0.17,9.94,-0.01,0.01,-0.01,0.0,0.0,0.0,723,2019-04-29 17:29:31:156
-0.04,-0.18,9.95,0.0,0.0,0.0,0.0,0.0,0.0,728,2019-04-29 17:29:31:161
-0.04,-0.18,9.95,0.0,0.0,0.0,0.0,0.0,0.0,732,2019-04-29 17:29:31:165
-0.04,-0.18,9.95,0.0,0.0,0.0,0.0,0.0,0.0,737,2019-04-29 17:29:31:170
-0.04,-0.18,9.95,0.0,0.0,0.0,0.0,0.0,0.0,742,2019-04-29 17:29:31:175
-0.04,-0.18,9.95,0.0,0.0,0.0,0.0,0.0,0.0,747,2019-04-29 17:29:31:180
-0.04,-0.18,9.95,0.0,0.0,0.0,0.0,0.0,0.0,752,2019-04-29 17:29:31:185
-0.04,-0.18,9.95,0.0,0.0,0.0,0.0,0.0,0.0,757,2019-04-29 17:29:31:190
-0.05,-0.19,9.96,0.0,0.0,0.0,0.0,0.0,0.0,763,2019-04-29 17:29:31:196
-0.05,-0.19,9.96,0.0,0.0,0.0,0.0,0.0,0.0,767,2019-04-29 17:29:31:200
-0.05,-0.19,9.96,0.0,0.0,0.0,0.0,0.0,0.0,773,2019-04-29 17:29:31:206
-0.05,-0.19,9.96,0.0,0.0,0.0,0.0,0.0,0.0,778,2019-04-29 17:29:31:211
-0.05,-0.19,9.96,0.0,0.0,0.0,0.0,0.0,0.0,782,2019-04-29 17:29:31:215
-0.01,-0.21,9.96,0.0,0.0,0.0,0.0,0.0,0.0,787,2019-04-29 17:29:31:220
-0.01,-0.21,9.96,0.03,-0.02,0.01,0.0,0.0,0.0,793,2019-04-29 17:29:31:226
-0.01,-0.21,9.96,0.03,-0.02,0.01,0.0,0.0,0.0,798,2019-04-29 17:29:31:231
-0.01,-0.21,9.96,0.03,-0.02,0.01,0.0,0.0,0.0,803,2019-04-29 17:29:31:236
-0.01,-0.21,9.96,0.03,-0.02,0.01,0.0,0.0,0.0,808,2019-04-29 17:29:31:241
0.0,-0.18,9.96,0.04,0.01,0.0,0.0,0.0,0.0,812,2019-04-29 17:29:31:245
0.0,-0.18,9.96,0.04,0.01,0.0,0.0,0.0,0.0,818,2019-04-29 17:29:31:251
0.0,-0.18,9.96,0.04,0.01,0.0,0.0,0.0,0.0,822,2019-04-29 17:29:31:255
0.0,-0.18,9.96,0.04,0.01,0.0,0.0,0.0,0.0,828,2019-04-29 17:29:31:261
0.0,-0.18,9.96,0.04,0.01,0.0,0.0,0.0,0.0,832,2019-04-29 17:29:31:265
0.0,-0.18,9.96,0.04,0.01,0.0,0.0,0.0,0.0,837,2019-04-29 17:29:31:270
-0.02,-0.19,10.01,0.02,0.0,0.04,0.0,0.0,0.0,842,2019-04-29 17:29:31:275
-0.02,-0.19,10.01,0.02,0.0,0.04,0.0,0.0,0.0,847,2019-04-29 17:29:31:280
-0.02,-0.19,10.01,0.02,0.0,0.04,0.0,0.0,0.0,852,2019-04-29 17:29:31:285
-0.02,-0.19,10.01,0.02,0.0,0.04,0.0,0.0,0.0,858,2019-04-29 17:29:31:291
-0.02,-0.19,10.01,0.02,0.0,0.04,0.0,0.0,0.0,863,2019-04-29 17:29:31:296
-0.04,-0.19,9.95,0.02,0.0,0.04,0.0,0.0,0.0,867,2019-04-29 17:29:31:300
-0.04,-0.19,9.95,0.0,0.0,-0.01,0.0,0.0,0.0,872,2019-04-29 17:29:31:305
-0.04,-0.19,9.95,0.0,0.0,-0.01,0.0,0.0,0.0,877,2019-04-29 17:29:31:310
-0.04,-0.19,9.95,0.0,0.0,-0.01,0.0,0.0,0.0,882,2019-04-29 17:29:31:315
-0.04,-0.19,9.95,0.0,0.0,-0.01,0.0,0.0,0.0,887,2019-04-29 17:29:31:320
-0.01,-0.22,9.95,0.03,-0.02,-0.01,0.0,0.0,0.0,892,2019-04-29 17:29:31:325
-0.01,-0.22,9.95,0.03,-0.02,-0.01,0.0,0.0,0.0,898,2019-04-29 17:29:31:331
-0.01,-0.22,9.95,0.03,-0.02,-0.01,0.0,0.0,0.0,905,2019-04-29 17:29:31:338
-0.01,-0.22,9.95,0.03,-0.02,-0.01,0.0,0.0,0.0,907,2019-04-29 17:29:31:340
-0.01,-0.22,9.95,0.03,-0.02,-0.01,0.0,0.0,0.0,913,2019-04-29 17:29:31:346
-0.03,-0.2,9.96,0.0,0.0,0.0,0.0,0.0,0.0,917,2019-04-29 17:29:31:350
-0.03,-0.2,9.96,0.0,0.0,0.0,0.0,0.0,0.0,922,2019-04-29 17:29:31:355
-0.03,-0.2,9.96,0.0,0.0,0.0,0.0,0.0,0.0,928,2019-04-29 17:29:31:361
-0.03,-0.2,9.96,0.0,0.0,0.0,0.0,0.0,0.0,932,2019-04-29 17:29:31:365
-0.03,-0.2,9.96,0.0,0.0,0.0,0.0,0.0,0.0,937,2019-04-29 17:29:31:370
-0.03,-0.2,9.96,0.0,0.0,0.0,0.0,0.0,0.0,943,2019-04-29 17:29:31:376
-0.03,-0.2,9.96,0.0,0.0,0.0,0.0,0.0,0.0,951,2019-04-29 17:29:31:384
-0.03,-0.2,9.96,0.0,0.0,0.0,0.0,0.0,0.0,956,2019-04-29 17:29:31:389
-0.03,-0.22,9.94,0.0,-0.01,-0.02,0.0,0.0,0.0,957,2019-04-29 17:29:31:390
-0.03,-0.22,9.94,0.0,-0.01,-0.02,0.0,0.0,0.0,963,2019-04-29 17:29:31:396
-0.03,-0.22,9.94,0.0,-0.01,-0.02,0.0,0.0,0.0,967,2019-04-29 17:29:31:400
-0.03,-0.22,9.94,0.0,-0.01,-0.02,0.0,0.0,0.0,974,2019-04-29 17:29:31:407
-0.03,-0.22,9.94,0.0,-0.01,-0.02,0.0,0.0,0.0,977,2019-04-29 17:29:31:410
-0.03,-0.22,9.94,0.0,-0.01,-0.02,0.0,0.0,0.0,982,2019-04-29 17:29:31:415
-0.03,-0.22,9.94,0.0,-0.01,-0.02,0.0,0.0,0.0,988,2019-04-29 17:29:31:421
-0.03,-0.22,9.94,0.0,-0.01,-0.02,0.0,0.0,0.0,992,2019-04-29 17:29:31:425
-0.07,-0.19,9.95,-0.02,0.01,-0.01,0.0,0.0,0.0,997,2019-04-29 17:29:31:430
-0.07,-0.19,9.95,-0.02,0.01,-0.01,0.0,0.0,0.0,1003,2019-04-29 17:29:31:436
-0.07,-0.19,9.95,-0.02,0.01,-0.01,0.0,0.0,0.0,1008,2019-04-29 17:29:31:441
-0.02,-0.2,9.96,0.01,0.0,0.0,0.0,0.0,0.0,1013,2019-04-29 17:29:31:446
-0.02,-0.2,9.96,0.01,0.0,0.0,0.0,0.0,0.0,1017,2019-04-29 17:29:31:450
-0.02,-0.2,9.96,0.01,0.0,0.0,0.0,0.0,0.0,1023,2019-04-29 17:29:31:456
-0.08,-0.21,9.98,-0.03,0.0,0.02,0.0,0.0,0.0,1027,2019-04-29 17:29:31:460
-0.08,-0.21,9.98,-0.03,0.0,0.02,0.0,0.0,0.0,1033,2019-04-29 17:29:31:466
-0.08,-0.21,9.98,-0.03,0.0,0.02,0.0,0.0,0.0,1037,2019-04-29 17:29:31:470
-0.08,-0.21,9.98,-0.03,0.0,0.02,0.0,0.0,0.0,1043,2019-04-29 17:29:31:476
-0.08,-0.21,9.98,-0.03,0.0,0.02,0.0,0.0,0.0,1048,2019-04-29 17:29:31:481
-0.08,-0.21,9.98,-0.03,0.0,0.02,0.0,0.0,0.0,1052,2019-04-29 17:29:31:485
-0.03,-0.2,9.95,0.01,0.0,0.0,0.0,0.0,0.0,1058,2019-04-29 17:29:31:491
-0.03,-0.2,9.95,0.01,0.0,0.0,0.0,0.0,0.0,1062,2019-04-29 17:29:31:495
-0.03,-0.2,9.95,0.01,0.0,0.0,0.0,0.0,0.0,1067,2019-04-29 17:29:31:500
-0.03,-0.2,9.95,0.0,-0.01,-0.01,0.0,0.0,0.0,1073,2019-04-29 17:29:31:506
-0.03,-0.2,9.95,0.0,-0.01,-0.01,0.0,0.0,0.0,1078,2019-04-29 17:29:31:511
-0.03,-0.2,9.95,0.0,-0.01,-0.01,0.0,0.0,0.0,1082,2019-04-29 17:29:31:515
-0.01,-0.23,9.94,0.0,-0.01,-0.01,0.0,0.0,0.0,1087,2019-04-29 17:29:31:520
-0.01,-0.23,9.94,0.03,-0.02,-0.01,0.0,0.0,0.0,1092,2019-04-29 17:29:31:525
-0.01,-0.23,9.94,0.03,-0.02,-0.01,0.0,0.0,0.0,1097,2019-04-29 17:29:31:530
-0.01,-0.23,9.94,0.03,-0.02,-0.01,0.0,0.0,0.0,1103,2019-04-29 17:29:31:536
-0.01,-0.23,9.94,0.03,-0.02,-0.01,0.0,0.0,0.0,1108,2019-04-29 17:29:31:541
-0.01,-0.23,9.94,0.03,-0.02,-0.01,0.0,0.0,0.0,1113,2019-04-29 17:29:31:546
-0.03,-0.2,9.98,0.01,0.0,0.02,0.0,0.0,0.0,1118,2019-04-29 17:29:31:551
-0.03,-0.2,9.98,0.01,0.0,0.02,0.0,0.0,0.0,1122,2019-04-29 17:29:31:555
-0.03,-0.2,9.98,0.01,0.0,0.02,0.0,0.0,0.0,1128,2019-04-29 17:29:31:561
-0.03,-0.2,9.98,0.01,0.0,0.02,0.0,0.0,0.0,1133,2019-04-29 17:29:31:566
-0.03,-0.2,9.98,0.01,0.0,0.02,0.0,0.0,0.0,1137,2019-04-29 17:29:31:570
-0.01,-0.23,10.0,0.02,-0.01,0.04,0.0,0.0,0.0,1143,2019-04-29 17:29:31:576
-0.01,-0.23,10.0,0.02,-0.01,0.04,0.0,0.0,0.0,1147,2019-04-29 17:29:31:580
-0.01,-0.23,10.0,0.02,-0.01,0.04,0.0,0.0,0.0,1153,2019-04-29 17:29:31:586
-0.01,-0.23,10.0,0.02,-0.01,0.04,0.0,0.0,0.0,1157,2019-04-29 17:29:31:590
-0.05,-0.18,9.92,0.0,0.03,-0.03,0.0,0.0,0.0,1162,2019-04-29 17:29:31:595
-0.05,-0.18,9.92,0.0,0.03,-0.03,0.0,0.0,0.0,1167,2019-04-29 17:29:31:600
-0.05,-0.18,9.92,0.0,0.03,-0.03,0.0,0.0,0.0,1172,2019-04-29 17:29:31:605
-0.05,-0.18,9.92,0.0,0.03,-0.03,0.0,0.0,0.0,1177,2019-04-29 17:29:31:610
-0.05,-0.18,9.92,0.0,0.03,-0.03,0.0,0.0,0.0,1182,2019-04-29 17:29:31:615
-0.06,-0.19,9.95,0.0,0.03,-0.03,0.0,0.0,0.0,1187,2019-04-29 17:29:31:620
-0.06,-0.19,9.95,-0.01,0.01,0.0,0.0,0.0,0.0,1192,2019-04-29 17:29:31:625
-0.06,-0.19,9.95,-0.01,0.01,0.0,0.0,0.0,0.0,1198,2019-04-29 17:29:31:631
-0.06,-0.19,9.95,-0.01,0.01,0.0,0.0,0.0,0.0,1202,2019-04-29 17:29:31:635
-0.06,-0.19,9.95,-0.01,0.01,0.0,0.0,0.0,0.0,1208,2019-04-29 17:29:31:641
-0.06,-0.19,9.95,-0.01,0.01,0.0,0.0,0.0,0.0,1213,2019-04-29 17:29:31:646
-0.08,-0.18,9.96,-0.02,0.02,0.0,0.0,0.0,0.0,1217,2019-04-29 17:29:31:650
-0.08,-0.18,9.96,-0.02,0.02,0.0,0.0,0.0,0.0,1223,2019-04-29 17:29:31:656
-0.08,-0.18,9.96,-0.02,0.02,0.0,0.0,0.0,0.0,1227,2019-04-29 17:29:31:660
-0.08,-0.18,9.96,-0.02,0.02,0.0,0.0,0.0,0.0,1233,2019-04-29 17:29:31:666
-0.04,-0.2,9.98,-0.02,0.02,0.0,0.0,0.0,0.0,1238,2019-04-29 17:29:31:671
-0.04,-0.2,9.98,0.0,0.0,0.02,0.0,0.0,0.0,1243,2019-04-29 17:29:31:676
-0.04,-0.21,9.94,0.0,0.0,0.02,0.0,0.0,0.0,1248,2019-04-29 17:29:31:681
-0.04,-0.21,9.94,0.0,0.0,0.02,0.0,0.0,0.0,1252,2019-04-29 17:29:31:685
-0.04,-0.21,9.94,0.0,0.0,0.02,0.0,0.0,0.0,1258,2019-04-29 17:29:31:691
-0.04,-0.21,9.94,0.0,0.0,0.02,0.0,0.0,0.0,1262,2019-04-29 17:29:31:695
-0.05,-0.18,9.94,0.0,0.02,0.0,0.0,0.0,0.0,1267,2019-04-29 17:29:31:700
-0.05,-0.18,9.94,0.0,0.02,0.0,0.0,0.0,0.0,1273,2019-04-29 17:29:31:706
-0.05,-0.18,9.94,0.0,0.02,0.0,0.0,0.0,0.0,1277,2019-04-29 17:29:31:710
-0.05,-0.18,9.94,0.0,0.02,0.0,0.0,0.0,0.0,1283,2019-04-29 17:29:31:716
-0.05,-0.18,9.94,0.0,0.02,0.0,0.0,0.0,0.0,1287,2019-04-29 17:29:31:720
-0.06,-0.16,9.96,-0.01,0.03,0.0,0.0,0.0,0.0,1292,2019-04-29 17:29:31:725
-0.06,-0.16,9.96,-0.01,0.03,0.0,0.0,0.0,0.0,1298,2019-04-29 17:29:31:731
-0.06,-0.16,9.96,-0.01,0.03,0.0,0.0,0.0,0.0,1302,2019-04-29 17:29:31:735
-0.06,-0.2,9.96,-0.01,0.03,0.0,0.0,0.0,0.0,1307,2019-04-29 17:29:31:740
-0.06,-0.2,9.96,0.0,0.0,0.01,0.0,0.0,0.0,1313,2019-04-29 17:29:31:746
-0.06,-0.2,9.96,0.0,0.0,0.01,0.0,0.0,0.0,1317,2019-04-29 17:29:31:750
-0.06,-0.2,9.96,0.0,0.0,0.01,0.0,0.0,0.0,1322,2019-04-29 17:29:31:755
-0.03,-0.19,9.97,0.01,0.0,0.01,0.0,0.0,0.0,1328,2019-04-29 17:29:31:761
-0.03,-0.19,9.97,0.01,0.0,0.01,0.0,0.0,0.0,1333,2019-04-29 17:29:31:766
-0.03,-0.19,9.97,0.01,0.0,0.01,0.0,0.0,0.0,1338,2019-04-29 17:29:31:771
-0.03,-0.19,9.97,0.01,0.0,0.01,0.0,0.0,0.0,1343,2019-04-29 17:29:31:776
-0.06,-0.21,9.97,-0.01,-0.01,0.01,0.0,0.0,0.0,1347,2019-04-29 17:29:31:780
-0.06,-0.21,9.97,-0.01,-0.01,0.01,0.0,0.0,0.0,1353,2019-04-29 17:29:31:786
-0.06,-0.21,9.97,-0.01,-0.01,0.01,0.0,0.0,0.0,1357,2019-04-29 17:29:31:790
-0.06,-0.21,9.97,-0.01,-0.01,0.01,0.0,0.0,0.0,1363,2019-04-29 17:29:31:796
-0.06,-0.21,9.97,-0.01,-0.01,0.01,0.0,0.0,0.0,1368,2019-04-29 17:29:31:801
-0.06,-0.21,9.97,-0.01,-0.01,0.01,0.0,0.0,0.0,1372,2019-04-29 17:29:31:805
-0.04,-0.17,9.93,0.0,0.01,-0.03,0.0,0.0,0.0,1378,2019-04-29 17:29:31:811
-0.04,-0.17,9.93,0.0,0.01,-0.03,0.0,0.0,0.0,1383,2019-04-29 17:29:31:816
-0.04,-0.17,9.93,0.0,0.01,-0.03,0.0,0.0,0.0,1387,2019-04-29 17:29:31:820
-0.04,-0.17,9.93,0.0,0.01,-0.03,0.0,0.0,0.0,1393,2019-04-29 17:29:31:826
-0.04,-0.2,9.98,0.0,-0.01,0.02,0.0,0.0,0.0,1404,2019-04-29 17:29:31:837
-0.04,-0.2,9.98,0.0,-0.01,0.02,0.0,0.0,0.0,1405,2019-04-29 17:29:31:838
-0.04,-0.2,9.98,0.0,-0.01,0.02,0.0,0.0,0.0,1408,2019-04-29 17:29:31:841
-0.03,-0.19,9.96,0.0,0.0,0.0,0.0,0.0,0.0,1413,2019-04-29 17:29:31:846
-0.03,-0.19,9.96,0.0,0.0,0.0,0.0,0.0,0.0,1417,2019-04-29 17:29:31:850
-0.03,-0.19,9.96,0.0,0.0,0.0,0.0,0.0,0.0,1423,2019-04-29 17:29:31:856
-0.03,-0.19,9.96,0.0,0.0,0.0,0.0,0.0,0.0,1428,2019-04-29 17:29:31:861
-0.03,-0.19,9.96,0.0,0.0,0.0,0.0,0.0,0.0,1432,2019-04-29 17:29:31:865
-0.03,-0.19,9.96,0.0,0.0,0.0,0.0,0.0,0.0,1437,2019-04-29 17:29:31:870
-0.05,-0.19,9.92,-0.01,0.0,-0.03,0.0,0.0,0.0,1443,2019-04-29 17:29:31:876
-0.05,-0.19,9.92,-0.01,0.0,-0.03,0.0,0.0,0.0,1448,2019-04-29 17:29:31:881
-0.05,-0.19,9.92,-0.01,0.0,-0.03,0.0,0.0,0.0,1453,2019-04-29 17:29:31:886
-0.05,-0.19,9.92,-0.01,0.0,-0.03,0.0,0.0,0.0,1460,2019-04-29 17:29:31:893
-0.07,-0.21,10.0,-0.03,-0.02,0.03,0.0,0.0,0.0,1463,2019-04-29 17:29:31:896
-0.07,-0.21,10.0,-0.03,-0.02,0.03,0.0,0.0,0.0,1467,2019-04-29 17:29:31:900
-0.07,-0.21,10.0,-0.03,-0.02,0.03,0.0,0.0,0.0,1472,2019-04-29 17:29:31:905
-0.07,-0.21,10.0,-0.03,-0.02,0.03,0.0,0.0,0.0,1477,2019-04-29 17:29:31:910
-0.07,-0.18,9.94,-0.02,0.0,-0.02,0.0,0.0,0.0,1482,2019-04-29 17:29:31:915
-0.06,-0.19,9.93,-0.01,0.0,-0.03,0.0,0.0,0.0,1497,2019-04-29 17:29:31:930
-0.06,-0.19,9.93,-0.01,0.0,-0.03,0.0,0.0,0.0,1505,2019-04-29 17:29:31:938
-0.06,-0.19,9.93,-0.01,0.0,-0.03,0.0,0.0,0.0,1515,2019-04-29 17:29:31:948
-0.06,-0.19,9.93,-0.01,0.0,-0.03,0.0,0.0,0.0,1515,2019-04-29 17:29:31:948
-0.06,-0.19,9.93,0.0,-0.01,0.0,0.0,0.0,0.0,1517,2019-04-29 17:29:31:950
-0.06,-0.19,9.93,0.0,-0.01,0.0,0.0,0.0,0.0,1518,2019-04-29 17:29:31:951
-0.06,-0.19,9.93,0.0,-0.01,0.0,0.0,0.0,0.0,1519,2019-04-29 17:29:31:952
-0.06,-0.19,9.93,0.0,-0.01,0.0,0.0,0.0,0.0,1522,2019-04-29 17:29:31:955
-0.05,-0.22,9.99,0.0,-0.01,0.0,0.0,0.0,0.0,1527,2019-04-29 17:29:31:960
-0.05,-0.22,9.99,0.0,-0.01,0.0,0.0,0.0,0.0,1532,2019-04-29 17:29:31:965
-0.05,-0.22,9.99,0.0,-0.01,0.0,0.0,0.0,0.0,1537,2019-04-29 17:29:31:970
-0.05,-0.22,9.99,0.0,-0.01,0.0,0.0,0.0,0.0,1543,2019-04-29 17:29:31:976
-0.05,-0.22,9.99,0.0,-0.01,0.0,0.0,0.0,0.0,1548,2019-04-29 17:29:31:981
-0.05,-0.22,9.99,0.0,-0.01,0.0,0.0,0.0,0.0,1552,2019-04-29 17:29:31:985
-0.05,-0.22,9.99,0.0,-0.01,0.0,0.0,0.0,0.0,1558,2019-04-29 17:29:31:991
-0.02,-0.22,9.96,0.01,-0.02,0.0,0.0,0.0,0.0,1563,2019-04-29 17:29:31:996
-0.02,-0.22,9.96,0.01,-0.02,0.0,0.0,0.0,0.0,1567,2019-04-29 17:29:32:000
-0.02,-0.22,9.96,0.01,-0.02,0.0,0.0,0.0,0.0,1573,2019-04-29 17:29:32:006
-0.04,-0.23,9.96,0.0,-0.03,0.0,0.0,0.0,0.0,1590,2019-04-29 17:29:32:023
-0.04,-0.23,9.96,0.0,-0.03,0.0,0.0,0.0,0.0,1591,2019-04-29 17:29:32:024
-0.04,-0.23,9.96,0.0,-0.03,0.0,0.0,0.0,0.0,1591,2019-04-29 17:29:32:024
-0.04,-0.23,9.96,0.0,-0.03,0.0,0.0,0.0,0.0,1592,2019-04-29 17:29:32:025
-0.02,-0.21,9.98,0.01,-0.01,0.01,0.0,0.0,0.0,1597,2019-04-29 17:29:32:030
-0.02,-0.21,9.98,0.01,-0.01,0.01,0.0,0.0,0.0,1602,2019-04-29 17:29:32:035
-0.04,-0.19,9.92,0.0,0.0,0.0,0.0,0.0,0.0,1608,2019-04-29 17:29:32:041
-0.04,-0.19,9.92,0.0,0.0,0.0,0.0,0.0,0.0,1613,2019-04-29 17:29:32:046
-0.04,-0.19,9.92,0.0,0.0,0.0,0.0,0.0,0.0,1618,2019-04-29 17:29:32:051
-0.04,-0.19,9.92,0.0,0.0,0.0,0.0,0.0,0.0,1623,2019-04-29 17:29:32:056
-0.07,-0.18,9.97,-0.02,0.01,0.0,0.0,0.0,0.0,1630,2019-04-29 17:29:32:063
-0.07,-0.18,9.97,-0.02,0.01,0.0,0.0,0.0,0.0,1632,2019-04-29 17:29:32:065
-0.07,-0.18,9.97,-0.02,0.01,0.0,0.0,0.0,0.0,1638,2019-04-29 17:29:32:071
-0.07,-0.18,9.97,-0.02,0.01,0.0,0.0,0.0,0.0,1643,2019-04-29 17:29:32:076
-0.07,-0.18,9.97,-0.02,0.01,0.0,0.0,0.0,0.0,1647,2019-04-29 17:29:32:080
-0.07,-0.18,9.97,-0.02,0.01,0.0,0.0,0.0,0.0,1652,2019-04-29 17:29:32:085
-0.05,-0.19,9.96,-0.01,0.0,0.0,0.0,0.0,0.0,1658,2019-04-29 17:29:32:091
-0.05,-0.19,9.96,-0.01,0.0,0.0,0.0,0.0,0.0,1663,2019-04-29 17:29:32:096
-0.05,-0.19,9.96,-0.01,0.0,0.0,0.0,0.0,0.0,1668,2019-04-29 17:29:32:101
-0.05,-0.19,9.96,-0.01,0.0,0.0,0.0,0.0,0.0,1674,2019-04-29 17:29:32:107
-0.05,-0.19,9.96,-0.01,0.0,0.0,0.0,0.0,0.0,1678,2019-04-29 17:29:32:111
-0.05,-0.19,9.96,-0.01,0.0,0.0,0.0,0.0,0.0,1682,2019-04-29 17:29:32:115
-0.05,-0.18,9.96,-0.01,0.02,0.0,0.0,0.0,0.0,1687,2019-04-29 17:29:32:120
-0.06,-0.18,9.96,-0.01,0.02,0.0,0.0,0.0,0.0,1693,2019-04-29 17:29:32:126
-0.06,-0.18,9.96,-0.01,0.02,0.0,0.0,0.0,0.0,1698,2019-04-29 17:29:32:131
-0.06,-0.18,9.96,-0.01,0.02,0.0,0.0,0.0,0.0,1703,2019-04-29 17:29:32:136
-0.06,-0.18,9.96,-0.01,0.02,0.0,0.0,0.0,0.0,1708,2019-04-29 17:29:32:141
-0.01,-0.2,9.98,0.03,0.0,0.01,0.0,0.0,0.0,1714,2019-04-29 17:29:32:147
-0.01,-0.2,9.98,0.03,0.0,0.01,0.0,0.0,0.0,1717,2019-04-29 17:29:32:150
-0.01,-0.2,9.98,0.03,0.0,0.01,0.0,0.0,0.0,1722,2019-04-29 17:29:32:155
-0.01,-0.2,9.92,0.03,0.0,-0.03,0.0,0.0,0.0,1730,2019-04-29 17:29:32:163
-0.01,-0.2,9.92,0.03,0.0,-0.03,0.0,0.0,0.0,1732,2019-04-29 17:29:32:165
-0.01,-0.2,9.92,0.03,0.0,-0.03,0.0,0.0,0.0,1737,2019-04-29 17:29:32:170
-0.03,-0.21,9.98,0.0,-0.01,0.02,0.0,0.0,0.0,1745,2019-04-29 17:29:32:178
-0.03,-0.21,9.98,0.0,-0.01,0.02,0.0,0.0,0.0,1748,2019-04-29 17:29:32:181
-0.03,-0.21,9.98,0.0,-0.01,0.02,0.0,0.0,0.0,1753,2019-04-29 17:29:32:186
-0.03,-0.21,9.98,0.0,-0.01,0.02,0.0,0.0,0.0,1759,2019-04-29 17:29:32:192
-0.03,-0.21,9.98,0.0,-0.01,0.02,0.0,0.0,0.0,1763,2019-04-29 17:29:32:196
-0.04,-0.2,9.95,0.0,0.0,0.0,0.0,0.0,0.0,1767,2019-04-29 17:29:32:200
-0.04,-0.2,9.95,0.0,0.0,0.0,0.0,0.0,0.0,1774,2019-04-29 17:29:32:207
-0.04,-0.2,9.95,0.0,0.0,0.0,0.0,0.0,0.0,1779,2019-04-29 17:29:32:212
-0.04,-0.2,9.95,0.0,0.0,0.0,0.0,0.0,0.0,1782,2019-04-29 17:29:32:215
-0.04,-0.2,9.95,0.0,0.0,0.0,0.0,0.0,0.0,1787,2019-04-29 17:29:32:220
-0.04,-0.2,9.95,0.0,0.0,0.0,0.0,0.0,0.0,1794,2019-04-29 17:29:32:227
-0.05,-0.16,9.96,0.0,0.03,0.0,0.0,0.0,0.0,1802,2019-04-29 17:29:32:235
-0.05,-0.16,9.96,0.0,0.03,0.0,0.0,0.0,0.0,1805,2019-04-29 17:29:32:238
-0.05,-0.16,9.96,0.0,0.03,0.0,0.0,0.0,0.0,1816,2019-04-29 17:29:32:249
-0.05,-0.16,9.96,0.0,0.03,0.0,0.0,0.0,0.0,1817,2019-04-29 17:29:32:250
-0.05,-0.16,9.96,0.0,0.03,0.0,0.0,0.0,0.0,1818,2019-04-29 17:29:32:251
-0.05,-0.16,9.96,0.0,0.03,0.0,0.0,0.0,0.0,1822,2019-04-29 17:29:32:255
-0.05,-0.16,9.96,0.0,0.03,0.0,0.0,0.0,0.0,1828,2019-04-29 17:29:32:261
-0.05,-0.16,9.96,0.0,0.03,0.0,0.0,0.0,0.0,1833,2019-04-29 17:29:32:266
-0.03,-0.22,9.91,0.01,-0.01,-0.04,0.0,0.0,0.0,1838,2019-04-29 17:29:32:271
-0.03,-0.22,9.91,0.01,-0.01,-0.04,0.0,0.0,0.0,1843,2019-04-29 17:29:32:276
-0.03,-0.22,9.91,0.01,-0.01,-0.04,0.0,0.0,0.0,1848,2019-04-29 17:29:32:281
-0.03,-0.22,9.91,0.01,-0.01,-0.04,0.0,0.0,0.0,1852,2019-04-29 17:29:32:285
-0.03,-0.22,9.91,0.01,-0.01,-0.04,0.0,0.0,0.0,1858,2019-04-29 17:29:32:291
-0.03,-0.22,9.91,0.01,-0.01,-0.04,0.0,0.0,0.0,1863,2019-04-29 17:29:32:296
-0.04,-0.22,9.97,0.0,-0.01,0.01,0.0,0.0,0.0,1868,2019-04-29 17:29:32:301
-0.04,-0.22,9.97,0.0,-0.01,0.01,0.0,0.0,0.0,1873,2019-04-29 17:29:32:306
-0.04,-0.22,9.97,0.0,-0.01,0.01,0.0,0.0,0.0,1878,2019-04-29 17:29:32:311
-0.04,-0.22,9.97,0.0,-0.01,0.01,0.0,0.0,0.0,1883,2019-04-29 17:29:32:316
-0.03,-0.2,10.01,0.0,-0.01,0.01,0.0,0.0,0.0,1888,2019-04-29 17:29:32:321
-0.03,-0.2,10.01,0.0,0.0,0.04,0.0,0.0,0.0,1892,2019-04-29 17:29:32:325
-0.03,-0.2,10.01,0.0,0.0,0.04,0.0,0.0,0.0,1897,2019-04-29 17:29:32:330
-0.03,-0.2,10.01,0.0,0.0,0.04,0.0,0.0,0.0,1903,2019-04-29 17:29:32:336
-0.03,-0.19,9.93,0.0,0.01,-0.02,0.0,0.0,0.0,1907,2019-04-29 17:29:32:340
-0.03,-0.19,9.93,0.0,0.01,-0.02,0.0,0.0,0.0,1914,2019-04-29 17:29:32:347
-0.03,-0.19,9.93,0.0,0.01,-0.02,0.0,0.0,0.0,1917,2019-04-29 17:29:32:350
-0.03,-0.19,9.93,0.0,0.01,-0.02,0.0,0.0,0.0,1922,2019-04-29 17:29:32:355
0.0,-0.21,10.01,0.04,-0.01,0.04,0.0,0.0,0.0,1927,2019-04-29 17:29:32:360
0.0,-0.21,10.01,0.04,-0.01,0.04,0.0,0.0,0.0,1932,2019-04-29 17:29:32:365
0.0,-0.21,10.01,0.04,-0.01,0.04,0.0,0.0,0.0,1937,2019-04-29 17:29:32:370
0.0,-0.21,10.01,0.04,-0.01,0.04,0.0,0.0,0.0,1943,2019-04-29 17:29:32:376
0.0,-0.21,10.01,0.04,-0.01,0.04,0.0,0.0,0.0,1948,2019-04-29 17:29:32:381
0.0,-0.21,10.01,0.04,-0.01,0.04,0.0,0.0,0.0,1952,2019-04-29 17:29:32:385
0.0,-0.21,10.01,0.04,-0.01,0.04,0.0,0.0,0.0,1958,2019-04-29 17:29:32:391
-0.08,-0.2,9.97,-0.04,0.0,0.01,0.0,0.0,0.0,1963,2019-04-29 17:29:32:396
-0.08,-0.2,9.97,-0.04,0.0,0.01,0.0,0.0,0.0,1968,2019-04-29 17:29:32:401
-0.08,-0.2,9.97,0.02,0.0,-0.02,0.0,0.0,0.0,1972,2019-04-29 17:29:32:405
-0.08,-0.2,9.97,0.02,0.0,-0.02,0.0,0.0,0.0,1978,2019-04-29 17:29:32:411
-0.08,-0.2,9.97,0.02,0.0,-0.02,0.0,0.0,0.0,1982,2019-04-29 17:29:32:415
-0.01,-0.21,9.91,0.02,0.0,-0.04,0.0,0.0,0.0,1989,2019-04-29 17:29:32:422
-0.01,-0.21,9.91,0.02,0.0,-0.04,0.0,0.0,0.0,1994,2019-04-29 17:29:32:427
-0.01,-0.21,9.91,0.02,0.0,-0.04,0.0,0.0,0.0,1997,2019-04-29 17:29:32:430
-0.01,-0.21,9.91,0.02,0.0,-0.04,0.0,0.0,0.0,2002,2019-04-29 17:29:32:435
-0.06,-0.21,9.95,-0.02,0.0,0.0,0.0,0.0,0.0,2007,2019-04-29 17:29:32:440
-0.06,-0.21,9.95,-0.02,0.0,0.0,0.0,0.0,0.0,2012,2019-04-29 17:29:32:445
-0.06,-0.21,9.95,-0.02,0.0,0.0,0.0,0.0,0.0,2018,2019-04-29 17:29:32:451
-0.06,-0.21,9.95,-0.02,0.0,0.0,0.0,0.0,0.0,2023,2019-04-29 17:29:32:456
-0.04,-0.21,9.93,0.0,0.0,-0.02,0.0,0.0,0.0,2027,2019-04-29 17:29:32:460
-0.04,-0.21,9.93,0.0,0.0,-0.02,0.0,0.0,0.0,2032,2019-04-29 17:29:32:465
-0.04,-0.21,9.93,0.0,0.0,-0.02,0.0,0.0,0.0,2038,2019-04-29 17:29:32:471
-0.04,-0.21,9.93,0.0,0.0,-0.02,0.0,0.0,0.0,2042,2019-04-29 17:29:32:475
-0.03,-0.18,9.96,0.0,0.01,0.01,0.0,0.0,0.0,2048,2019-04-29 17:29:32:481
-0.03,-0.18,9.96,0.0,0.01,0.01,0.0,0.0,0.0,2052,2019-04-29 17:29:32:485
-0.03,-0.18,9.96,0.0,0.01,0.01,0.0,0.0,0.0,2058,2019-04-29 17:29:32:491
-0.03,-0.18,9.96,0.0,0.01,0.01,0.0,0.0,0.0,2063,2019-04-29 17:29:32:496
-0.03,-0.18,9.96,0.0,0.01,0.01,0.0,0.0,0.0,2068,2019-04-29 17:29:32:501
-0.03,-0.18,9.96,0.0,0.01,0.01,0.0,0.0,0.0,2073,2019-04-29 17:29:32:506
-0.02,-0.22,9.97,0.01,-0.02,0.01,0.0,0.0,0.0,2078,2019-04-29 17:29:32:511
-0.02,-0.22,9.97,0.01,-0.02,0.01,0.0,0.0,0.0,2082,2019-04-29 17:29:32:515
-0.02,-0.22,9.97,0.01,-0.02,0.01,0.0,0.0,0.0,2087,2019-04-29 17:29:32:520
-0.05,-0.24,9.97,-0.02,-0.01,0.0,0.0,0.0,0.0,2094,2019-04-29 17:29:32:527
-0.05,-0.24,9.97,-0.02,-0.01,0.0,0.0,0.0,0.0,2097,2019-04-29 17:29:32:530
-0.05,-0.24,9.97,-0.02,-0.01,0.0,0.0,0.0,0.0,2102,2019-04-29 17:29:32:535
-0.05,-0.24,9.97,-0.02,-0.01,0.0,0.0,0.0,0.0,2107,2019-04-29 17:29:32:540
-0.04,-0.19,9.99,0.0,0.01,0.03,0.0,0.0,0.0,2113,2019-04-29 17:29:32:546
-0.04,-0.19,9.99,0.0,0.01,0.03,0.0,0.0,0.0,2118,2019-04-29 17:29:32:551
-0.04,-0.19,9.99,0.0,0.01,0.03,0.0,0.0,0.0,2123,2019-04-29 17:29:32:556
-0.03,-0.21,9.92,0.0,0.01,0.03,0.0,0.0,0.0,2128,2019-04-29 17:29:32:561
-0.03,-0.21,9.92,0.0,-0.01,-0.02,0.0,0.0,0.0,2133,2019-04-29 17:29:32:566
-0.03,-0.21,9.92,0.0,-0.01,-0.02,0.0,0.0,0.0,2137,2019-04-29 17:29:32:570
-0.01,-0.19,9.95,0.0,-0.01,-0.02,0.0,0.0,0.0,2143,2019-04-29 17:29:32:576
-0.01,-0.19,9.95,0.0,-0.01,-0.02,0.0,0.0,0.0,2147,2019-04-29 17:29:32:580
-0.01,-0.19,9.95,-0.01,-0.03,0.0,0.0,0.0,0.0,2152,2019-04-29 17:29:32:585
-0.01,-0.19,9.95,-0.01,-0.03,0.0,0.0,0.0,0.0,2157,2019-04-29 17:29:32:590
-0.01,-0.19,9.95,-0.01,-0.03,0.0,0.0,0.0,0.0,2162,2019-04-29 17:29:32:595
-0.05,-0.22,9.98,-0.01,-0.01,0.03,0.0,0.0,0.0,2168,2019-04-29 17:29:32:601
-0.05,-0.22,9.98,-0.01,-0.01,0.03,0.0,0.0,0.0,2174,2019-04-29 17:29:32:607
-0.05,-0.22,9.98,-0.01,-0.01,0.03,0.0,0.0,0.0,2178,2019-04-29 17:29:32:611
-0.05,-0.22,9.98,-0.01,0.02,0.01,0.0,0.0,0.0,2182,2019-04-29 17:29:32:615
-0.05,-0.22,9.98,-0.01,0.02,0.01,0.0,0.0,0.0,2187,2019-04-29 17:29:32:620
-0.05,-0.22,9.98,-0.01,0.02,0.01,0.0,0.0,0.0,2195,2019-04-29 17:29:32:628
-0.06,-0.2,9.93,-0.01,0.0,-0.02,0.0,0.0,0.0,2198,2019-04-29 17:29:32:631
-0.06,-0.2,9.93,-0.01,0.0,-0.02,0.0,0.0,0.0,2204,2019-04-29 17:29:32:637
-0.06,-0.2,9.93,-0.01,0.0,-0.02,0.0,0.0,0.0,2210,2019-04-29 17:29:32:643
-0.06,-0.2,9.93,-0.01,0.0,-0.02,0.0,0.0,0.0,2213,2019-04-29 17:29:32:646
-0.06,-0.2,9.93,-0.01,0.0,-0.02,0.0,0.0,0.0,2219,2019-04-29 17:29:32:652
-0.06,-0.2,9.93,-0.01,0.0,-0.02,0.0,0.0,0.0,2223,2019-04-29 17:29:32:656
-0.05,-0.18,9.97,-0.01,0.02,0.0,0.0,0.0,0.0,2227,2019-04-29 17:29:32:660
-0.05,-0.18,9.97,-0.01,0.02,0.0,0.0,0.0,0.0,2233,2019-04-29 17:29:32:666
-0.07,-0.2,9.94,-0.02,0.0,-0.01,0.0,0.0,0.0,2239,2019-04-29 17:29:32:672
-0.07,-0.2,9.94,-0.02,0.0,-0.01,0.0,0.0,0.0,2244,2019-04-29 17:29:32:677
-0.07,-0.2,9.94,-0.02,0.0,-0.01,0.0,0.0,0.0,2248,2019-04-29 17:29:32:681
-0.07,-0.2,9.94,-0.02,0.0,-0.01,0.0,0.0,0.0,2254,2019-04-29 17:29:32:687
-0.04,-0.21,9.94,0.0,0.0,0.0,0.0,0.0,0.0,2257,2019-04-29 17:29:32:690
-0.04,-0.21,9.94,0.0,0.0,0.0,0.0,0.0,0.0,2265,2019-04-29 17:29:32:698
-0.04,-0.21,9.94,0.0,0.0,0.0,0.0,0.0,0.0,2267,2019-04-29 17:29:32:700
-0.04,-0.21,9.94,0.0,0.0,0.0,0.0,0.0,0.0,2274,2019-04-29 17:29:32:707
-0.04,-0.21,9.94,0.0,0.0,0.0,0.0,0.0,0.0,2277,2019-04-29 17:29:32:710
-0.04,-0.21,9.94,0.0,0.0,0.0,0.0,0.0,0.0,2282,2019-04-29 17:29:32:715
-0.09,-0.25,9.96,-0.04,-0.04,0.0,0.0,0.0,0.0,2287,2019-04-29 17:29:32:720
-0.09,-0.25,9.96,-0.04,-0.04,0.0,0.0,0.0,0.0,2292,2019-04-29 17:29:32:725
-0.09,-0.25,9.96,-0.04,-0.04,0.0,0.0,0.0,0.0,2297,2019-04-29 17:29:32:730
-0.06,-0.21,9.95,-0.01,0.0,0.0,0.0,0.0,0.0,2302,2019-04-29 17:29:32:735
-0.06,-0.21,9.95,-0.01,0.0,0.0,0.0,0.0,0.0,2308,2019-04-29 17:29:32:741
-0.06,-0.21,9.95,-0.01,0.0,0.0,0.0,0.0,0.0,2313,2019-04-29 17:29:32:746
-0.08,-0.18,9.92,-0.03,0.02,-0.03,0.0,0.0,0.0,2318,2019-04-29 17:29:32:751
-0.08,-0.18,9.92,-0.03,0.02,-0.03,0.0,0.0,0.0,2322,2019-04-29 17:29:32:755
-0.08,-0.18,9.92,-0.03,0.02,-0.03,0.0,0.0,0.0,2329,2019-04-29 17:29:32:762
-0.08,-0.18,9.92,-0.03,0.02,-0.03,0.0,0.0,0.0,2333,2019-04-29 17:29:32:766
-0.04,-0.21,9.94,0.0,0.0,0.0,0.0,0.0,0.0,2338,2019-04-29 17:29:32:771
-0.04,-0.21,9.94,0.0,0.0,0.0,0.0,0.0,0.0,2342,2019-04-29 17:29:32:775
-0.04,-0.21,9.94,0.0,0.0,0.0,0.0,0.0,0.0,2348,2019-04-29 17:29:32:781
-0.04,-0.21,9.94,0.0,0.0,0.0,0.0,0.0,0.0,2355,2019-04-29 17:29:32:788
-0.06,-0.21,9.96,0.0,-0.01,0.01,0.0,0.0,0.0,2357,2019-04-29 17:29:32:790
-0.06,-0.21,9.96,0.0,-0.01,0.01,0.0,0.0,0.0,2365,2019-04-29 17:29:32:798
-0.06,-0.21,9.96,0.0,-0.01,0.01,0.0,0.0,0.0,2367,2019-04-29 17:29:32:800
-0.06,-0.21,9.96,0.0,-0.01,0.01,0.0,0.0,0.0,2372,2019-04-29 17:29:32:805
-0.06,-0.21,9.96,0.0,-0.01,0.01,0.0,0.0,0.0,2378,2019-04-29 17:29:32:811
-0.06,-0.21,9.96,0.0,-0.01,0.01,0.0,0.0,0.0,2382,2019-04-29 17:29:32:815
-0.07,-0.16,9.96,0.0,-0.01,0.01,0.0,0.0,0.0,2387,2019-04-29 17:29:32:820
-0.07,-0.16,9.96,-0.01,0.03,0.01,0.0,0.0,0.0,2394,2019-04-29 17:29:32:827
-0.07,-0.16,9.96,-0.01,0.03,0.01,0.0,0.0,0.0,2397,2019-04-29 17:29:32:830
-0.07,-0.16,9.96,-0.01,0.03,0.01,0.0,0.0,0.0,2402,2019-04-29 17:29:32:835
-0.07,-0.16,9.96,-0.01,0.03,0.01,0.0,0.0,0.0,2408,2019-04-29 17:29:32:841
-0.07,-0.16,9.96,-0.01,0.03,0.01,0.0,0.0,0.0,2413,2019-04-29 17:29:32:846
-0.07,-0.16,9.96,-0.01,0.03,0.01,0.0,0.0,0.0,2418,2019-04-29 17:29:32:851
-0.07,-0.16,9.96,-0.01,0.03,0.01,0.0,0.0,0.0,2422,2019-04-29 17:29:32:855
-0.03,-0.21,9.93,-0.01,0.03,0.01,0.0,0.0,0.0,2427,2019-04-29 17:29:32:860
-0.03,-0.21,9.93,0.02,-0.01,-0.02,0.0,0.0,0.0,2433,2019-04-29 17:29:32:866
-0.07,-0.2,9.96,0.01,-0.01,0.03,0.0,0.0,0.0,2438,2019-04-29 17:29:32:871
-0.07,-0.2,9.96,0.01,-0.01,0.03,0.0,0.0,0.0,2442,2019-04-29 17:29:32:875
-0.07,-0.2,9.96,0.01,-0.01,0.03,0.0,0.0,0.0,2447,2019-04-29 17:29:32:880
-0.07,-0.2,9.96,0.01,-0.01,0.03,0.0,0.0,0.0,2454,2019-04-29 17:29:32:887
-0.07,-0.2,9.96,0.01,-0.01,0.03,0.0,0.0,0.0,2457,2019-04-29 17:29:32:890
-0.08,-0.19,9.94,-0.02,0.01,0.0,0.0,0.0,0.0,2462,2019-04-29 17:29:32:895
-0.08,-0.19,9.94,-0.02,0.01,0.0,0.0,0.0,0.0,2467,2019-04-29 17:29:32:900
-0.08,-0.19,9.94,-0.02,0.01,0.0,0.0,0.0,0.0,2472,2019-04-29 17:29:32:905
-0.08,-0.19,9.94,-0.02,0.01,0.0,0.0,0.0,0.0,2477,2019-04-29 17:29:32:910
-0.08,-0.19,9.94,-0.02,0.01,0.0,0.0,0.0,0.0,2482,2019-04-29 17:29:32:915
-0.05,-0.19,9.93,-0.02,0.01,0.0,0.0,0.0,0.0,2488,2019-04-29 17:29:32:921
-0.05,-0.19,9.93,0.0,0.01,-0.02,0.0,0.0,0.0,2493,2019-04-29 17:29:32:926
-0.05,-0.19,9.93,0.0,0.01,-0.02,0.0,0.0,0.0,2498,2019-04-29 17:29:32:931
-0.05,-0.19,9.93,0.0,0.01,-0.02,0.0,0.0,0.0,2504,2019-04-29 17:29:32:937
-0.05,-0.19,9.93,0.0,0.01,-0.02,0.0,0.0,0.0,2507,2019-04-29 17:29:32:940
-0.05,-0.19,9.93,0.0,0.01,-0.02,0.0,0.0,0.0,2513,2019-04-29 17:29:32:946
-0.06,-0.2,9.92,0.0,0.01,-0.02,0.0,0.0,0.0,2518,2019-04-29 17:29:32:951
-0.06,-0.2,9.92,0.0,0.0,-0.03,0.0,0.0,0.0,2523,2019-04-29 17:29:32:956
-0.06,-0.2,9.92,0.0,0.0,-0.03,0.0,0.0,0.0,2527,2019-04-29 17:29:32:960
-0.06,-0.2,9.92,0.0,0.0,-0.03,0.0,0.0,0.0,2532,2019-04-29 17:29:32:965
-0.06,-0.2,9.92,0.0,0.0,-0.03,0.0,0.0,0.0,2538,2019-04-29 17:29:32:971
-0.05,-0.23,9.94,0.0,-0.02,-0.01,0.0,0.0,0.0,2544,2019-04-29 17:29:32:977
-0.05,-0.23,9.94,0.0,-0.02,-0.01,0.0,0.0,0.0,2548,2019-04-29 17:29:32:981
-0.05,-0.23,9.94,0.0,-0.02,-0.01,0.0,0.0,0.0,2553,2019-04-29 17:29:32:986
-0.04,-0.23,9.94,0.01,-0.02,-0.01,0.0,0.0,0.0,2559,2019-04-29 17:29:32:992
-0.04,-0.23,9.94,0.01,-0.02,-0.01,0.0,0.0,0.0,2563,2019-04-29 17:29:32:996
-0.04,-0.23,9.94,0.01,-0.02,-0.01,0.0,0.0,0.0,2567,2019-04-29 17:29:33:000
-0.04,-0.23,9.94,0.01,-0.02,-0.01,0.0,0.0,0.0,2573,2019-04-29 17:29:33:006
-0.05,-0.19,9.97,0.0,0.0,0.01,0.0,0.0,0.0,2579,2019-04-29 17:29:33:012
-0.05,-0.19,9.97,0.0,0.0,0.01,0.0,0.0,0.0,2583,2019-04-29 17:29:33:016
-0.05,-0.19,9.97,0.0,0.0,0.01,0.0,0.0,0.0,2588,2019-04-29 17:29:33:021
-0.05,-0.19,9.97,0.0,0.0,0.01,0.0,0.0,0.0,2594,2019-04-29 17:29:33:027
-0.02,-0.23,9.97,0.02,-0.02,0.01,0.0,0.0,0.0,2598,2019-04-29 17:29:33:031
-0.02,-0.23,9.97,0.02,-0.02,0.01,0.0,0.0,0.0,2604,2019-04-29 17:29:33:037
-0.02,-0.23,9.97,0.02,-0.02,0.01,0.0,0.0,0.0,2607,2019-04-29 17:29:33:040
-0.02,-0.23,9.97,0.02,-0.02,0.01,0.0,0.0,0.0,2612,2019-04-29 17:29:33:045
-0.04,-0.19,9.99,0.0,0.01,0.03,0.0,0.0,0.0,2617,2019-04-29 17:29:33:050
-0.04,-0.19,9.99,0.0,0.01,0.03,0.0,0.0,0.0,2623,2019-04-29 17:29:33:056
-0.04,-0.19,9.99,0.0,0.01,0.03,0.0,0.0,0.0,2627,2019-04-29 17:29:33:060
-0.04,-0.19,9.99,0.0,0.01,0.03,0.0,0.0,0.0,2633,2019-04-29 17:29:33:066
-0.04,-0.19,9.99,0.0,0.01,0.03,0.0,0.0,0.0,2638,2019-04-29 17:29:33:071
-0.04,-0.19,9.99,0.0,0.01,0.03,0.0,0.0,0.0,2643,2019-04-29 17:29:33:076
-0.03,-0.2,9.93,0.02,0.0,-0.01,0.0,0.0,0.0,2647,2019-04-29 17:29:33:080
-0.03,-0.2,9.93,0.02,0.0,-0.01,0.0,0.0,0.0,2654,2019-04-29 17:29:33:087
-0.03,-0.2,9.93,0.02,0.0,-0.01,0.0,0.0,0.0,2660,2019-04-29 17:29:33:093
-0.03,-0.2,9.93,0.02,0.0,-0.01,0.0,0.0,0.0,2662,2019-04-29 17:29:33:095
-0.04,-0.2,9.97,0.02,0.0,-0.01,0.0,0.0,0.0,2668,2019-04-29 17:29:33:101
-0.04,-0.2,9.97,0.0,0.0,0.01,0.0,0.0,0.0,2673,2019-04-29 17:29:33:106
-0.04,-0.2,9.97,0.0,0.0,0.01,0.0,0.0,0.0,2678,2019-04-29 17:29:33:111
-0.04,-0.2,9.97,0.0,0.0,0.01,0.0,0.0,0.0,2682,2019-04-29 17:29:33:115
-0.04,-0.2,9.97,0.0,0.0,0.01,0.0,0.0,0.0,2687,2019-04-29 17:29:33:120
-0.03,-0.23,9.93,0.01,-0.01,-0.02,0.0,0.0,0.0,2692,2019-04-29 17:29:33:125
-0.03,-0.23,9.93,0.01,-0.01,-0.02,0.0,0.0,0.0,2700,2019-04-29 17:29:33:133
-0.03,-0.23,9.93,0.01,-0.01,-0.02,0.0,0.0,0.0,2703,2019-04-29 17:29:33:136
-0.05,-0.21,9.95,0.0,0.0,0.0,0.0,0.0,0.0,2711,2019-04-29 17:29:33:144
-0.05,-0.21,9.95,0.0,0.0,0.0,0.0,0.0,0.0,2713,2019-04-29 17:29:33:146
-0.05,-0.21,9.95,0.0,0.0,0.0,0.0,0.0,0.0,2718,2019-04-29 17:29:33:151
-0.05,-0.21,9.95,0.0,0.0,0.0,0.0,0.0,0.0,2722,2019-04-29 17:29:33:155
-0.05,-0.21,9.95,0.0,0.0,0.0,0.0,0.0,0.0,2728,2019-04-29 17:29:33:161
-0.05,-0.21,9.95,0.0,0.0,0.0,0.0,0.0,0.0,2732,2019-04-29 17:29:33:165
-0.04,-0.17,9.98,0.0,0.03,0.01,0.0,0.0,0.0,2739,2019-04-29 17:29:33:172
-0.04,-0.17,9.98,0.0,0.03,0.01,0.0,0.0,0.0,2744,2019-04-29 17:29:33:177
-0.04,-0.17,9.98,0.0,0.03,0.01,0.0,0.0,0.0,2748,2019-04-29 17:29:33:181
-0.04,-0.17,9.98,0.0,0.03,0.01,0.0,0.0,0.0,2753,2019-04-29 17:29:33:186
-0.04,-0.17,9.98,0.0,0.03,0.01,0.0,0.0,0.0,2758,2019-04-29 17:29:33:191
-0.05,-0.2,9.98,0.0,0.0,0.01,0.0,0.0,0.0,2762,2019-04-29 17:29:33:195
-0.05,-0.2,9.98,0.0,0.0,0.01,0.0,0.0,0.0,2767,2019-04-29 17:29:33:200
-0.05,-0.2,9.98,0.0,0.0,0.01,0.0,0.0,0.0,2773,2019-04-29 17:29:33:206
-0.05,-0.2,9.98,0.0,0.0,0.01,0.0,0.0,0.0,2778,2019-04-29 17:29:33:211
-0.05,-0.2,9.98,0.0,0.0,0.01,0.0,0.0,0.0,2782,2019-04-29 17:29:33:215
-0.05,-0.2,9.98,0.0,0.0,0.01,0.0,0.0,0.0,2787,2019-04-29 17:29:33:220
-0.03,-0.2,9.92,0.01,0.0,-0.04,0.0,0.0,0.0,2793,2019-04-29 17:29:33:226
-0.03,-0.2,9.92,0.01,0.0,-0.04,0.0,0.0,0.0,2797,2019-04-29 17:29:33:230
-0.03,-0.2,9.92,0.01,0.0,-0.04,0.0,0.0,0.0,2802,2019-04-29 17:29:33:235
-0.03,-0.2,9.92,0.01,0.0,-0.04,0.0,0.0,0.0,2807,2019-04-29 17:29:33:240
-0.03,-0.2,9.92,0.01,0.0,-0.04,0.0,0.0,0.0,2812,2019-04-29 17:29:33:245
-0.04,-0.21,9.95,0.0,0.0,0.0,0.0,0.0,0.0,2818,2019-04-29 17:29:33:251
-0.04,-0.21,9.95,0.0,0.0,0.0,0.0,0.0,0.0,2823,2019-04-29 17:29:33:256
-0.04,-0.21,9.95,0.0,0.0,0.0,0.0,0.0,0.0,2828,2019-04-29 17:29:33:261
-0.04,-0.21,9.95,0.0,0.0,0.0,0.0,0.0,0.0,2832,2019-04-29 17:29:33:265
-0.04,-0.21,9.95,0.0,0.0,0.0,0.0,0.0,0.0,2837,2019-04-29 17:29:33:270
-0.06,-0.21,9.91,-0.01,0.0,-0.04,0.0,0.0,0.0,2843,2019-04-29 17:29:33:276
-0.06,-0.21,9.91,-0.01,0.0,-0.04,0.0,0.0,0.0,2847,2019-04-29 17:29:33:280
-0.06,-0.21,9.91,-0.01,0.0,-0.04,0.0,0.0,0.0,2854,2019-04-29 17:29:33:287
-0.06,-0.21,9.91,-0.01,0.0,-0.04,0.0,0.0,0.0,2857,2019-04-29 17:29:33:290
-0.06,-0.21,9.91,-0.01,0.0,-0.04,0.0,0.0,0.0,2863,2019-04-29 17:29:33:296
-0.07,-0.19,9.99,-0.03,0.01,0.03,0.0,0.0,0.0,2868,2019-04-29 17:29:33:301
-0.07,-0.19,9.99,-0.03,0.01,0.03,0.0,0.0,0.0,2872,2019-04-29 17:29:33:305
-0.07,-0.19,9.99,-0.03,0.01,0.03,0.0,0.0,0.0,2878,2019-04-29 17:29:33:311
-0.07,-0.19,9.99,-0.03,0.01,0.03,0.0,0.0,0.0,2882,2019-04-29 17:29:33:315
-0.07,-0.19,9.99,-0.03,0.01,0.03,0.0,0.0,0.0,2888,2019-04-29 17:29:33:321
-0.03,-0.21,9.93,0.01,0.0,-0.02,0.0,0.0,0.0,2895,2019-04-29 17:29:33:328
-0.03,-0.21,9.93,0.01,0.0,-0.02,0.0,0.0,0.0,2898,2019-04-29 17:29:33:331
-0.03,-0.21,9.93,0.01,0.0,-0.02,0.0,0.0,0.0,2904,2019-04-29 17:29:33:337
-0.03,-0.21,9.93,0.01,0.0,-0.02,0.0,0.0,0.0,2908,2019-04-29 17:29:33:341
-0.03,-0.21,9.93,0.01,0.0,-0.02,0.0,0.0,0.0,2913,2019-04-29 17:29:33:346
-0.02,-0.21,9.96,0.02,0.0,0.0,0.0,0.0,0.0,2917,2019-04-29 17:29:33:350
-0.02,-0.21,9.96,0.02,0.0,0.0,0.0,0.0,0.0,2924,2019-04-29 17:29:33:357
-0.02,-0.21,9.96,0.02,0.0,0.0,0.0,0.0,0.0,2927,2019-04-29 17:29:33:360
-0.02,-0.21,9.96,0.02,0.0,0.0,0.0,0.0,0.0,2933,2019-04-29 17:29:33:366
-0.02,-0.21,9.96,0.02,0.0,0.0,0.0,0.0,0.0,2938,2019-04-29 17:29:33:371
-0.02,-0.21,9.96,0.02,0.0,0.0,0.0,0.0,0.0,2945,2019-04-29 17:29:33:378
-0.06,-0.17,9.99,-0.01,0.02,0.03,0.0,0.0,0.0,2950,2019-04-29 17:29:33:383
-0.06,-0.17,9.99,-0.01,0.02,0.03,0.0,0.0,0.0,2955,2019-04-29 17:29:33:388
-0.1,-0.23,9.88,-0.01,0.02,0.03,0.0,0.0,0.0,2960,2019-04-29 17:29:33:393
-0.1,-0.23,9.88,-0.01,0.02,0.03,0.0,0.0,0.0,2963,2019-04-29 17:29:33:396
-0.1,-0.23,9.88,-0.01,0.02,0.03,0.0,0.0,0.0,2968,2019-04-29 17:29:33:401
-0.1,-0.23,9.88,-0.01,0.02,0.03,0.0,0.0,0.0,2973,2019-04-29 17:29:33:406
-0.02,-0.15,9.85,0.02,0.04,-0.1,0.0,0.0,0.0,2978,2019-04-29 17:29:33:411
-0.02,-0.15,9.85,0.02,0.04,-0.1,0.0,0.0,0.0,2982,2019-04-29 17:29:33:415
-0.02,-0.15,9.85,0.02,0.04,-0.1,0.0,0.0,0.0,2988,2019-04-29 17:29:33:421
-0.02,-0.15,9.85,0.02,0.04,-0.1,0.0,0.0,0.0,2993,2019-04-29 17:29:33:426
-0.09,0.0,10.01,-0.04,0.18,0.05,0.0,0.0,0.0,2997,2019-04-29 17:29:33:430
-0.09,0.0,10.01,-0.04,0.18,0.05,0.0,0.0,0.0,3004,2019-04-29 17:29:33:437
-0.09,0.0,10.01,-0.04,0.18,0.05,0.0,0.0,0.0,3008,2019-04-29 17:29:33:441
-0.09,0.0,10.01,-0.04,0.18,0.05,0.0,0.0,0.0,3013,2019-04-29 17:29:33:446
-0.07,-0.29,10.13,-0.02,-0.1,0.16,0.0,0.0,0.0,3018,2019-04-29 17:29:33:451
-0.07,-0.29,10.13,-0.02,-0.1,0.16,0.0,0.0,0.0,3023,2019-04-29 17:29:33:456
-0.07,-0.29,10.13,-0.02,-0.1,0.16,0.0,0.0,0.0,3028,2019-04-29 17:29:33:461
-0.07,-0.29,10.13,-0.02,-0.1,0.16,0.0,0.0,0.0,3033,2019-04-29 17:29:33:466
-0.07,-0.29,10.13,-0.02,-0.1,0.16,0.0,0.0,0.0,3038,2019-04-29 17:29:33:471
-0.07,-0.29,10.13,-0.02,-0.1,0.16,0.0,0.0,0.0,3042,2019-04-29 17:29:33:475
0.06,-0.14,9.9,0.11,0.04,-0.07,0.0,0.0,0.0,3048,2019-04-29 17:29:33:481
0.06,-0.14,9.9,0.11,0.04,-0.07,0.0,0.0,0.0,3052,2019-04-29 17:29:33:485
0.06,-0.14,9.9,0.11,0.04,-0.07,0.0,0.0,0.0,3057,2019-04-29 17:29:33:490
0.06,-0.14,9.9,-0.06,-0.05,-0.1,0.0,0.0,0.0,3064,2019-04-29 17:29:33:497
0.06,-0.14,9.9,-0.06,-0.05,-0.1,0.0,0.0,0.0,3068,2019-04-29 17:29:33:501
0.06,-0.14,9.9,-0.06,-0.05,-0.1,0.0,0.0,0.0,3073,2019-04-29 17:29:33:506
0.06,-0.14,9.9,-0.06,-0.05,-0.1,0.0,0.0,0.0,3078,2019-04-29 17:29:33:511
0.06,-0.14,9.9,-0.06,-0.05,-0.1,0.0,0.0,0.0,3083,2019-04-29 17:29:33:516
0.0,-0.22,9.99,-0.06,-0.05,-0.1,0.0,0.0,0.0,3088,2019-04-29 17:29:33:521
0.0,-0.22,9.99,0.04,-0.03,0.02,0.0,0.0,0.0,3092,2019-04-29 17:29:33:525
0.0,-0.22,9.99,0.04,-0.03,0.02,0.0,0.0,0.0,3097,2019-04-29 17:29:33:530
0.0,-0.22,9.99,0.04,-0.03,0.02,0.0,0.0,0.0,3104,2019-04-29 17:29:33:537
0.0,-0.22,9.99,0.04,-0.03,0.02,0.0,0.0,0.0,3108,2019-04-29 17:29:33:541
0.0,-0.22,9.99,0.04,-0.03,0.02,0.0,0.0,0.0,3112,2019-04-29 17:29:33:545
0.0,-0.4,10.09,0.04,-0.18,0.1,0.0,0.0,0.0,3117,2019-04-29 17:29:33:550
0.0,-0.4,10.09,0.04,-0.18,0.1,0.0,0.0,0.0,3123,2019-04-29 17:29:33:556
0.0,-0.4,10.09,0.04,-0.18,0.1,0.0,0.0,0.0,3128,2019-04-29 17:29:33:561
0.0,-0.4,10.09,0.04,-0.18,0.1,0.0,0.0,0.0,3132,2019-04-29 17:29:33:565
-0.12,-0.34,9.9,0.04,-0.18,0.1,0.0,0.0,0.0,3137,2019-04-29 17:29:33:570
-0.12,-0.34,9.9,-0.07,-0.1,-0.07,0.0,0.0,0.0,3142,2019-04-29 17:29:33:575
-0.12,-0.34,9.9,-0.07,-0.1,-0.07,0.0,0.0,0.0,3148,2019-04-29 17:29:33:581
-0.12,-0.34,9.9,-0.07,-0.1,-0.07,0.0,0.0,0.0,3152,2019-04-29 17:29:33:585
-0.05,-0.25,9.88,0.0,0.0,-0.09,0.0,0.0,0.0,3159,2019-04-29 17:29:33:592
-0.05,-0.25,9.88,0.0,0.0,-0.09,0.0,0.0,0.0,3164,2019-04-29 17:29:33:597
-0.05,-0.25,9.88,0.0,0.0,-0.09,0.0,0.0,0.0,3167,2019-04-29 17:29:33:600
-0.05,-0.25,9.88,0.0,0.0,-0.09,0.0,0.0,0.0,3173,2019-04-29 17:29:33:606
-0.05,-0.25,9.88,0.0,0.0,-0.09,0.0,0.0,0.0,3179,2019-04-29 17:29:33:612
-0.05,-0.25,9.88,0.0,0.0,-0.09,0.0,0.0,0.0,3182,2019-04-29 17:29:33:615
-0.29,-0.36,10.1,-0.24,-0.11,0.11,0.01,0.0,-0.01,3189,2019-04-29 17:29:33:622
-0.29,-0.36,10.1,-0.24,-0.11,0.11,0.01,0.0,-0.01,3193,2019-04-29 17:29:33:626
-0.29,-0.36,10.1,-0.24,-0.11,0.11,0.01,0.0,-0.01,3197,2019-04-29 17:29:33:630
-0.29,-0.36,10.1,-0.24,-0.11,0.11,0.01,0.0,-0.01,3202,2019-04-29 17:29:33:635
-0.16,-0.18,9.87,-0.09,0.07,-0.09,0.0,0.0,-0.01,3207,2019-04-29 17:29:33:640
-0.16,-0.18,9.87,-0.09,0.07,-0.09,0.0,0.0,-0.01,3213,2019-04-29 17:29:33:646
-0.16,-0.18,9.87,-0.09,0.07,-0.09,0.0,0.0,-0.01,3218,2019-04-29 17:29:33:651
-0.16,-0.18,9.87,-0.09,0.07,-0.09,0.0,0.0,-0.01,3223,2019-04-29 17:29:33:656
-0.16,-0.18,9.87,-0.09,0.07,-0.09,0.0,0.0,-0.01,3227,2019-04-29 17:29:33:660
0.26,-0.01,9.84,0.3,0.23,-0.11,0.0,0.0,-0.02,3232,2019-04-29 17:29:33:665
0.26,-0.01,9.84,0.3,0.23,-0.11,0.0,0.0,-0.02,3238,2019-04-29 17:29:33:671
-0.03,-0.16,10.26,0.0,0.08,0.27,0.0,0.0,-0.03,3244,2019-04-29 17:29:33:677
-0.03,-0.16,10.26,0.0,0.08,0.27,0.0,0.0,-0.03,3247,2019-04-29 17:29:33:680
-0.03,-0.16,10.26,0.0,0.08,0.27,0.0,0.0,-0.03,3252,2019-04-29 17:29:33:685
-0.01,-0.34,9.98,0.01,-0.09,0.01,0.02,0.0,-0.01,3259,2019-04-29 17:29:33:692
-0.01,-0.34,9.98,0.01,-0.09,0.01,0.02,0.0,-0.01,3263,2019-04-29 17:29:33:696
-0.01,-0.34,9.98,0.01,-0.09,0.01,0.02,0.0,-0.01,3268,2019-04-29 17:29:33:701
-0.01,-0.34,9.98,0.01,-0.09,0.01,0.02,0.0,-0.01,3273,2019-04-29 17:29:33:706
-0.04,-0.07,9.54,-0.01,0.16,-0.4,0.0,0.0,0.0,3279,2019-04-29 17:29:33:712
-0.04,-0.07,9.54,-0.01,0.16,-0.4,0.0,0.0,0.0,3283,2019-04-29 17:29:33:716
-0.04,-0.07,9.54,-0.01,0.16,-0.4,0.0,0.0,0.0,3288,2019-04-29 17:29:33:721
-0.06,-0.12,10.21,-0.03,0.09,0.25,0.0,0.0,0.01,3294,2019-04-29 17:29:33:727
-0.06,-0.12,10.21,-0.03,0.09,0.25,0.0,0.0,0.01,3298,2019-04-29 17:29:33:731
-0.06,-0.12,10.21,-0.03,0.09,0.25,0.0,0.0,0.01,3302,2019-04-29 17:29:33:735
-0.06,-0.12,10.21,-0.03,0.09,0.25,0.0,0.0,0.01,3308,2019-04-29 17:29:33:741
-0.06,-0.12,10.21,-0.03,0.09,0.25,0.0,0.0,0.01,3312,2019-04-29 17:29:33:745
-0.11,-0.51,10.08,-0.03,0.09,0.25,0.01,0.0,0.02,3317,2019-04-29 17:29:33:750
-0.11,-0.51,10.08,-0.07,-0.28,0.12,0.01,0.0,0.02,3322,2019-04-29 17:29:33:755
-0.11,-0.51,10.08,-0.07,-0.28,0.12,0.01,0.0,0.02,3328,2019-04-29 17:29:33:761
-0.11,-0.51,10.08,-0.07,-0.28,0.12,0.01,0.0,0.02,3333,2019-04-29 17:29:33:766
-0.09,-0.25,9.8,-0.04,-0.03,-0.14,0.01,0.0,0.02,3339,2019-04-29 17:29:33:772
-0.09,-0.25,9.8,-0.04,-0.03,-0.14,0.01,0.0,0.02,3342,2019-04-29 17:29:33:775
-0.09,-0.25,9.8,-0.04,-0.03,-0.14,0.01,0.0,0.02,3348,2019-04-29 17:29:33:781
-0.09,-0.25,9.8,-0.04,-0.03,-0.14,0.01,0.0,0.02,3356,2019-04-29 17:29:33:789
-0.09,-0.25,9.8,-0.04,-0.03,-0.14,0.01,0.0,0.02,3357,2019-04-29 17:29:33:790
-0.11,-0.02,9.86,-0.06,0.18,-0.07,0.0,0.0,0.04,3365,2019-04-29 17:29:33:798
-0.11,-0.02,9.86,-0.06,0.18,-0.07,0.0,0.0,0.04,3367,2019-04-29 17:29:33:800
-0.11,-0.02,9.86,-0.06,0.18,-0.07,0.0,0.0,0.04,3374,2019-04-29 17:29:33:807
-0.11,-0.02,9.86,-0.06,0.18,-0.07,0.0,0.0,0.04,3377,2019-04-29 17:29:33:810
-0.06,-0.23,10.05,-0.01,-0.02,0.1,0.01,0.0,0.05,3384,2019-04-29 17:29:33:817
-0.06,-0.23,10.05,-0.01,-0.02,0.1,0.01,0.0,0.05,3387,2019-04-29 17:29:33:820
-0.06,-0.23,10.05,-0.01,-0.02,0.1,0.01,0.0,0.05,3392,2019-04-29 17:29:33:825
0.06,-0.27,10.03,0.09,-0.06,0.08,0.01,0.0,0.04,3398,2019-04-29 17:29:33:831
0.06,-0.27,10.03,0.09,-0.06,0.08,0.01,0.0,0.04,3402,2019-04-29 17:29:33:835
0.06,-0.27,10.03,0.09,-0.06,0.08,0.01,0.0,0.04,3408,2019-04-29 17:29:33:841
0.06,-0.27,10.03,0.09,-0.06,0.08,0.01,0.0,0.04,3417,2019-04-29 17:29:33:850
0.06,-0.27,10.03,0.09,-0.06,0.08,0.01,0.0,0.04,3418,2019-04-29 17:29:33:851
0.06,-0.27,10.03,0.09,-0.06,0.08,0.01,0.0,0.04,3422,2019-04-29 17:29:33:855
0.09,0.18,9.64,0.14,0.37,-0.28,0.01,0.0,0.04,3427,2019-04-29 17:29:33:860
0.09,0.18,9.64,0.14,0.37,-0.28,0.01,0.0,0.04,3433,2019-04-29 17:29:33:866
0.09,0.18,9.64,0.14,0.37,-0.28,-0.01,0.0,0.02,3438,2019-04-29 17:29:33:871
0.12,0.36,9.72,0.18,0.38,0.09,-0.01,0.0,0.02,3442,2019-04-29 17:29:33:875
0.12,0.36,9.72,0.18,0.38,0.09,-0.01,0.0,0.02,3449,2019-04-29 17:29:33:882
0.12,0.36,9.72,0.18,0.38,0.09,-0.01,0.0,0.02,3452,2019-04-29 17:29:33:885
0.12,0.36,9.72,0.18,0.38,0.09,-0.01,0.0,0.02,3457,2019-04-29 17:29:33:890
-0.04,0.01,10.29,-0.02,0.13,0.34,0.01,0.0,0.0,3463,2019-04-29 17:29:33:896
-0.04,0.01,10.29,-0.02,0.13,0.34,0.01,0.0,0.0,3467,2019-04-29 17:29:33:900
-0.04,0.01,10.29,-0.02,0.13,0.34,0.01,0.0,0.0,3472,2019-04-29 17:29:33:905
-0.04,0.01,10.29,-0.02,0.13,0.34,0.01,0.0,0.0,3478,2019-04-29 17:29:33:911
0.04,0.49,9.68,0.05,0.54,-0.26,0.03,0.0,-0.03,3482,2019-04-29 17:29:33:915
0.04,0.49,9.68,0.05,0.54,-0.26,0.03,0.0,-0.03,3489,2019-04-29 17:29:33:922
0.04,0.49,9.68,0.05,0.54,-0.26,0.03,0.0,-0.03,3494,2019-04-29 17:29:33:927
-0.09,0.51,10.06,-0.08,0.51,0.1,-0.01,0.0,-0.05,3497,2019-04-29 17:29:33:930
-0.09,0.51,10.06,-0.08,0.51,0.1,-0.01,0.0,-0.05,3502,2019-04-29 17:29:33:935
-0.09,0.51,10.06,-0.08,0.51,0.1,-0.01,0.0,-0.05,3508,2019-04-29 17:29:33:941
-0.09,0.51,10.06,-0.08,0.51,0.1,-0.01,0.0,-0.05,3512,2019-04-29 17:29:33:945
0.04,0.32,10.05,-0.08,0.51,0.1,0.0,0.0,-0.06,3517,2019-04-29 17:29:33:950
0.04,0.32,10.05,0.05,0.24,0.1,0.0,0.0,-0.06,3522,2019-04-29 17:29:33:955
0.04,0.32,10.05,0.05,0.24,0.1,0.0,0.0,-0.06,3527,2019-04-29 17:29:33:960
0.04,0.32,10.05,0.05,0.24,0.1,0.0,0.0,-0.06,3532,2019-04-29 17:29:33:965
-0.1,0.15,10.13,-0.1,0.01,0.15,0.01,0.0,-0.04,3538,2019-04-29 17:29:33:971
-0.1,0.15,10.13,-0.1,0.01,0.15,0.01,0.0,-0.04,3542,2019-04-29 17:29:33:975
-0.1,0.15,10.13,-0.1,0.01,0.15,0.01,0.0,-0.04,3548,2019-04-29 17:29:33:981
-0.1,0.15,10.13,-0.1,0.01,0.15,0.01,0.0,-0.04,3552,2019-04-29 17:29:33:985
-0.1,0.15,10.13,-0.1,0.01,0.15,0.01,0.0,-0.04,3557,2019-04-29 17:29:33:990
-0.12,0.05,9.66,-0.12,-0.1,-0.28,0.01,0.0,-0.03,3562,2019-04-29 17:29:33:995
-0.12,0.05,9.66,-0.12,-0.1,-0.28,0.01,0.0,-0.03,3568,2019-04-29 17:29:34:001
-0.12,0.05,9.66,-0.12,-0.1,-0.28,0.01,0.0,-0.03,3573,2019-04-29 17:29:34:006
-0.09,0.1,9.67,-0.08,-0.07,-0.24,0.0,0.0,-0.01,3578,2019-04-29 17:29:34:011
-0.09,0.1,9.67,-0.08,-0.07,-0.24,0.0,0.0,-0.01,3583,2019-04-29 17:29:34:016
-0.09,0.1,9.67,-0.08,-0.07,-0.24,0.0,0.0,-0.01,3587,2019-04-29 17:29:34:020
-0.09,0.1,9.67,-0.08,-0.07,-0.24,0.0,0.0,-0.01,3592,2019-04-29 17:29:34:025
-0.14,-0.15,10.02,-0.08,-0.07,-0.24,0.0,0.0,0.0,3597,2019-04-29 17:29:34:030
-0.14,-0.15,10.02,-0.13,-0.33,0.09,0.0,0.0,0.0,3602,2019-04-29 17:29:34:035
-0.14,-0.15,10.02,-0.13,-0.33,0.09,0.0,0.0,0.0,3608,2019-04-29 17:29:34:041
-0.14,-0.15,10.02,-0.13,-0.33,0.09,0.0,0.0,0.0,3613,2019-04-29 17:29:34:046
0.1,-0.8,9.71,0.12,-0.93,-0.2,0.0,0.0,0.0,3617,2019-04-29 17:29:34:050
0.1,-0.8,9.71,0.12,-0.93,-0.2,0.0,0.0,0.0,3622,2019-04-29 17:29:34:055
0.1,-0.8,9.71,0.12,-0.93,-0.2,0.0,0.0,0.0,3628,2019-04-29 17:29:34:061
0.1,-0.8,9.71,0.12,-0.93,-0.2,0.0,0.0,0.0,3633,2019-04-29 17:29:34:066
0.1,-0.8,9.71,0.12,-0.93,-0.2,0.0,0.0,0.0,3637,2019-04-29 17:29:34:070
0.02,-0.93,9.0,0.06,-0.94,-0.8,-0.01,0.0,-0.02,3642,2019-04-29 17:29:34:075
0.02,-0.93,9.0,0.06,-0.94,-0.8,-0.01,0.0,-0.02,3647,2019-04-29 17:29:34:080
0.02,-0.93,9.0,0.06,-0.94,-0.8,-0.01,0.0,-0.02,3652,2019-04-29 17:29:34:085
-0.09,-0.01,10.57,0.06,-0.94,-0.8,-0.01,0.0,-0.05,3658,2019-04-29 17:29:34:091
-0.09,-0.01,10.57,-0.05,0.02,0.73,-0.01,0.0,-0.05,3662,2019-04-29 17:29:34:095
-0.09,-0.01,10.57,-0.05,0.02,0.73,-0.01,0.0,-0.05,3668,2019-04-29 17:29:34:101
-0.09,-0.01,10.57,-0.05,0.02,0.73,-0.01,0.0,-0.05,3673,2019-04-29 17:29:34:106
0.0,-1.02,8.8,-0.05,0.02,0.73,0.0,0.0,-0.06,3678,2019-04-29 17:29:34:111
0.0,-1.02,8.8,-0.05,0.02,0.73,0.0,0.0,-0.06,3683,2019-04-29 17:29:34:116
0.0,-1.02,8.8,-0.05,0.02,0.73,0.0,0.0,-0.06,3687,2019-04-29 17:29:34:120
-0.18,-0.96,8.45,0.04,-0.87,-0.99,0.0,0.0,-0.07,3692,2019-04-29 17:29:34:125
-0.18,-0.96,8.45,0.04,-0.87,-0.99,0.0,0.0,-0.07,3698,2019-04-29 17:29:34:131
-0.18,-0.96,8.45,0.04,-0.87,-0.99,0.0,0.0,-0.07,3703,2019-04-29 17:29:34:136
-0.18,-0.96,8.45,0.04,-0.87,-0.99,0.0,0.0,-0.07,3707,2019-04-29 17:29:34:140
-0.18,-0.96,8.45,0.04,-0.87,-0.99,0.0,0.0,-0.07,3713,2019-04-29 17:29:34:146
-0.18,-0.96,8.45,0.04,-0.87,-0.99,0.0,0.0,-0.07,3717,2019-04-29 17:29:34:150
-0.18,-0.96,8.45,0.04,-0.87,-0.99,0.0,0.0,-0.07,3722,2019-04-29 17:29:34:155
0.28,0.15,10.33,0.31,0.43,0.64,-0.02,0.0,-0.04,3728,2019-04-29 17:29:34:161
0.28,0.15,10.33,0.31,0.43,0.64,-0.02,0.0,-0.04,3733,2019-04-29 17:29:34:166
0.28,0.15,10.33,0.31,0.43,0.64,-0.02,0.0,-0.04,3737,2019-04-29 17:29:34:170
0.28,0.15,10.33,0.31,0.43,0.64,-0.02,0.0,-0.04,3742,2019-04-29 17:29:34:175
-0.23,-0.62,10.2,0.31,0.43,0.64,-0.02,0.01,-0.02,3747,2019-04-29 17:29:34:180
-0.23,-0.62,10.2,-0.17,-0.26,0.51,-0.02,0.01,-0.02,3753,2019-04-29 17:29:34:186
-0.23,-0.62,10.2,-0.17,-0.26,0.51,-0.02,0.01,-0.02,3758,2019-04-29 17:29:34:191
-3.42,0.05,9.34,-3.32,0.49,-0.27,0.08,-0.08,-0.03,3763,2019-04-29 17:29:34:196
-3.42,0.05,9.34,-3.32,0.49,-0.27,0.08,-0.08,-0.03,3768,2019-04-29 17:29:34:201
-3.42,0.05,9.34,-3.32,0.49,-0.27,0.08,-0.08,-0.03,3772,2019-04-29 17:29:34:205
-2.17,0.49,5.04,-3.32,0.49,-0.27,0.08,-0.08,-0.03,3778,2019-04-29 17:29:34:211
-2.17,0.49,5.04,-1.96,0.98,-4.64,-0.07,-0.04,0.0,3783,2019-04-29 17:29:34:216
-2.17,0.49,5.04,-1.96,0.98,-4.64,-0.07,-0.04,0.0,3788,2019-04-29 17:29:34:221
-2.17,0.49,5.04,-1.96,0.98,-4.64,-0.07,-0.04,0.0,3793,2019-04-29 17:29:34:226
-2.17,0.49,5.04,-1.96,0.98,-4.64,-0.07,-0.04,0.0,3798,2019-04-29 17:29:34:231
-2.17,0.49,5.04,-1.96,0.98,-4.64,-0.07,-0.04,0.0,3803,2019-04-29 17:29:34:236
-2.17,0.49,5.04,-1.96,0.98,-4.64,-0.07,-0.04,0.0,3808,2019-04-29 17:29:34:241
1.72,-3.7,16.27,1.75,-3.0,6.25,-0.04,-0.05,0.0,3812,2019-04-29 17:29:34:245
1.72,-3.7,16.27,1.75,-3.0,6.25,-0.04,-0.05,0.0,3818,2019-04-29 17:29:34:251
1.72,-3.7,16.27,1.75,-3.0,6.25,-0.04,-0.05,0.0,3823,2019-04-29 17:29:34:256
3.11,-0.67,10.94,1.75,-3.0,6.25,0.1,0.15,0.0,3828,2019-04-29 17:29:34:261
3.11,-0.67,10.94,3.16,-0.15,1.08,0.1,0.15,0.0,3832,2019-04-29 17:29:34:265
3.11,-0.67,10.94,3.16,-0.15,1.08,0.1,0.15,0.0,3837,2019-04-29 17:29:34:270
2.01,2.68,5.09,2.02,3.22,-4.78,-0.01,-0.04,-0.07,3842,2019-04-29 17:29:34:275
2.01,2.68,5.09,2.02,3.22,-4.78,-0.01,-0.04,-0.07,3848,2019-04-29 17:29:34:281
2.01,2.68,5.09,2.02,3.22,-4.78,-0.01,-0.04,-0.07,3853,2019-04-29 17:29:34:286
2.01,2.68,5.09,2.02,3.22,-4.78,-0.01,-0.04,-0.07,3857,2019-04-29 17:29:34:290
-0.61,-2.27,13.56,-0.5,-1.61,3.51,-0.08,0.02,-0.01,3863,2019-04-29 17:29:34:296
-0.61,-2.27,13.56,-0.5,-1.61,3.51,-0.08,0.02,-0.01,3868,2019-04-29 17:29:34:301
-0.61,-2.27,13.56,-0.5,-1.61,3.51,-0.08,0.02,-0.01,3873,2019-04-29 17:29:34:306
-1.71,-0.85,10.07,-1.57,-0.32,0.1,0.06,0.01,0.05,3877,2019-04-29 17:29:34:310
-1.71,-0.85,10.07,-1.57,-0.32,0.1,0.06,0.01,0.05,3883,2019-04-29 17:29:34:316
-1.71,-0.85,10.07,-1.57,-0.32,0.1,0.06,0.01,0.05,3888,2019-04-29 17:29:34:321
-1.71,-0.85,10.07,-1.57,-0.32,0.1,0.06,0.01,0.05,3893,2019-04-29 17:29:34:326
-1.71,-0.85,10.07,-1.57,-0.32,0.1,0.06,0.01,0.05,3897,2019-04-29 17:29:34:330
-1.71,-0.85,10.07,-1.57,-0.32,0.1,0.06,0.01,0.05,3903,2019-04-29 17:29:34:336
-2.28,0.67,7.6,-1.57,-0.32,0.1,0.04,-0.04,0.03,3907,2019-04-29 17:29:34:340
-2.28,0.67,7.6,-2.1,1.15,-2.44,0.04,-0.04,0.03,3912,2019-04-29 17:29:34:345
-2.28,0.67,7.6,-2.1,1.15,-2.44,0.04,-0.04,0.03,3917,2019-04-29 17:29:34:350
-2.28,0.67,7.6,-2.1,1.15,-2.44,0.04,-0.04,0.03,3923,2019-04-29 17:29:34:356
-1.71,-0.45,10.36,-2.1,1.15,-2.44,0.04,-0.04,0.03,3927,2019-04-29 17:29:34:360
-1.71,-0.45,10.36,-1.53,0.02,0.29,-0.05,-0.03,0.06,3932,2019-04-29 17:29:34:365
-1.71,-0.45,10.36,-1.53,0.02,0.29,-0.05,-0.03,0.06,3937,2019-04-29 17:29:34:370
-1.71,-0.45,10.36,-1.53,0.02,0.29,-0.05,-0.03,0.06,3942,2019-04-29 17:29:34:375
-1.71,-0.45,10.36,-1.53,0.02,0.29,-0.05,-0.03,0.06,3948,2019-04-29 17:29:34:381
-1.71,-0.45,10.36,-1.53,0.02,0.29,-0.05,-0.03,0.06,3953,2019-04-29 17:29:34:386
-0.64,0.03,10.16,-0.56,0.37,0.09,-0.01,-0.01,0.06,3958,2019-04-29 17:29:34:391
-0.64,0.03,10.16,-0.56,0.37,0.09,-0.01,-0.01,0.06,3962,2019-04-29 17:29:34:395
-0.64,0.03,10.16,-0.56,0.37,0.09,-0.01,-0.01,0.06,3968,2019-04-29 17:29:34:401
-0.64,0.03,10.16,-0.56,0.37,0.09,-0.01,-0.01,0.06,3973,2019-04-29 17:29:34:406
0.47,0.83,9.42,-0.56,0.37,0.09,-0.01,0.0,0.01,3978,2019-04-29 17:29:34:411
0.47,0.83,9.42,0.3,0.97,-0.66,-0.01,0.0,0.01,3983,2019-04-29 17:29:34:416
0.47,0.83,9.42,0.3,0.97,-0.66,-0.01,0.0,0.01,3987,2019-04-29 17:29:34:420
0.47,0.83,9.42,0.3,0.97,-0.66,-0.01,0.0,0.01,3993,2019-04-29 17:29:34:426
0.47,0.83,9.42,0.3,0.97,-0.66,-0.01,0.0,0.01,3998,2019-04-29 17:29:34:431
0.47,0.83,9.42,0.3,0.97,-0.66,-0.01,0.0,0.01,4002,2019-04-29 17:29:34:435
1.13,0.59,9.99,1.12,0.5,0.21,-0.06,0.01,-0.02,4007,2019-04-29 17:29:34:440
1.13,0.59,9.99,1.12,0.5,0.21,-0.06,0.01,-0.02,4013,2019-04-29 17:29:34:446
1.13,0.59,9.99,1.12,0.5,0.21,-0.06,0.01,-0.02,4018,2019-04-29 17:29:34:451
1.13,0.59,9.99,1.12,0.5,0.21,-0.06,0.01,-0.02,4023,2019-04-29 17:29:34:456
-1.32,-0.01,9.37,-1.31,-0.22,-0.39,-0.06,-0.02,0.01,4028,2019-04-29 17:29:34:461
-1.32,-0.01,9.37,-1.31,-0.22,-0.39,-0.06,-0.02,0.01,4033,2019-04-29 17:29:34:466
-1.32,-0.01,9.37,-1.31,-0.22,-0.39,-0.06,-0.02,0.01,4037,2019-04-29 17:29:34:470
-1.32,-0.01,9.37,-1.31,-0.22,-0.39,-0.06,-0.02,0.01,4042,2019-04-29 17:29:34:475
-1.32,-0.01,9.37,-1.31,-0.22,-0.39,-0.06,-0.02,0.01,4047,2019-04-29 17:29:34:480
1.17,0.43,9.71,1.22,0.32,-0.28,0.02,0.02,-0.04,4053,2019-04-29 17:29:34:486
1.17,0.43,9.71,1.22,0.32,-0.28,0.02,0.02,-0.04,4058,2019-04-29 17:29:34:491
1.17,0.43,9.71,1.22,0.32,-0.28,0.02,0.02,-0.04,4063,2019-04-29 17:29:34:496
1.17,0.43,9.71,1.22,0.32,-0.28,0.02,0.02,-0.04,4067,2019-04-29 17:29:34:500
1.17,0.43,9.71,1.22,0.32,-0.28,0.02,0.02,-0.04,4072,2019-04-29 17:29:34:505
0.06,-0.5,10.37,1.22,0.32,-0.28,-0.03,0.0,-0.02,4078,2019-04-29 17:29:34:511
0.06,-0.5,10.37,0.01,-0.63,0.4,-0.03,0.0,-0.02,4083,2019-04-29 17:29:34:516
0.06,-0.5,10.37,0.01,-0.63,0.4,-0.03,0.0,-0.02,4087,2019-04-29 17:29:34:520
-0.59,-0.6,10.13,-0.66,-0.71,0.16,0.02,0.0,0.0,4093,2019-04-29 17:29:34:526
-0.59,-0.6,10.13,-0.66,-0.71,0.16,0.02,0.0,0.0,4097,2019-04-29 17:29:34:530
-0.59,-0.6,10.13,-0.66,-0.71,0.16,0.02,0.0,0.0,4103,2019-04-29 17:29:34:536
-1.17,0.63,9.97,-0.66,-0.71,0.16,0.0,0.0,0.0,4108,2019-04-29 17:29:34:541
-1.17,0.63,9.97,-1.22,0.46,0.0,0.0,0.0,0.0,4113,2019-04-29 17:29:34:546
-1.17,0.63,9.97,-1.22,0.46,0.0,0.0,0.0,0.0,4118,2019-04-29 17:29:34:551
-1.17,0.63,9.97,-1.22,0.46,0.0,0.0,0.0,0.0,4122,2019-04-29 17:29:34:555
-1.17,0.63,9.97,-1.22,0.46,0.0,0.0,0.0,0.0,4127,2019-04-29 17:29:34:560
-1.17,0.63,9.97,-1.22,0.46,0.0,0.0,0.0,0.0,4133,2019-04-29 17:29:34:566
-1.17,0.63,9.97,-1.22,0.46,0.0,0.0,0.0,0.0,4138,2019-04-29 17:29:34:571
-1.11,-0.49,9.11,-1.11,-0.57,-0.85,-0.05,-0.02,0.0,4143,2019-04-29 17:29:34:576
-1.11,-0.49,9.11,-1.11,-0.57,-0.85,-0.05,-0.02,0.0,4148,2019-04-29 17:29:34:581
-1.11,-0.49,9.11,-1.11,-0.57,-0.85,-0.05,-0.02,0.0,4153,2019-04-29 17:29:34:586
-1.11,-0.49,9.11,-1.11,-0.57,-0.85,-0.05,-0.02,0.0,4158,2019-04-29 17:29:34:591
-0.85,-0.04,11.45,-0.8,-0.08,1.43,-0.01,-0.01,0.0,4162,2019-04-29 17:29:34:595
-0.85,-0.04,11.45,-0.8,-0.08,1.43,-0.01,-0.01,0.0,4168,2019-04-29 17:29:34:601
-0.85,-0.04,11.45,-0.8,-0.08,1.43,-0.01,-0.01,0.0,4172,2019-04-29 17:29:34:605
-0.45,1.26,11.02,-0.8,-0.08,1.43,0.05,0.0,0.0,4177,2019-04-29 17:29:34:610
-0.45,1.26,11.02,-0.38,1.09,0.84,0.05,0.0,0.0,4183,2019-04-29 17:29:34:616
-0.45,1.26,11.02,-0.38,1.09,0.84,0.05,0.0,0.0,4188,2019-04-29 17:29:34:621
-0.45,1.26,11.02,-0.38,1.09,0.84,0.05,0.0,0.0,4193,2019-04-29 17:29:34:626
-0.04,-0.61,8.15,-0.38,1.09,0.84,-0.01,0.0,0.0,4198,2019-04-29 17:29:34:631
-0.04,-0.61,8.15,-0.38,1.09,0.84,-0.01,0.0,0.0,4203,2019-04-29 17:29:34:636
-0.04,-0.61,8.15,-0.38,1.09,0.84,-0.01,0.0,0.0,4208,2019-04-29 17:29:34:641
-0.37,-1.49,10.25,0.03,-0.72,-1.91,0.03,0.0,0.0,4212,2019-04-29 17:29:34:645
-0.37,-1.49,10.25,0.03,-0.72,-1.91,0.03,0.0,0.0,4218,2019-04-29 17:29:34:651
-0.37,-1.49,10.25,0.03,-0.72,-1.91,0.03,0.0,0.0,4223,2019-04-29 17:29:34:656
0.48,-1.57,9.93,0.57,-1.47,-0.19,0.05,0.0,0.0,4227,2019-04-29 17:29:34:660
0.48,-1.57,9.93,0.57,-1.47,-0.19,0.05,0.0,0.0,4233,2019-04-29 17:29:34:666
0.48,-1.57,9.93,0.57,-1.47,-0.19,0.05,0.0,0.0,4237,2019-04-29 17:29:34:670
0.48,-1.57,9.93,-0.46,-2.0,-1.72,0.05,0.0,0.0,4242,2019-04-29 17:29:34:675
0.48,-1.57,9.93,-0.46,-2.0,-1.72,0.05,0.0,0.0,4248,2019-04-29 17:29:34:681
0.48,-1.57,9.93,-0.46,-2.0,-1.72,0.05,0.0,0.0,4253,2019-04-29 17:29:34:686
0.48,-1.57,9.93,-0.46,-2.0,-1.72,0.05,0.0,0.0,4258,2019-04-29 17:29:34:691
0.59,-1.58,8.97,0.67,-1.3,-1.01,0.03,0.0,0.0,4263,2019-04-29 17:29:34:696
0.59,-1.58,8.97,0.67,-1.3,-1.01,0.03,0.0,0.0,4268,2019-04-29 17:29:34:701
0.59,-1.58,8.97,0.67,-1.3,-1.01,0.03,0.0,0.0,4273,2019-04-29 17:29:34:706
0.44,-0.49,10.54,0.67,-1.3,-1.01,-0.06,0.0,-0.02,4277,2019-04-29 17:29:34:710
0.44,-0.49,10.54,0.49,-0.11,0.48,-0.06,0.0,-0.02,4282,2019-04-29 17:29:34:715
0.44,-0.49,10.54,0.49,-0.11,0.48,-0.06,0.0,-0.02,4287,2019-04-29 17:29:34:720
0.43,-1.46,10.42,0.46,-0.97,0.28,0.01,0.0,-0.04,4292,2019-04-29 17:29:34:725
0.43,-1.46,10.42,0.46,-0.97,0.28,0.01,0.0,-0.04,4298,2019-04-29 17:29:34:731
0.43,-1.46,10.42,0.46,-0.97,0.28,0.01,0.0,-0.04,4303,2019-04-29 17:29:34:736
0.43,-1.46,10.42,0.46,-0.97,0.28,0.01,0.0,-0.04,4307,2019-04-29 17:29:34:740
0.28,-1.4,9.97,0.29,-0.74,-0.03,0.06,0.0,-0.08,4312,2019-04-29 17:29:34:745
0.28,-1.4,9.97,0.29,-0.74,-0.03,0.06,0.0,-0.08,4318,2019-04-29 17:29:34:751
0.28,-1.4,9.97,0.29,-0.74,-0.03,0.06,0.0,-0.08,4323,2019-04-29 17:29:34:756
0.01,-0.78,9.07,0.0,-0.04,-0.9,0.0,0.0,-0.09,4327,2019-04-29 17:29:34:760
0.01,-0.78,9.07,0.0,-0.04,-0.9,0.0,0.0,-0.09,4333,2019-04-29 17:29:34:766
0.01,-0.78,9.07,0.0,-0.04,-0.9,0.0,0.0,-0.09,4338,2019-04-29 17:29:34:771
0.01,-0.78,9.07,0.35,-0.55,0.55,0.0,0.0,-0.09,4343,2019-04-29 17:29:34:776
0.01,-0.78,9.07,0.35,-0.55,0.55,0.0,0.0,-0.09,4348,2019-04-29 17:29:34:781
0.01,-0.78,9.07,0.35,-0.55,0.55,0.0,0.0,-0.09,4352,2019-04-29 17:29:34:785
0.01,-0.78,9.07,0.35,-0.55,0.55,0.0,0.0,-0.09,4358,2019-04-29 17:29:34:791
-0.24,-0.97,10.34,-0.27,-0.11,0.35,-0.01,0.0,-0.08,4363,2019-04-29 17:29:34:796
-0.24,-0.97,10.34,-0.27,-0.11,0.35,-0.01,0.0,-0.08,4367,2019-04-29 17:29:34:800
-0.24,-0.97,10.34,-0.27,-0.11,0.35,-0.01,0.0,-0.08,4373,2019-04-29 17:29:34:806
-0.49,-1.13,10.41,-0.27,-0.11,0.35,-0.01,0.0,-0.08,4377,2019-04-29 17:29:34:810
-0.49,-1.13,10.41,-0.51,-0.05,0.55,0.05,0.0,-0.03,4382,2019-04-29 17:29:34:815
-0.49,-1.13,10.41,-0.51,-0.05,0.55,0.05,0.0,-0.03,4387,2019-04-29 17:29:34:820
-0.41,-0.22,9.88,-0.42,0.83,-0.08,0.06,0.0,0.01,4393,2019-04-29 17:29:34:826
-0.41,-0.22,9.88,-0.42,0.83,-0.08,0.06,0.0,0.01,4397,2019-04-29 17:29:34:830
-0.41,-0.22,9.88,-0.42,0.83,-0.08,0.06,0.0,0.01,4403,2019-04-29 17:29:34:836
-0.41,-0.22,9.88,-0.42,0.83,-0.08,0.06,0.0,0.01,4407,2019-04-29 17:29:34:840
-0.41,0.22,9.99,-0.38,1.19,0.05,0.01,0.0,0.04,4412,2019-04-29 17:29:34:845
-0.41,0.22,9.99,-0.38,1.19,0.05,0.01,0.0,0.04,4418,2019-04-29 17:29:34:851
-0.41,0.22,9.99,-0.38,1.19,0.05,0.01,0.0,0.04,4423,2019-04-29 17:29:34:856
-0.41,0.22,9.99,-0.38,1.19,0.05,0.01,0.0,0.04,4427,2019-04-29 17:29:34:860
-0.41,0.22,9.99,-0.38,1.19,0.05,0.01,0.0,0.04,4432,2019-04-29 17:29:34:865
-0.41,0.22,9.99,-0.38,1.19,0.05,0.01,0.0,0.04,4437,2019-04-29 17:29:34:870
-0.34,-0.01,10.62,-0.3,0.83,0.6,0.03,0.0,0.05,4442,2019-04-29 17:29:34:875
-0.34,-0.01,10.62,-0.3,0.83,0.6,0.03,0.0,0.05,4447,2019-04-29 17:29:34:880
-0.34,-0.01,10.62,-0.3,0.83,0.6,0.03,0.0,0.05,4453,2019-04-29 17:29:34:886
-0.34,-0.01,10.62,-0.3,0.83,0.6,0.03,0.0,0.05,4457,2019-04-29 17:29:34:890
0.07,-0.77,9.88,0.12,-0.08,-0.25,0.06,0.0,0.06,4462,2019-04-29 17:29:34:895
0.07,-0.77,9.88,0.12,-0.08,-0.25,0.06,0.0,0.06,4468,2019-04-29 17:29:34:901
0.07,-0.77,9.88,0.12,-0.08,-0.25,0.06,0.0,0.06,4473,2019-04-29 17:29:34:906
0.04,-0.88,10.37,0.12,-0.08,-0.25,0.03,0.0,0.05,4477,2019-04-29 17:29:34:910
0.04,-0.88,10.37,0.1,-0.22,0.31,0.03,0.0,0.05,4483,2019-04-29 17:29:34:916
0.04,-0.88,10.37,0.1,-0.22,0.31,0.03,0.0,0.05,4488,2019-04-29 17:29:34:921
0.13,-1.25,9.42,0.18,-0.56,-0.6,0.02,0.0,0.05,4493,2019-04-29 17:29:34:926
0.13,-1.25,9.42,0.18,-0.56,-0.6,0.02,0.0,0.05,4498,2019-04-29 17:29:34:931
0.13,-1.25,9.42,0.18,-0.56,-0.6,0.02,0.0,0.05,4503,2019-04-29 17:29:34:936
0.38,-1.92,10.56,0.42,-1.17,0.46,0.03,-0.01,0.03,4516,2019-04-29 17:29:34:949
0.38,-1.92,10.56,0.42,-1.17,0.46,0.03,-0.01,0.03,4517,2019-04-29 17:29:34:950
0.38,-1.92,10.56,0.42,-1.17,0.46,0.03,-0.01,0.03,4517,2019-04-29 17:29:34:950
0.38,-1.92,10.56,0.42,-1.17,0.46,0.03,-0.01,0.03,4523,2019-04-29 17:29:34:956
-0.1,-0.93,11.11,-0.06,-0.19,0.89,0.07,-0.01,0.03,4527,2019-04-29 17:29:34:960
-0.1,-0.93,11.11,-0.06,-0.19,0.89,0.07,-0.01,0.03,4532,2019-04-29 17:29:34:965
-0.1,-0.93,11.11,-0.06,-0.19,0.89,0.07,-0.01,0.03,4538,2019-04-29 17:29:34:971
-0.1,-0.93,11.11,-0.17,-0.03,1.0,0.07,-0.01,0.03,4543,2019-04-29 17:29:34:976
-0.1,-0.93,11.11,-0.17,-0.03,1.0,0.07,-0.01,0.03,4547,2019-04-29 17:29:34:980
-0.1,-0.93,11.11,-0.17,-0.03,1.0,0.07,-0.01,0.03,4553,2019-04-29 17:29:34:986
-0.1,-0.93,11.11,-0.17,-0.03,1.0,0.07,-0.01,0.03,4557,2019-04-29 17:29:34:990
-0.44,-0.24,10.16,-0.36,0.41,-0.07,0.08,-0.02,0.05,4563,2019-04-29 17:29:34:996
-0.44,-0.24,10.16,-0.36,0.41,-0.07,0.08,-0.02,0.05,4567,2019-04-29 17:29:35:000
-0.44,-0.24,10.16,-0.36,0.41,-0.07,0.08,-0.02,0.05,4574,2019-04-29 17:29:35:007
-1.23,0.49,9.96,-0.36,0.41,-0.07,0.09,-0.02,0.08,4577,2019-04-29 17:29:35:010
-1.23,0.49,9.96,-1.05,1.06,-0.27,0.09,-0.02,0.08,4583,2019-04-29 17:29:35:016
-1.23,0.49,9.96,-1.05,1.06,-0.27,0.09,-0.02,0.08,4588,2019-04-29 17:29:35:021
-1.09,1.59,10.46,-0.8,1.94,0.17,0.13,-0.07,0.16,4592,2019-04-29 17:29:35:025
-1.09,1.59,10.46,-0.8,1.94,0.17,0.13,-0.07,0.16,4597,2019-04-29 17:29:35:030
-1.09,1.59,10.46,-0.8,1.94,0.17,0.13,-0.07,0.16,4603,2019-04-29 17:29:35:036
-0.99,0.18,8.1,-0.59,0.5,-1.98,0.11,-0.02,0.22,4607,2019-04-29 17:29:35:040
-0.99,0.18,8.1,-0.59,0.5,-1.98,0.11,-0.02,0.22,4613,2019-04-29 17:29:35:046
-0.99,0.18,8.1,-0.59,0.5,-1.98,0.11,-0.02,0.22,4618,2019-04-29 17:29:35:051
-0.99,0.18,8.1,-0.59,0.5,-1.98,0.11,-0.02,0.22,4623,2019-04-29 17:29:35:056
-1.29,1.09,10.16,-0.81,1.29,0.23,0.05,0.0,0.27,4628,2019-04-29 17:29:35:061
-1.29,1.09,10.16,-0.81,1.29,0.23,0.05,0.0,0.27,4632,2019-04-29 17:29:35:065
-1.29,1.09,10.16,-0.81,1.29,0.23,0.05,0.0,0.27,4637,2019-04-29 17:29:35:070
-1.29,1.09,10.16,-0.81,1.29,0.23,0.05,0.0,0.27,4643,2019-04-29 17:29:35:076
-1.29,1.09,10.16,-0.81,1.29,0.23,0.05,0.0,0.27,4648,2019-04-29 17:29:35:081
-1.29,1.09,10.16,-0.81,1.29,0.23,0.05,0.0,0.27,4653,2019-04-29 17:29:35:086
-1.29,1.09,10.16,-0.81,1.29,0.23,0.05,0.0,0.27,4658,2019-04-29 17:29:35:091
1.38,3.93,13.85,1.86,3.7,3.62,0.05,-0.01,0.3,4662,2019-04-29 17:29:35:095
1.38,3.93,13.85,1.86,3.7,3.62,0.05,-0.01,0.3,4668,2019-04-29 17:29:35:101
1.38,3.93,13.85,1.86,3.7,3.62,0.05,-0.01,0.3,4673,2019-04-29 17:29:35:106
0.81,1.73,9.64,1.33,1.27,-0.6,0.03,-0.01,0.23,4678,2019-04-29 17:29:35:111
0.81,1.73,9.64,1.33,1.27,-0.6,0.03,-0.01,0.23,4683,2019-04-29 17:29:35:116
0.81,1.73,9.64,1.33,1.27,-0.6,0.03,-0.01,0.23,4688,2019-04-29 17:29:35:121
0.81,1.73,9.64,1.33,1.27,-0.6,0.03,-0.01,0.23,4692,2019-04-29 17:29:35:125
0.61,0.13,8.58,1.33,1.27,-0.6,0.0,-0.02,0.23,4698,2019-04-29 17:29:35:131
0.61,0.13,8.58,1.1,-0.48,-1.57,0.0,-0.02,0.23,4702,2019-04-29 17:29:35:135
0.61,0.13,8.58,1.1,-0.48,-1.57,0.0,-0.02,0.23,4708,2019-04-29 17:29:35:141
0.66,1.01,11.87,1.1,-0.48,-1.57,0.05,-0.01,0.23,4712,2019-04-29 17:29:35:145
0.66,1.01,11.87,1.1,-0.48,-1.57,0.05,-0.01,0.23,4718,2019-04-29 17:29:35:151
0.66,1.01,11.87,1.1,-0.48,-1.57,0.05,-0.01,0.23,4723,2019-04-29 17:29:35:156
0.43,1.62,8.55,1.1,-0.48,-1.57,0.04,0.02,0.18,4727,2019-04-29 17:29:35:160
0.43,1.62,8.55,0.83,0.41,-1.59,0.04,0.02,0.18,4732,2019-04-29 17:29:35:165
0.43,1.62,8.55,0.83,0.41,-1.59,0.04,0.02,0.18,4737,2019-04-29 17:29:35:170
0.43,1.62,8.55,0.83,0.41,-1.59,0.04,0.02,0.18,4743,2019-04-29 17:29:35:176
0.43,1.62,8.55,0.83,0.41,-1.59,0.04,0.02,0.18,4747,2019-04-29 17:29:35:180
0.43,1.62,8.55,0.83,0.41,-1.59,0.04,0.02,0.18,4753,2019-04-29 17:29:35:186
0.43,1.62,8.55,0.83,0.41,-1.59,0.04,0.02,0.18,4758,2019-04-29 17:29:35:191
-0.44,2.1,11.01,-0.12,0.68,0.84,-0.05,-0.02,0.16,4762,2019-04-29 17:29:35:195
-0.44,2.1,11.01,-0.12,0.68,0.84,-0.05,-0.02,0.16,4767,2019-04-29 17:29:35:200
-0.44,2.1,11.01,-0.12,0.68,0.84,-0.05,-0.02,0.16,4772,2019-04-29 17:29:35:205
1.84,0.37,8.7,1.99,-1.15,-1.11,-0.06,0.06,0.16,4778,2019-04-29 17:29:35:211
1.84,0.37,8.7,1.99,-1.15,-1.11,-0.06,0.06,0.16,4782,2019-04-29 17:29:35:215
1.84,0.37,8.7,1.99,-1.15,-1.11,-0.06,0.06,0.16,4788,2019-04-29 17:29:35:221
1.84,0.37,8.7,1.99,-1.15,-1.11,-0.06,0.06,0.16,4792,2019-04-29 17:29:35:225
2.25,3.84,9.42,1.99,-1.15,-1.11,-0.15,0.03,0.12,4798,2019-04-29 17:29:35:231
2.25,3.84,9.42,2.16,2.31,-0.26,-0.15,0.03,0.12,4804,2019-04-29 17:29:35:237
1.88,1.62,12.9,2.16,2.31,-0.26,-0.18,0.04,0.08,4809,2019-04-29 17:29:35:242
1.88,1.62,12.9,1.07,-0.06,-0.35,-0.18,0.04,0.08,4812,2019-04-29 17:29:35:245
1.88,1.62,12.9,1.07,-0.06,-0.35,-0.18,0.04,0.08,4817,2019-04-29 17:29:35:250
1.88,1.62,12.9,1.07,-0.06,-0.35,-0.18,0.04,0.08,4823,2019-04-29 17:29:35:256
1.88,1.62,12.9,1.07,-0.06,-0.35,-0.18,0.04,0.08,4828,2019-04-29 17:29:35:261
2.05,-1.81,11.41,1.44,-3.3,1.04,-0.1,0.05,0.04,4833,2019-04-29 17:29:35:266
2.05,-1.81,11.41,1.44,-3.3,1.04,-0.1,0.05,0.04,4838,2019-04-29 17:29:35:271
2.05,-1.81,11.41,1.44,-3.3,1.04,-0.1,0.05,0.04,4843,2019-04-29 17:29:35:276
0.88,0.45,9.48,1.44,-3.3,1.04,0.02,0.01,-0.08,4848,2019-04-29 17:29:35:281
0.88,0.45,9.48,0.16,-0.6,-0.62,0.02,0.01,-0.08,4852,2019-04-29 17:29:35:285
0.88,0.45,9.48,0.16,-0.6,-0.62,0.02,0.01,-0.08,4857,2019-04-29 17:29:35:290
0.88,0.45,9.48,0.16,-0.6,-0.62,0.02,0.01,-0.08,4862,2019-04-29 17:29:35:295
0.88,0.45,9.48,0.16,-0.6,-0.62,0.02,0.01,-0.08,4867,2019-04-29 17:29:35:300
0.88,0.45,9.48,0.16,-0.6,-0.62,0.02,0.01,-0.08,4872,2019-04-29 17:29:35:305
1.77,-1.59,11.01,0.94,-2.41,0.83,-0.01,0.0,-0.17,4878,2019-04-29 17:29:35:311
1.77,-1.59,11.01,0.94,-2.41,0.83,-0.01,0.0,-0.17,4883,2019-04-29 17:29:35:316
1.77,-1.59,11.01,0.94,-2.41,0.83,-0.01,0.0,-0.17,4887,2019-04-29 17:29:35:320
0.69,-1.08,7.03,-0.12,-1.76,-2.93,-0.03,0.01,-0.24,4893,2019-04-29 17:29:35:326
0.69,-1.08,7.03,-0.12,-1.76,-2.93,-0.03,0.01,-0.24,4897,2019-04-29 17:29:35:330
0.69,-1.08,7.03,-0.12,-1.76,-2.93,-0.03,0.01,-0.24,4903,2019-04-29 17:29:35:336
0.69,-1.08,7.03,-0.12,-1.76,-2.93,-0.03,0.01,-0.24,4908,2019-04-29 17:29:35:341
-1.14,2.01,10.19,-1.75,1.37,0.33,-0.1,0.04,-0.24,4913,2019-04-29 17:29:35:346
-1.14,2.01,10.19,-1.75,1.37,0.33,-0.1,0.04,-0.24,4917,2019-04-29 17:29:35:350
-1.14,2.01,10.19,-1.75,1.37,0.33,-0.1,0.04,-0.24,4923,2019-04-29 17:29:35:356
-1.18,0.75,12.67,-1.75,1.37,0.33,-0.16,0.0,-0.09,4927,2019-04-29 17:29:35:360
-1.18,0.75,12.67,-1.58,0.26,2.57,-0.16,0.0,-0.09,4933,2019-04-29 17:29:35:366
-1.18,0.75,12.67,-1.58,0.26,2.57,-0.16,0.0,-0.09,4937,2019-04-29 17:29:35:370
-1.18,0.75,12.67,-1.58,0.26,2.57,-0.16,0.0,-0.09,4942,2019-04-29 17:29:35:375
-1.18,0.75,12.67,-1.58,0.26,2.57,-0.16,0.0,-0.09,4947,2019-04-29 17:29:35:380
-1.18,0.75,12.67,-1.58,0.26,2.57,-0.16,0.0,-0.09,4953,2019-04-29 17:29:35:386
-1.18,0.75,12.67,-1.58,0.26,2.57,-0.16,0.0,-0.09,4957,2019-04-29 17:29:35:390
-2.28,-0.15,9.84,-2.41,-0.54,-0.19,0.0,0.03,-0.01,4962,2019-04-29 17:29:35:395
-2.28,-0.15,9.84,-2.41,-0.54,-0.19,0.0,0.03,-0.01,4968,2019-04-29 17:29:35:401
-2.28,-0.15,9.84,-2.41,-0.54,-0.19,0.0,0.03,-0.01,4973,2019-04-29 17:29:35:406
-0.47,-0.89,8.82,-0.49,-1.09,-1.48,-0.01,-0.01,0.06,4978,2019-04-29 17:29:35:411
-0.47,-0.89,8.82,-0.49,-1.09,-1.48,-0.01,-0.01,0.06,4983,2019-04-29 17:29:35:416
-0.47,-0.89,8.82,-0.49,-1.09,-1.48,-0.01,-0.01,0.06,4988,2019-04-29 17:29:35:421
1.59,-0.14,9.63,1.57,-0.04,-0.74,-0.11,0.01,0.09,4993,2019-04-29 17:29:35:426
1.59,-0.14,9.63,1.57,-0.04,-0.74,-0.11,0.01,0.09,4998,2019-04-29 17:29:35:431
1.59,-0.14,9.63,1.57,-0.04,-0.74,-0.11,0.01,0.09,5003,2019-04-29 17:29:35:436
1.44,-0.14,10.45,1.43,0.13,0.36,-0.07,0.0,0.04,5009,2019-04-29 17:29:35:442
1.44,-0.14,10.45,1.43,0.13,0.36,-0.07,0.0,0.04,5012,2019-04-29 17:29:35:445
1.44,-0.14,10.45,1.43,0.13,0.36,-0.07,0.0,0.04,5017,2019-04-29 17:29:35:450
1.44,-0.14,10.45,1.43,0.13,0.36,-0.07,0.0,0.04,5022,2019-04-29 17:29:35:455
-1.77,-0.56,11.28,1.43,0.13,0.36,0.19,-0.07,0.01,5027,2019-04-29 17:29:35:460
-1.77,-0.56,11.28,-1.66,-0.39,1.39,0.19,-0.07,0.01,5032,2019-04-29 17:29:35:465
-1.77,-0.56,11.28,-1.66,-0.39,1.39,0.19,-0.07,0.01,5038,2019-04-29 17:29:35:471
-1.77,-0.56,11.28,-1.66,-0.39,1.39,0.19,-0.07,0.01,5042,2019-04-29 17:29:35:475
-1.77,-0.56,11.28,-1.66,-0.39,1.39,0.19,-0.07,0.01,5047,2019-04-29 17:29:35:480
-1.77,-0.56,11.28,-1.66,-0.39,1.39,0.19,-0.07,0.01,5053,2019-04-29 17:29:35:486
-1.77,-0.56,11.28,-1.66,-0.39,1.39,0.19,-0.07,0.01,5057,2019-04-29 17:29:35:490
-2.88,2.45,12.6,-2.71,2.43,2.42,-0.13,0.0,0.05,5063,2019-04-29 17:29:35:496
-2.88,2.45,12.6,-2.71,2.43,2.42,-0.13,0.0,0.05,5068,2019-04-29 17:29:35:501
-2.88,2.45,12.6,-2.71,2.43,2.42,-0.13,0.0,0.05,5073,2019-04-29 17:29:35:506
-0.63,1.18,9.08,-0.4,0.98,-1.17,-0.16,-0.02,-0.02,5077,2019-04-29 17:29:35:510
-0.63,1.18,9.08,-0.4,0.98,-1.17,-0.16,-0.02,-0.02,5083,2019-04-29 17:29:35:516
-0.63,1.18,9.08,-0.4,0.98,-1.17,-0.16,-0.02,-0.02,5088,2019-04-29 17:29:35:521
-0.63,1.18,9.08,-0.4,0.98,-1.17,-0.16,-0.02,-0.02,5092,2019-04-29 17:29:35:525
0.59,-1.44,13.05,-0.4,0.98,-1.17,0.1,-0.01,-0.09,5098,2019-04-29 17:29:35:531
0.59,-1.44,13.05,0.89,-1.77,2.47,0.1,-0.01,-0.09,5103,2019-04-29 17:29:35:536
0.59,-1.44,13.05,0.89,-1.77,2.47,0.1,-0.01,-0.09,5107,2019-04-29 17:29:35:540
0.68,0.66,10.24,0.89,-1.77,2.47,0.08,0.05,-0.06,5112,2019-04-29 17:29:35:545
0.68,0.66,10.24,0.89,-1.77,2.47,0.08,0.05,-0.06,5118,2019-04-29 17:29:35:551
0.68,0.66,10.24,0.89,-1.77,2.47,0.08,0.05,-0.06,5122,2019-04-29 17:29:35:555
0.68,0.66,10.24,0.89,-1.77,2.47,0.08,0.05,-0.06,5128,2019-04-29 17:29:35:561
0.68,0.66,10.24,0.89,-1.77,2.47,0.08,0.05,-0.06,5133,2019-04-29 17:29:35:566
1.58,0.43,8.0,1.67,0.34,-2.39,-0.11,-0.01,-0.05,5137,2019-04-29 17:29:35:570
1.58,0.43,8.0,1.67,0.34,-2.39,-0.11,-0.01,-0.05,5142,2019-04-29 17:29:35:575
1.58,0.43,8.0,1.67,0.34,-2.39,-0.11,-0.01,-0.05,5147,2019-04-29 17:29:35:580
1.58,0.43,8.0,1.67,0.34,-2.39,-0.11,-0.01,-0.05,5153,2019-04-29 17:29:35:586
1.58,0.43,8.0,1.67,0.34,-2.39,-0.11,-0.01,-0.05,5157,2019-04-29 17:29:35:590
1.57,-2.08,11.44,1.41,-1.93,1.06,-0.02,0.0,-0.05,5163,2019-04-29 17:29:35:596
1.57,-2.08,11.44,1.41,-1.93,1.06,-0.02,0.0,-0.05,5167,2019-04-29 17:29:35:600
1.57,-2.08,11.44,1.41,-1.93,1.06,-0.02,0.0,-0.05,5173,2019-04-29 17:29:35:606
0.83,-1.02,10.61,0.6,-0.9,0.24,0.1,0.02,-0.05,5177,2019-04-29 17:29:35:610
0.83,-1.02,10.61,0.6,-0.9,0.24,0.1,0.02,-0.05,5182,2019-04-29 17:29:35:615
0.83,-1.02,10.61,0.6,-0.9,0.24,0.1,0.02,-0.05,5188,2019-04-29 17:29:35:621
0.83,-1.02,10.61,0.6,-0.9,0.24,0.1,0.02,-0.05,5193,2019-04-29 17:29:35:626
-0.16,0.0,7.93,0.6,-0.9,0.24,0.1,0.02,-0.05,5197,2019-04-29 17:29:35:630
-0.16,0.0,7.93,-0.3,0.12,-2.39,-0.01,0.0,-0.08,5203,2019-04-29 17:29:35:636
-0.16,0.0,7.93,-0.3,0.12,-2.39,-0.01,0.0,-0.08,5207,2019-04-29 17:29:35:640
-0.93,-1.66,9.68,-0.3,0.12,-2.39,-0.1,0.0,-0.08,5212,2019-04-29 17:29:35:645
-0.93,-1.66,9.68,-0.3,0.12,-2.39,-0.1,0.0,-0.08,5217,2019-04-29 17:29:35:650
-0.93,-1.66,9.68,-0.3,0.12,-2.39,-0.1,0.0,-0.08,5222,2019-04-29 17:29:35:655
-0.93,-1.66,9.68,-0.3,0.12,-2.39,-0.1,0.0,-0.08,5228,2019-04-29 17:29:35:661
-0.93,-1.66,9.68,-0.3,0.12,-2.39,-0.1,0.0,-0.08,5233,2019-04-29 17:29:35:666
-1.25,-2.26,10.53,-1.18,-1.81,0.15,0.0,0.0,-0.06,5238,2019-04-29 17:29:35:671
-1.25,-2.26,10.53,-1.18,-1.81,0.15,0.0,0.0,-0.06,5242,2019-04-29 17:29:35:675
-1.25,-2.26,10.53,-1.18,-1.81,0.15,-0.03,0.01,-0.05,5247,2019-04-29 17:29:35:680
-1.25,-2.26,10.53,-1.18,-1.81,0.15,-0.03,0.01,-0.05,5253,2019-04-29 17:29:35:686
-1.25,-2.26,10.53,-1.18,-1.81,0.15,-0.03,0.01,-0.05,5258,2019-04-29 17:29:35:691
-1.25,-2.26,10.53,-1.18,-1.81,0.15,-0.03,0.01,-0.05,5263,2019-04-29 17:29:35:696
-1.25,-2.26,10.53,-1.18,-1.81,0.15,-0.03,0.01,-0.05,5268,2019-04-29 17:29:35:701
-1.25,-2.26,10.53,-1.18,-1.81,0.15,-0.03,0.01,-0.05,5273,2019-04-29 17:29:35:706
-0.93,-1.23,9.39,-0.76,-0.27,-0.46,-0.08,-0.02,0.0,5277,2019-04-29 17:29:35:710
-0.93,-1.23,9.39,-0.76,-0.27,-0.46,-0.08,-0.02,0.0,5283,2019-04-29 17:29:35:716
-0.93,-1.23,9.39,-0.76,-0.27,-0.46,-0.08,-0.02,0.0,5288,2019-04-29 17:29:35:721
-0.93,-1.23,9.39,-0.76,-0.27,-0.46,-0.08,-0.02,0.0,5293,2019-04-29 17:29:35:726
-0.41,-1.61,10.52,-0.3,-0.54,0.68,-0.04,0.0,0.03,5298,2019-04-29 17:29:35:731
-0.41,-1.61,10.52,-0.3,-0.54,0.68,-0.04,0.0,0.03,5303,2019-04-29 17:29:35:736
-0.41,-1.61,10.52,-0.3,-0.54,0.68,-0.04,0.0,0.03,5307,2019-04-29 17:29:35:740
-0.41,-1.61,10.52,-0.3,-0.54,0.68,-0.04,0.0,0.03,5313,2019-04-29 17:29:35:746
-0.41,-1.61,10.52,-0.3,-0.54,0.68,-0.04,0.0,0.03,5317,2019-04-29 17:29:35:750
-0.41,-1.61,10.52,-0.3,-0.54,0.68,-0.04,0.0,0.03,5322,2019-04-29 17:29:35:755
0.22,-1.07,10.66,0.24,0.12,0.78,0.05,0.0,0.03,5328,2019-04-29 17:29:35:761
0.22,-1.07,10.66,0.24,0.12,0.78,0.05,0.0,0.03,5333,2019-04-29 17:29:35:766
0.22,-1.07,10.66,0.24,0.12,0.78,0.05,0.0,0.03,5337,2019-04-29 17:29:35:770
0.63,-0.07,9.4,0.66,1.05,-0.39,0.0,0.0,0.02,5343,2019-04-29 17:29:35:776
0.63,-0.07,9.4,0.66,1.05,-0.39,0.0,0.0,0.02,5348,2019-04-29 17:29:35:781
0.63,-0.07,9.4,0.66,1.05,-0.39,0.0,0.0,0.02,5352,2019-04-29 17:29:35:785
0.63,-0.07,9.4,0.66,1.05,-0.39,0.0,0.0,0.02,5357,2019-04-29 17:29:35:790
0.92,0.11,10.16,0.95,1.1,0.35,-0.04,0.0,0.02,5363,2019-04-29 17:29:35:796
0.92,0.11,10.16,0.95,1.1,0.35,-0.04,0.0,0.02,5367,2019-04-29 17:29:35:800
0.92,0.11,10.16,0.95,1.1,0.35,-0.04,0.0,0.02,5373,2019-04-29 17:29:35:806
0.92,0.11,10.16,0.95,1.1,0.35,-0.04,0.0,0.02,5377,2019-04-29 17:29:35:810
0.92,0.11,10.16,0.95,1.1,0.35,-0.04,0.0,0.02,5382,2019-04-29 17:29:35:815
0.62,-0.2,9.74,0.68,0.7,-0.2,0.04,0.01,0.02,5388,2019-04-29 17:29:35:821
0.62,-0.2,9.74,0.68,0.7,-0.2,0.04,0.01,0.02,5392,2019-04-29 17:29:35:825
0.62,-0.2,9.74,0.68,0.7,-0.2,0.04,0.01,0.02,5398,2019-04-29 17:29:35:831
0.62,-0.2,9.74,0.68,0.7,-0.2,0.04,0.01,0.02,5403,2019-04-29 17:29:35:836
0.37,-0.06,9.51,0.41,0.73,-0.43,-0.02,0.0,0.02,5408,2019-04-29 17:29:35:841
0.37,-0.06,9.51,0.41,0.73,-0.43,-0.02,0.0,0.02,5412,2019-04-29 17:29:35:845
0.37,-0.06,9.51,0.41,0.73,-0.43,-0.02,0.0,0.02,5420,2019-04-29 17:29:35:853
0.37,-0.06,9.51,0.41,0.73,-0.43,-0.02,0.0,0.02,5422,2019-04-29 17:29:35:855
0.37,-0.06,9.51,0.41,0.73,-0.43,-0.02,0.0,0.02,5427,2019-04-29 17:29:35:860
0.37,-0.06,9.51,0.41,0.73,-0.43,-0.02,0.0,0.02,5432,2019-04-29 17:29:35:865
0.37,-0.06,9.51,0.41,0.73,-0.43,-0.02,0.0,0.02,5437,2019-04-29 17:29:35:870
-0.14,-0.33,10.17,-0.14,0.39,0.18,-0.01,0.0,0.02,5442,2019-04-29 17:29:35:875
-0.14,-0.33,10.17,-0.14,0.39,0.18,-0.01,0.0,0.02,5448,2019-04-29 17:29:35:881
-0.14,-0.33,10.17,-0.14,0.39,0.18,-0.01,0.0,0.02,5453,2019-04-29 17:29:35:886
-0.43,-0.65,10.25,-0.14,0.39,0.18,0.02,0.0,0.02,5457,2019-04-29 17:29:35:890
-0.43,-0.65,10.25,-0.47,-0.01,0.18,0.02,0.0,0.02,5463,2019-04-29 17:29:35:896
-0.43,-0.65,10.25,-0.47,-0.01,0.18,0.02,0.0,0.02,5468,2019-04-29 17:29:35:901
-0.43,-0.65,10.25,-0.47,-0.01,0.18,0.02,0.0,0.02,5473,2019-04-29 17:29:35:906
-0.69,0.04,9.78,-0.47,-0.01,0.18,0.01,0.0,0.02,5478,2019-04-29 17:29:35:911
-0.69,0.04,9.78,-0.73,0.53,-0.24,0.01,0.0,0.02,5483,2019-04-29 17:29:35:916
-0.69,0.04,9.78,-0.73,0.53,-0.24,0.01,0.0,0.02,5488,2019-04-29 17:29:35:921
-0.69,0.04,9.78,-0.73,0.53,-0.24,0.01,0.0,0.02,5492,2019-04-29 17:29:35:925
-0.69,0.04,9.78,-0.73,0.53,-0.24,0.01,0.0,0.02,5498,2019-04-29 17:29:35:931
-0.69,0.04,9.78,-0.73,0.53,-0.24,0.01,0.0,0.02,5503,2019-04-29 17:29:35:936
-0.65,0.14,9.54,-0.68,0.49,-0.46,-0.02,0.0,0.02,5507,2019-04-29 17:29:35:940
-0.65,0.14,9.54,-0.68,0.49,-0.46,-0.02,0.0,0.02,5512,2019-04-29 17:29:35:945
-0.65,0.14,9.54,-0.68,0.49,-0.46,-0.02,0.0,0.02,5517,2019-04-29 17:29:35:950
-0.65,0.14,9.54,-0.68,0.49,-0.46,-0.02,0.0,0.02,5523,2019-04-29 17:29:35:956
-0.65,0.14,9.54,-0.68,0.49,-0.46,-0.02,0.0,0.02,5527,2019-04-29 17:29:35:960
-0.65,0.14,9.54,-0.68,0.49,-0.46,-0.02,0.0,0.02,5533,2019-04-29 17:29:35:966
-0.65,-0.32,10.45,-0.68,0.49,-0.46,-0.02,0.0,0.02,5537,2019-04-29 17:29:35:970
-0.38,-0.32,10.45,-0.4,-0.13,0.44,0.02,0.0,0.0,5542,2019-04-29 17:29:35:975
-0.38,-0.32,10.45,-0.4,-0.13,0.44,0.02,0.0,0.0,5547,2019-04-29 17:29:35:980
-0.38,-0.32,10.45,-0.4,-0.13,0.44,0.02,0.0,0.0,5552,2019-04-29 17:29:35:985
-0.38,-0.32,10.45,-0.4,-0.13,0.44,0.02,0.0,0.0,5558,2019-04-29 17:29:35:991
-0.31,0.1,9.12,-0.32,0.22,-0.78,0.01,0.0,0.0,5563,2019-04-29 17:29:35:996
-0.31,0.1,9.12,-0.32,0.22,-0.78,0.01,0.0,0.0,5567,2019-04-29 17:29:36:000
-0.31,0.1,9.12,-0.32,0.22,-0.78,0.01,0.0,0.0,5572,2019-04-29 17:29:36:005
-0.31,0.1,9.12,-0.32,0.22,-0.78,0.01,0.0,0.0,5580,2019-04-29 17:29:36:013
-0.31,0.1,9.12,-0.32,0.22,-0.78,0.01,0.0,0.0,5582,2019-04-29 17:29:36:015
-0.31,0.1,9.12,-0.32,0.22,-0.78,0.0,0.0,0.0,5587,2019-04-29 17:29:36:020
0.21,-0.22,10.95,0.2,-0.16,1.01,0.0,0.0,0.0,5593,2019-04-29 17:29:36:026
0.21,-0.22,10.95,0.2,-0.16,1.01,0.0,0.0,0.0,5597,2019-04-29 17:29:36:030
0.21,-0.22,10.95,0.2,-0.16,1.01,0.0,0.0,0.0,5604,2019-04-29 17:29:36:037
0.21,-0.22,10.95,0.2,-0.16,1.01,0.0,0.0,0.0,5608,2019-04-29 17:29:36:041
0.21,-0.22,10.95,0.2,-0.16,1.01,0.0,0.0,0.0,5612,2019-04-29 17:29:36:045
0.35,0.41,10.07,0.2,-0.16,1.01,0.03,0.01,0.0,5617,2019-04-29 17:29:36:050
0.35,0.41,10.07,0.35,0.37,0.15,0.03,0.01,0.0,5623,2019-04-29 17:29:36:056
0.35,0.41,10.07,0.35,0.37,0.15,0.03,0.01,0.0,5628,2019-04-29 17:29:36:061
0.35,0.41,10.07,0.35,0.37,0.15,0.03,0.01,0.0,5632,2019-04-29 17:29:36:065
0.35,0.41,10.07,0.35,0.37,0.15,0.03,0.01,0.0,5637,2019-04-29 17:29:36:070
0.45,0.78,9.37,0.46,0.68,-0.52,-0.01,0.0,0.0,5642,2019-04-29 17:29:36:075
0.45,0.78,9.37,0.46,0.68,-0.52,-0.01,0.0,0.0,5647,2019-04-29 17:29:36:080
0.45,0.78,9.37,0.46,0.68,-0.52,-0.01,0.0,0.0,5654,2019-04-29 17:29:36:087
0.45,0.78,9.37,0.46,0.68,-0.52,-0.01,0.0,0.0,5657,2019-04-29 17:29:36:090
0.51,0.32,10.34,0.52,0.18,0.42,-0.02,0.0,0.0,5662,2019-04-29 17:29:36:095
0.51,0.32,10.34,0.52,0.18,0.42,-0.02,0.0,0.0,5667,2019-04-29 17:29:36:100
0.51,0.32,10.34,0.52,0.18,0.42,-0.02,0.0,0.0,5673,2019-04-29 17:29:36:106
0.22,0.64,10.72,0.23,0.44,0.79,0.01,0.0,-0.01,5679,2019-04-29 17:29:36:112
0.22,0.64,10.72,0.23,0.44,0.79,0.01,0.0,-0.01,5682,2019-04-29 17:29:36:115
0.22,0.64,10.72,0.23,0.44,0.79,0.01,0.0,-0.01,5688,2019-04-29 17:29:36:121
0.14,0.66,10.03,0.12,0.41,0.08,0.0,0.0,0.0,5694,2019-04-29 17:29:36:127
0.14,0.66,10.03,0.12,0.41,0.08,0.0,0.0,0.0,5697,2019-04-29 17:29:36:130
0.14,0.66,10.03,0.12,0.41,0.08,0.0,0.0,0.0,5708,2019-04-29 17:29:36:141
0.14,0.66,10.03,0.12,0.41,0.08,0.0,0.0,0.0,5709,2019-04-29 17:29:36:142
-0.17,-0.37,9.47,-0.14,-0.59,-0.47,-0.02,0.0,-0.01,5714,2019-04-29 17:29:36:147
-0.17,-0.37,9.47,-0.14,-0.59,-0.47,-0.02,0.0,-0.01,5717,2019-04-29 17:29:36:150
-0.17,-0.37,9.47,-0.14,-0.59,-0.47,-0.02,0.0,-0.01,5723,2019-04-29 17:29:36:156
-0.87,-0.87,10.11,-0.14,-0.59,-0.47,0.0,0.0,0.01,5727,2019-04-29 17:29:36:160
-0.87,-0.87,10.11,-0.8,-1.01,0.13,0.0,0.0,0.01,5732,2019-04-29 17:29:36:165
-0.87,-0.87,10.11,-0.8,-1.01,0.13,0.0,0.0,0.01,5738,2019-04-29 17:29:36:171
-0.87,-0.87,10.11,-0.8,-1.01,0.13,0.0,0.0,0.01,5743,2019-04-29 17:29:36:176
-0.87,-0.87,10.11,-0.8,-1.01,0.13,0.0,0.0,0.01,5748,2019-04-29 17:29:36:181
-0.87,-0.87,10.11,-0.8,-1.01,0.13,0.0,0.0,0.01,5753,2019-04-29 17:29:36:186
-0.87,-0.87,10.11,-0.8,-1.01,0.13,0.0,0.0,0.01,5758,2019-04-29 17:29:36:191
-0.87,-0.87,10.11,-0.8,-1.01,0.13,0.0,0.0,0.01,5763,2019-04-29 17:29:36:196
-0.87,-0.87,10.11,-0.8,-1.01,0.13,0.0,0.0,0.01,5767,2019-04-29 17:29:36:200
-0.85,-0.9,9.74,-0.78,-0.98,-0.24,0.01,-0.01,0.06,5772,2019-04-29 17:29:36:205
-0.85,-0.9,9.74,-0.78,-0.98,-0.24,0.01,-0.01,0.06,5781,2019-04-29 17:29:36:214
-0.85,-0.9,9.74,-0.78,-0.98,-0.24,0.01,-0.01,0.06,5783,2019-04-29 17:29:36:216
-0.85,-0.9,9.74,-0.78,-0.98,-0.24,0.01,-0.01,0.06,5787,2019-04-29 17:29:36:220
-0.85,-0.9,9.74,-0.78,-0.98,-0.24,0.01,-0.01,0.06,5792,2019-04-29 17:29:36:225
0.25,-1.09,10.02,0.25,-0.97,0.08,-0.04,-0.01,0.05,5797,2019-04-29 17:29:36:230
0.25,-1.09,10.02,0.25,-0.97,0.08,-0.04,-0.01,0.05,5802,2019-04-29 17:29:36:235
0.25,-1.09,10.02,0.25,-0.97,0.08,-0.04,-0.01,0.05,5808,2019-04-29 17:29:36:241
0.04,-0.4,10.33,0.0,-0.2,0.37,0.0,0.0,0.0,5814,2019-04-29 17:29:36:247
0.04,-0.4,10.33,0.0,-0.2,0.37,0.0,0.0,0.0,5817,2019-04-29 17:29:36:250
0.04,-0.4,10.33,0.0,-0.2,0.37,0.0,0.0,0.0,5823,2019-04-29 17:29:36:256
-0.18,-0.18,9.72,-0.2,0.06,-0.23,0.0,0.0,-0.04,5827,2019-04-29 17:29:36:260
-0.18,-0.18,9.72,-0.2,0.06,-0.23,0.0,0.0,-0.04,5833,2019-04-29 17:29:36:266
-0.18,-0.18,9.72,-0.2,0.06,-0.23,0.0,0.0,-0.04,5838,2019-04-29 17:29:36:271
-0.18,-0.18,9.72,-0.2,0.06,-0.23,0.0,0.0,-0.04,5843,2019-04-29 17:29:36:276
0.04,-1.03,9.83,0.06,-0.65,-0.1,-0.03,0.0,-0.03,5848,2019-04-29 17:29:36:281
0.04,-1.03,9.83,0.06,-0.65,-0.1,-0.03,0.0,-0.03,5855,2019-04-29 17:29:36:288
0.04,-1.03,9.83,0.06,-0.65,-0.1,-0.03,0.0,-0.03,5857,2019-04-29 17:29:36:290
0.04,-1.03,9.83,0.06,-0.65,-0.1,-0.03,0.0,-0.03,5864,2019-04-29 17:29:36:297
0.5,-1.0,10.37,0.06,-0.65,-0.1,0.0,0.0,0.0,5867,2019-04-29 17:29:36:300
0.5,-1.0,10.37,0.52,-0.45,0.44,0.0,0.0,0.0,5874,2019-04-29 17:29:36:307
0.5,-1.0,10.37,0.52,-0.45,0.44,0.0,0.0,0.0,5877,2019-04-29 17:29:36:310
0.5,-1.0,10.37,0.52,-0.45,0.44,0.0,0.0,0.0,5882,2019-04-29 17:29:36:315
0.5,-1.0,10.37,0.52,-0.45,0.44,0.0,0.0,0.0,5887,2019-04-29 17:29:36:320
0.25,-0.91,9.73,0.29,-0.19,-0.15,0.0,0.0,0.01,5893,2019-04-29 17:29:36:326
0.25,-0.91,9.73,0.29,-0.19,-0.15,0.0,0.0,0.01,5900,2019-04-29 17:29:36:333
0.25,-0.91,9.73,0.29,-0.19,-0.15,0.0,0.0,0.01,5903,2019-04-29 17:29:36:336
0.17,-0.96,9.77,0.19,-0.16,-0.11,-0.02,0.0,0.02,5909,2019-04-29 17:29:36:342
0.17,-0.96,9.77,0.19,-0.16,-0.11,-0.02,0.0,0.02,5913,2019-04-29 17:29:36:346
0.17,-0.96,9.77,0.19,-0.16,-0.11,-0.02,0.0,0.02,5918,2019-04-29 17:29:36:351
0.17,-0.96,9.77,0.19,-0.16,-0.11,-0.02,0.0,0.02,5922,2019-04-29 17:29:36:355
0.2,-1.04,9.66,0.18,-0.2,-0.21,-0.02,0.0,0.03,5927,2019-04-29 17:29:36:360
0.2,-1.04,9.66,0.18,-0.2,-0.21,-0.02,0.0,0.03,5932,2019-04-29 17:29:36:365
0.2,-1.04,9.66,0.18,-0.2,-0.21,-0.02,0.0,0.03,5937,2019-04-29 17:29:36:370
0.2,-1.04,9.66,0.18,-0.2,-0.21,-0.02,0.0,0.03,5942,2019-04-29 17:29:36:375
-0.2,-1.03,10.25,0.18,-0.2,-0.21,-0.01,0.0,0.02,5947,2019-04-29 17:29:36:380
-0.2,-1.03,10.25,-0.23,-0.14,0.33,-0.01,0.0,0.02,5954,2019-04-29 17:29:36:387
-0.48,-0.45,10.04,-0.23,-0.14,0.33,-0.01,0.0,0.02,5958,2019-04-29 17:29:36:391
-0.48,-0.45,10.04,-0.23,-0.14,0.33,-0.01,0.0,0.02,5963,2019-04-29 17:29:36:396
-0.48,-0.45,10.04,-0.23,-0.14,0.33,-0.01,0.0,0.02,5968,2019-04-29 17:29:36:401
-0.48,-0.45,10.04,-0.23,-0.14,0.33,-0.01,0.0,0.02,5972,2019-04-29 17:29:36:405
-0.48,-0.45,10.04,0.14,0.09,0.67,-0.02,0.0,0.01,5977,2019-04-29 17:29:36:410
-0.48,-0.45,10.04,0.14,0.09,0.67,-0.02,0.0,0.01,5983,2019-04-29 17:29:36:416
-0.48,-0.45,10.04,0.14,0.09,0.67,-0.02,0.0,0.01,5988,2019-04-29 17:29:36:421
-0.48,-0.66,9.57,-0.41,0.14,-0.36,-0.04,0.0,0.03,5994,2019-04-29 17:29:36:427
-0.48,-0.66,9.57,-0.41,0.14,-0.36,-0.04,0.0,0.03,5999,2019-04-29 17:29:36:432
-0.48,-0.66,9.57,-0.41,0.14,-0.36,-0.04,0.0,0.03,6003,2019-04-29 17:29:36:436
-0.27,-1.09,10.16,-0.16,-0.24,0.22,-0.03,0.0,0.05,6021,2019-04-29 17:29:36:454
-0.27,-1.09,10.16,-0.16,-0.24,0.22,-0.03,0.0,0.05,6023,2019-04-29 17:29:36:456
-0.27,-1.09,10.16,-0.16,-0.24,0.22,-0.03,0.0,0.05,6023,2019-04-29 17:29:36:456
-0.27,-1.09,10.16,-0.16,-0.24,0.22,-0.03,0.0,0.05,6026,2019-04-29 17:29:36:459
-0.27,-1.09,10.16,-0.16,-0.24,0.22,-0.03,0.0,0.05,6028,2019-04-29 17:29:36:461
-0.27,-1.09,10.16,-0.16,-0.24,0.22,-0.03,0.0,0.05,6033,2019-04-29 17:29:36:466
0.06,-0.91,9.79,-0.16,-0.24,0.22,-0.03,0.0,0.05,6038,2019-04-29 17:29:36:471
0.06,-0.91,9.79,0.14,0.0,-0.12,-0.02,0.0,0.07,6044,2019-04-29 17:29:36:477
0.06,-0.91,9.79,0.14,0.0,-0.12,-0.02,0.0,0.07,6048,2019-04-29 17:29:36:481
-0.17,-0.92,9.94,0.14,0.0,-0.12,-0.04,0.0,0.08,6053,2019-04-29 17:29:36:486
-0.17,-0.92,9.94,0.14,0.0,-0.12,-0.04,0.0,0.08,6058,2019-04-29 17:29:36:491
-0.17,-0.92,9.94,0.14,0.0,-0.12,-0.04,0.0,0.08,6063,2019-04-29 17:29:36:496
-0.17,-0.92,9.94,0.14,0.0,-0.12,-0.04,0.0,0.08,6067,2019-04-29 17:29:36:500
-0.17,-0.92,9.94,0.14,0.0,-0.12,-0.04,0.0,0.08,6073,2019-04-29 17:29:36:506
-0.03,-1.03,9.85,0.01,-0.13,-0.06,-0.05,0.0,0.08,6079,2019-04-29 17:29:36:512
-0.03,-1.03,9.85,0.01,-0.13,-0.06,-0.05,0.0,0.08,6084,2019-04-29 17:29:36:517
-0.03,-1.03,9.85,0.01,-0.13,-0.06,-0.05,0.0,0.08,6088,2019-04-29 17:29:36:521
-0.03,-1.03,9.85,0.01,-0.13,-0.06,-0.05,0.0,0.08,6094,2019-04-29 17:29:36:527
0.0,-1.03,9.72,0.01,-0.13,-0.06,-0.08,0.0,0.09,6097,2019-04-29 17:29:36:530
0.0,-1.03,9.72,0.05,-0.12,-0.18,-0.08,0.0,0.09,6104,2019-04-29 17:29:36:537
0.0,-1.03,9.72,0.05,-0.12,-0.18,-0.08,0.0,0.09,6108,2019-04-29 17:29:36:541
0.18,-0.99,10.04,0.05,-0.12,-0.18,-0.07,0.0,0.09,6113,2019-04-29 17:29:36:546
0.18,-0.99,10.04,0.05,-0.12,-0.18,-0.07,0.0,0.09,6119,2019-04-29 17:29:36:552
0.18,-0.99,10.04,0.05,-0.12,-0.18,-0.07,0.0,0.09,6122,2019-04-29 17:29:36:555
0.31,-1.07,9.9,0.05,-0.12,-0.18,-0.08,0.0,0.09,6127,2019-04-29 17:29:36:560
0.31,-1.07,9.9,0.05,-0.12,-0.18,-0.08,0.0,0.09,6133,2019-04-29 17:29:36:566
0.31,-1.07,9.9,0.05,-0.12,-0.18,-0.08,0.0,0.09,6138,2019-04-29 17:29:36:571
-0.05,-1.14,10.06,0.3,-0.14,-0.02,-0.06,0.01,0.08,6142,2019-04-29 17:29:36:575
-0.05,-1.14,10.06,0.3,-0.14,-0.02,-0.06,0.01,0.08,6148,2019-04-29 17:29:36:581
-0.05,-1.14,10.06,0.3,-0.14,-0.02,-0.06,0.01,0.08,6154,2019-04-29 17:29:36:587
-0.05,-1.14,10.06,0.3,-0.14,-0.02,-0.06,0.01,0.08,6157,2019-04-29 17:29:36:590
-0.05,-1.14,10.06,0.3,-0.14,-0.02,-0.06,0.01,0.08,6163,2019-04-29 17:29:36:596
-0.14,-1.38,10.28,0.3,-0.14,-0.02,-0.05,0.0,0.05,6168,2019-04-29 17:29:36:601
-0.14,-1.38,10.28,-0.15,-0.35,0.32,-0.05,0.0,0.05,6173,2019-04-29 17:29:36:606
-0.14,-1.38,10.28,-0.15,-0.35,0.32,-0.05,0.0,0.05,6178,2019-04-29 17:29:36:611
-0.14,-1.38,10.28,-0.15,-0.35,0.32,-0.05,0.0,0.05,6183,2019-04-29 17:29:36:616
-0.14,-1.38,10.28,-0.15,-0.35,0.32,-0.05,0.0,0.05,6188,2019-04-29 17:29:36:621
-0.19,-1.08,10.15,-0.19,0.0,0.2,-0.04,0.02,0.05,6192,2019-04-29 17:29:36:625
-0.19,-1.08,10.15,-0.19,0.0,0.2,-0.04,0.02,0.05,6197,2019-04-29 17:29:36:630
-0.19,-1.08,10.15,-0.19,0.0,0.2,-0.04,0.02,0.05,6202,2019-04-29 17:29:36:635
-0.19,-1.08,10.15,-0.19,0.0,0.2,-0.04,0.02,0.05,6209,2019-04-29 17:29:36:642
-0.19,-1.08,10.15,-0.19,0.0,0.2,-0.04,0.02,0.05,6213,2019-04-29 17:29:36:646
-0.19,-1.08,10.15,-0.19,0.0,0.2,-0.04,0.02,0.05,6218,2019-04-29 17:29:36:651
-0.19,-1.08,10.15,-0.19,0.0,0.2,-0.04,0.02,0.05,6225,2019-04-29 17:29:36:658
0.1,-1.34,10.32,-0.19,0.0,0.2,0.02,0.01,0.05,6228,2019-04-29 17:29:36:661
0.1,-1.34,10.32,0.15,-0.26,0.28,0.02,0.01,0.05,6233,2019-04-29 17:29:36:666
0.1,-1.34,10.32,0.15,-0.26,0.28,0.02,0.01,0.05,6237,2019-04-29 17:29:36:670
0.1,-1.34,10.32,0.15,-0.26,0.28,0.02,0.01,0.05,6243,2019-04-29 17:29:36:676
-0.21,-1.54,9.31,-0.15,-0.41,-0.67,0.0,0.01,0.06,6248,2019-04-29 17:29:36:681
-0.21,-1.54,9.31,-0.15,-0.41,-0.67,0.0,0.01,0.06,6253,2019-04-29 17:29:36:686
-0.21,-1.54,9.31,0.4,-0.24,-0.15,-0.01,0.02,0.05,6262,2019-04-29 17:29:36:695
-0.21,-1.54,9.31,0.4,-0.24,-0.15,-0.01,0.02,0.05,6262,2019-04-29 17:29:36:695
-0.48,-1.53,9.43,0.4,-0.24,-0.15,-0.01,0.02,0.05,6267,2019-04-29 17:29:36:700
-0.48,-1.53,9.43,0.4,-0.24,-0.15,-0.01,0.02,0.05,6273,2019-04-29 17:29:36:706
0.75,-1.71,9.13,-0.43,-0.36,-0.52,-0.01,0.03,0.05,6277,2019-04-29 17:29:36:710
0.75,-1.71,9.13,-0.43,-0.36,-0.52,-0.01,0.03,0.05,6282,2019-04-29 17:29:36:715
0.75,-1.71,9.13,-0.43,-0.36,-0.52,-0.01,0.03,0.05,6288,2019-04-29 17:29:36:721
0.75,-1.71,9.13,-0.43,-0.36,-0.52,-0.01,0.03,0.05,6294,2019-04-29 17:29:36:727
1.11,-0.39,13.37,-0.43,-0.36,-0.52,0.09,0.01,0.03,6297,2019-04-29 17:29:36:730
1.11,-0.39,13.37,1.12,0.78,3.34,0.09,0.01,0.03,6303,2019-04-29 17:29:36:736
1.11,-0.39,13.37,1.12,0.78,3.34,0.09,0.01,0.03,6308,2019-04-29 17:29:36:741
1.11,-0.39,13.37,1.12,0.78,3.34,0.09,0.01,0.03,6312,2019-04-29 17:29:36:745
1.11,-0.39,13.37,1.12,0.78,3.34,0.09,0.01,0.03,6318,2019-04-29 17:29:36:751
1.11,-0.39,13.37,1.12,0.78,3.34,0.09,0.01,0.03,6323,2019-04-29 17:29:36:756
1.11,-0.39,13.37,1.12,0.78,3.34,0.09,0.01,0.03,6327,2019-04-29 17:29:36:760
0.12,1.27,11.26,0.29,2.33,1.16,0.02,0.03,0.04,6333,2019-04-29 17:29:36:766
0.12,1.27,11.26,0.29,2.33,1.16,0.02,0.03,0.04,6338,2019-04-29 17:29:36:771
-0.88,-0.92,7.36,-0.66,0.21,-2.8,-0.07,-0.02,0.05,6344,2019-04-29 17:29:36:777
-0.88,-0.92,7.36,-0.66,0.21,-2.8,-0.07,-0.02,0.05,6348,2019-04-29 17:29:36:781
-0.88,-0.92,7.36,-0.66,0.21,-2.8,-0.07,-0.02,0.05,6353,2019-04-29 17:29:36:786
-0.7,-3.98,13.2,-0.52,-2.78,2.92,-0.02,-0.01,0.05,6357,2019-04-29 17:29:36:790
-0.7,-3.98,13.2,-0.52,-2.78,2.92,-0.02,-0.01,0.05,6363,2019-04-29 17:29:36:796
-0.7,-3.98,13.2,-0.52,-2.78,2.92,-0.02,-0.01,0.05,6367,2019-04-29 17:29:36:800
-0.7,-3.98,13.2,-0.52,-2.78,2.92,-0.02,-0.01,0.05,6373,2019-04-29 17:29:36:806
0.02,-2.1,8.06,-0.52,-2.78,2.92,0.05,0.04,0.07,6378,2019-04-29 17:29:36:811
0.02,-2.1,8.06,0.1,-0.93,-2.03,0.05,0.04,0.07,6383,2019-04-29 17:29:36:816
0.02,-2.1,8.06,0.1,-0.93,-2.03,0.05,0.04,0.07,6388,2019-04-29 17:29:36:821
0.02,-2.1,8.06,0.1,-0.93,-2.03,0.05,0.04,0.07,6393,2019-04-29 17:29:36:826
-0.73,-0.5,7.8,-0.67,0.87,-2.03,0.01,-0.03,0.02,6397,2019-04-29 17:29:36:830
-0.73,-0.5,7.8,-0.67,0.87,-2.03,0.01,-0.03,0.02,6404,2019-04-29 17:29:36:837
-0.57,-0.58,11.02,-0.51,0.76,1.12,0.13,0.0,0.02,6408,2019-04-29 17:29:36:841
-0.57,-0.58,11.02,-0.51,0.76,1.12,0.13,0.0,0.02,6412,2019-04-29 17:29:36:845
-0.57,-0.58,11.02,-0.51,0.76,1.12,0.13,0.0,0.02,6417,2019-04-29 17:29:36:850
-0.57,-0.58,11.02,-0.51,0.76,1.12,0.13,0.0,0.02,6422,2019-04-29 17:29:36:855
-1.17,1.96,9.4,-1.01,3.09,-0.56,0.01,-0.01,0.03,6429,2019-04-29 17:29:36:862
-1.17,1.96,9.4,-1.01,3.09,-0.56,0.01,-0.01,0.03,6432,2019-04-29 17:29:36:865
-1.17,1.96,9.4,-1.01,3.09,-0.56,0.01,-0.01,0.03,6438,2019-04-29 17:29:36:871
0.28,-0.99,13.47,0.41,0.11,3.3,0.06,-0.02,0.03,6442,2019-04-29 17:29:36:875
0.28,-0.99,13.47,0.41,0.11,3.3,0.06,-0.02,0.03,6447,2019-04-29 17:29:36:880
0.28,-0.99,13.47,0.41,0.11,3.3,0.06,-0.02,0.03,6453,2019-04-29 17:29:36:886
0.28,-0.99,13.47,0.41,0.11,3.3,0.06,-0.02,0.03,6458,2019-04-29 17:29:36:891
-0.4,-0.34,6.88,-0.26,0.75,-3.24,0.0,0.0,0.07,6462,2019-04-29 17:29:36:895
-0.4,-0.34,6.88,-0.26,0.75,-3.24,0.0,0.0,0.07,6468,2019-04-29 17:29:36:901
-0.4,-0.34,6.88,-0.26,0.75,-3.24,0.0,0.0,0.07,6473,2019-04-29 17:29:36:906
-0.74,-1.3,11.03,-0.54,-0.21,0.68,-0.07,-0.02,0.06,6480,2019-04-29 17:29:36:913
-0.74,-1.3,11.03,-0.54,-0.21,0.68,-0.07,-0.02,0.06,6482,2019-04-29 17:29:36:915
-0.74,-1.3,11.03,-0.54,-0.21,0.68,-0.07,-0.02,0.06,6487,2019-04-29 17:29:36:920
-0.74,-1.3,11.03,-0.54,-0.21,0.68,-0.07,-0.02,0.06,6493,2019-04-29 17:29:36:926
-1.68,-2.92,10.96,-0.54,-0.21,0.68,0.0,-0.04,0.04,6498,2019-04-29 17:29:36:931
-1.68,-2.92,10.96,-1.48,-1.7,0.77,0.0,-0.04,0.04,6504,2019-04-29 17:29:36:937
-1.68,-2.92,10.96,-1.48,-1.7,0.77,0.0,-0.04,0.04,6511,2019-04-29 17:29:36:944
-1.68,-2.92,10.96,-1.48,-1.7,0.77,0.0,-0.04,0.04,6512,2019-04-29 17:29:36:945
-1.68,-2.92,10.96,-1.48,-1.7,0.77,0.0,-0.04,0.04,6518,2019-04-29 17:29:36:951
-1.68,-2.92,10.96,-1.48,-1.7,0.77,0.0,-0.04,0.04,6522,2019-04-29 17:29:36:955
-0.67,-0.84,9.44,-0.57,0.47,-0.73,0.08,0.01,0.06,6528,2019-04-29 17:29:36:961
-0.67,-0.84,9.44,-0.57,0.47,-0.73,0.08,0.01,0.06,6533,2019-04-29 17:29:36:966
-0.67,-0.84,9.44,-0.57,0.47,-0.73,0.08,0.01,0.06,6537,2019-04-29 17:29:36:970
0.08,-2.07,10.72,0.11,-0.8,0.64,0.03,-0.05,0.06,6543,2019-04-29 17:29:36:976
0.08,-2.07,10.72,0.11,-0.8,0.64,0.03,-0.05,0.06,6547,2019-04-29 17:29:36:980
0.08,-2.07,10.72,0.11,-0.8,0.64,0.01,0.0,0.09,6555,2019-04-29 17:29:36:988
0.42,-1.51,7.72,0.5,-0.2,-2.11,0.01,0.0,0.09,6559,2019-04-29 17:29:36:992
0.42,-1.51,7.72,0.5,-0.2,-2.11,0.01,0.0,0.09,6562,2019-04-29 17:29:36:995
0.42,-1.51,7.72,0.5,-0.2,-2.11,0.01,0.0,0.09,6567,2019-04-29 17:29:37:000
0.42,-1.51,7.72,0.5,-0.2,-2.11,0.01,0.0,0.09,6573,2019-04-29 17:29:37:006
0.71,-1.86,11.11,0.88,-0.37,1.05,0.05,-0.07,0.06,6578,2019-04-29 17:29:37:011
0.71,-1.86,11.11,0.88,-0.37,1.05,0.05,-0.07,0.06,6587,2019-04-29 17:29:37:020
0.71,-1.86,11.11,0.88,-0.37,1.05,0.05,-0.07,0.06,6588,2019-04-29 17:29:37:021
0.71,-1.86,11.11,0.88,-0.37,1.05,0.05,-0.07,0.06,6593,2019-04-29 17:29:37:026
-0.43,-0.6,11.0,-0.22,0.66,0.74,0.07,0.0,0.12,6597,2019-04-29 17:29:37:030
-0.43,-0.6,11.0,-0.22,0.66,0.74,0.07,0.0,0.12,6603,2019-04-29 17:29:37:036
-0.43,-0.6,11.0,-0.22,0.66,0.74,0.07,0.0,0.12,6609,2019-04-29 17:29:37:042
-0.43,-0.6,11.0,-0.22,0.66,0.74,0.07,0.0,0.12,6613,2019-04-29 17:29:37:046
-0.43,-0.6,11.0,-0.22,0.66,0.74,0.07,0.0,0.12,6618,2019-04-29 17:29:37:051
-1.09,-1.66,8.88,-0.96,-0.27,-1.22,0.04,-0.11,0.15,6626,2019-04-29 17:29:37:059
-1.09,-1.66,8.88,-0.96,-0.27,-1.22,0.04,-0.11,0.15,6628,2019-04-29 17:29:37:061
-1.09,-1.66,8.88,-0.96,-0.27,-1.22,0.04,-0.11,0.15,6633,2019-04-29 17:29:37:066
-1.09,-1.66,8.88,-0.96,-0.27,-1.22,0.04,-0.11,0.15,6637,2019-04-29 17:29:37:070
0.98,-4.49,10.56,1.02,-2.79,0.49,0.08,-0.13,0.16,6643,2019-04-29 17:29:37:076
0.98,-4.49,10.56,1.02,-2.79,0.49,0.08,-0.13,0.16,6648,2019-04-29 17:29:37:081
0.98,-4.49,10.56,1.02,-2.79,0.49,0.08,-0.13,0.16,6653,2019-04-29 17:29:37:086
1.45,-1.39,8.83,1.44,0.31,-1.0,0.2,0.0,0.2,6658,2019-04-29 17:29:37:091
1.45,-1.39,8.83,1.44,0.31,-1.0,0.2,0.0,0.2,6662,2019-04-29 17:29:37:095
1.45,-1.39,8.83,1.44,0.31,-1.0,0.2,0.0,0.2,6668,2019-04-29 17:29:37:101
1.45,-1.39,8.83,1.44,0.31,-1.0,0.2,0.0,0.2,6673,2019-04-29 17:29:37:106
1.45,-1.39,8.83,1.44,0.31,-1.0,0.2,0.0,0.2,6678,2019-04-29 17:29:37:111
1.45,-1.39,8.83,1.44,0.31,-1.0,0.2,0.0,0.2,6683,2019-04-29 17:29:37:116
1.45,-1.39,8.83,1.44,0.31,-1.0,0.2,0.0,0.2,6687,2019-04-29 17:29:37:120
1.49,0.28,8.27,1.38,2.08,-1.36,0.15,-0.12,0.16,6693,2019-04-29 17:29:37:126
1.49,0.28,8.27,1.38,2.08,-1.36,0.15,-0.12,0.16,6698,2019-04-29 17:29:37:131
1.49,0.28,8.27,1.38,2.08,-1.36,0.15,-0.12,0.16,6703,2019-04-29 17:29:37:136
1.05,1.3,16.83,0.97,2.86,6.79,0.05,-0.1,0.08,6708,2019-04-29 17:29:37:141
1.05,1.3,16.83,0.97,2.86,6.79,0.05,-0.1,0.08,6715,2019-04-29 17:29:37:148
1.05,1.3,16.83,0.97,2.86,6.79,0.15,0.05,0.17,6717,2019-04-29 17:29:37:150
0.77,-1.9,9.71,0.61,-0.43,-0.25,0.15,0.05,0.17,6723,2019-04-29 17:29:37:156
0.77,-1.9,9.71,0.61,-0.43,-0.25,0.15,0.05,0.17,6729,2019-04-29 17:29:37:162
0.77,-1.9,9.71,0.61,-0.43,-0.25,0.15,0.05,0.17,6733,2019-04-29 17:29:37:166
0.77,-1.9,9.71,0.61,-0.43,-0.25,0.15,0.05,0.17,6739,2019-04-29 17:29:37:172
0.58,-1.93,7.24,0.4,-0.47,-2.55,0.11,-0.09,0.11,6743,2019-04-29 17:29:37:176
0.58,-1.93,7.24,0.4,-0.47,-2.55,0.11,-0.09,0.11,6748,2019-04-29 17:29:37:181
0.58,-1.93,7.24,0.4,-0.47,-2.55,0.11,-0.09,0.11,6753,2019-04-29 17:29:37:186
0.58,-1.93,7.24,0.4,-0.47,-2.55,0.11,-0.09,0.11,6758,2019-04-29 17:29:37:191
-4.95,-1.04,9.23,-4.98,0.15,-0.67,0.15,-0.06,0.13,6763,2019-04-29 17:29:37:196
-4.95,-1.04,9.23,-4.98,0.15,-0.67,0.15,-0.06,0.13,6769,2019-04-29 17:29:37:202
-4.95,-1.04,9.23,-4.98,0.15,-0.67,0.15,-0.06,0.13,6773,2019-04-29 17:29:37:206
-3.13,0.54,12.4,-3.19,1.44,2.54,0.05,-0.01,0.24,6778,2019-04-29 17:29:37:211
-3.13,0.54,12.4,-3.19,1.44,2.54,0.05,-0.01,0.24,6782,2019-04-29 17:29:37:215
-3.13,0.54,12.4,-3.19,1.44,2.54,0.05,-0.01,0.24,6788,2019-04-29 17:29:37:221
-3.13,0.54,12.4,-3.19,1.44,2.54,0.05,-0.01,0.24,6794,2019-04-29 17:29:37:227
-3.13,0.54,12.4,-3.19,1.44,2.54,0.05,-0.01,0.24,6798,2019-04-29 17:29:37:231
-3.13,0.54,12.4,-3.19,1.44,2.54,0.05,-0.01,0.24,6803,2019-04-29 17:29:37:236
-3.13,0.54,12.4,-3.19,1.44,2.54,0.05,-0.01,0.24,6808,2019-04-29 17:29:37:241
-1.13,-0.94,12.35,-1.37,-0.1,2.21,0.02,-0.09,0.21,6813,2019-04-29 17:29:37:246
-1.13,-0.94,12.35,-1.37,-0.1,2.21,0.02,-0.09,0.21,6818,2019-04-29 17:29:37:251
-1.13,-0.94,12.35,-1.37,-0.1,2.21,0.02,-0.09,0.21,6823,2019-04-29 17:29:37:256
-4.5,3.12,9.98,-1.37,-0.1,2.21,0.08,-0.04,0.14,6828,2019-04-29 17:29:37:261
-4.5,3.12,9.98,-4.7,3.39,-0.5,0.08,-0.04,0.14,6832,2019-04-29 17:29:37:265
-4.5,3.12,9.98,-4.7,3.39,-0.5,0.08,-0.04,0.14,6838,2019-04-29 17:29:37:271
-1.61,-0.91,11.98,-1.94,-0.82,1.39,-0.15,0.04,0.09,6846,2019-04-29 17:29:37:279
-1.61,-0.91,11.98,-1.94,-0.82,1.39,-0.15,0.04,0.09,6847,2019-04-29 17:29:37:280
-1.61,-0.91,11.98,-1.94,-0.82,1.39,-0.15,0.04,0.09,6853,2019-04-29 17:29:37:286
-1.61,-0.91,11.98,-1.94,-0.82,1.39,-0.15,0.04,0.09,6858,2019-04-29 17:29:37:291
2.88,-0.07,15.84,2.4,-0.28,4.78,0.12,0.07,0.0,6862,2019-04-29 17:29:37:295
2.88,-0.07,15.84,2.4,-0.28,4.78,0.12,0.07,0.0,6868,2019-04-29 17:29:37:301
3.89,4.49,8.48,2.4,-0.28,4.78,0.12,0.07,0.0,6873,2019-04-29 17:29:37:306
3.89,4.49,8.48,3.52,3.97,-2.51,-0.01,0.14,-0.07,6877,2019-04-29 17:29:37:310
3.89,4.49,8.48,3.52,3.97,-2.51,-0.01,0.14,-0.07,6883,2019-04-29 17:29:37:316
3.89,4.49,8.48,3.52,3.97,-2.51,-0.01,0.14,-0.07,6888,2019-04-29 17:29:37:321
3.89,4.49,8.48,3.52,3.97,-2.51,-0.01,0.14,-0.07,6892,2019-04-29 17:29:37:325
4.96,1.07,14.28,3.52,3.97,-2.51,-0.07,-0.04,-0.07,6897,2019-04-29 17:29:37:330
4.96,1.07,14.28,4.48,0.7,3.24,-0.07,-0.04,-0.07,6903,2019-04-29 17:29:37:336
4.96,1.07,14.28,4.48,0.7,3.24,-0.07,-0.04,-0.07,6907,2019-04-29 17:29:37:340
4.96,1.07,14.28,4.48,0.7,3.24,-0.07,-0.04,-0.07,6912,2019-04-29 17:29:37:345
4.96,1.07,14.28,4.48,0.7,3.24,-0.07,-0.04,-0.07,6918,2019-04-29 17:29:37:351
4.96,1.07,14.28,4.48,0.7,3.24,-0.07,-0.04,-0.07,6923,2019-04-29 17:29:37:356
4.31,-0.87,9.46,4.48,0.7,3.24,0.09,0.15,0.0,6927,2019-04-29 17:29:37:360
4.31,-0.87,9.46,3.95,-1.17,-1.38,0.09,0.15,0.0,6932,2019-04-29 17:29:37:365
4.31,-0.87,9.46,3.95,-1.17,-1.38,0.09,0.15,0.0,6937,2019-04-29 17:29:37:370
-1.46,0.61,7.9,-1.64,0.16,-2.87,0.21,0.06,0.04,6944,2019-04-29 17:29:37:377
-1.46,0.61,7.9,-1.64,0.16,-2.87,0.21,0.06,0.04,6948,2019-04-29 17:29:37:381
-4.7,1.33,5.44,-5.02,0.79,-5.33,0.02,-0.05,-0.01,6955,2019-04-29 17:29:37:388
-4.7,1.33,5.44,-5.02,0.79,-5.33,0.02,-0.05,-0.01,6958,2019-04-29 17:29:37:391
-4.7,1.33,5.44,-5.02,0.79,-5.33,0.02,-0.05,-0.01,6962,2019-04-29 17:29:37:395
-4.7,1.33,5.44,-5.02,0.79,-5.33,0.02,-0.05,-0.01,6967,2019-04-29 17:29:37:400
-4.7,1.33,5.44,-5.02,0.79,-5.33,0.02,-0.05,-0.01,6972,2019-04-29 17:29:37:405
-7.98,-2.21,18.93,-5.02,0.79,-5.33,-0.17,-0.18,-0.01,6977,2019-04-29 17:29:37:410
-7.98,-2.21,18.93,-8.17,-2.72,7.71,-0.17,-0.18,-0.01,6983,2019-04-29 17:29:37:416
-7.98,-2.21,18.93,-8.17,-2.72,7.71,-0.17,-0.18,-0.01,6987,2019-04-29 17:29:37:420
-7.98,-2.21,18.93,-8.17,-2.72,7.71,-0.17,-0.18,-0.01,6994,2019-04-29 17:29:37:427
-2.45,-0.61,8.91,-2.54,-1.22,-2.04,0.13,0.0,0.0,6997,2019-04-29 17:29:37:430
-2.45,-0.61,8.91,-2.54,-1.22,-2.04,0.13,0.0,0.0,7003,2019-04-29 17:29:37:436
-2.45,-0.61,8.91,-2.54,-1.22,-2.04,-0.03,-0.02,-0.02,7008,2019-04-29 17:29:37:441
-2.45,-0.61,8.91,-2.54,-1.22,-2.04,-0.03,-0.02,-0.02,7014,2019-04-29 17:29:37:447
-2.45,-0.61,8.91,-2.54,-1.22,-2.04,-0.03,-0.02,-0.02,7018,2019-04-29 17:29:37:451
-2.45,-0.61,8.91,-2.54,-1.22,-2.04,-0.03,-0.02,-0.02,7022,2019-04-29 17:29:37:455
1.24,-1.11,8.15,1.06,-1.21,-2.41,-0.12,0.0,-0.03,7028,2019-04-29 17:29:37:461
1.24,-1.11,8.15,1.06,-1.21,-2.41,-0.12,0.0,-0.03,7033,2019-04-29 17:29:37:466
1.24,-1.11,8.15,1.06,-1.21,-2.41,-0.12,0.0,-0.03,7038,2019-04-29 17:29:37:471
1.24,-1.11,8.15,1.06,-1.21,-2.41,-0.12,0.0,-0.03,7043,2019-04-29 17:29:37:476
4.0,-0.34,4.5,3.9,-0.33,-5.66,-0.03,0.07,-0.04,7049,2019-04-29 17:29:37:482
4.0,-0.34,4.5,3.9,-0.33,-5.66,-0.03,0.07,-0.04,7053,2019-04-29 17:29:37:486
4.0,-0.34,4.5,3.9,-0.33,-5.66,-0.03,0.07,-0.04,7059,2019-04-29 17:29:37:492
0.8,-3.03,11.26,0.88,-2.75,1.4,0.3,0.06,-0.1,7065,2019-04-29 17:29:37:498
0.8,-3.03,11.26,0.88,-2.75,1.4,0.3,0.06,-0.1,7067,2019-04-29 17:29:37:500
0.8,-3.03,11.26,0.88,-2.75,1.4,0.3,0.06,-0.1,7072,2019-04-29 17:29:37:505
0.8,-3.03,11.26,0.88,-2.75,1.4,0.3,0.06,-0.1,7078,2019-04-29 17:29:37:511
0.8,-3.03,11.26,0.88,-2.75,1.4,0.3,0.06,-0.1,7082,2019-04-29 17:29:37:515
0.8,-3.03,11.26,0.88,-2.75,1.4,0.3,0.06,-0.1,7087,2019-04-29 17:29:37:520
1.2,-0.25,7.17,1.28,0.09,-2.35,0.0,0.05,0.0,7093,2019-04-29 17:29:37:526
1.2,-0.25,7.17,1.28,0.09,-2.35,0.0,0.05,0.0,7098,2019-04-29 17:29:37:531
1.2,-0.25,7.17,1.28,0.09,-2.35,0.0,0.05,0.0,7103,2019-04-29 17:29:37:536
1.2,-0.25,7.17,1.28,0.09,-2.35,0.0,0.05,0.0,7108,2019-04-29 17:29:37:541
1.2,-0.25,7.17,1.28,0.09,-2.35,0.0,0.05,0.0,7113,2019-04-29 17:29:37:546
1.2,-0.25,7.17,1.28,0.09,-2.35,0.0,0.05,0.0,7118,2019-04-29 17:29:37:551
1.2,-0.25,7.17,1.28,0.09,-2.35,0.0,0.05,0.0,7123,2019-04-29 17:29:37:556
-4.12,-5.32,10.37,1.28,0.09,-2.35,0.0,0.05,0.0,7128,2019-04-29 17:29:37:561
-4.12,-5.32,10.37,-3.87,-4.12,1.64,-0.11,-0.15,-0.1,7133,2019-04-29 17:29:37:566
-4.12,-5.32,10.37,-3.87,-4.12,1.64,-0.11,-0.15,-0.1,7137,2019-04-29 17:29:37:570
0.62,-1.28,12.94,0.67,-0.15,3.86,-0.1,0.0,0.0,7142,2019-04-29 17:29:37:575
0.62,-1.28,12.94,0.67,-0.15,3.86,-0.1,0.0,0.0,7147,2019-04-29 17:29:37:580
0.62,-1.28,12.94,0.67,-0.15,3.86,-0.1,0.0,0.0,7153,2019-04-29 17:29:37:586
0.13,-2.11,4.82,0.08,-0.9,-3.98,0.05,0.04,0.15,7158,2019-04-29 17:29:37:591
0.13,-2.11,4.82,0.08,-0.9,-3.98,0.05,0.04,0.15,7163,2019-04-29 17:29:37:596
0.13,-2.11,4.82,0.08,-0.9,-3.98,0.05,0.04,0.15,7168,2019-04-29 17:29:37:601
0.13,-2.11,4.82,0.08,-0.9,-3.98,0.05,0.04,0.15,7173,2019-04-29 17:29:37:606
0.99,-1.53,6.49,0.61,-0.14,-1.59,0.06,0.0,0.12,7178,2019-04-29 17:29:37:611
0.99,-1.53,6.49,0.61,-0.14,-1.59,0.06,0.0,0.12,7183,2019-04-29 17:29:37:616
0.99,-1.53,6.49,0.61,-0.14,-1.59,0.06,0.0,0.12,7188,2019-04-29 17:29:37:621
0.99,-1.53,6.49,0.61,-0.14,-1.59,0.06,0.0,0.12,7193,2019-04-29 17:29:37:626
0.99,-1.53,6.49,0.61,-0.14,-1.59,0.06,0.0,0.12,7200,2019-04-29 17:29:37:633
0.99,-1.53,6.49,0.61,-0.14,-1.59,0.06,0.0,0.12,7203,2019-04-29 17:29:37:636
0.99,-1.53,6.49,0.61,-0.14,-1.59,0.06,0.0,0.12,7208,2019-04-29 17:29:37:641
0.68,0.35,10.22,0.23,1.84,2.11,-0.12,-0.04,0.0,7213,2019-04-29 17:29:37:646
0.68,0.35,10.22,0.23,1.84,2.11,-0.12,-0.04,0.0,7218,2019-04-29 17:29:37:651
0.68,0.35,10.22,0.23,1.84,2.11,-0.12,-0.04,0.0,7223,2019-04-29 17:29:37:656
0.04,0.64,7.66,-0.26,2.03,-0.2,-0.02,0.08,-0.06,7228,2019-04-29 17:29:37:661
0.04,0.64,7.66,-0.26,2.03,-0.2,-0.02,0.08,-0.06,7234,2019-04-29 17:29:37:667
0.04,0.64,7.66,-0.26,2.03,-0.2,-0.02,0.08,-0.06,7237,2019-04-29 17:29:37:670
-0.12,-0.77,10.07,-0.31,0.45,1.92,0.2,-0.04,-0.12,7244,2019-04-29 17:29:37:677
-0.12,-0.77,10.07,-0.31,0.45,1.92,0.2,-0.04,-0.12,7247,2019-04-29 17:29:37:680
-0.12,-0.77,10.07,-0.31,0.45,1.92,0.2,-0.04,-0.12,7255,2019-04-29 17:29:37:688
0.67,1.46,10.23,0.55,2.35,2.07,-0.05,0.03,-0.1,7259,2019-04-29 17:29:37:692
0.67,1.46,10.23,0.55,2.35,2.07,-0.05,0.03,-0.1,7263,2019-04-29 17:29:37:696
0.67,1.46,10.23,0.55,2.35,2.07,-0.05,0.03,-0.1,7268,2019-04-29 17:29:37:701
0.67,1.46,10.23,0.55,2.35,2.07,-0.05,0.03,-0.1,7272,2019-04-29 17:29:37:705
-1.72,0.17,7.57,-1.79,1.16,-1.11,-0.11,0.0,-0.07,7278,2019-04-29 17:29:37:711
-1.72,0.17,7.57,-1.79,1.16,-1.11,-0.11,0.0,-0.07,7283,2019-04-29 17:29:37:716
-1.72,0.17,7.57,-1.79,1.16,-1.11,-0.11,0.0,-0.07,7287,2019-04-29 17:29:37:720
-1.72,0.17,7.57,-1.79,1.16,-1.11,-0.11,0.0,-0.07,7294,2019-04-29 17:29:37:727
-0.16,-4.39,11.65,-0.39,-3.58,2.5,0.16,-0.02,-0.06,7298,2019-04-29 17:29:37:731
-0.16,-4.39,11.65,-0.39,-3.58,2.5,0.16,-0.02,-0.06,7304,2019-04-29 17:29:37:737
-0.16,-4.39,11.65,-0.39,-3.58,2.5,0.16,-0.02,-0.06,7314,2019-04-29 17:29:37:747
-0.16,-4.39,11.65,-0.39,-3.58,2.5,0.16,-0.02,-0.06,7315,2019-04-29 17:29:37:748
-0.16,-4.39,11.65,-0.39,-3.58,2.5,0.16,-0.02,-0.06,7317,2019-04-29 17:29:37:750
-0.16,-4.39,11.65,-0.39,-3.58,2.5,0.16,-0.02,-0.06,7322,2019-04-29 17:29:37:755
-2.05,-0.63,7.46,-2.36,-0.35,-1.49,0.01,0.01,-0.04,7328,2019-04-29 17:29:37:761
-2.05,-0.63,7.46,-2.36,-0.35,-1.49,0.01,0.01,-0.04,7332,2019-04-29 17:29:37:765
-0.46,0.52,5.32,-0.69,0.83,-3.51,-0.21,0.07,0.0,7339,2019-04-29 17:29:37:772
-0.46,0.52,5.32,-0.69,0.83,-3.51,-0.21,0.07,0.0,7342,2019-04-29 17:29:37:775
-0.46,0.52,5.32,-0.69,0.83,-3.51,-0.21,0.07,0.0,7347,2019-04-29 17:29:37:780
-0.46,0.52,5.32,-0.69,0.83,-3.51,-0.21,0.07,0.0,7354,2019-04-29 17:29:37:787
3.63,-2.5,9.52,3.36,-1.92,0.66,-0.26,0.12,-0.01,7358,2019-04-29 17:29:37:791
3.63,-2.5,9.52,3.36,-1.92,0.66,-0.26,0.12,-0.01,7364,2019-04-29 17:29:37:797
3.63,-2.5,9.52,3.36,-1.92,0.66,-0.26,0.12,-0.01,7368,2019-04-29 17:29:37:801
3.63,-2.5,9.52,3.36,-1.92,0.66,-0.26,0.12,-0.01,7373,2019-04-29 17:29:37:806
-8.11,3.18,13.49,-7.95,3.58,4.15,0.08,-0.1,-0.13,7378,2019-04-29 17:29:37:811
-8.11,3.18,13.49,-7.95,3.58,4.15,0.08,-0.1,-0.13,7383,2019-04-29 17:29:37:816
-8.11,3.18,13.49,-7.95,3.58,4.15,0.08,-0.1,-0.13,7388,2019-04-29 17:29:37:821
-8.11,3.18,13.49,-7.95,3.58,4.15,0.08,-0.1,-0.13,7394,2019-04-29 17:29:37:827
-5.51,3.14,4.17,-5.17,3.59,-5.01,-0.03,-0.02,-0.07,7398,2019-04-29 17:29:37:831
-5.51,3.14,4.17,-5.17,3.59,-5.01,-0.03,-0.02,-0.07,7402,2019-04-29 17:29:37:835
-5.51,3.14,4.17,-5.17,3.59,-5.01,-0.03,-0.02,-0.07,7410,2019-04-29 17:29:37:843
-5.51,3.14,4.17,-5.17,3.59,-5.01,-0.03,-0.02,-0.07,7414,2019-04-29 17:29:37:847
-5.51,3.14,4.17,-5.17,3.59,-5.01,-0.03,-0.02,-0.07,7417,2019-04-29 17:29:37:850
-5.51,3.14,4.17,-5.17,3.59,-5.01,-0.03,-0.02,-0.07,7422,2019-04-29 17:29:37:855
3.17,0.13,25.9,-5.17,3.59,-5.01,0.0,-0.16,-0.09,7428,2019-04-29 17:29:37:861
3.17,0.13,25.9,3.21,0.28,15.63,0.0,-0.16,-0.09,7433,2019-04-29 17:29:37:866
3.17,0.13,25.9,3.21,0.28,15.63,0.0,-0.16,-0.09,7438,2019-04-29 17:29:37:871
3.95,0.67,8.46,4.04,0.49,-1.33,0.0,0.34,0.11,7443,2019-04-29 17:29:37:876
3.95,0.67,8.46,4.04,0.49,-1.33,0.0,0.34,0.11,7448,2019-04-29 17:29:37:881
3.95,0.67,8.46,4.04,0.49,-1.33,0.0,0.34,0.11,7453,2019-04-29 17:29:37:886
3.95,0.67,8.46,4.04,3.2,-4.34,-0.22,0.02,0.04,7457,2019-04-29 17:29:37:890
4.15,3.12,5.48,4.04,3.2,-4.34,-0.22,0.02,0.04,7464,2019-04-29 17:29:37:897
4.15,3.12,5.48,4.04,3.2,-4.34,-0.22,0.02,0.04,7467,2019-04-29 17:29:37:900
4.15,3.12,5.48,4.04,3.2,-4.34,-0.22,0.02,0.04,7473,2019-04-29 17:29:37:906
1.4,0.68,17.49,1.27,0.72,7.19,0.08,-0.17,-0.15,7479,2019-04-29 17:29:37:912
1.4,0.68,17.49,1.27,0.72,7.19,0.08,-0.17,-0.15,7487,2019-04-29 17:29:37:920
1.4,0.68,17.49,1.27,0.72,7.19,0.08,-0.17,-0.15,7489,2019-04-29 17:29:37:922
1.4,0.68,17.49,1.27,0.72,7.19,0.08,-0.17,-0.15,7492,2019-04-29 17:29:37:925
2.45,-0.83,14.43,1.27,0.72,7.19,0.09,0.12,0.02,7498,2019-04-29 17:29:37:931
2.45,-0.83,14.43,2.64,-1.23,3.92,0.09,0.12,0.02,7502,2019-04-29 17:29:37:935
2.45,-0.83,14.43,2.64,-1.23,3.92,0.09,0.12,0.02,7507,2019-04-29 17:29:37:940
2.45,-0.83,14.43,2.64,-1.23,3.92,0.09,0.12,0.02,7513,2019-04-29 17:29:37:946
2.45,-0.83,14.43,2.64,-1.23,3.92,0.09,0.12,0.02,7518,2019-04-29 17:29:37:951
2.45,-0.83,14.43,2.64,-1.23,3.92,0.09,0.12,0.02,7523,2019-04-29 17:29:37:956
2.62,2.41,7.66,2.74,1.89,-3.24,-0.1,0.01,0.11,7527,2019-04-29 17:29:37:960
2.62,2.41,7.66,2.74,1.89,-3.24,-0.1,0.01,0.11,7533,2019-04-29 17:29:37:966
2.62,2.41,7.66,2.74,1.89,-3.24,-0.1,0.01,0.11,7538,2019-04-29 17:29:37:971
-0.77,1.25,5.32,-0.58,0.92,-5.45,0.06,0.01,-0.06,7543,2019-04-29 17:29:37:976
-0.77,1.25,5.32,-0.58,0.92,-5.45,0.06,0.01,-0.06,7547,2019-04-29 17:29:37:980
-0.77,1.25,5.32,-0.58,0.92,-5.45,0.06,0.01,-0.06,7553,2019-04-29 17:29:37:986
-0.77,1.25,5.32,-0.58,0.92,-5.45,0.06,0.01,-0.06,7558,2019-04-29 17:29:37:991
-2.32,-3.83,13.13,-1.93,-4.25,2.0,-0.09,-0.14,-0.03,7563,2019-04-29 17:29:37:996
-2.32,-3.83,13.13,-1.93,-4.25,2.0,-0.09,-0.14,-0.03,7568,2019-04-29 17:29:38:001
-2.32,-3.83,13.13,-1.93,-4.25,2.0,-0.09,-0.14,-0.03,7573,2019-04-29 17:29:38:006
-3.12,-1.37,10.17,-2.99,-1.71,-0.71,-0.06,0.06,0.09,7578,2019-04-29 17:29:38:011
-3.12,-1.37,10.17,-2.99,-1.71,-0.71,-0.06,0.06,0.09,7583,2019-04-29 17:29:38:016
-3.12,-1.37,10.17,-2.99,-1.71,-0.71,-0.06,0.06,0.09,7588,2019-04-29 17:29:38:021
-3.12,-1.37,10.17,-2.99,-1.71,-0.71,-0.06,0.06,0.09,7594,2019-04-29 17:29:38:027
-1.81,-2.64,5.97,-1.88,-2.8,-4.89,0.03,0.0,0.08,7598,2019-04-29 17:29:38:031
-1.81,-2.64,5.97,-1.88,-2.8,-4.89,0.03,0.0,0.08,7603,2019-04-29 17:29:38:036
-1.81,-2.64,5.97,-1.88,-2.8,-4.89,0.03,0.0,0.08,7608,2019-04-29 17:29:38:041
0.16,-0.88,6.6,0.14,-0.73,-4.09,-0.06,0.04,0.01,7612,2019-04-29 17:29:38:045
0.16,-0.88,6.6,0.14,-0.73,-4.09,-0.06,0.04,0.01,7618,2019-04-29 17:29:38:051
0.16,-0.88,6.6,0.14,-0.73,-4.09,-0.06,0.04,0.01,7623,2019-04-29 17:29:38:056
0.5,-2.62,13.28,0.14,-0.73,-4.09,0.06,0.0,0.0,7627,2019-04-29 17:29:38:060
0.5,-2.62,13.28,0.6,-2.33,3.21,0.06,0.0,0.0,7632,2019-04-29 17:29:38:065
0.5,-2.62,13.28,0.6,-2.33,3.21,0.06,0.0,0.0,7638,2019-04-29 17:29:38:071
-2.61,1.37,6.62,-2.47,1.97,-3.82,-0.21,0.0,0.03,7644,2019-04-29 17:29:38:077
-2.61,1.37,6.62,-2.47,1.97,-3.82,-0.21,0.0,0.03,7649,2019-04-29 17:29:38:082
-2.61,1.37,6.62,-2.47,1.97,-3.82,-0.21,0.0,0.03,7653,2019-04-29 17:29:38:086
-2.61,1.37,6.62,-2.47,1.97,-3.82,-0.21,0.0,0.03,7657,2019-04-29 17:29:38:090
-3.05,-3.2,10.65,-2.75,-2.51,0.01,-0.03,-0.08,0.09,7663,2019-04-29 17:29:38:096
-3.05,-3.2,10.65,-2.75,-2.51,0.01,-0.03,-0.08,0.09,7667,2019-04-29 17:29:38:100
-3.05,-3.2,10.65,-2.75,-2.51,0.01,-0.03,-0.08,0.09,7672,2019-04-29 17:29:38:105
4.7,1.25,14.82,4.83,1.73,4.57,0.03,0.09,0.05,7677,2019-04-29 17:29:38:110
4.7,1.25,14.82,4.83,1.73,4.57,0.03,0.09,0.05,7682,2019-04-29 17:29:38:115
4.7,1.25,14.82,4.83,1.73,4.57,0.03,0.09,0.05,7687,2019-04-29 17:29:38:120
4.7,1.25,14.82,4.83,1.73,4.57,0.03,0.09,0.05,7692,2019-04-29 17:29:38:125
4.7,1.25,14.82,4.83,1.73,4.57,0.03,0.09,0.05,7697,2019-04-29 17:29:38:130
4.7,1.25,14.82,4.83,1.73,4.57,0.03,0.09,0.05,7702,2019-04-29 17:29:38:135
4.7,1.25,14.82,4.83,1.73,4.57,0.03,0.09,0.05,7707,2019-04-29 17:29:38:140
3.4,-0.01,6.08,3.21,0.81,-3.95,0.09,0.02,0.01,7712,2019-04-29 17:29:38:145
3.4,-0.01,6.08,3.21,0.81,-3.95,0.09,0.02,0.01,7718,2019-04-29 17:29:38:151
3.4,-0.01,6.08,3.21,0.81,-3.95,0.09,0.02,0.01,7723,2019-04-29 17:29:38:156
3.4,-0.01,6.08,3.21,0.81,-3.95,0.09,0.02,0.01,7728,2019-04-29 17:29:38:161
3.3,-1.19,12.2,3.09,-0.07,2.07,-0.04,0.02,0.04,7733,2019-04-29 17:29:38:166
3.3,-1.19,12.2,3.09,-0.07,2.07,-0.04,0.02,0.04,7738,2019-04-29 17:29:38:171
3.3,-1.19,12.2,3.09,-0.07,2.07,-0.04,0.02,0.04,7742,2019-04-29 17:29:38:175
-0.53,0.0,11.19,-0.71,0.9,0.95,0.14,-0.02,0.06,7747,2019-04-29 17:29:38:180
-0.53,0.0,11.19,-0.71,0.9,0.95,0.14,-0.02,0.06,7752,2019-04-29 17:29:38:185
-0.53,0.0,11.19,-0.71,0.9,0.95,0.14,-0.02,0.06,7757,2019-04-29 17:29:38:190
-0.53,0.0,11.19,-0.71,0.9,0.95,0.14,-0.02,0.06,7762,2019-04-29 17:29:38:195
-0.53,0.0,11.19,-0.71,0.9,0.95,0.14,-0.02,0.06,7767,2019-04-29 17:29:38:200
-0.53,0.0,11.19,-0.71,0.9,0.95,0.14,-0.02,0.06,7773,2019-04-29 17:29:38:206
-1.97,-3.65,5.63,-2.1,-2.46,-4.09,0.12,0.01,0.09,7777,2019-04-29 17:29:38:210
-1.97,-3.65,5.63,-2.1,-2.46,-4.09,0.12,0.01,0.09,7782,2019-04-29 17:29:38:215
-1.97,-3.65,5.63,-2.1,-2.46,-4.09,0.12,0.01,0.09,7788,2019-04-29 17:29:38:221
-1.03,-1.11,6.18,-1.35,0.12,-3.4,0.07,-0.03,0.08,7792,2019-04-29 17:29:38:225
-1.03,-1.11,6.18,-1.35,0.12,-3.4,0.07,-0.03,0.08,7798,2019-04-29 17:29:38:231
-1.03,-1.11,6.18,-1.35,0.12,-3.4,0.07,-0.03,0.08,7803,2019-04-29 17:29:38:236
-1.03,-1.11,6.18,-1.35,0.12,-3.4,0.07,-0.03,0.08,7807,2019-04-29 17:29:38:240
-1.03,-1.11,6.18,-1.35,0.12,-3.4,0.07,-0.03,0.08,7812,2019-04-29 17:29:38:245
-0.02,-3.73,4.42,-1.35,0.12,-3.4,0.2,0.07,0.0,7818,2019-04-29 17:29:38:251
-0.02,-3.73,4.42,-0.35,-1.83,-3.75,0.2,0.07,0.0,7822,2019-04-29 17:29:38:255
-0.02,-3.73,4.42,-0.35,-1.83,-3.75,0.2,0.07,0.0,7827,2019-04-29 17:29:38:260
-0.02,-3.73,4.42,-0.35,-1.83,-3.75,0.2,0.07,0.0,7834,2019-04-29 17:29:38:267
-0.02,-3.73,4.42,-0.35,-1.83,-3.75,0.2,0.07,0.0,7837,2019-04-29 17:29:38:270
-0.02,-3.73,4.42,-0.35,-1.83,-3.75,0.2,0.07,0.0,7843,2019-04-29 17:29:38:276
0.77,2.41,16.16,0.4,4.3,7.84,-0.01,0.05,-0.07,7848,2019-04-29 17:29:38:281
0.77,2.41,16.16,0.4,4.3,7.84,-0.01,0.05,-0.07,7854,2019-04-29 17:29:38:287
3.34,-3.52,6.2,0.4,4.3,7.84,-0.18,0.03,0.02,7858,2019-04-29 17:29:38:291
3.34,-3.52,6.2,0.4,4.3,7.84,-0.18,0.03,0.02,7864,2019-04-29 17:29:38:297
3.34,-3.52,6.2,0.4,4.3,7.84,-0.18,0.03,0.02,7868,2019-04-29 17:29:38:301
3.34,-3.52,6.2,0.4,4.3,7.84,-0.18,0.03,0.02,7873,2019-04-29 17:29:38:306
-1.56,-3.2,6.12,-1.82,-0.7,-1.41,-0.01,0.17,0.14,7879,2019-04-29 17:29:38:312
-1.56,-3.2,6.12,-1.82,-0.7,-1.41,-0.01,0.17,0.14,7883,2019-04-29 17:29:38:316
-1.56,-3.2,6.12,-1.82,-0.7,-1.41,-0.01,0.17,0.14,7888,2019-04-29 17:29:38:321
-1.56,-3.2,6.12,-1.82,-0.7,-1.41,-0.01,0.17,0.14,7893,2019-04-29 17:29:38:326
-0.82,-2.68,11.89,-1.02,-0.26,4.45,0.16,-0.11,0.12,7898,2019-04-29 17:29:38:331
-0.82,-2.68,11.89,-1.02,-0.26,4.45,0.16,-0.11,0.12,7904,2019-04-29 17:29:38:337
-0.82,-2.68,11.89,0.0,2.29,2.75,0.16,-0.11,0.12,7907,2019-04-29 17:29:38:340
-0.82,-2.68,11.89,0.0,2.29,2.75,0.16,-0.11,0.12,7912,2019-04-29 17:29:38:345
-0.82,-2.68,11.89,0.0,2.29,2.75,0.16,-0.11,0.12,7917,2019-04-29 17:29:38:350
-0.82,-2.68,11.89,0.0,2.29,2.75,0.16,-0.11,0.12,7923,2019-04-29 17:29:38:356
-4.3,-0.65,6.75,-4.26,1.6,-0.38,-0.04,-0.04,0.11,7927,2019-04-29 17:29:38:360
-4.3,-0.65,6.75,-4.26,1.6,-0.38,-0.04,-0.04,0.11,7933,2019-04-29 17:29:38:366
-4.3,-0.65,6.75,-4.26,1.6,-0.38,-0.04,-0.04,0.11,7938,2019-04-29 17:29:38:371
-4.3,-0.65,6.75,-4.26,1.6,-0.38,-0.04,-0.04,0.11,7943,2019-04-29 17:29:38:376
-3.62,6.58,16.04,-4.26,1.6,-0.38,-0.06,-0.07,0.17,7948,2019-04-29 17:29:38:381
-3.62,6.58,16.04,-3.72,8.4,8.13,-0.06,-0.07,0.17,7953,2019-04-29 17:29:38:386
-3.62,6.58,16.04,-3.72,8.4,8.13,-0.06,-0.07,0.17,7958,2019-04-29 17:29:38:391
-3.62,6.58,16.04,-3.72,8.4,8.13,-0.06,-0.07,0.17,7963,2019-04-29 17:29:38:396
-3.62,6.58,16.04,-3.72,8.4,8.13,-0.06,-0.07,0.17,7967,2019-04-29 17:29:38:400
-3.62,6.58,16.04,-3.72,8.4,8.13,-0.06,-0.07,0.17,7973,2019-04-29 17:29:38:406
1.74,-1.02,13.8,1.34,0.41,5.3,0.03,0.03,0.14,7977,2019-04-29 17:29:38:410
1.74,-1.02,13.8,1.34,0.41,5.3,0.03,0.03,0.14,7983,2019-04-29 17:29:38:416
1.74,-1.02,13.8,1.34,0.41,5.3,0.03,0.03,0.14,7988,2019-04-29 17:29:38:421
1.74,-1.02,13.8,1.34,0.41,5.3,0.03,0.03,0.14,7992,2019-04-29 17:29:38:425
